"Time (s)","Acceleration x (m/s^2)","Acceleration y (m/s^2)","Acceleration z (m/s^2)"
0.000000000E0,5.427176133E-2,2.349133253E0,1.045234776E1
2.000000000E-2,7.960242033E-2,2.763454676E0,1.043909264E1
4.000000000E-2,-1.915169805E-1,2.726143360E0,1.085373020E1
6.000000000E-2,-9.858173132E-1,4.037016392E0,1.144688034E1
8.000000000E-2,-1.156878248E-1,3.388197422E0,1.059397888E1
1.000000000E-1,4.292899370E-1,2.373927593E0,1.038440895E1
1.200062500E-1,1.063715100E0,1.556116223E0,1.043121052E1
1.420000000E-1,1.425507665E0,1.090980172E0,1.000422001E1
1.620000000E-1,1.037177682E0,1.042473793E0,9.929837227E0
1.820000000E-1,2.063993365E-1,1.030205846E0,1.063105106E1
2.020078130E-1,-7.093349099E-1,8.357008696E-1,1.131362820E1
2.240000000E-1,-1.116052389E0,5.808333158E-1,1.093521976E1
2.440062500E-1,-1.093824625E0,5.409650803E-1,1.080601883E1
2.659984380E-1,-7.094306350E-1,5.568817258E-1,1.071665764E1
2.860031250E-1,-1.534874886E-1,7.976330519E-1,9.792964935E0
3.080000000E-1,2.287515998E-1,1.216848254E0,8.851325035E0
3.280000000E-1,6.510600448E-1,1.463268995E0,8.119063377E0
3.499984380E-1,8.064820766E-1,1.838842630E0,7.473385811E0
3.699984380E-1,5.920669436E-1,2.171320438E0,7.252467632E0
3.900000000E-1,2.075772882E-1,2.105556726E0,7.835523129E0
4.120000000E-1,2.572904825E-1,1.662265539E0,8.919196129E0
4.340109380E-1,6.169474721E-1,1.513844132E0,9.470083237E0
4.559984380E-1,5.617084503E-1,1.616737485E0,9.471175194E0
4.760015630E-1,5.134509206E-1,1.808666110E0,9.492023468E0
4.980000000E-1,8.038963079E-1,1.943172336E0,9.672776222E0
5.180031250E-1,9.371097088E-1,2.075753689E0,9.541602135E0
5.399984380E-1,9.161939621E-1,2.307981730E0,9.322140694E0
5.599984380E-1,1.081671596E0,2.356449842E0,9.171622276E0
5.799984380E-1,1.153172016E0,2.277354956E0,9.491151810E0
5.999984380E-1,1.011598110E0,2.255472183E0,1.040527725E1
6.199984380E-1,8.651496172E-1,2.278887510E0,1.079898930E1
6.399984380E-1,8.167388439E-1,2.351747751E0,1.085447788E1
6.599984380E-1,9.926360250E-1,2.455397367E0,1.077172470E1
6.799984380E-1,8.806065917E-1,2.506566525E0,1.034449291E1
6.999984380E-1,6.189873219E-1,2.450092077E0,1.040291214E1
7.199984380E-1,2.336357683E-1,2.179882288E0,1.145169640E1
7.399984380E-1,-5.915593728E-2,1.843745947E0,1.221288967E1
7.599984380E-1,-1.223245561E-1,1.650696754E0,1.210631943E1
7.799984380E-1,-2.070697248E-1,1.305797577E0,1.204140759E1
8.000000000E-1,-4.155376554E-2,9.113576412E-1,1.188992214E1
8.219984380E-1,1.856368184E-1,6.594972610E-1,1.078079319E1
8.420000000E-1,2.330228537E-1,5.279885530E-1,9.160732269E0
8.620000000E-1,-6.110002846E-2,7.831529379E-1,7.583767891E0
8.820000000E-1,-5.436561704E-1,8.884978294E-1,6.914415836E0
9.020000000E-1,-9.499713778E-1,6.174646020E-1,7.145504475E0
9.220000000E-1,-1.366073966E0,5.867517591E-1,8.115490913E0
9.420000000E-1,-1.557303667E0,5.763897300E-1,9.483471870E0
9.620000000E-1,-1.203507662E0,3.345178664E-1,1.048960018E1
9.820000000E-1,-6.450650096E-1,1.310873330E-1,1.005694962E1
1.002000000E0,-3.254103065E-1,4.518433213E-1,8.684526443E0
1.022000000E0,-2.530958652E-1,1.074881554E0,7.367916584E0
1.043998438E0,-3.731698692E-1,1.661422729E0,6.468395710E0
1.063998438E0,-4.606922865E-1,1.942990422E0,6.274590015E0
1.083998438E0,-4.214848280E-1,2.075629234E0,6.552374363E0
1.103998438E0,-3.842406273E-1,2.099360704E0,7.014867306E0
1.123998438E0,-2.909721136E-1,1.865782261E0,7.467802048E0
1.143998438E0,-1.253316700E-1,1.735489726E0,7.947312832E0
1.163998438E0,-1.228129715E-1,1.741159320E0,8.417515755E0
1.183998438E0,-3.016023934E-1,1.656385422E0,9.445652008E0
1.203998438E0,-5.528498888E-1,1.652171493E0,1.047278404E1
1.223998438E0,-6.521709561E-1,1.660838604E0,1.101882553E1
1.243998438E0,-6.137679219E-1,1.734340549E0,1.118699360E1
1.263998438E0,-4.408108592E-1,1.733488321E0,1.147095490E1
1.283998438E0,-6.530233026E-1,1.554181695E0,1.115319729E1
1.303998438E0,-3.017240047E0,1.651261687E0,1.080815411E1
1.324000000E0,-5.696284771E0,3.626746416E0,1.359110737E1
1.345998438E0,-4.680329323E0,4.067853928E0,1.532448006E1
1.366000000E0,-2.863522768E0,3.062969208E0,1.331135941E1
1.387998438E0,-1.101773262E0,2.648245573E0,1.122212124E1
1.407998438E0,4.051659405E-1,1.709258914E0,1.105978489E1
1.427998438E0,1.660886526E0,7.183754444E-1,1.133371925E1
1.448000000E0,3.385075569E0,3.305913508E-2,1.095226574E1
1.469998438E0,5.440727711E0,-6.731441617E-1,9.653573990E0
1.489998438E0,6.033235073E0,-1.012881398E0,7.813812733E0
1.510000000E0,5.713839054E0,-6.393955350E-1,6.145867825E0
1.530000000E0,5.807969093E0,-3.638516366E-1,5.570675373E0
1.552000000E0,5.729870796E0,-5.937907696E-1,7.016198635E0
1.572000000E0,4.564181805E0,-6.277692914E-1,9.105062485E0
1.592003125E0,3.215000868E0,-7.691899538E-1,1.182737637E1
1.614000000E0,2.027611017E0,-4.731900394E-1,1.323216915E1
1.635998438E0,1.216666222E0,1.276588347E-2,1.230342007E1
1.656000000E0,8.533987999E-1,1.009615779E0,1.021204567E1
1.677998438E0,8.117492795E-1,1.926451325E0,7.728530884E0
1.697998438E0,5.995463729E-1,2.568748474E0,6.560715675E0
1.717998438E0,3.929459453E-1,3.005001068E0,6.259113789E0
1.737998438E0,3.456557095E-1,2.893105507E0,6.385824203E0
1.757998438E0,6.558293104E-1,2.701837301E0,6.104601383E0
1.777998438E0,1.051849365E0,3.014501095E0,6.033340454E0
1.797998438E0,1.354409456E0,2.984046936E0,6.473567009E0
1.817998438E0,1.780749798E0,2.891563416E0,7.022414207E0
1.838012500E0,2.073005199E0,2.777637959E0,7.063402176E0
1.859998438E0,1.946696639E0,2.348539591E0,8.125068665E0
1.879998438E0,9.931244254E-1,1.763664842E0,1.158922005E1
1.899998438E0,2.983654141E-1,1.620185018E0,1.400809097E1
1.919998438E0,-5.560293794E-2,2.178857565E0,1.435043335E1
1.939998438E0,-3.405608237E-1,2.334796906E0,1.404862976E1
1.959998438E0,-3.759375513E-1,1.774141669E0,1.351292229E1
1.979998438E0,-4.130955637E-1,1.029123664E0,1.362349606E1
1.999998438E0,-5.029068589E-1,6.878829002E-1,1.377060509E1
2.019998438E0,-3.028473556E-1,3.899484277E-1,1.229821968E1
2.039998438E0,-2.473689318E-1,3.957136571E-1,1.021419144E1
2.060000000E0,-6.226839423E-1,7.435049415E-1,8.746918678E0
2.081998438E0,-1.060162067E0,1.214329481E0,8.147631645E0
2.101998438E0,-1.217355847E0,1.262855172E0,8.405601501E0
2.121998438E0,-1.010650039E0,1.242054343E0,8.203588486E0
2.141998438E0,-7.317637801E-1,1.292744398E0,7.783521175E0
2.161998438E0,-5.795978904E-1,1.340015531E0,7.561118603E0
2.181998438E0,-4.897770286E-1,1.352053642E0,7.628721714E0
2.201998438E0,-5.185553432E-1,1.527318716E0,7.627639294E0
2.221998438E0,-6.265242696E-1,1.764507413E0,7.596572399E0
2.242000000E0,-6.738623977E-1,2.009329081E0,7.965920925E0
2.262000000E0,-6.149171591E-1,2.242457390E0,8.227568626E0
2.282000000E0,-3.738881350E-1,2.525815725E0,7.970862389E0
2.303998438E0,-2.300349064E-2,2.781142950E0,7.307937145E0
2.323998438E0,2.465644628E-1,3.122862577E0,7.166688442E0
2.343998438E0,3.329089582E-1,3.375106096E0,7.524957180E0
2.363998438E0,1.211561784E-1,3.473392725E0,8.553792953E0
2.383998438E0,-3.017651662E-2,3.499537706E0,9.980153084E0
2.403998438E0,-2.844311763E-3,3.252973080E0,1.144380569E1
2.423998438E0,7.648037374E-2,2.739225388E0,1.255167007E1
2.443998438E0,4.139574766E-1,2.452744722E0,1.320032597E1
2.463998438E0,8.251759410E-1,2.312674284E0,1.329398727E1
2.483998438E0,9.688951373E-1,1.985070944E0,1.276736832E1
2.503998438E0,1.253958344E0,1.449535847E0,1.223562527E1
2.523998438E0,1.810227156E0,5.804407001E-1,1.295475674E1
2.543998438E0,2.212395430E0,-3.538630009E-1,1.399795914E1
2.563998438E0,2.669075251E0,-6.729622483E-1,1.298768234E1
2.583998438E0,2.822620153E0,2.120113522E-1,9.835562706E0
2.603998438E0,2.909654140E0,1.133759856E0,7.214936733E0
2.623998438E0,2.693965435E0,1.277756691E0,6.407487392E0
2.643998438E0,2.049762249E0,1.176041484E0,7.697109222E0
2.663998438E0,1.156466484E0,7.966083288E-1,9.436545372E0
2.683998438E0,3.494672477E-1,6.017012000E-1,1.091487789E1
2.703998438E0,-1.455100030E-1,5.937715769E-1,1.135879230E1
2.723998438E0,-3.738785535E-2,7.315530777E-1,1.027789688E1
2.743998438E0,7.477571070E-2,1.084151983E0,8.701438904E0
2.763998438E0,1.807143390E-1,1.685604215E0,7.302889824E0
2.783998438E0,5.376802087E-1,1.996831298E0,6.477273464E0
2.803998438E0,4.499183893E-1,1.878145933E0,6.532416344E0
2.823998438E0,3.324875832E-1,1.766968727E0,7.289989948E0
2.843998438E0,5.028781295E-1,1.670415401E0,8.216900826E0
2.863998438E0,3.571765721E-1,1.668174386E0,8.565869331E0
2.883998438E0,1.992550343E-1,1.832359076E0,8.454586983E0
2.904000000E0,2.639463842E-1,2.369675636E0,7.885111809E0
2.924000000E0,5.591802001E-1,2.724017382E0,7.793145657E0
2.945998438E0,6.896162629E-1,2.965620995E0,7.963469028E0
2.965998438E0,5.977938771E-1,2.904702902E0,8.678081512E0
2.985998438E0,9.589160681E-1,2.759767532E0,9.205677032E0
3.005998438E0,1.162557244E0,2.837560177E0,9.493737221E0
3.025998438E0,5.176743269E-1,3.112318516E0,1.034026051E1
3.045998438E0,1.310681701E-1,3.114942551E0,1.166377544E1
3.065998438E0,3.467474282E-1,2.898152351E0,1.225955772E1
3.085998438E0,1.433264911E-1,2.307617664E0,1.290576267E1
3.105998438E0,-3.139277175E-2,1.660465121E0,1.343749523E1
3.125998438E0,1.089457572E-1,1.142503381E0,1.336571693E1
3.145998438E0,1.198441610E-1,7.951623201E-1,1.316856956E1
3.165998438E0,8.626787364E-2,2.475604564E-1,1.281986809E1
3.185998438E0,4.373919070E-1,-8.991376162E-1,1.255089378E1
3.205998438E0,1.083615720E-1,6.424121559E-2,1.096452427E1
3.225998438E0,-1.223532796E0,5.356308222E-1,9.172981262E0
3.246000000E0,-2.240072489E0,1.086977124E0,9.614356995E0
3.266000000E0,-2.837684631E0,1.313545346E0,1.032946682E1
3.287998438E0,-3.448186874E0,1.137782097E0,1.148149014E1
3.307998438E0,-2.367942095E0,8.873773217E-1,1.179075432E1
3.327998438E0,-1.055048108E0,6.267253757E-1,9.472573280E0
3.347998438E0,1.712811887E-1,8.169973493E-1,7.168498516E0
3.367998438E0,6.958891153E-1,8.979117870E-1,6.209859848E0
3.387998438E0,8.022204041E-1,9.374544621E-1,5.587932587E0
3.407998438E0,9.416395426E-1,1.203019261E0,5.082459450E0
3.427998438E0,1.113763452E0,1.279499769E0,4.538659573E0
3.447998438E0,1.210383892E0,1.305175185E0,4.346912384E0
3.467998438E0,5.333610773E-1,1.759019971E0,5.186128616E0
3.487998438E0,-9.127654433E-1,2.654575825E0,6.524927139E0
3.508000000E0,-1.678182125E0,3.176329851E0,8.050962448E0
3.530000000E0,-1.030703902E0,2.909347773E0,9.420465469E0
3.552001563E0,2.068015635E-1,2.483543634E0,9.540281296E0
3.574000000E0,1.455368161E0,2.338139057E0,9.146864891E0
3.594000000E0,2.074432135E0,2.246651888E0,9.679747581E0
3.614000000E0,2.024153948E0,1.402820230E0,1.112745476E1
3.635998438E0,1.639329076E0,6.453809738E-1,1.393232918E1
3.656000000E0,6.342144608E-1,5.362532735E-1,1.623196030E1
3.677998438E0,1.866136640E-1,1.795574665E0,1.514855480E1
3.697998438E0,6.178668141E-1,2.552027702E0,1.256965446E1
3.717998438E0,1.301545501E0,2.563567638E0,1.169372177E1
3.737998438E0,1.839953661E0,1.807651043E0,1.229523182E1
3.757998438E0,2.458979130E0,1.065314412E0,1.235331440E1
3.777998438E0,2.781286716E0,1.093125463E0,1.111133671E1
3.797998438E0,2.508998871E0,1.759106159E0,9.356980324E0
3.817998438E0,1.803676605E0,2.075935841E0,8.638777733E0
3.838010938E0,8.614338040E-1,1.656912088E0,1.010369396E1
3.859998438E0,-4.503972083E-2,8.344559073E-1,1.283493233E1
3.879998438E0,-4.274128675E-1,-1.312022470E-2,1.364851093E1
3.899998438E0,-1.663874388E-1,-1.837789118E-1,1.207338524E1
3.919998438E0,1.966693103E-1,6.745903194E-2,9.236677170E0
3.939998438E0,5.449585915E-1,4.660935998E-1,6.599013805E0
3.959998438E0,7.265061736E-1,8.254728317E-1,4.886843204E0
3.979998438E0,7.406606674E-1,9.572401643E-1,4.235764027E0
3.999998438E0,4.466143847E-1,1.166196585E0,4.123303890E0
4.019998438E0,8.996452391E-2,1.304341912E0,4.294891834E0
4.039998438E0,-1.707448810E-1,1.684732676E0,4.649616241E0
4.059998438E0,-1.762707084E-1,2.281769991E0,5.164254665E0
4.079998438E0,-3.742615879E-1,3.019059658E0,5.816023350E0
4.099998438E0,-8.867069483E-1,3.532070160E0,7.112953186E0
4.119998438E0,-1.195195079E0,3.552535534E0,9.322973251E0
4.139998438E0,-8.672181368E-1,3.187572956E0,1.119202137E1
4.159998438E0,-2.225362509E-1,2.745440722E0,1.211006355E1
4.179998438E0,2.908476256E-2,2.308518171E0,1.239257908E1
4.199998438E0,7.027460635E-2,2.265106440E0,1.218346024E1
4.219998438E0,1.411334127E-1,2.235351324E0,1.216128063E1
4.239998438E0,7.950665057E-2,2.141575098E0,1.225439548E1
4.259998438E0,-2.551740110E-1,1.919556022E0,1.191218758E1
4.279998438E0,-5.763226151E-1,1.726343870E0,1.172071838E1
4.299998438E0,-1.003180146E0,1.193567038E0,1.261210823E1
4.319998438E0,-1.135675192E0,3.868838549E-1,1.350288582E1
4.339998438E0,-9.676309824E-1,-3.943154216E-1,1.325284481E1
4.359998438E0,-8.108394742E-1,-4.314542711E-1,1.131584930E1
4.379998438E0,-1.158477545E0,-1.175361499E-1,9.357823372E0
4.399998438E0,-2.003736019E0,2.822572291E-1,8.478471756E0
4.419998438E0,-2.389269590E0,6.176466346E-1,8.870842934E0
4.439998438E0,-2.283043623E0,5.030409098E-1,9.197785378E0
4.459998438E0,-1.712869406E0,3.089956641E-1,8.842179298E0
4.479998438E0,-7.824059725E-1,2.530671358E-1,8.484648705E0
4.499998438E0,-7.348284125E-2,9.991482645E-2,8.139328003E0
4.519998438E0,3.171072304E-1,2.380315363E-1,7.653812408E0
4.540007813E0,2.201707959E-1,5.563167334E-1,7.233381271E0
4.562000000E0,5.431964993E-2,1.090922832E0,6.953623772E0
4.582000000E0,1.101237014E-1,1.467636108E0,6.658083439E0
4.602000000E0,2.062461078E-1,1.797164440E0,6.133350849E0
4.622000000E0,8.882488310E-2,2.107874155E0,6.555343151E0
4.642000000E0,-5.268201604E-2,2.198193073E0,7.071418285E0
4.662000000E0,-1.116464138E-1,2.239785194E0,7.597261906E0
4.683998438E0,-2.621076405E-1,2.166101217E0,9.211988449E0
4.704000000E0,-8.624871820E-2,2.028702974E0,1.078829193E1
4.725998438E0,1.840662211E-1,1.797308087E0,1.213765430E1
4.745998438E0,2.256008387E-1,1.921777844E0,1.258823299E1
4.765998438E0,-2.790681459E-2,1.953467488E0,1.210233498E1
4.785998438E0,-3.223266006E-1,1.918138623E0,1.218169785E1
4.805998438E0,-7.185094953E-1,1.854692221E0,1.303923416E1
4.825998438E0,-1.286356688E0,1.771603823E0,1.395743942E1
4.845998438E0,-1.465404630E0,1.810734749E0,1.445410252E1
4.866000000E0,-1.021328092E0,1.928031445E0,1.326700878E1
4.887998438E0,-5.558378622E-2,1.582682252E0,1.173888588E1
4.907998438E0,7.445679903E-1,6.927957535E-1,1.162628269E1
4.927998438E0,1.545964718E0,4.799895361E-2,1.085956287E1
4.947998438E0,2.036623001E0,1.209646463E-1,8.687312126E0
4.967998438E0,1.968455195E0,8.381333947E-1,6.537205219E0
4.987998438E0,1.178359032E0,1.577261686E0,6.172137260E0
5.007998438E0,2.325344384E-1,1.313382387E0,8.785350800E0
5.028000000E0,-4.522742927E-1,2.659574747E-1,1.228106785E1
5.050000000E0,-7.210186124E-1,-8.423088789E-1,1.477298164E1
5.071998438E0,-4.887619019E-1,-8.357583880E-1,1.334921646E1
5.092000000E0,-2.717897855E-2,-5.180286169E-1,1.027599049E1
5.113998438E0,3.624055088E-1,1.067335159E-1,7.586219788E0
5.134007813E0,4.485967755E-1,5.023322701E-1,5.974720478E0
5.155998438E0,2.216073126E-2,9.560526013E-1,5.042457104E0
5.175998438E0,-6.010499597E-1,1.581102014E0,4.673337936E0
5.195998438E0,-1.166052818E0,2.011052847E0,4.756282806E0
5.215998438E0,-1.527883768E0,2.247427464E0,5.451951504E0
5.235998438E0,-1.487220526E0,1.980464458E0,6.677917004E0
5.256000000E0,-1.261428237E0,1.182553768E0,8.076178551E0
5.276000000E0,-8.330672383E-1,7.222636342E-1,8.746325493E0
5.296000000E0,-6.129826903E-1,9.726875424E-1,8.698920250E0
5.317998438E0,-6.302975416E-1,1.444096327E0,9.159679413E0
5.338012500E0,-1.030253649E0,1.642527699E0,1.023479080E1
5.359998438E0,-1.490725756E0,1.384576440E0,1.273339939E1
5.380000000E0,-1.846398830E0,1.342381001E0,1.438988972E1
5.401998438E0,-1.940270662E0,1.947884202E0,1.354157639E1
5.422000000E0,-6.400371790E-1,1.246000051E0,1.271402550E1
5.442000000E0,7.448840141E-2,1.488427222E-1,1.328368282E1
5.463998438E0,-9.021352045E-3,-8.898385763E-1,1.486153793E1
5.483998438E0,-4.402649403E-1,-1.197646737E0,1.471804905E1
5.504000000E0,-6.740731001E-1,-9.131197929E-1,1.312002468E1
5.524000000E0,-1.334891915E0,-7.418099046E-1,1.156259537E1
5.545998438E0,-2.287046909E0,-4.374206662E-1,1.123444653E1
5.565998438E0,-2.782052755E0,1.943134144E-2,1.092482853E1
5.585998438E0,-2.626123190E0,3.795480132E-1,9.705824852E0
5.605998438E0,-2.049848318E0,3.976098597E-1,8.316720009E0
5.625998438E0,-1.281922579E0,2.054512352E-1,7.489350319E0
5.645998438E0,-6.707404256E-1,5.946239457E-2,6.857003212E0
5.665998438E0,-1.291240901E-1,4.468537867E-2,5.832160473E0
5.685998438E0,2.404927611E-1,2.290676385E-1,4.857020855E0
5.705998438E0,3.041689694E-1,6.715735197E-1,4.226742744E0
5.725998438E0,2.861549854E-1,1.001734018E0,4.285783768E0
5.745998438E0,3.255348206E-1,1.205317736E0,4.966618061E0
5.765998438E0,6.668043137E-1,1.175744653E0,5.425931454E0
5.785998438E0,9.210398197E-1,1.100786924E0,6.166563511E0
5.805998438E0,9.249279499E-1,1.000393271E0,7.992285728E0
5.825998438E0,7.995963097E-1,1.222833753E0,1.019207859E1
5.846009375E0,9.009189606E-1,1.037915111E0,1.219823742E1
5.867998438E0,9.437943101E-1,7.896077037E-1,1.291941929E1
5.887998438E0,5.457726717E-1,1.099953771E0,1.333380795E1
5.907998438E0,5.441541597E-2,1.558012486E0,1.429852772E1
5.927998438E0,-1.136096567E-1,1.777024388E0,1.528212166E1
5.947998438E0,-4.979173243E-1,1.521103382E0,1.538899040E1
5.967998438E0,-5.778357983E-1,1.205652952E0,1.514192772E1
5.987998438E0,-1.141651124E-1,4.683633149E-1,1.493823814E1
6.007998438E0,5.417217016E-1,-9.991482645E-2,1.372006798E1
6.027998438E0,1.013130426E0,1.224873587E-1,1.055178356E1
6.047998438E0,9.492339492E-1,8.287672997E-1,7.951508045E0
6.067998438E0,1.571745574E-1,1.503328800E0,7.765506744E0
6.087998438E0,-7.635492682E-1,1.316916227E0,9.706936836E0
6.107998438E0,-1.101610422E0,8.229733109E-1,1.149524212E1
6.127998438E0,-7.111353874E-1,-7.336792350E-2,1.223498344E1
6.147998438E0,1.496950686E-1,-7.100052834E-1,1.101138401E1
6.167998438E0,1.004712343E0,-7.768322825E-1,8.614376068E0
6.187998438E0,1.578679204E0,-4.332260191E-1,6.633298874E0
6.207998438E0,1.478017330E0,-2.492842823E-2,5.393753529E0
6.228000000E0,1.115209579E0,7.400956154E-1,4.898718834E0
6.249998438E0,5.231330395E-1,1.719573140E0,4.861675739E0
6.269998438E0,-1.349372119E-1,2.295024157E0,5.308969498E0
6.290000000E0,-5.833232999E-1,2.476016283E0,6.555381775E0
6.310000000E0,-4.276140034E-1,1.845354915E0,7.964590073E0
6.332006250E0,3.340869248E-1,8.545001745E-1,8.580522537E0
6.353998438E0,6.651283503E-1,7.866676450E-1,8.887094498E0
6.373998438E0,3.970831335E-1,1.166866779E0,8.951460838E0
6.393998438E0,2.527319267E-2,1.626697302E0,8.894919395E0
6.413998438E0,-2.282919139E-1,2.120419979E0,9.652827263E0
6.433998438E0,1.492066495E-2,1.922582269E0,1.021890354E1
6.453998438E0,8.593555689E-1,1.608731151E0,1.049926376E1
6.473998438E0,1.218734860E0,1.834015965E0,1.059928417E1
6.493998438E0,7.621510029E-1,1.763712645E0,1.047337818E1
6.513998438E0,-1.480574347E-2,1.570328116E0,1.196757984E1
6.533998438E0,-7.371938229E-1,1.011052251E0,1.423601913E1
6.554000000E0,-1.314809322E0,2.722686231E-1,1.571689987E1
6.574000000E0,-1.511507392E0,-2.198068649E-1,1.522220993E1
6.595998438E0,-1.085301161E0,-1.178809106E-1,1.273672199E1
6.615998438E0,-1.118216634E0,-1.017152667E-1,1.111376953E1
6.635998438E0,-1.730624795E0,-3.708139434E-2,1.061237621E1
6.655998438E0,-2.011675358E0,3.625970483E-1,1.014488411E1
6.675998438E0,-1.817448139E0,6.953623891E-1,9.362784386E0
6.696000000E0,-1.251343846E0,8.474228978E-1,8.374534607E0
6.718000000E0,-4.206229150E-1,9.509865046E-1,7.364382267E0
6.739998438E0,2.269703150E-1,1.051590800E0,6.339319229E0
6.759998438E0,7.899237871E-1,1.455732107E0,5.693976402E0
6.779998438E0,1.397916913E0,2.039122343E0,5.055404663E0
6.799998438E0,1.861242771E0,2.572205782E0,4.369637966E0
6.820000000E0,1.614582658E0,3.210758448E0,4.440764904E0
6.842001563E0,5.325949788E-1,3.763254166E0,5.810909748E0
6.863998438E0,-3.315299153E-1,4.184116840E0,7.414201260E0
6.884000000E0,-5.282949805E-1,3.976836205E0,7.914857388E0
6.905998438E0,-1.054425478E0,3.003248215E0,9.782966614E0
6.925998438E0,-1.711768031E0,1.697939038E0,1.236908817E1
6.945998438E0,-2.371322870E0,1.870551467E0,1.442586040E1
6.965998438E0,-2.576706886E0,2.230055094E0,1.489589977E1
6.985998438E0,-2.101266384E0,1.543072581E0,1.430460835E1
7.005998438E0,-9.746124744E-1,-8.624871820E-2,1.423503208E1
7.025998438E0,2.218084186E-1,-6.547279954E-1,1.416165543E1
7.045998438E0,7.115567569E-3,7.597089410E-1,1.435038567E1
7.065998438E0,-1.109875202E0,1.850727558E0,1.313955212E1
7.085998438E0,-9.404520392E-1,1.279241085E0,1.241448116E1
7.106000000E0,5.958688855E-1,-9.497319162E-2,1.179768753E1
7.127998438E0,2.546128273E0,-9.844287038E-1,9.089567184E0
7.147998438E0,3.598619223E0,-9.122195840E-1,6.821195602E0
7.167998438E0,3.406364679E0,-3.701148331E-1,6.135333538E0
7.187998438E0,2.283177853E0,-2.658521570E-2,7.227702141E0
7.208000000E0,8.932095766E-1,-5.121676251E-2,9.947093964E0
7.229998438E0,-3.833500147E-1,1.344487965E-1,1.308989525E1
7.249998438E0,-3.902452886E-1,3.229107559E-1,1.320543957E1
7.269998438E0,5.056554079E-1,7.920402288E-1,1.037324333E1
7.289998438E0,1.189573526E0,8.309124708E-1,7.602146149E0
7.309998438E0,1.755955458E0,1.217030168E0,5.377089977E0
7.329998438E0,1.987877011E0,1.615674257E0,5.086175442E0
7.349998438E0,1.549058080E0,1.391692042E0,6.165366173E0
7.369998438E0,1.139036655E0,1.244199634E0,7.185440063E0
7.390000000E0,6.337355971E-1,1.078913450E0,7.884038925E0
7.412000000E0,-9.939767420E-2,1.293941498E0,8.573597908E0
7.433998438E0,-6.738336682E-1,1.407340407E0,8.931991577E0
7.453998438E0,-1.000738025E0,1.562752962E0,9.306961060E0
7.473998438E0,-1.346556544E0,1.446069121E0,9.962235451E0
7.493998438E0,-1.750688076E0,9.884318113E-1,1.138050270E1
7.514000000E0,-1.793094277E0,3.020811975E-1,1.296629715E1
7.534032813E0,-1.322422981E0,-5.084326491E-2,1.263034248E1
7.555998438E0,-9.425110221E-1,4.280545413E-1,9.841519356E0
7.576000000E0,-8.671702743E-1,1.315288186E0,8.660842896E0
7.596000000E0,-8.695932031E-1,1.258526444E0,1.127120209E1
7.617998438E0,-3.853802681E-1,-1.889504120E-2,1.381416988E1
7.637998438E0,-3.934152052E-2,-1.542191505E0,1.503895760E1
7.657998438E0,-7.213442326E-1,-2.508711576E0,1.604249191E1
7.677998438E0,-2.045404673E0,-2.496481895E0,1.680074692E1
7.697998438E0,-2.860716820E0,-1.104234457E0,1.450543404E1
7.717998438E0,-3.054043770E0,5.452842116E-1,1.103123665E1
7.737998438E0,-2.743410349E0,1.687510014E0,8.254632950E0
7.758000000E0,-2.144208670E0,2.073790550E0,6.772142887E0
7.778000000E0,-1.214980721E0,1.859059334E0,5.518108368E0
7.798000000E0,-4.225095510E-1,1.578612089E0,4.316075325E0
7.819998438E0,1.303403359E-2,1.603320360E0,3.374742270E0
7.839998438E0,-1.984027028E-1,1.669811964E0,3.585891485E0
7.859998438E0,-5.942791700E-1,1.918358922E0,3.919662714E0
7.879998438E0,-1.079938173E0,2.287267208E0,4.101842403E0
7.899998438E0,-1.285513878E0,2.439595699E0,4.666050434E0
7.919998438E0,-1.371293306E0,2.235332012E0,5.968993664E0
7.939998438E0,-1.035990238E0,1.720358372E0,7.905692577E0
7.959998438E0,-4.165144861E-1,1.037809849E0,1.022077084E1
7.979998438E0,1.912392527E-1,5.309669375E-1,1.183521843E1
7.999998438E0,3.112749755E-1,7.301166058E-1,1.260836411E1
8.020000000E0,-1.325429976E-1,1.250213861E0,1.352267170E1
8.042000000E0,-5.186607242E-1,1.668854356E0,1.536975956E1
8.062000000E0,-6.149937510E-1,1.556575894E0,1.551251125E1
8.083998438E0,-5.251537561E-1,1.546462774E0,1.436356258E1
8.103998438E0,-7.363606989E-2,1.284048676E0,1.376538563E1
8.123998438E0,8.096232414E-1,6.061544418E-1,1.316214275E1
8.143998438E0,1.757612228E0,4.055011570E-1,1.107828712E1
8.164000000E0,1.990788341E0,6.608379483E-1,9.195525169E0
8.184000000E0,8.847628832E-1,1.175821185E0,9.292098045E0
8.204004688E0,-6.110194325E-1,1.326282382E0,1.167389774E1
8.226000000E0,-1.505004764E0,9.474143386E-1,1.368702793E1
8.246000000E0,-1.651855469E0,4.914051294E-1,1.301770592E1
8.266000000E0,-1.141028643E0,2.778136134E-1,1.116291809E1
8.286000000E0,-4.694837928E-1,-3.637271002E-2,1.040646458E1
8.306000000E0,6.522475481E-1,-1.209071875E-1,9.269582748E0
8.327998438E0,1.276674509E0,-2.089371979E-1,7.489953518E0
8.348000000E0,1.408767462E0,2.982217632E-2,5.724172592E0
8.369998438E0,1.224624634E0,5.815898776E-1,4.982285500E0
8.390000000E0,8.644409180E-1,8.395603895E-1,4.976137638E0
8.412003125E0,3.834074736E-1,1.128138304E0,5.868657589E0
8.434000000E0,-1.556039602E-1,1.582643867E0,6.493208885E0
8.454000000E0,-5.092179775E-1,1.754605055E0,7.512334347E0
8.474000000E0,-6.536936760E-1,1.444939137E0,8.662011147E0
8.494000000E0,-3.392200768E-1,1.049455166E0,9.836960793E0
8.514000000E0,-4.797980189E-2,9.867271185E-1,1.026820374E1
8.536000000E0,3.409055769E-1,1.322576165E0,1.018114185E1
8.557998438E0,2.468230426E-1,1.443090677E0,1.054910183E1
8.578000000E0,1.948114038E-1,1.789139032E0,1.103306580E1
8.600000000E0,6.051775217E-1,2.376312256E0,1.127349091E1
8.622000000E0,4.688038230E-1,2.539979696E0,1.039241600E1
8.642000000E0,-3.682186604E-1,1.976969004E0,1.016304111E1
8.662010938E0,-8.322628140E-1,1.165430307E0,1.368403149E1
8.683998438E0,-4.864730537E-1,-1.720473319E-1,1.633559990E1
8.703998438E0,3.937791586E-1,-1.293644667E0,1.552196407E1
8.724000000E0,4.032410383E-1,-1.553923130E0,1.327629852E1
8.744000000E0,-2.963064015E-1,-7.745913267E-1,1.202960968E1
8.766000000E0,-1.541473269E0,4.533085525E-1,1.057445145E1
8.787998438E0,-2.019806147E0,1.425574660E0,8.931933403E0
8.808000000E0,-2.134900093E0,1.956369281E0,7.881501675E0
8.829998438E0,-1.857890964E0,2.030972481E0,7.597232819E0
8.850000000E0,-1.310911655E0,1.581207395E0,7.405706406E0
8.872009375E0,-6.984364986E-1,1.072219253E0,6.943299770E0
8.892017188E0,-4.718014002E-1,9.366500378E-1,6.229090214E0
8.913998438E0,-6.162770987E-1,1.090903640E0,5.926750660E0
8.934000000E0,-8.400295973E-1,1.415748954E0,6.066054821E0
8.955998438E0,-9.084846377E-1,1.402705312E0,6.617238045E0
8.976001563E0,-1.046582103E0,1.419857383E0,7.094421864E0
8.998000000E0,-1.112575889E0,1.471983910E0,7.978486061E0
9.018000000E0,-8.791700602E-1,1.591425896E0,8.504032135E0
9.040000000E0,-6.314850450E-1,1.811836004E0,8.779508591E0
9.062000000E0,-3.916147649E-1,2.049407959E0,9.095811844E0
9.082006250E0,-4.004924893E-1,2.299103975E0,9.272312164E0
9.103998438E0,-8.939757943E-1,2.314072609E0,9.979636192E0
9.124000000E0,-1.933892488E0,2.630748749E0,1.224502945E1
9.145998438E0,-2.088615417E0,2.743965864E0,1.428277302E1
9.166000000E0,-7.157992721E-1,2.702440977E0,1.293605328E1
9.186000000E0,1.082006812E0,2.575490713E0,1.047095490E1
9.208000000E0,2.195061445E0,2.237266541E0,9.634277344E0
9.229998438E0,2.957269907E0,1.816844702E0,9.821034431E0
9.250000000E0,3.470299482E0,1.604115129E0,8.826214790E0
9.272000000E0,3.209140062E0,1.454803109E0,8.233697891E0
9.294000000E0,1.996821642E0,1.075312614E0,1.008801651E1
9.314000000E0,8.273594975E-1,4.503589272E-1,1.300222015E1
9.336018750E0,-3.027898967E-1,-4.554154575E-1,1.517386627E1
9.358007813E0,-6.912922263E-1,-5.714192986E-1,1.458749676E1
9.380000000E0,-2.668673098E-1,-1.879448444E-1,1.191451454E1
9.401998438E0,2.721824348E-1,3.045041561E-1,9.517287254E0
9.422000000E0,4.913859665E-1,8.397135735E-1,7.339252949E0
9.444020313E0,5.494022965E-1,1.485295653E0,5.148069859E0
9.465998438E0,2.650668621E-1,2.037532806E0,3.978330135E0
9.485998438E0,-1.597315669E-1,2.347620010E0,4.241979599E0
9.505998438E0,-3.885118961E-1,2.248327971E0,5.171418190E0
9.525998438E0,-3.225660026E-1,1.872524261E0,6.205320835E0
9.545998438E0,-2.883863747E-1,1.551289439E0,7.081177235E0
9.565998438E0,-1.020791829E-1,1.164022565E0,7.971820354E0
9.585998438E0,1.763090119E-2,1.106236100E0,8.352125168E0
9.606000000E0,8.111555129E-2,1.140894532E0,8.655182838E0
9.626000000E0,1.247379109E-1,1.240455031E0,8.995274544E0
9.648009375E0,-1.747001112E-1,1.252282500E0,1.071132278E1
9.669998438E0,-6.411576271E-1,1.163668156E0,1.296547318E1
9.689998438E0,-5.879871845E-1,1.090539694E0,1.384141636E1
9.709998438E0,1.420527846E-1,1.252780437E0,1.246824646E1
9.729998438E0,1.698829830E-1,1.391222835E0,1.095832825E1
9.750000000E0,-7.101297975E-1,1.499239445E0,1.203494358E1
9.772009375E0,-1.247436523E0,9.757233858E-1,1.444080925E1
9.793998438E0,-6.396540403E-1,-2.913551927E-1,1.588659096E1
9.813998438E0,2.087743878E-1,-1.420556545E0,1.518524361E1
9.833998438E0,1.371877640E-1,-1.492746472E0,1.268979549E1
9.853998438E0,-1.094801426E0,-8.780399561E-1,1.074099255E1
9.874000000E0,-2.634521961E0,-6.743029505E-2,9.948904037E0
9.896000000E0,-3.518164635E0,6.632992029E-1,9.783665657E0
9.917998438E0,-3.317118645E0,8.767374754E-1,9.017128944E0
9.937998438E0,-2.440266132E0,5.677322149E-1,7.873600483E0
9.957998438E0,-1.332641363E0,2.154494226E-1,6.981156826E0
9.977998438E0,-4.096000493E-1,-4.333505407E-2,6.398944378E0
9.997998438E0,1.044254974E-1,-7.769662887E-2,5.746131897E0
1.001799844E1,2.818933129E-1,1.209550723E-1,5.209907055E0
1.003799844E1,1.832330525E-1,5.941738486E-1,5.209744453E0
1.005799844E1,2.681506053E-2,1.033097982E0,5.721998692E0
1.007799844E1,6.574478000E-2,1.104397297E0,6.457994938E0
1.009799844E1,3.624246716E-1,1.032590508E0,7.286484718E0
1.011799844E1,7.937448621E-1,8.635119796E-1,8.118096352E0
1.013799844E1,9.784815311E-1,6.954964399E-1,8.940245628E0
1.015799844E1,8.960156441E-1,7.270711660E-1,1.003104401E1
1.017799844E1,6.767163277E-1,9.546735883E-1,1.044026184E1
1.019799844E1,5.329301357E-1,1.089955568E0,1.043712044E1
1.021799844E1,1.421581209E-1,1.244017601E0,1.048181534E1
1.023799844E1,-3.208805025E-1,1.325257659E0,1.099520874E1
1.025799844E1,-5.393657684E-1,1.136862755E0,1.198457909E1
1.027800000E1,-7.527753115E-1,1.096908331E0,1.315971947E1
1.029999844E1,-8.936789036E-1,1.487009883E0,1.308461952E1
1.031999844E1,-6.033867002E-1,1.890701056E0,1.206655693E1
1.033999844E1,-1.549048424E-1,1.587403536E0,1.195308113E1
1.035999844E1,7.201375961E-1,5.482147336E-1,1.310819721E1
1.038000000E1,1.516650200E0,-3.733230829E-1,1.312108707E1
1.040199844E1,1.996850491E0,-4.478306174E-1,1.056277752E1
1.042200000E1,1.446126580E0,1.591760963E-1,9.209028244E0
1.044399844E1,1.742691547E-1,6.561070681E-1,1.067658806E1
1.046399844E1,-5.232767463E-1,3.647805750E-1,1.262114906E1
1.048399844E1,-1.065113306E0,-1.473870575E-1,1.437770844E1
1.050399844E1,-9.980373383E-1,-8.128602505E-1,1.440710831E1
1.052399844E1,-6.558197141E-1,-1.104215503E0,1.298497200E1
1.054399844E1,-2.813378572E-1,-8.947610259E-1,1.076276970E1
1.056400000E1,-1.928290129E-1,-3.778529167E-1,8.632725716E0
1.058599844E1,-2.374952435E-1,2.421495616E-1,6.624555111E0
1.060599844E1,-2.298242003E-1,7.734899521E-1,5.228917599E0
1.062600000E1,-3.158430755E-1,1.165573955E0,4.759471893E0
1.064600781E1,-3.434530199E-1,1.293711662E0,5.057406425E0
1.066799844E1,-1.861443967E-1,1.412760973E0,5.492375374E0
1.068799844E1,-1.409035623E-1,1.598531842E0,5.847195625E0
1.070800000E1,-1.989390105E-1,1.539940953E0,6.804149151E0
1.072999844E1,-1.385764033E-1,1.480871201E0,7.380155087E0
1.074999844E1,1.007192731E-1,1.563729763E0,7.299930573E0
1.076999844E1,4.787637293E-1,1.718098283E0,6.904647827E0
1.078999844E1,8.363137841E-1,1.636704922E0,6.984058380E0
1.080999844E1,9.743730426E-1,1.685096502E0,7.453629017E0
1.082999844E1,9.908930659E-1,1.881507277E0,8.591382027E0
1.084999844E1,1.033213019E0,1.792299390E0,1.013332462E1
1.086999844E1,1.027438164E0,1.692145109E0,1.180351925E1
1.088999844E1,6.521134973E-1,1.549297452E0,1.341895485E1
1.090999844E1,2.037465721E-1,1.463173270E0,1.432811928E1
1.092999844E1,-4.556453228E-1,1.423640251E0,1.503492546E1
1.094999844E1,-8.347910643E-1,1.302349925E0,1.563108158E1
1.096999844E1,-5.006754398E-1,1.060765386E0,1.537936497E1
1.098999844E1,1.788181365E-1,5.133168101E-1,1.305548668E1
1.100999844E1,5.322884917E-1,9.783665836E-2,1.100533104E1
1.103000000E1,-2.685911357E-1,-5.101565272E-2,1.063056183E1
1.105201719E1,-1.932120681E0,1.932024956E-1,1.126946831E1
1.107399844E1,-2.944580793E0,7.754340172E-1,1.095774460E1
1.109400000E1,-2.962728739E0,1.173225880E0,9.904515266E0
1.111599844E1,-2.131270409E0,9.616454840E-1,8.587723732E0
1.113599844E1,-1.385151029E0,7.636162639E-1,7.772612572E0
1.115599844E1,-5.538842082E-1,5.833232999E-1,7.129291058E0
1.117599844E1,1.762611270E-1,3.798927665E-1,6.560208321E0
1.119600000E1,6.501598358E-1,2.559880614E-1,6.241980553E0
1.121800000E1,8.899726272E-1,2.323237658E-1,6.175048351E0
1.123999844E1,1.075389147E0,2.575107813E-1,6.622371674E0
1.125999844E1,1.211561799E0,4.162942171E-1,6.873839378E0
1.127999844E1,1.295416355E0,6.531286836E-1,7.188992500E0
1.129999844E1,1.218313456E0,8.392059803E-1,7.664222717E0
1.131999844E1,1.133051157E0,8.462545276E-1,8.595328331E0
1.133999844E1,1.172928929E0,1.084851027E0,9.659176826E0
1.135999844E1,1.294171333E0,1.222421885E0,1.040857124E1
1.137999844E1,1.347791910E0,1.438838601E0,1.051307392E1
1.139999844E1,1.056752682E0,1.635795116E0,1.088129234E1
1.141999844E1,5.320299268E-1,1.663625360E0,1.173691273E1
1.143999844E1,1.008533537E-1,1.568403244E0,1.319963551E1
1.146000000E1,-2.740307748E-1,1.276281834E0,1.420157146E1
1.148200000E1,-4.024174213E-1,1.252943277E0,1.516609955E1
1.150399844E1,5.546886474E-2,8.561474085E-1,1.457146549E1
1.152400000E1,4.071004987E-1,6.132699847E-1,1.396578979E1
1.154599844E1,8.639715910E-1,7.825783491E-1,1.185885429E1
1.156599844E1,1.308000207E0,1.085425615E0,8.919416428E0
1.158599844E1,1.458384871E0,1.471735001E0,6.590011120E0
1.160599844E1,1.427356005E0,1.746895790E0,5.829737186E0
1.162600000E1,9.542234540E-1,1.467300892E0,7.517036438E0
1.164800000E1,1.865274608E-1,7.726567984E-1,9.900330544E0
1.166999844E1,-5.161802769E-1,-3.988740221E-2,1.229123688E1
1.168999844E1,-8.051125407E-1,-4.456375539E-1,1.334204292E1
1.170999844E1,-4.143980145E-1,-5.786114931E-1,1.239867973E1
1.172999844E1,6.766013801E-2,-2.220765650E-1,9.697406769E0
1.175000000E1,2.224404961E-1,3.740413487E-1,7.430845737E0
1.177000000E1,2.101534456E-1,1.021040797E0,5.943040371E0
1.179000000E1,-1.347839832E-1,1.497065544E0,5.668128967E0
1.181200312E1,-5.877956748E-1,1.666450620E0,6.030496120E0
1.183399844E1,-8.422226906E-1,1.782636404E0,6.754138470E0
1.185399844E1,-8.870517612E-1,1.559573412E0,7.275518894E0
1.187400000E1,-8.348677158E-1,1.226176023E0,7.932976723E0
1.189599844E1,-8.633012772E-1,9.730993509E-1,8.812616348E0
1.191599844E1,-9.710020423E-1,9.618465900E-1,9.376152992E0
1.193599844E1,-7.969435453E-1,1.080761790E0,9.404376030E0
1.195600625E1,-4.306977093E-1,9.271498322E-1,9.010568619E0
1.197799844E1,-6.249920130E-1,9.679374099E-1,9.152668953E0
1.199799844E1,-1.010812759E0,1.082677126E0,1.044457150E1
1.201800000E1,-1.123867035E0,1.043067455E0,1.184466171E1
1.203800000E1,-6.975937486E-1,8.859695196E-1,1.209853363E1
1.205999844E1,-4.203260541E-1,9.993206263E-1,1.117901707E1
1.207999844E1,-8.099967837E-1,1.327201724E0,1.093904972E1
1.209999844E1,-1.515213609E0,1.606356025E0,1.190732193E1
1.211999844E1,-1.634492755E0,1.148374081E0,1.339899731E1
1.213999844E1,-1.011080980E0,1.994178444E-1,1.421089935E1
1.215999844E1,-2.615809143E-1,-8.312955499E-1,1.350846863E1
1.217999844E1,-8.095274866E-2,-1.012038589E0,1.173596478E1
1.219999844E1,-8.798499703E-1,-6.034154892E-1,1.040262413E1
1.222000000E1,-1.452657938E0,4.684973881E-2,9.614625931E0
1.224000000E1,-1.660129905E0,4.598878622E-1,8.709808350E0
1.226199844E1,-1.350521207E0,6.323757172E-1,7.855432987E0
1.228200000E1,-1.051188588E0,4.309850335E-1,8.004908562E0
1.230201875E1,-9.084463120E-1,2.763579190E-1,8.111412048E0
1.232399844E1,-8.794956207E-1,2.775166929E-1,7.741900444E0
1.234400000E1,-8.229925036E-1,5.596494079E-1,7.123152256E0
1.236400000E1,-8.382100463E-1,1.006474495E0,6.753793716E0
1.238599844E1,-8.640482426E-1,1.315604210E0,6.653543949E0
1.240599844E1,-7.640280724E-1,1.463518023E0,6.770227909E0
1.242599844E1,-4.456184208E-1,1.158927679E0,7.453686237E0
1.244600000E1,-8.562622964E-2,6.461375952E-1,8.666722298E0
1.246799844E1,2.415270656E-1,3.108344078E-1,9.755825996E0
1.248799844E1,3.919499815E-1,2.414025664E-1,1.041878033E1
1.250799844E1,2.995433509E-1,4.849599302E-1,1.076768303E1
1.252799844E1,5.151364580E-2,1.019997001E0,1.049405479E1
1.254799844E1,-1.197292432E-1,1.658185840E0,9.743232727E0
1.256800000E1,-2.434137017E-1,2.071942091E0,9.422763824E0
1.258800000E1,-3.909539878E-1,2.224280596E0,9.678005219E0
1.260800000E1,-4.848545790E-1,1.999484062E0,1.062400150E1
1.262800000E1,-5.679908395E-1,1.775051475E0,1.124212742E1
1.264800000E1,-3.631908298E-1,1.667331696E0,1.126426888E1
1.267000000E1,1.199303493E-1,1.673336267E0,1.085840416E1
1.269200469E1,5.326619744E-1,1.872332811E0,1.070373821E1
1.271399844E1,5.850279331E-1,2.221493721E0,1.085417080E1
1.273400000E1,4.618319273E-1,2.487824440E0,1.097566223E1
1.275599844E1,1.663491316E-2,1.912124395E0,1.159037781E1
1.277599844E1,3.660638630E-1,5.255368948E-1,1.372435951E1
1.279599844E1,1.541243434E0,-1.179096460E0,1.537497902E1
1.281599844E1,2.855851650E0,-1.965179920E0,1.367691517E1
1.283599844E1,2.866750002E0,-1.951925635E0,1.096023464E1
1.285600000E1,1.505943179E0,-1.182160974E0,1.001448631E1
1.287799844E1,-8.116439581E-1,-4.758332074E-1,1.143152714E1
1.289799844E1,-2.099494696E0,7.458417863E-2,1.247321606E1
1.291799844E1,-2.352226496E0,4.144650698E-1,1.211570454E1
1.293799844E1,-1.304370642E0,1.099513173E-1,1.041043949E1
1.295799844E1,-2.392477840E-1,-3.097522259E-1,9.088072777E0
1.297799844E1,1.978568360E-2,-8.056967705E-2,8.033398628E0
1.299799844E1,-1.383657008E-1,2.678154111E-1,6.903604031E0
1.301799844E1,-4.285238087E-1,8.988886476E-1,5.903028965E0
1.303799844E1,-7.660775185E-1,1.392266631E0,5.450984478E0
1.305799844E1,-1.028041482E0,1.589242339E0,5.604960442E0
1.307799844E1,-1.086239696E0,1.546405315E0,6.146346569E0
1.309799844E1,-1.010975599E0,1.443004489E0,6.802492142E0
1.311799844E1,-8.163366318E-1,1.294880033E0,7.261125565E0
1.313799844E1,-7.829901576E-1,1.127870083E0,7.357496738E0
1.315799844E1,-8.040208220E-1,1.239382505E0,7.488631725E0
1.317799844E1,-6.680493355E-1,1.283186793E0,7.769931793E0
1.319799844E1,-4.734964967E-1,1.185474634E0,7.748268604E0
1.321799844E1,-3.930895925E-1,1.124374628E0,8.283976555E0
1.323800000E1,-5.186128020E-1,9.191914797E-1,9.867568016E0
1.325999844E1,-7.483220696E-1,6.759310365E-1,1.167496109E1
1.328000000E1,-9.046347737E-1,1.146611929E0,1.196296406E1
1.330000000E1,-8.778483868E-1,1.637758374E0,1.140657997E1
1.332000000E1,-8.892256618E-1,1.927657962E0,1.102787495E1
1.334199844E1,-1.008658051E0,2.090023279E0,1.103100681E1
1.336199844E1,-1.254571319E0,2.192418575E0,1.167647362E1
1.338199844E1,-1.546204209E0,2.007509470E0,1.158439255E1
1.340200000E1,-2.283043623E0,1.742241502E0,1.250582504E1
1.342200781E1,-2.767189741E0,1.411104083E0,1.412487125E1
1.344400000E1,-1.758196354E0,4.503206313E-1,1.358332157E1
1.346400000E1,-4.279395938E-1,-3.697413504E-1,1.111245728E1
1.348400000E1,-2.791160345E-1,-7.587129474E-1,9.626108170E0
1.350599844E1,-1.346460700E0,-6.215634942E-1,9.740904808E0
1.352599844E1,-2.403424025E0,1.631121635E-1,9.561589241E0
1.354600000E1,-2.752604008E0,7.967615724E-1,9.110013962E0
1.356600000E1,-2.546243191E0,8.243523836E-1,9.228537560E0
1.358600000E1,-1.901388764E0,4.996794760E-1,9.535177231E0
1.360600000E1,-1.093029618E0,1.879161000E-1,9.028774261E0
1.362600000E1,-3.257742226E-1,1.425699145E-1,7.852570057E0
1.364600000E1,1.138299257E-1,3.115622699E-1,6.965900898E0
1.366600000E1,1.862305850E-1,6.413875222E-1,6.853163242E0
1.368600000E1,6.490202248E-2,9.212121964E-1,7.028686523E0
1.370600000E1,-5.023035035E-2,1.150069118E0,7.562478542E0
1.372600000E1,1.965160817E-1,1.074249506E0,7.876320362E0
1.374600000E1,5.357840657E-1,9.255121946E-1,8.176610947E0
1.376600000E1,4.222893119E-1,1.088547707E0,9.053922653E0
1.378600000E1,2.725559175E-1,1.354715943E0,9.748845100E0
1.380600000E1,3.467474282E-1,1.359006405E0,1.014031506E1
1.382600000E1,3.133531213E-1,1.534290671E0,1.053203583E1
1.384600000E1,1.011119261E-1,1.881085992E0,1.094990063E1
1.386600000E1,-4.989516363E-2,2.162634611E0,1.129175377E1
1.388600000E1,-5.270116776E-2,2.419838905E0,1.154057884E1
1.390600000E1,-1.681783050E-1,2.699117661E0,1.063416290E1
1.392600000E1,-5.356020331E-1,2.671612978E0,1.105947876E1
1.394600000E1,-7.150905728E-1,2.070285320E0,1.353652000E1
1.396600000E1,-4.132775366E-1,8.779250383E-1,1.553646278E1
1.398600000E1,1.305031478E-1,5.420089960E-1,1.429983902E1
1.400600000E1,6.197247505E-1,1.184612632E0,1.005957317E1
1.402600000E1,1.190023541E0,1.899301052E0,6.865056992E0
1.404799844E1,1.785365820E0,2.644778728E0,4.653647900E0
1.406799844E1,1.552601457E0,2.933682442E0,4.798717976E0
1.408799844E1,7.246960998E-1,2.390993357E0,7.399174690E0
1.410799844E1,-3.970065415E-1,1.270669937E0,1.209798717E1
1.412800000E1,-1.427739143E0,-2.225075215E-1,1.739455414E1
1.414999844E1,-1.688822031E0,-1.079938173E0,1.737228966E1
1.416999844E1,-1.337879896E0,-2.776412070E-1,1.320219326E1
1.418999844E1,-7.801362276E-1,7.556004524E-1,8.674978256E0
1.420999844E1,-2.152195722E-1,1.719266772E0,5.525817394E0
1.422999844E1,5.254793912E-2,2.114702702E0,4.012346745E0
1.424999844E1,1.209359095E-1,2.391462564E0,3.937513590E0
1.426999844E1,-7.226658612E-2,2.154484510E0,5.524945736E0
1.428999844E1,-1.961042732E-1,1.748830318E0,7.185813427E0
1.430999844E1,-2.271714360E-1,1.258938193E0,8.469804764E0
1.432999844E1,-5.289270356E-2,9.135698676E-1,9.052448273E0
1.434999844E1,2.038519084E-1,1.305749774E0,8.355553627E0
1.436999844E1,3.410875499E-1,1.591291785E0,7.821636677E0
1.439000000E1,5.383410454E-1,1.433858633E0,8.001096725E0
1.441200156E1,4.433582723E-1,1.494843721E0,8.836806297E0
1.443200156E1,3.736486733E-1,1.752727985E0,9.695597649E0
1.445400000E1,6.307668090E-1,2.035032988E0,1.003756618E1
1.447599844E1,6.997581124E-1,2.204648018E0,9.847562790E0
1.449599844E1,4.308126569E-1,2.444690704E0,1.002477169E1
1.451599844E1,-2.971683070E-2,2.217040300E0,1.127145100E1
1.453599844E1,-2.155164629E-1,1.435831547E0,1.326635742E1
1.455599844E1,8.887276798E-2,5.283332467E-1,1.499731731E1
1.457599844E1,5.114014745E-1,-5.949878693E-1,1.486348152E1
1.459599844E1,3.573776782E-1,-1.050796032E0,1.328277206E1
1.461599844E1,-6.734410524E-1,-4.461929798E-1,1.248648930E1
1.463599844E1,-1.692509055E0,4.151258469E-1,1.152264118E1
1.465600000E1,-2.200003147E0,1.218821049E0,1.069134617E1
1.467799844E1,-2.008285046E0,1.611106157E0,9.556025505E0
1.469799844E1,-1.369483352E0,1.443895102E0,8.877574921E0
1.471800000E1,-7.330853939E-1,1.219146609E0,7.955424786E0
1.473999844E1,-2.833777070E-1,1.336481690E0,6.986529827E0
1.475999844E1,-2.859634459E-1,1.559927702E0,6.460590363E0
1.477999844E1,-3.534128964E-1,1.738199949E0,6.054821491E0
1.479999844E1,-1.808005422E-1,1.814134479E0,5.652011395E0
1.481999844E1,2.602976002E-2,1.811912775E0,5.985436916E0
1.483999844E1,1.352915466E-1,1.605407953E0,6.991030693E0
1.485999844E1,2.787616849E-1,1.391634464E0,7.888243198E0
1.488000000E1,3.930991888E-1,1.461382389E0,8.433547020E0
1.490000000E1,3.662362397E-1,1.654766798E0,9.098406792E0
1.492200000E1,4.439903200E-1,1.682597041E0,9.998951912E0
1.494399844E1,6.307955384E-1,1.701530337E0,1.032731247E1
1.496399844E1,6.999784112E-1,1.794683933E0,1.057632828E1
1.498399844E1,4.620330632E-1,1.958868742E0,1.100988960E1
1.500399844E1,-5.103480443E-2,2.170219183E0,1.176537514E1
1.502399844E1,-5.055308938E-1,2.241355896E0,1.287191772E1
1.504399844E1,-7.855662704E-1,2.390792131E0,1.341079521E1
1.506399844E1,-7.985333204E-1,2.508251905E0,1.295951653E1
1.508399844E1,-1.429146826E-1,2.729792118E0,1.122752285E1
1.510400000E1,4.852280617E-1,2.570108414E0,1.024329472E1
1.512400000E1,8.162121177E-1,2.163525105E0,1.026911449E1
1.514599844E1,1.190004349E0,1.636245370E0,1.017958069E1
1.516600000E1,1.490984321E0,1.426474929E0,9.096090317E0
1.518799844E1,1.489490390E0,1.730136395E0,8.035563469E0
1.520799844E1,9.313445091E-1,1.752977014E0,8.762721062E0
1.522799844E1,3.003765643E-1,1.457082391E0,1.115750694E1
1.524799844E1,-4.472464621E-1,7.107043862E-1,1.405033398E1
1.526799844E1,-1.106236100E0,-1.691264100E-2,1.482755947E1
1.528799844E1,-1.212787747E0,8.256165683E-2,1.270841312E1
1.530799844E1,-6.567678452E-1,3.429550231E-1,1.129294109E1
1.532799844E1,-1.825913936E-1,-2.655265629E-1,1.081547070E1
1.534799844E1,-3.145597875E-1,-1.933174282E-1,9.254575729E0
1.536799844E1,-4.196939766E-1,4.443159401E-1,7.289568424E0
1.538799844E1,-6.582713723E-1,1.069269657E0,5.942590714E0
1.540799844E1,-9.647867084E-1,1.596233368E0,5.466651917E0
1.542799844E1,-1.308900476E0,2.017852306E0,5.407601357E0
1.544799844E1,-1.459390402E0,2.145712376E0,5.624659538E0
1.546799844E1,-1.400799513E0,1.985885024E0,5.775053501E0
1.548799844E1,-1.213659167E0,1.956675649E0,5.811944008E0
1.550799844E1,-1.045835257E0,1.774505734E0,6.193168163E0
1.552799844E1,-8.344080448E-1,1.760791779E0,6.388773918E0
1.554799844E1,-7.725514770E-1,1.968110323E0,6.501560211E0
1.556799844E1,-4.888289571E-1,2.016291380E0,6.822516918E0
1.558799844E1,-3.349871337E-1,1.903821230E0,7.327301502E0
1.560799844E1,-3.867497444E-1,1.984515548E0,8.397078514E0
1.562799844E1,-3.508846164E-1,2.035100222E0,9.671961784E0
1.564799844E1,-1.841907203E-1,2.258661032E0,1.026628876E1
1.566799844E1,2.849100158E-2,2.271283388E0,1.070723438E1
1.568799844E1,-8.435251564E-2,1.829945803E0,1.212278080E1
1.570799844E1,4.510676023E-3,1.382593989E0,1.369808006E1
1.572799844E1,1.864317060E-1,1.362415671E0,1.357277775E1
1.574799844E1,-1.313458979E-1,1.205346465E0,1.351973152E1
1.576799844E1,-5.566518903E-1,7.688260674E-1,1.518643093E1
1.578799844E1,-4.441627264E-1,2.516018748E-1,1.569246006E1
1.580799844E1,2.082955539E-1,-1.077390760E-1,1.292695618E1
1.582799844E1,3.906475306E-1,-2.742797434E-1,1.003321743E1
1.584799844E1,-3.310414851E-1,-1.397830695E-1,9.253158569E0
1.586799844E1,-1.517215252E0,1.404055655E-1,1.012524223E1
1.588799844E1,-2.075715303E0,5.514134169E-1,1.069969749E1
1.590799844E1,-2.154647350E0,4.732283354E-1,1.049789429E1
1.592799844E1,-1.802153945E0,2.892387211E-1,1.017215824E1
1.594799844E1,-1.269166350E0,9.279925376E-2,9.663773537E0
1.596799844E1,-8.216421604E-1,7.931511849E-2,8.655728340E0
1.598799844E1,-4.143788517E-1,2.925235629E-1,7.357994556E0
1.600799844E1,-1.118283793E-1,3.448512256E-1,6.547394753E0
1.602799844E1,1.104110032E-1,4.845289588E-1,6.035945415E0
1.604799844E1,1.894292384E-1,5.888682604E-1,5.972575665E0
1.606799844E1,2.522435188E-1,5.637770295E-1,6.660017967E0
1.608799844E1,2.006532550E-1,3.527329266E-1,7.653870106E0
1.610799844E1,2.059875280E-1,2.302743196E-1,8.573856354E0
1.612799844E1,1.482298076E-1,1.498099864E-1,9.680953979E0
1.614799844E1,1.258679777E-1,2.651530504E-1,1.049923515E1
1.616799844E1,2.640134096E-1,4.861378670E-1,1.035447311E1
1.618799844E1,2.915084362E-1,7.755393386E-1,1.030630112E1
1.620799844E1,2.145396322E-1,1.049761772E0,1.041949940E1
1.622799844E1,-7.036080211E-2,1.118551850E0,1.085806847E1
1.624799844E1,-5.564220548E-1,1.275439143E0,1.140657997E1
1.626799844E1,-9.744879603E-1,1.707343459E0,1.148791599E1
1.628799844E1,-1.276569247E0,1.960314989E0,1.134583473E1
1.630799844E1,-1.344928503E0,1.392161250E0,1.254666138E1
1.632799844E1,-1.047654748E0,4.157387614E-1,1.409531593E1
1.634799844E1,-8.530061841E-1,-5.990675688E-1,1.493471432E1
1.636799844E1,-2.140224725E-1,-8.338525295E-1,1.359639359E1
1.638799844E1,7.657040358E-1,-2.267692089E-1,1.137186432E1
1.640799844E1,2.134727716E0,4.065354466E-1,8.520848274E0
1.642799844E1,2.859136581E0,6.733070016E-1,5.613924503E0
1.644799844E1,2.447065592E0,7.395688891E-1,5.770668030E0
1.646799844E1,9.307698607E-1,7.317063808E-1,8.458896637E0
1.648799844E1,-9.296493530E-1,9.086282849E-1,1.041385841E1
1.650799844E1,-2.484529972E0,2.309264898E0,1.333125019E1
1.652799844E1,-4.225612640E0,2.803428173E0,1.450641060E1
1.654799844E1,-4.054111481E0,2.048708677E0,1.269913292E1
1.656799844E1,-2.156055212E0,7.966658473E-1,1.044935894E1
1.658799844E1,-4.996028543E-1,-5.262072086E-1,9.221622467E0
1.660799844E1,4.230745733E-1,-1.267270088E0,8.089768410E0
1.662799844E1,6.507056952E-1,-1.181682229E0,6.040455818E0
1.664799844E1,9.015126824E-1,-8.144786954E-1,4.760343075E0
1.666799844E1,8.510524631E-1,-8.463886380E-1,5.155520439E0
1.668799844E1,7.432272434E-1,-8.507747650E-1,6.622303963E0
1.670799844E1,6.427665353E-1,-5.676844120E-1,7.490173817E0
1.672799844E1,5.890215039E-1,-2.080752850E-1,7.965767384E0
1.674799844E1,4.024940431E-1,3.659297824E-1,8.384791374E0
1.676799844E1,2.284738719E-1,7.855376005E-1,9.030603409E0
1.678799844E1,-6.253655069E-3,6.506770253E-1,9.872012138E0
1.680799844E1,-3.724803030E-1,3.464697301E-1,9.953118324E0
1.682799844E1,-1.490438432E-1,6.935140491E-1,9.920910835E0
1.684799844E1,8.802042603E-1,8.094412684E-1,8.697579384E0
1.686799844E1,1.729312778E0,1.681265831E0,7.555756092E0
1.688799844E1,1.730002284E0,2.370958805E0,1.077091026E1
1.690799844E1,2.074882269E0,1.081652522E0,1.451154423E1
1.692799844E1,2.465385914E0,-1.604028940E0,1.528615475E1
1.694799844E1,2.116828680E0,-2.468929529E0,1.412842369E1
1.696799844E1,5.356882811E-1,-9.344186187E-1,1.286535740E1
1.698799844E1,-8.997793198E-1,1.670453787E0,1.091356659E1
1.700799844E1,-1.116895199E0,3.087734938E0,1.002229118E1
1.702799844E1,-8.014542460E-1,2.595870018E0,1.024039364E1
1.704799844E1,-5.862921104E-2,9.980852008E-1,1.143428612E1
1.706800000E1,4.248367250E-1,-3.843747377E-1,1.223356628E1
1.708999844E1,2.215019614E-1,-1.674408913E0,1.187397671E1
1.710999844E1,4.467580467E-2,-2.339068174E0,9.786280632E0
1.713000000E1,-3.533267081E-1,-2.090320110E0,7.762950420E0
1.715199844E1,-1.404678106E0,-1.241881967E0,7.083714962E0
1.717199844E1,-2.113218307E0,-4.874115884E-1,7.130871296E0
1.719399844E1,-2.537049294E0,2.953965962E-1,6.671357155E0
1.721399844E1,-2.295780659E0,1.051064134E0,6.526287556E0
1.723399844E1,-1.643044829E0,1.176271200E0,7.673541069E0
1.725399844E1,-6.738815904E-1,7.138456106E-1,8.499952316E0
1.727399844E1,1.084094569E-1,8.823686242E-1,8.938072205E0
1.729399844E1,4.967777133E-1,1.351795077E0,9.047764778E0
1.731399844E1,3.881192505E-1,2.194477320E0,8.816905975E0
1.733399844E1,-3.206602037E-1,2.180954933E0,9.035333633E0
1.735399844E1,-3.139373064E-1,1.217777252E0,1.043153667E1
1.737399844E1,7.302889824E-1,5.449203029E-2,1.184466171E1
1.739399844E1,2.120467663E0,-1.053056121E0,1.205716133E1
1.741399844E1,2.801282883E0,-8.595854640E-1,1.104374409E1
1.743399844E1,2.675156593E0,7.973457575E-1,1.054966736E1
1.745399844E1,2.534578562E0,2.122641802E0,1.112137318E1
1.747399844E1,2.394843340E0,2.754596233E0,1.122159481E1
1.749399844E1,1.280323267E0,3.370940208E0,9.835380554E0
1.751399844E1,4.348827899E-1,4.036049366E0,8.809024811E0
1.753399844E1,-3.159388527E-2,4.060997009E0,9.902370453E0
1.755399844E1,-3.860123456E-1,2.660168648E0,1.314198303E1
1.757399844E1,1.005947813E-1,7.890139818E-1,1.513302994E1
1.759399844E1,1.707008243E0,-6.143713593E-1,1.507837582E1
1.761399844E1,3.294344902E0,-2.266830206E-1,1.321944141E1
1.763399844E1,3.266007185E0,1.184162617E0,1.050598717E1
1.765399844E1,2.978367567E0,2.561326742E0,8.119274139E0
1.767399844E1,2.345637798E0,2.570692539E0,7.769969940E0
1.769399844E1,1.943900228E0,1.662993312E0,8.740866661E0
1.771399844E1,1.974086285E0,7.222348452E-1,9.105637550E0
1.773399844E1,2.423018217E0,-9.642983079E-1,9.086656570E0
1.775399844E1,2.535248995E0,-2.804970264E0,9.145285606E0
1.777399844E1,2.435506344E0,-3.649433851E0,9.143369675E0
1.779399844E1,2.205701351E0,-3.468527794E0,8.747733116E0
1.781399844E1,1.940040827E0,-2.688841820E0,7.638250351E0
1.783399844E1,1.550542474E0,-1.721909881E0,6.828119755E0
1.785399844E1,7.710957527E-1,-4.350647628E-1,6.783635139E0
1.787399844E1,1.632270962E-1,2.341337800E-1,7.362476349E0
1.789400000E1,8.650729060E-2,1.175428629E0,7.691391945E0
1.791599844E1,5.447096229E-1,1.479894400E0,8.775400162E0
1.793599844E1,1.399037361E0,1.304744124E0,9.377637863E0
1.795599844E1,2.082448006E0,1.865111828E0,8.705355644E0
1.797599844E1,2.086604357E0,3.388159513E0,7.961381435E0
1.799599844E1,1.345637083E0,4.347151756E0,7.725954533E0
1.801599844E1,9.813066125E-1,3.591972828E0,1.135152340E1
1.803599844E1,1.408776999E0,2.134411573E0,1.440079784E1
1.805600000E1,2.213496923E0,7.752521038E-1,1.466464806E1
1.807800313E1,1.593551874E0,8.975670934E-1,1.050985527E1
1.809999844E1,-2.331090569E-1,2.227622747E0,1.117646885E1
1.811999844E1,-1.736370802E0,2.258412123E0,1.339651680E1
1.813999844E1,-2.452218056E0,1.962172866E0,1.453723812E1
1.815999844E1,-1.961703539E0,1.439777136E0,1.336533356E1
1.817999844E1,-9.685503244E-1,1.051437616E0,1.150093079E1
1.819999844E1,-1.932791173E-1,8.163844347E-1,9.494053841E0
1.821999844E1,3.847481906E-1,8.864292502E-1,7.504568100E0
1.824000000E1,7.896555662E-1,9.917740822E-1,5.816387177E0
1.826200000E1,1.032992721E0,1.117297411E0,4.975265980E0
1.828399844E1,9.495403767E-1,1.246928930E0,5.205377579E0
1.830399844E1,8.530923724E-1,1.243634462E0,5.785214901E0
1.832399844E1,9.768055677E-1,1.253182650E0,6.706752777E0
1.834399844E1,1.252359033E0,1.093987465E0,7.501024246E0
1.836399844E1,1.348203778E0,1.384499788E0,7.721856117E0
1.838400000E1,1.208075881E0,1.516631007E0,8.061410904E0
1.840599844E1,1.374961257E0,1.578296065E0,8.890848160E0
1.842599844E1,1.622148275E0,1.707582951E0,9.834882736E0
1.844599844E1,1.714526176E0,1.623680592E0,1.102367115E1
1.846600000E1,1.540735841E0,1.281347990E0,1.268872261E1
1.848799844E1,1.135455012E0,1.337879896E0,1.419347000E1
1.850799844E1,1.158190250E0,1.448779345E0,1.398153400E1
1.852799844E1,1.723336816E0,2.095999002E0,1.215604210E1
1.854799844E1,2.090530872E0,2.388312101E0,1.097471428E1
1.856799844E1,2.254543304E0,2.279911995E0,1.056023884E1
1.858799844E1,2.530441523E0,1.695870519E0,1.125493145E1
1.860800000E1,2.878165483E0,9.784527421E-1,1.113683033E1
1.863000000E1,3.029546261E0,9.953271151E-1,9.649983406E0
1.865201094E1,2.554996252E0,1.151304603E0,9.783981323E0
1.867399844E1,1.915399671E0,7.735474110E-1,1.137475681E1
1.869399844E1,1.586484194E0,3.878223598E-1,1.263375187E1
1.871399844E1,1.326339841E0,3.701435775E-2,1.303642845E1
1.873400000E1,1.289689422E0,-7.727525383E-2,1.206151867E1
1.875400000E1,1.422050357E0,2.133904099E-1,1.011453533E1
1.877400000E1,1.536426306E0,5.286014676E-1,8.370722771E0
1.879599844E1,1.635967612E0,1.088739276E0,6.749523163E0
1.881599844E1,1.500369668E0,1.625873685E0,5.866818905E0
1.883599844E1,1.270746469E0,2.156754494E0,5.812747955E0
1.885599844E1,1.263947010E0,2.861396790E0,6.352506638E0
1.887599844E1,2.792242527E0,4.827926636E0,7.315799236E0
1.889599844E1,2.550744057E0,5.977890491E0,6.501828194E0
1.891600000E1,-4.377558231E-1,4.108670235E0,7.287595749E0
1.893600000E1,-6.224349737E-1,3.297514915E0,1.038042545E1
1.895600000E1,-1.780625224E0,1.327881694E0,1.184086895E1
1.897799844E1,-1.543254495E0,-3.463931009E-2,1.271956062E1
1.899799844E1,-7.632236481E-1,-3.476572335E-1,1.042002583E1
1.901799844E1,-4.593994096E-2,1.334815323E-1,7.990045071E0
1.903799844E1,2.052309662E-1,1.048009157E0,6.474419594E0
1.905799844E1,2.989304364E-1,1.765340686E0,6.090666771E0
1.907799844E1,2.591771185E-1,2.405780077E0,5.487002850E0
1.909800000E1,2.595697641E-1,2.854012966E0,5.667659760E0
1.911999844E1,3.732368648E-1,2.122555733E0,8.338994980E0
1.913999844E1,5.791574121E-1,7.154641151E-1,1.099246025E1
1.915999844E1,8.021916747E-1,-8.883445710E-2,1.353681660E1
1.917999844E1,1.108505845E0,-2.556624413E-1,1.525598717E1
1.919999844E1,1.606250763E0,1.631313264E-1,1.388162899E1
1.921999844E1,1.582892895E0,7.199556231E-1,1.128914928E1
1.923999844E1,7.668628097E-1,1.001791477E0,1.129261589E1
1.925999844E1,-2.880416214E-1,7.956219316E-1,1.307348061E1
1.927999844E1,-1.058620214E0,7.580425143E-1,1.320856190E1
1.929999844E1,-1.162767887E0,9.008040428E-1,1.200252533E1
1.931999844E1,-1.024402380E0,1.114433885E0,1.066158104E1
1.933999844E1,-6.542395353E-1,1.138940930E0,9.443248749E0
1.935999844E1,-1.587930322E-1,1.231864572E0,7.815459251E0
1.937999844E1,3.588046432E-1,1.341509581E0,6.369266033E0
1.939999844E1,8.561856747E-1,1.262069941E0,5.691323757E0
1.941999844E1,1.121233344E0,1.080445766E0,6.154314518E0
1.943999844E1,1.146611929E0,9.188179970E-1,6.999094009E0
1.945999844E1,9.956144691E-1,1.159397006E0,7.351473331E0
1.947999844E1,8.469919562E-1,1.396078110E0,7.870315552E0
1.949999844E1,8.403552175E-1,1.490495801E0,8.227089882E0
1.951999844E1,9.963997006E-1,1.709996343E0,8.313060760E0
1.953999844E1,1.099896193E0,2.017268181E0,7.994124413E0
1.955999844E1,4.886086583E-1,2.377499819E0,8.912071228E0
1.957999844E1,1.472912915E-2,2.928558826E0,9.982298851E0
1.959999844E1,1.064270586E-1,2.739560604E0,1.079771614E1
1.961999844E1,3.270575404E-1,1.332535982E0,1.237863541E1
1.963999844E1,-2.605753541E-1,5.155386329E-1,1.523501396E1
1.965999844E1,-6.168230176E-1,4.623969793E-1,1.650505257E1
1.967999844E1,-1.033241674E-1,1.661949515E0,1.310657787E1
1.969999844E1,7.950378060E-1,2.379338264E0,9.247230530E0
1.971999844E1,1.693323135E0,2.440227747E0,7.405246735E0
1.973999844E1,2.306468487E0,1.076979041E0,9.870489120E0
1.975999844E1,2.239632130E0,2.718855441E-2,1.220776653E1
1.977999844E1,1.499852419E0,-2.672695220E-1,1.265411186E1
1.979999844E1,1.373122633E-1,2.716652751E-1,1.140563202E1
1.981999844E1,-1.256687760E0,3.942771256E-1,1.258774471E1
1.983999844E1,-2.309513807E0,-3.920936286E-1,1.520431995E1
1.985999844E1,-2.428132296E0,-8.033791780E-1,1.422617340E1
1.987999844E1,-2.329787970E0,-5.343858153E-2,1.089662457E1
1.989999844E1,-1.870762229E0,7.461864352E-1,8.274102211E0
1.991999844E1,-1.357282519E0,1.903898001E0,5.918159962E0
1.993999844E1,-1.760312915E0,3.046851635E0,5.351596355E0
1.995999844E1,-1.928749800E0,3.357283592E0,5.562353134E0
1.997999844E1,-1.566775203E0,2.675817490E0,6.417245865E0
1.999999844E1,-1.164022565E0,1.474071622E0,7.414000034E0
2.001999844E1,-6.552930474E-1,3.706319928E-1,8.514480591E0
2.003999844E1,-1.122976393E-1,-5.135850310E-1,9.277598381E0
2.005999844E1,4.114100337E-1,-9.929233193E-1,8.969321251E0
2.008000000E1,9.861621261E-1,-9.987843633E-1,8.508379936E0
2.010000000E1,1.167288184E0,-6.109140515E-1,9.091262817E0
2.012200000E1,1.075542450E0,-3.788968027E-1,1.004305363E1
2.014399844E1,1.098469377E0,-7.517793216E-3,9.847840309E0
2.016399844E1,1.193911791E0,7.157130837E-1,9.432809830E0
2.018399844E1,8.876263499E-1,1.407867193E0,8.858047485E0
2.020400000E1,-1.266819984E-1,2.064548731E0,8.527092934E0
2.022400000E1,-8.566645384E-1,2.612715721E0,1.025347519E1
2.024599844E1,-6.507152915E-1,2.188578129E0,1.240512466E1
2.026599844E1,-9.635225683E-2,1.844205737E0,1.275902653E1
2.028599844E1,-4.110365361E-2,1.981335878E0,1.117089558E1
2.030600000E1,-4.928033054E-1,2.509525537E0,9.871389389E0
2.032600000E1,-9.479697943E-1,2.930282831E0,9.039097786E0
2.034600000E1,-8.703210354E-1,3.094045877E0,8.826300621E0
2.036799844E1,-7.633002400E-1,2.541071415E0,9.352977753E0
2.038800000E1,-1.241633058E0,2.317577600E0,1.000232315E1
2.040800000E1,-1.475891232E0,2.540583134E0,1.016707325E1
2.042999844E1,-6.440115571E-1,2.232784748E0,9.135498047E0
2.044999844E1,1.141363859E0,1.186968684E0,8.425406456E0
2.046999844E1,2.432422876E0,1.536694467E-1,8.810729027E0
2.048999844E1,2.909721136E0,-4.146278501E-1,8.810795784E0
2.050999844E1,1.936123848E0,1.054310650E-1,8.214802742E0
2.052999844E1,9.173814654E-1,9.239128232E-1,8.167024612E0
2.054999844E1,9.674872756E-1,8.200907111E-1,8.511147499E0
2.056999844E1,1.423640251E0,3.757172823E-1,8.840215683E0
2.058999844E1,1.522693157E0,-5.726930685E-3,9.612002373E0
2.060999844E1,1.060200453E0,3.776805401E-1,1.031482410E1
2.062999844E1,6.694666743E-1,1.429817319E0,9.226037025E0
2.064999844E1,-1.645295471E-1,3.539386749E0,7.811313152E0
2.066999844E1,-5.611625910E-1,4.481351852E0,1.127168179E1
2.068999844E1,-6.141702533E-1,4.335611820E0,1.339470577E1
2.070999844E1,6.304412335E-2,3.801724195E0,1.169747543E1
2.072999844E1,2.985761166E-1,3.846945763E0,9.909275055E0
2.074999844E1,3.412311971E-1,3.365337849E0,1.049359512E1
2.076999844E1,4.971128702E-1,2.434232712E0,1.165785599E1
2.078999844E1,1.118197560E0,1.740766644E0,1.126617527E1
2.081000000E1,1.775635719E0,1.315853238E0,9.993034363E0
2.083000000E1,2.024479389E0,1.176759720E0,8.728100777E0
2.085199844E1,2.094524145E0,1.320047855E0,7.810920238E0
2.087199844E1,1.932063341E0,1.325621605E0,7.717048168E0
2.089200625E1,1.853131175E0,1.101715803E0,7.799255848E0
2.091399844E1,1.588083625E0,9.580158591E-1,8.186216354E0
2.093399844E1,1.401546478E0,9.596247673E-1,8.929031372E0
2.095400000E1,9.562633038E-1,1.251612067E0,9.205810547E0
2.097599844E1,2.966703176E-1,1.565022588E0,8.841547966E0
2.099599844E1,3.258987516E-2,1.550418019E0,8.710373878E0
2.101599844E1,8.765651286E-2,1.180226564E0,9.284666061E0
2.103599844E1,-8.231265098E-2,8.573349118E-1,9.705567360E0
2.105600156E1,-7.290152311E-1,1.414829612E0,9.230059624E0
2.107799844E1,-1.072056532E0,2.173848867E0,9.858901024E0
2.109799844E1,-7.112215757E-1,1.949924111E0,1.154514790E1
2.111800000E1,2.212146670E-1,7.742944360E-1,1.259611511E1
2.113999844E1,1.135885835E0,-2.838469744E-1,1.180273438E1
2.115999844E1,1.164568424E0,-4.207570255E-1,1.075826836E1
2.117999844E1,5.019491911E-1,1.527021825E-1,1.054998207E1
2.119999844E1,3.610455990E-2,1.304514289E0,1.104391575E1
2.121999844E1,1.669476748E0,3.643266439E0,1.151469231E1
2.124000000E1,4.034699440E0,8.121065140E0,1.109926033E1
2.126199844E1,-3.805573940E0,7.539015770E0,8.221276283E0
2.128199844E1,-3.853496313E0,7.203262329E0,9.713429451E0
2.130199844E1,-1.987838626E0,3.926902533E0,1.042417145E1
2.132200000E1,-6.427761316E-1,1.286318302E0,1.263699913E1
2.134200000E1,1.878490597E-1,2.519083321E-1,1.288078594E1
2.136200000E1,1.085435227E-1,1.201659441E0,1.047060013E1
2.138200000E1,-3.470060229E-1,2.749185324E0,8.483423233E0
2.140200156E1,-8.763735890E-1,3.156601906E0,8.339243889E0
2.142400000E1,-1.348194122E0,2.651549578E0,8.225441933E0
2.144400000E1,-1.475766778E0,1.821508646E0,8.270070076E0
2.146400000E1,-7.492223382E-1,1.245751008E-1,9.277522087E0
2.148400000E1,8.978351951E-1,-1.805534601E0,1.024162865E1
2.150599844E1,2.943383694E0,-2.883605242E0,1.043271446E1
2.152600000E1,3.870839834E0,-2.014586687E0,9.451972961E0
2.154799844E1,3.532500982E0,3.334835768E-1,8.984596252E0
2.156799844E1,2.480488777E0,2.786506176E0,9.135689735E0
2.158799844E1,2.068494320E0,4.691897869E0,7.130545616E0
2.160799844E1,1.445887089E0,5.924365520E0,5.007922649E0
2.162799844E1,2.774496675E-1,6.102437019E0,5.044937611E0
2.164800000E1,-9.134454131E-1,5.988060951E0,7.088829041E0
2.167000000E1,-1.750295520E0,5.058392525E0,1.030456734E1
2.169200156E1,-1.701913476E0,3.860918522E0,1.407371140E1
2.171200469E1,-7.463397384E-1,2.456336021E0,1.431224155E1
2.173200469E1,7.274829745E-1,1.903648973E0,1.151185799E1
2.175200625E1,1.143432379E0,2.100040436E0,8.649964333E0
2.177200625E1,6.222625971E-1,2.967574596E0,7.475933075E0
2.179400000E1,-3.921893835E-1,3.430871725E0,7.219600201E0
2.181400156E1,-4.065737724E-1,3.139487982E0,6.782619953E0
2.183599844E1,-4.066312313E-1,2.837042809E0,6.701628685E0
2.185600312E1,1.679197252E-1,2.467186451E0,7.173641205E0
2.187800000E1,1.296364546E0,1.560598135E0,7.641765118E0
2.189999844E1,2.618739605E0,9.937756062E-1,7.346521378E0
2.191999844E1,3.617782354E0,5.520263314E-1,7.633050442E0
2.193999844E1,4.188368797E0,6.409277916E-1,8.356424332E0
2.195999844E1,3.775598526E0,1.385208488E0,8.274916649E0
2.197999844E1,3.224012852E0,2.263621807E0,7.247133732E0
2.199999844E1,2.424148321E0,2.583477736E0,8.015806198E0
2.201999844E1,1.824017763E0,2.079182148E0,1.186957169E1
2.204000000E1,1.668375492E0,6.004849076E-1,1.449668026E1
2.206000000E1,1.266111374E0,-8.798595667E-1,1.481456375E1
2.208199844E1,5.027248859E-1,-3.115526736E-1,1.236990166E1
2.210200313E1,-1.992263198E-1,1.647699237E0,1.011213112E1
2.212399844E1,-3.003095090E-1,3.131280422E0,8.550575256E0
2.214399844E1,-3.243281245E-1,3.856436491E0,7.821167469E0
2.216400000E1,-4.951496422E-1,3.783901691E0,8.519719124E0
2.218400000E1,-1.010334015E0,3.516517401E0,9.406664848E0
2.220599844E1,-1.935242772E0,4.087189674E0,9.967272758E0
2.222599844E1,-2.331531048E0,4.143338203E0,1.030361938E1
2.224599844E1,-2.130801201E0,3.751915216E0,9.354069710E0
2.226599844E1,-1.671526194E0,3.438820601E0,7.908507824E0
2.228599844E1,-8.717767596E-1,3.328103304E0,7.415005207E0
2.230600000E1,-6.129156332E-3,3.174462318E0,7.424936295E0
2.232600000E1,1.546778798E0,2.279978991E0,9.299088478E0
2.234799844E1,2.086307287E0,7.529764175E-1,1.185148048E1
2.236799844E1,2.785318613E0,1.303882301E-1,1.196151733E1
2.238799844E1,3.428841591E0,6.631938219E-1,1.056738377E1
2.240799844E1,2.657439470E0,1.181720495E0,9.719309807E0
2.242799844E1,1.750544548E0,1.851915002E0,9.951642990E0
2.244799844E1,9.186934829E-1,2.157434225E0,1.081540394E1
2.246799844E1,6.224828362E-1,2.076424122E0,1.234802818E1
2.248800000E1,1.315594673E0,1.978491664E0,1.130282497E1
2.250800000E1,1.917602301E0,1.794119000E0,1.147254467E1
2.252800000E1,2.396557570E0,1.621793985E0,1.275290680E1
2.254800000E1,2.975226641E0,4.707000554E-1,1.249890137E1
2.256999844E1,3.751522541E0,3.401969075E-1,1.033677483E1
2.258999844E1,3.274827480E0,1.019364834E0,8.493784904E0
2.260999844E1,1.970629096E0,1.995634198E0,8.157667160E0
2.263000000E1,3.631046414E-1,1.957911134E0,9.645951271E0
2.265000000E1,-9.739516377E-1,1.274203777E0,1.202471447E1
2.267000000E1,-1.706816792E0,-6.012319028E-2,1.319086456E1
2.269000000E1,-1.056044102E0,-9.805501103E-1,1.262718296E1
2.271200000E1,-4.171274006E-1,-3.038146198E-1,9.887008667E0
2.273400000E1,-1.310145497E0,1.803638339E0,7.476105690E0
2.275400000E1,-1.736332536E0,3.504239798E0,6.169924736E0
2.277599844E1,-1.219663858E0,4.290591240E0,4.736976147E0
2.279599844E1,-1.933269948E-1,3.769555569E0,4.362139702E0
2.281599844E1,6.100234389E-1,2.589721680E0,5.489367962E0
2.283599844E1,1.005698800E0,1.972573280E0,6.920698643E0
2.285600000E1,1.254044533E0,1.154723525E0,7.931712627E0
2.287799844E1,1.358575463E0,5.554069281E-1,8.419755936E0
2.289799844E1,1.288540125E0,5.170804858E-1,8.696660042E0
2.291799844E1,1.202617049E0,7.118152976E-1,9.722345352E0
2.293800000E1,1.313372850E0,1.233339429E0,1.022443867E1
2.295999844E1,1.666402698E0,1.984027147E0,9.262466431E0
2.297999844E1,1.633487225E0,2.697384357E0,7.873341560E0
2.299999844E1,1.320220351E0,4.027449608E0,8.452719688E0
2.301999844E1,1.146496892E0,4.603063583E0,1.149701405E1
2.304000000E1,2.027658939E0,4.095655441E0,1.284048653E1
2.306200000E1,2.237831593E0,2.369292498E0,1.322427750E1
2.308201719E1,1.499900222E0,2.142216682E0,1.379356098E1
2.310399844E1,4.051276445E-1,2.868674994E0,1.482132530E1
2.312399844E1,2.200175673E-1,3.649654150E0,1.385244942E1
2.314400000E1,3.907624483E-1,3.723242283E0,1.203339195E1
2.316400000E1,9.575849175E-1,3.434827089E0,1.025220108E1
2.318400000E1,1.316743851E0,3.206841469E0,8.795684814E0
2.320400000E1,1.042224765E0,2.568537951E0,7.785561085E0
2.322400000E1,2.169433981E-1,5.894620419E-1,7.707500458E0
2.324599844E1,-6.317053437E-1,-6.363309622E-1,7.120566368E0
2.326599844E1,-1.431129217E0,-9.150447249E-1,6.519449711E0
2.328599844E1,-2.060038090E0,-4.745499194E-1,6.027373791E0
2.330600000E1,-2.637519598E0,4.018236697E-1,5.775992870E0
2.332600000E1,-3.023407459E0,1.530143976E0,5.715476513E0
2.334799844E1,-2.771700144E0,2.331464052E0,5.914224148E0
2.336799844E1,-2.026308775E0,2.306028128E0,6.347833157E0
2.338799844E1,-1.203986526E0,2.210106611E0,7.095695972E0
2.340800000E1,-4.126646221E-1,2.393119574E0,7.901401997E0
2.342800000E1,-1.271608472E-1,2.928453445E0,8.637772560E0
2.344800000E1,-8.552662730E-1,3.542527914E0,8.965021133E0
2.346999844E1,-1.331769943E0,3.773338318E0,1.306447887E1
2.348999844E1,-7.794179916E-1,2.559344292E0,1.702873039E1
2.350999844E1,5.703945756E-1,1.505062222E0,1.794702148E1
2.353000000E1,1.778307676E0,1.852757812E0,1.392820072E1
2.355200625E1,2.676679134E0,3.122364759E0,8.750538826E0
2.357400000E1,2.462292671E0,3.905737877E0,6.666377068E0
2.359400000E1,1.718538761E0,3.011359930E0,8.824692726E0
2.361400000E1,1.227066636E0,2.334930897E0,1.164352894E1
2.363400000E1,8.671032786E-1,1.414322019E0,1.308229160E1
2.365400156E1,1.045681953E0,6.540672183E-1,1.305974770E1
2.367600000E1,1.654852986E0,3.614765704E-1,1.158423901E1
2.369600000E1,2.190072060E0,4.257848263E-1,9.489801407E0
2.371600000E1,2.301526785E0,8.570380211E-1,7.865967751E0
2.373600000E1,2.030187368E0,1.433542609E0,6.399634361E0
2.375600000E1,1.608826876E0,1.939121485E0,5.813006878E0
2.377600000E1,1.192580581E0,2.238013744E0,5.780972004E0
2.379799844E1,7.704828382E-1,2.221311569E0,6.496829033E0
2.381799844E1,8.560802937E-1,1.813914180E0,7.490595341E0
2.383801250E1,1.144945502E0,1.122344255E0,8.509146690E0
2.386000000E1,1.240311384E0,1.016491771E0,9.040468216E0
2.388000000E1,1.066798806E0,1.280179739E0,8.951901436E0
2.390000000E1,7.671501040E-1,1.366150618E0,8.921743393E0
2.392000000E1,5.349891186E-1,1.321608901E0,9.567296982E0
2.394000000E1,3.558549881E-1,1.232592583E0,1.054162216E1
2.396000000E1,4.396328926E-1,1.461746335E0,1.097556686E1
2.398199844E1,6.229329705E-1,1.828222036E0,1.013619709E1
2.400200000E1,6.872316003E-1,2.054445267E0,9.090516090E0
2.402200000E1,-1.601625234E-1,2.066071510E0,9.317217827E0
2.404399844E1,-1.057375222E-1,1.636408091E0,1.229656219E1
2.406399844E1,8.531785607E-1,6.116994023E-1,1.398304749E1
2.408400000E1,1.917190552E0,-8.262773156E-1,1.359045601E1
2.410400000E1,2.213650227E0,-1.600686669E0,1.309317112E1
2.412400000E1,1.013388991E0,-1.548952818E0,1.362994099E1
2.414400000E1,-4.428123832E-1,-9.669510722E-1,1.334258842E1
2.416599844E1,-1.414867878E0,1.860581934E-1,1.156690502E1
2.418600000E1,-1.713731289E0,7.201949954E-1,1.043676567E1
2.420800000E1,-1.363708615E0,7.558782101E-1,9.503965378E0
2.422999844E1,-6.782869101E-1,6.297995448E-1,8.062359810E0
2.424999844E1,-7.957368344E-2,6.580224037E-1,7.011946201E0
2.427000000E1,1.952710897E-1,8.311231732E-1,6.345419884E0
2.429201094E1,3.405608237E-1,1.018809438E0,5.973504543E0
2.431399844E1,5.007999539E-1,1.182936788E0,6.143818378E0
2.433399844E1,8.629469275E-1,1.189094663E0,6.685549736E0
2.435399844E1,1.270727277E0,1.232008338E0,7.610784054E0
2.437399844E1,2.058151722E0,2.011043310E0,8.363080978E0
2.439399844E1,4.023159027E0,4.100692749E0,8.925995827E0
2.441399844E1,5.315367222E0,4.963984489E0,7.884087086E0
2.443400000E1,4.990186691E0,2.591120005E0,8.340288162E0
2.445400000E1,2.884237289E0,5.356978178E-1,1.171926308E1
2.447400000E1,-4.838394523E-1,7.192181889E-3,1.572625637E1
2.449400000E1,-3.740997553E0,6.610007882E-1,1.678975105E1
2.451400000E1,-5.419677734E0,1.974440694E0,1.570206547E1
2.453400000E1,-4.783700943E0,1.541952014E0,1.284673023E1
2.455600000E1,-1.835586548E0,1.243021607E0,9.555134773E0
2.457799844E1,-4.661989510E-1,9.568762183E-1,7.495728493E0
2.459800000E1,2.889801264E-1,6.930830479E-1,7.775342464E0
2.461800000E1,8.321670294E-1,8.112130165E-1,7.683711529E0
2.463999844E1,1.434270501E0,1.256180167E0,5.797693253E0
2.466000000E1,1.699308634E0,1.783412099E0,4.908525467E0
2.468000000E1,1.333148956E0,1.562389016E0,6.077978134E0
2.470000000E1,8.451628089E-1,1.057155013E0,8.445162773E0
2.472000000E1,6.926138401E-1,1.889120936E-1,1.088657951E1
2.474000000E1,9.261442423E-1,-7.063277960E-1,1.338962078E1
2.476000000E1,1.310787082E0,-1.173225880E0,1.357148457E1
2.478200000E1,1.530823827E0,-3.658531904E-1,1.065805626E1
2.480399844E1,8.772163987E-1,1.182869792E0,8.216842651E0
2.482399844E1,3.169252574E-1,2.498081207E0,6.736105442E0
2.484399844E1,3.859453276E-2,3.294795036E0,5.707872391E0
2.486399844E1,-1.091468632E-1,3.138731480E0,6.032746792E0
2.488399844E1,-8.074206114E-2,2.376082182E0,7.331869125E0
2.490400000E1,-1.061206013E-1,2.008505344E0,8.408053398E0
2.492599844E1,-1.336922348E-1,1.741628528E0,9.457527161E0
2.494599844E1,1.413632482E-1,1.981977701E0,1.007399654E1
2.496599844E1,6.510504484E-1,2.370594978E0,9.924665451E0
2.498599844E1,1.146382093E0,2.470452070E0,9.932460785E0
2.500600000E1,1.412885547E0,2.473756313E0,1.063501549E1
2.502600000E1,1.646032810E0,2.588984489E0,1.079835701E1
2.504600000E1,2.497755527E0,2.061886549E0,1.111783028E1
2.506600000E1,3.321475983E0,1.282899380E0,1.199196243E1
2.508600000E1,3.823750734E0,4.776719809E-1,1.281892967E1
2.510799844E1,2.582587242E0,-6.314180493E-1,1.285600090E1
2.512799844E1,6.309583187E-1,-9.239799380E-1,1.285548401E1
2.514800000E1,-1.337736249E0,-7.133284211E-1,1.323014736E1
2.516800000E1,-2.410300255E0,-5.912528634E-1,1.347383881E1
2.518800000E1,-2.305300236E0,-9.708775282E-1,1.299475956E1
2.520800000E1,-1.710456014E0,-1.387985706E0,1.158715153E1
2.522800000E1,-1.217202544E0,-1.033136368E0,9.519403458E0
2.524800000E1,-7.915614247E-1,-1.082562283E-1,7.618052959E0
2.526800000E1,-2.122507691E-1,9.311912060E-1,6.216678619E0
2.528800000E1,2.038614750E-1,8.408436179E-1,7.429868698E0
2.530999844E1,5.677131414E-1,2.976854444E-1,9.543028831E0
2.533000000E1,1.169251442E0,1.081700400E-1,9.960683823E0
2.535200000E1,1.755026460E0,-4.603571072E-2,9.049565315E0
2.537200938E1,1.985176325E0,1.062355191E-1,7.765842438E0
2.539400000E1,1.669371486E0,7.511089444E-1,6.871971607E0
2.541400000E1,1.105067730E0,1.152396321E0,6.749532223E0
2.543400000E1,4.830254018E-1,1.424597859E0,6.791038036E0
2.545400000E1,-7.080133259E-2,1.643743992E0,6.667114258E0
2.547400000E1,-4.921329319E-1,1.723710299E0,6.760794640E0
2.549599844E1,-6.891661882E-1,1.636293173E0,7.678951740E0
2.551600000E1,-3.824593425E-1,1.279375196E0,8.859235764E0
2.553600000E1,-1.186853647E-1,1.029822707E0,9.577696800E0
2.555600000E1,-2.146258205E-1,9.500288367E-1,1.051632023E1
2.557799844E1,-3.175860643E-1,6.001880765E-1,1.221888447E1
2.559799844E1,-2.332335562E-1,2.319789827E-1,1.380004501E1
2.561800000E1,-1.330314130E-1,9.079770744E-2,1.404881191E1
2.563800000E1,1.173158810E-1,8.060414791E-1,1.220845604E1
2.565999844E1,2.383762896E-1,1.654163599E0,1.024123669E1
2.568000000E1,2.244037390E-1,2.549096823E0,9.274151802E0
2.570000000E1,7.721779495E-2,3.339777231E0,8.641708374E0
2.572000000E1,1.470614523E-1,3.336827755E0,9.076006889E0
2.574000000E1,5.535585880E-1,2.217557669E0,1.154885387E1
2.576000000E1,1.878777981E0,3.533171415E-1,1.370034981E1
2.578200000E1,3.343866587E0,-7.005817294E-1,1.307314587E1
2.580200000E1,3.814997673E0,-4.091594815E-1,9.897285461E0
2.582200000E1,3.159158707E0,4.136126935E-1,7.916485310E0
2.584200000E1,1.360797286E0,9.955377579E-1,8.075393677E0
2.586200000E1,-4.045338929E-1,9.655815363E-1,1.082830334E1
2.588200000E1,-1.450522304E0,8.046816587E-1,1.411386681E1
2.590200000E1,-1.520902276E0,-2.512762547E-1,1.544747543E1
2.592200000E1,-4.586141407E-1,-1.016463161E0,1.306802273E1
2.594200000E1,3.303998411E-1,-6.852588654E-1,9.394023895E0
2.596200000E1,6.852492690E-1,1.946677566E-1,6.745165348E0
2.598200000E1,7.278085947E-1,8.238351941E-1,5.443744183E0
2.600200000E1,2.898037434E-1,1.426005721E0,4.918178558E0
2.602200156E1,-3.664278090E-1,2.302206755E0,5.381753445E0
2.604400000E1,-9.404520392E-1,2.803342104E0,6.118622303E0
2.606599844E1,-1.254609585E0,2.556030512E0,6.977603912E0
2.608600000E1,-9.685982466E-1,1.939619422E0,7.798681259E0
2.610600000E1,-4.487787485E-1,1.426656842E0,8.531240463E0
2.612600000E1,2.110823989E-1,1.038231254E0,8.641995430E0
2.614600000E1,8.133294582E-1,8.936309814E-1,8.323777199E0
2.616600000E1,1.077467442E0,1.068934441E0,8.099785805E0
2.618600000E1,8.647664785E-1,1.492018580E0,8.468081474E0
2.620600000E1,6.147160530E-1,1.921059608E0,9.274552345E0
2.622800000E1,4.097436965E-1,2.272806168E0,9.939547539E0
2.624800000E1,8.114619851E-1,2.402523994E0,1.018305683E1
2.626999844E1,1.506565809E0,2.539702177E0,9.785638809E0
2.628999844E1,1.245138049E0,2.829410076E0,8.726012230E0
2.631000000E1,2.484319508E-1,2.645908833E0,1.108740425E1
2.633000000E1,3.562284708E-1,1.347236395E0,1.570406723E1
2.635200000E1,1.404055715E0,-8.842457533E-1,1.849994850E1
2.637200000E1,2.092130184E0,-1.781898975E0,1.545360470E1
2.639200000E1,1.236480713E0,-9.255313277E-1,1.168099403E1
2.641200000E1,-8.706275374E-2,8.080430627E-1,1.082839012E1
2.643399844E1,-7.744955420E-1,2.051371098E0,1.042236233E1
2.645400000E1,-2.962681055E-1,3.029603720E0,9.511492729E0
2.647400000E1,6.585969925E-1,3.830923796E0,8.065720558E0
2.649599844E1,1.302215815E0,4.011896610E0,7.056248665E0
2.651600000E1,1.617034316E0,3.190532207E0,7.569106102E0
2.653600000E1,1.857967496E0,2.445935488E0,8.039854050E0
2.655600000E1,1.760197878E0,1.991918325E0,8.396350861E0
2.657800000E1,1.538954616E0,1.490850210E0,8.622161865E0
2.660000000E1,1.473200202E0,7.671884298E-1,8.166947365E0
2.662000000E1,1.375717878E0,-1.132744700E-1,7.413789272E0
2.664000000E1,1.170362473E0,-7.218518257E-1,7.174388409E0
2.666200000E1,5.321544409E-1,-6.118813753E-1,7.818629265E0
2.668399844E1,-1.297944635E-1,7.671022322E-3,7.972662926E0
2.670399844E1,-1.487565488E-1,1.014021039E0,7.497423172E0
2.672400000E1,4.535575956E-2,1.639683366E0,6.847752094E0
2.674400000E1,4.101842046E-1,2.324051619E0,7.092650414E0
2.676600000E1,5.391646624E-1,2.981681347E0,8.181887627E0
2.678799844E1,1.590133011E-1,2.944456339E0,9.408053398E0
2.680800000E1,-4.134977758E-1,2.725367785E0,1.301805973E1
2.683000000E1,-6.798383594E-1,1.795526743E0,1.617283249E1
2.685200000E1,-1.941601932E-1,1.104742050E0,1.581712151E1
2.687399844E1,2.437488884E-1,1.914355874E0,1.291917992E1
2.689400000E1,7.023917437E-1,2.614429951E0,1.141234589E1
2.691400000E1,1.133443832E0,3.171541452E0,9.359173775E0
2.693400000E1,1.486444950E0,3.534579039E0,6.479830265E0
2.695400000E1,1.827053547E0,3.801130295E0,4.083857059E0
2.697400000E1,1.925924540E0,3.482711077E0,3.922458887E0
2.699400000E1,1.415021062E0,2.701521397E0,6.408760548E0
2.701400000E1,7.683950663E-1,2.211198568E0,1.006538677E1
2.703599844E1,2.129115760E-1,1.756041646E0,1.414245415E1
2.705600000E1,-2.599145472E-1,1.293261647E0,1.623928642E1
2.707600000E1,3.211582005E-1,1.631437778E0,1.481014824E1
2.709799844E1,1.224184036E0,2.594692230E0,1.120106125E1
2.711800000E1,1.582117200E0,3.615388155E0,8.704876900E0
2.713999844E1,1.333091408E-1,3.418747663E0,7.165233135E0
2.715999844E1,-5.852290392E-1,2.704480648E0,6.970277786E0
2.718000000E1,-7.633289695E-1,1.718241930E0,7.548793316E0
2.720000000E1,-3.776039183E-1,7.108384967E-1,8.115414619E0
2.722000000E1,3.425240815E-1,-2.047521323E-1,8.099326134E0
2.724000000E1,9.178411961E-1,-3.485766053E-1,7.536094666E0
2.726200000E1,1.135560274E0,-3.164177015E-2,6.685080528E0
2.728200000E1,1.110287070E0,1.790862828E-1,7.088062763E0
2.730200000E1,8.990227580E-1,9.954611659E-1,8.072922707E0
2.732200000E1,-1.474540979E-1,1.112173676E0,7.573243141E0
2.734200156E1,-1.421360970E0,1.620175362E0,9.119341850E0
2.736400000E1,-1.321800470E0,1.864173293E0,1.337449932E1
2.738400000E1,2.767697209E-3,1.202281833E0,1.393529797E1
2.740400000E1,1.559046626E0,4.755650759E-1,1.043911266E1
2.742599844E1,1.516717196E0,7.141903639E-1,8.348733902E0
2.744600000E1,-7.941088080E-2,1.100767732E0,1.014155102E1
2.746600000E1,-1.341595650E0,1.643571496E0,1.225045013E1
2.748600000E1,-1.876747727E0,1.965898156E0,1.277778721E1
2.750600000E1,-1.729188204E0,2.075370550E0,1.185082912E1
2.752600000E1,-9.619423747E-1,2.199179649E0,9.734871864E0
2.754799844E1,-1.695190519E-1,2.298069715E0,8.125758171E0
2.756799844E1,4.091020226E-1,2.094399691E0,7.170605659E0
2.758799844E1,6.535596251E-1,1.967210174E0,6.936577320E0
2.760799844E1,4.294718802E-1,1.913560867E0,7.341417313E0
2.762799844E1,4.399584979E-2,1.469216228E0,7.952714443E0
2.764800000E1,-3.853419721E-1,1.099905849E0,8.428854942E0
2.766999844E1,-5.813025832E-1,9.137901664E-1,8.973659515E0
2.769000000E1,-4.308797121E-1,6.376525164E-1,9.362516403E0
2.771000000E1,-1.930779964E-1,4.217242599E-1,9.588308334E0
2.773000000E1,-1.880501658E-1,6.277596951E-1,9.604493141E0
2.775199844E1,-3.546770215E-1,9.683971405E-1,9.388650894E0
2.777200469E1,-5.105491281E-1,1.152281404E0,9.473443985E0
2.779399844E1,-7.155023813E-1,1.279317737E0,9.967865944E0
2.781400000E1,-6.767737865E-1,8.890436888E-1,1.091114330E1
2.783600000E1,-8.083591461E-1,8.098147511E-1,1.186843204E1
2.785799844E1,-1.206677556E0,1.222000480E0,1.230936623E1
2.787799844E1,-1.457896471E0,1.932034492E0,1.165594101E1
2.789799844E1,-1.305950761E0,2.421744585E0,1.055230045E1
2.791799844E1,-9.819866419E-1,2.255280495E0,1.055910969E1
2.793799844E1,6.163632870E-2,9.533423781E-1,1.217586613E1
2.795799844E1,1.127601981E0,1.482872814E-1,1.234307671E1
2.797799844E1,1.799558640E0,3.049829900E-1,9.749466896E0
2.799799844E1,1.951772332E0,9.000283480E-1,7.616683483E0
2.801799844E1,1.648245096E0,1.680719972E0,6.496206760E0
2.803799844E1,1.002682090E0,1.478467464E0,8.027461052E0
2.805799844E1,3.809653521E-1,8.817557096E-1,1.108115005E1
2.807799844E1,-7.257304341E-2,1.251688600E-1,1.367444420E1
2.809799844E1,-1.428668052E-1,-5.548993349E-1,1.479154110E1
2.811799844E1,1.873702258E-1,-6.448447108E-1,1.269806099E1
2.813799844E1,6.551685333E-1,-1.920724362E-1,9.965108871E0
2.815799844E1,8.977394700E-1,6.379590034E-1,8.081656456E0
2.817799844E1,7.656273842E-1,1.271311522E0,7.119168282E0
2.819799844E1,6.254324913E-1,1.528554082E0,6.629908085E0
2.821799844E1,4.864251614E-1,1.591062069E0,6.728204727E0
2.823799844E1,2.924373746E-1,1.609985709E0,7.826166630E0
2.825799844E1,1.485937387E-1,1.328293562E0,8.930803299E0
2.827799844E1,3.986058533E-1,9.799371958E-1,9.670439720E0
2.829799844E1,6.635960937E-1,5.391646624E-1,9.550279617E0
2.831799844E1,7.520954013E-1,6.083474755E-1,9.256481171E0
2.833801094E1,5.425931215E-1,7.883723378E-1,9.059860229E0
2.835999844E1,3.015640676E-1,7.639418840E-1,9.546591759E0
2.837999844E1,3.648571670E-1,1.359724641E0,1.015293789E1
2.839999844E1,2.130849123E0,3.774440050E0,1.025655842E1
2.841999844E1,2.361391544E0,5.489770412E0,9.062283516E0
2.843999844E1,-2.235753536E0,3.351691008E0,8.891826630E0
2.845999844E1,-2.620329380E0,2.654211998E0,1.049978161E1
2.847999844E1,-3.094697237E0,1.196114421E0,1.081121922E1
2.849999844E1,-2.580872774E0,6.895300746E-1,1.178275681E1
2.851999844E1,-1.122554898E0,2.664076090E-1,1.374941254E1
2.853999844E1,-3.982036188E-2,-1.492238879E0,1.475797462E1
2.855999844E1,5.496895909E-1,-3.272605419E0,1.354289722E1
2.857999844E1,8.483996987E-1,-3.098460913E0,1.020192242E1
2.859999844E1,3.197695911E-1,-1.142666221E0,7.800155640E0
2.861999844E1,-4.626842737E-1,1.255145907E0,5.659385204E0
2.863999844E1,-1.021950603E0,3.050758839E0,4.584063053E0
2.865999844E1,-9.334226251E-1,3.532634974E0,5.543151379E0
2.867999844E1,-4.412226677E-1,2.798534393E0,7.436897755E0
2.869999844E1,9.641928971E-2,1.389652133E0,8.814138412E0
2.871999844E1,5.677514076E-1,3.976385891E-1,9.277474403E0
2.874199844E1,9.135220051E-1,-2.167039812E-1,9.774088860E0
2.876199844E1,1.275171041E0,-3.559699282E-2,9.499837875E0
2.878199844E1,1.369445086E0,5.161515474E-1,9.008021355E0
2.880199844E1,1.322959185E0,1.011444926E0,8.728273392E0
2.882201094E1,1.090175748E0,1.439528108E0,8.613016129E0
2.884399844E1,5.572744012E-1,1.679877162E0,8.814904213E0
2.886399844E1,8.607634157E-2,1.931747317E0,9.160771370E0
2.888400156E1,-1.700362116E-1,2.011435986E0,9.676807404E0
2.890599844E1,1.062450930E-1,1.463000894E0,1.034748173E1
2.892599844E1,3.808313012E-1,1.104119658E0,1.008088207E1
2.894599844E1,4.265126586E-1,1.191354752E0,1.003933811E1
2.896600000E1,3.666001558E-1,1.359609723E0,1.021471786E1
2.898600000E1,1.810303777E-1,1.658501863E0,1.026767731E1
2.900799844E1,-2.298816741E-1,1.943067074E0,1.065318298E1
2.902799844E1,-3.004244156E-2,1.575700760E0,1.284246922E1
2.904799844E1,7.451617718E-1,7.246291041E-1,1.444608593E1
2.906799844E1,1.744070530E0,-1.813464165E-1,1.389518070E1
2.908799844E1,2.428247213E0,2.354553640E-1,1.049428463E1
2.910800000E1,2.410578012E0,8.889862895E-1,7.389904976E0
2.912999844E1,1.681601048E0,1.428888321E0,5.663953781E0
2.914999844E1,4.667352736E-1,1.196593285E0,7.533652306E0
2.916999844E1,-3.579140007E-1,8.542799354E-1,1.039269352E1
2.918999844E1,-7.469143271E-1,2.234843671E-1,1.362865829E1
2.920999844E1,-7.378546596E-1,-7.109630108E-1,1.540852642E1
2.922999844E1,-2.764824331E-1,-1.203996062E0,1.345138168E1
2.924999844E1,7.866389304E-2,-3.954071999E-1,1.016972542E1
2.926999844E1,2.484989762E-1,6.345879436E-1,7.993272305E0
2.928999844E1,3.873818368E-2,1.521716356E0,6.491360664E0
2.930999844E1,-2.600869238E-1,1.964136004E0,5.804071903E0
2.932999844E1,-6.116898060E-1,1.982906580E0,6.513655663E0
2.934999844E1,-8.415236473E-1,1.726171494E0,7.947983265E0
2.936999844E1,-6.715735197E-1,1.297312498E0,8.756926537E0
2.938999844E1,-3.792607188E-1,1.029928088E0,8.823331833E0
2.940999844E1,-1.230906993E-1,1.040845752E0,8.730983734E0
2.942999844E1,6.947015226E-2,1.264971733E0,8.721224785E0
2.944999844E1,1.639357805E-1,1.219022274E0,8.847590446E0
2.946999844E1,2.128636837E-1,1.158257365E0,9.059525490E0
2.948999844E1,9.239703417E-2,1.156610131E0,9.733340263E0
2.950999844E1,-7.791689783E-2,1.191469669E0,1.035326576E1
2.952999844E1,-3.938461840E-1,1.329519391E0,1.065503979E1
2.954999844E1,-5.887246132E-1,1.550456285E0,1.053736019E1
2.956999844E1,-4.586524367E-1,1.946256161E0,1.016529179E1
2.958999844E1,-7.415992022E-1,2.332527161E0,9.037756920E0
2.960999844E1,-1.258698821E0,2.211026192E0,9.365236282E0
2.963000000E1,-1.278542042E0,1.464102149E0,1.290051460E1
2.965200156E1,-3.691092730E-1,-4.371525049E-1,1.605363083E1
2.967399844E1,3.800938725E-1,-2.103219986E0,1.447632980E1
2.969399844E1,1.615511477E-1,-1.720588207E0,1.094459438E1
2.971399844E1,-1.041113734E0,-4.273745716E-1,9.738482475E0
2.973399844E1,-1.983912110E0,6.504663229E-1,1.000017834E1
2.975400000E1,-1.959567904E0,1.465557814E0,9.580963135E0
2.977599844E1,7.452192307E-1,3.234892130E0,9.420915604E0
2.979599844E1,4.379138470E0,6.742435932E0,8.557307243E0
2.981599844E1,-8.398954868E-1,5.550113678E0,6.776510239E0
2.983599844E1,-1.973032832E0,4.339251041E0,9.650232315E0
2.985599844E1,-1.221550465E0,2.763090849E0,9.898999214E0
2.987599844E1,-1.378792048E0,2.100385189E0,1.049752140E1
2.989600000E1,-2.312272310E0,1.506393433E0,1.027779102E1
2.991799844E1,-2.896466732E0,1.219625473E0,9.665737152E0
2.993799844E1,-1.806166649E0,2.538236976E-1,8.840867043E0
2.995799844E1,1.957212090E-1,-5.741487145E-1,8.153884888E0
2.997799844E1,2.089458227E0,-6.487520933E-1,7.368711472E0
2.999799844E1,2.358422756E0,-6.131072044E-1,7.117109299E0
3.001799844E1,2.101927280E0,-3.643974960E-1,8.360638618E0
3.003799844E1,1.806262374E0,-4.846822098E-2,9.967702866E0
3.005799844E1,1.482853651E0,2.616479397E-1,9.920604706E0
3.007799844E1,1.088356256E0,6.991643906E-1,9.150313377E0
3.009799844E1,4.695508480E-1,1.281127810E0,8.807205200E0
3.011799844E1,-3.302753270E-1,2.126865149E0,9.211968422E0
3.013799844E1,-9.222273827E-1,3.065986156E0,9.858911514E0
3.015799844E1,-1.352245092E0,3.846227646E0,9.873342514E0
3.017799844E1,-1.418085694E0,4.413681984E0,9.381785393E0
3.019799844E1,-1.312721729E0,4.556500912E0,9.011296272E0
3.021799844E1,-9.296493530E-1,3.930781364E0,9.935352325E0
3.023799844E1,-5.874413252E-2,2.641551495E0,1.151472187E1
3.025799844E1,8.397901654E-1,1.513748407E0,1.212857628E1
3.027799844E1,1.646779776E0,1.177937627E0,1.099324512E1
3.029799844E1,1.706902981E0,1.552764297E0,8.702262878E0
3.031799844E1,1.620156288E0,1.854098558E0,7.093167305E0
3.033801094E1,1.445590258E0,1.708885431E0,6.766990662E0
3.035999844E1,9.036004543E-1,9.870910645E-1,8.485289574E0
3.037999844E1,-1.887971610E-1,1.045624495E0,1.120546818E1
3.039999844E1,-1.112671733E0,1.183061242E0,1.323079872E1
3.041999844E1,-1.333800197E0,1.297753096E0,1.350245476E1
3.043999844E1,-4.874211848E-1,1.551720500E0,1.081543255E1
3.045999844E1,3.945835829E-1,1.630585432E0,8.698335648E0
3.047999844E1,1.003208756E0,1.920982957E0,7.000942707E0
3.049999844E1,1.248384595E0,2.337181330E0,5.834391594E0
3.051999844E1,2.186432838E0,3.480163813E0,5.455102444E0
3.053999844E1,2.742548466E0,5.449451923E0,5.191194534E0
3.055999844E1,8.402786255E-1,4.624075413E0,5.906380653E0
3.057999844E1,1.010851145E0,3.017479420E0,8.394023895E0
3.059999844E1,8.211537600E-1,1.437086105E0,1.016344357E1
3.061999844E1,4.982716739E-1,3.122422099E-1,1.204672241E1
3.063999844E1,-5.064215511E-2,6.843586266E-2,1.244284821E1
3.065999844E1,-8.023544550E-1,1.443646073E0,1.062513161E1
3.067999844E1,-1.232372165E0,2.215009928E0,9.236561775E0
3.069999844E1,-1.425593853E0,2.539366961E0,8.654176712E0
3.071999844E1,-1.432642460E0,2.322730064E0,9.570811272E0
3.073999844E1,-1.222747564E0,2.086048841E0,1.047956467E1
3.075999844E1,-1.162739277E0,1.798485994E0,1.039738560E1
3.077999844E1,-1.431828380E0,1.841361284E0,1.031989098E1
3.079999844E1,-1.460309863E0,1.436961532E0,1.282419586E1
3.081999844E1,-5.091988444E-1,-1.364695001E-2,1.515471268E1
3.083999844E1,2.981547117E-1,-1.254925609E0,1.606134796E1
3.085999844E1,8.205887079E-1,-1.197637200E0,1.262959576E1
3.087999844E1,5.165729523E-1,-1.570404768E-1,9.430809021E0
3.089999844E1,-2.386348695E-1,7.831721306E-1,7.883339882E0
3.091999844E1,-1.166656137E0,1.316121459E0,7.950827599E0
3.093999844E1,-1.569303513E0,1.606135845E0,8.814770699E0
3.095999844E1,-1.116579056E0,1.420824528E0,9.208617210E0
3.097999844E1,-3.040827513E-1,6.634620428E-1,9.026867867E0
3.099999844E1,3.756502271E-1,1.730337590E-1,8.842639923E0
3.102000000E1,4.050989449E-1,-1.540908217E-1,9.099183083E0
3.104000000E1,-4.170603752E-1,4.713704288E-1,9.270933151E0
3.106199844E1,-9.011296630E-1,1.289852142E0,8.772230148E0
3.108199844E1,-4.418259859E-1,1.798342466E0,8.147746086E0
3.110200000E1,1.101083755E0,3.142897129E0,7.871819496E0
3.112399844E1,2.105594873E0,5.377884865E0,8.136378288E0
3.114399844E1,-2.316629589E-1,5.420310020E0,7.996317863E0
3.116399844E1,-1.858293176E0,4.022296906E0,8.931340218E0
3.118399844E1,-1.233301163E0,1.748523831E0,1.122332859E1
3.120400000E1,-6.594301462E-1,-2.271427065E-1,1.252659798E1
3.122599844E1,-9.606494755E-2,-1.044666886E0,1.231255531E1
3.124599844E1,1.471189111E-1,-8.400295973E-1,1.055795002E1
3.126599844E1,1.963053942E-1,-4.494395554E-1,9.113557816E0
3.128599844E1,7.734229416E-2,1.866998374E-1,8.219074249E0
3.130599844E1,-2.864039838E-1,7.219667435E-1,8.182691574E0
3.132599844E1,-9.930478334E-1,9.820153117E-1,8.824041367E0
3.134599844E1,-1.852087379E0,1.578573823E0,9.746891022E0
3.136599844E1,-2.063399553E0,2.188913345E0,1.020592690E1
3.138599844E1,-1.620357394E0,2.564946651E0,9.348926544E0
3.140599844E1,-1.110085964E0,3.053718090E0,7.976072311E0
3.142599844E1,-7.203003764E-1,3.447248220E0,6.963679314E0
3.144601250E1,-3.742999136E-1,3.284547806E0,7.477187634E0
3.146799844E1,1.225256622E-1,1.836965561E0,1.063730335E1
3.148799844E1,8.481411934E-1,1.203009725E0,1.243210220E1
3.150799844E1,1.511267900E0,1.149140239E0,1.208414841E1
3.152799844E1,1.463575482E0,1.341624379E0,1.035962486E1
3.154799844E1,9.165674448E-1,1.748303533E0,9.717203140E0
3.156799844E1,3.822390735E-1,1.711691380E0,1.149881458E1
3.158799844E1,1.469656825E-1,1.145453095E0,1.311831951E1
3.160799844E1,6.648219377E-2,6.849715710E-1,1.371837330E1
3.162799844E1,2.440170497E-1,4.352467060E-1,1.273122501E1
3.164799844E1,7.845415473E-1,2.845173776E-1,1.096203423E1
3.166799844E1,1.374042034E0,1.481723487E-1,9.858230591E0
3.168999844E1,1.517617464E0,2.496673539E-2,8.974483490E0
3.170999844E1,1.352503657E0,2.191843688E-1,8.099354744E0
3.172999844E1,8.598248959E-1,4.461068213E-1,7.977940083E0
3.174999844E1,4.080294073E-1,8.499990702E-1,8.303857803E0
3.176999844E1,3.043892086E-1,8.843510747E-1,8.315005302E0
3.178999844E1,4.086327851E-1,1.116138577E0,8.286437035E0
3.180999844E1,4.805067182E-1,1.179450750E0,8.539801598E0
3.182999844E1,5.046498179E-1,1.004817724E0,9.074838638E0
3.184999844E1,5.479657650E-1,1.011052251E0,9.298859596E0
3.186999844E1,3.918159008E-1,1.098134160E0,9.232616425E0
3.188999844E1,5.168602616E-2,1.327805042E0,9.168384552E0
3.190999844E1,-4.443542361E-1,1.620931983E0,9.429832458E0
3.192999844E1,-8.046720624E-1,1.937819004E0,9.434562683E0
3.194999844E1,-9.344282150E-1,2.263047457E0,9.057284355E0
3.196999844E1,-6.724259257E-1,2.459391117E0,9.131457329E0
3.198999844E1,-1.534396112E-1,2.486828566E0,9.228899956E0
3.200999844E1,2.089754939E-1,1.955162644E0,9.427168846E0
3.202999844E1,3.416046873E-2,1.235915661E0,9.975431442E0
3.204999844E1,-3.889237046E-1,7.958900928E-1,1.191890144E1
3.206999844E1,-3.779869974E-1,5.917413235E-1,1.441179180E1
3.208999844E1,2.241738886E-1,-9.136273526E-3,1.469317818E1
3.210999844E1,1.108716607E0,3.340390325E-2,1.117343235E1
3.212999844E1,9.503639936E-1,7.925956845E-1,8.359958649E0
3.214999844E1,-4.323737025E-1,1.947204232E0,7.591170788E0
3.216999844E1,-1.914719701E0,2.780175686E0,8.957924843E0
3.218999844E1,-2.725760221E0,3.639675140E0,1.066224194E1
3.220999844E1,-2.852154970E0,3.765878201E0,1.179411507E1
3.222999844E1,-2.286558390E0,2.875196695E0,1.156788254E1
3.224999844E1,-1.574197173E0,2.043010712E0,1.072878170E1
3.226999844E1,-1.169941068E0,1.583936810E0,1.010552311E1
3.228999844E1,-9.266039133E-1,1.453395367E0,9.598363876E0
3.230999844E1,-7.303272486E-1,1.460587502E0,8.795780182E0
3.232999844E1,-4.820485711E-1,1.308661103E0,8.403428078E0
3.234999844E1,-1.794789433E-1,1.200443149E0,8.007302284E0
3.236999844E1,1.602582783E-1,1.338808894E0,7.822632790E0
3.238999844E1,2.436722666E-1,1.611479759E0,7.872862816E0
3.240999844E1,5.883032084E-2,1.864642620E0,8.101279259E0
3.242999844E1,-2.049436606E-2,2.031432152E0,8.152103424E0
3.244999844E1,1.225543991E-1,2.160144567E0,8.105435371E0
3.246999844E1,2.801694870E-1,2.156122208E0,8.260436058E0
3.248999844E1,1.358565837E-1,1.960956573E0,8.493727684E0
3.250999844E1,-5.333323777E-2,1.859777570E0,9.027030945E0
3.252999844E1,-4.569286108E-1,1.780950904E0,9.870785713E0
3.254999844E1,-7.975660563E-1,2.042914867E0,1.112311649E1
3.256999844E1,-6.140935421E-1,2.509975910E0,1.135657978E1
3.258999844E1,2.317012697E-1,2.645468235E0,1.090105820E1
3.261000000E1,1.097952127E0,2.697920561E0,9.608160973E0
3.263000000E1,1.526859045E0,2.823587418E0,8.904889107E0
3.265199844E1,1.991056442E0,2.324980497E0,9.738913536E0
3.267199844E1,2.757718086E0,1.555034041E0,1.101176643E1
3.269200156E1,3.106850147E0,1.396949649E0,1.046514130E1
3.271399844E1,2.839657307E0,1.474148273E0,9.394014359E0
3.273399844E1,2.187869310E0,1.201008201E0,9.664703369E0
3.275400156E1,1.638064981E0,7.717374563E-1,1.245575809E1
3.277599844E1,1.537498951E0,9.140104651E-1,1.446467495E1
3.279599844E1,1.026557088E0,1.426704884E0,1.384935570E1
3.281599844E1,1.030837893E0,2.581236839E0,1.094958496E1
3.283599844E1,1.539347172E0,2.915658951E0,8.840695381E0
3.285599844E1,2.420997620E0,2.536426783E0,7.382051945E0
3.287599844E1,3.145214796E0,1.390217185E0,7.373777390E0
3.289599844E1,3.069098473E0,6.609816551E-1,8.292010307E0
3.291599844E1,2.479042768E0,2.740786374E-1,9.463187218E0
3.293599844E1,1.893267751E0,5.015373603E-2,9.752234459E0
3.295599844E1,1.478400350E0,1.836927384E-1,9.327694893E0
3.297599844E1,1.162250876E0,3.572531939E-1,8.853355408E0
3.299599844E1,8.982374072E-1,6.770898700E-1,8.522390366E0
3.301599844E1,6.264093518E-1,1.274232388E0,7.961208820E0
3.303599844E1,5.655679107E-1,1.708531022E0,7.433239937E0
3.305599844E1,4.874786139E-1,2.199715853E0,7.096509933E0
3.307599844E1,4.795011282E-1,2.492545843E0,7.020335674E0
3.309599844E1,4.573883116E-1,2.602957010E0,7.295046329E0
3.311599844E1,4.448522627E-1,2.222202063E0,7.852435589E0
3.313599844E1,5.119856596E-1,1.524972439E0,8.759148598E0
3.315599844E1,3.770197332E-1,8.637417555E-1,9.974560738E0
3.317599844E1,1.544930488E-1,7.162876725E-1,1.071023178E1
3.319599844E1,-2.405598164E-1,1.014921308E0,1.101847076E1
3.321599844E1,-6.227318645E-1,1.370373964E0,1.084709358E1
3.323599844E1,-2.574724555E-1,1.577616096E0,1.072972107E1
3.325599844E1,3.725665212E-1,1.534644961E0,9.738884926E0
3.327599844E1,-3.010086119E-1,1.643964291E0,8.745109558E0
3.329599844E1,-1.654144406E0,2.982935905E0,9.548239708E0
3.331599844E1,-1.972774267E0,3.917392731E0,1.213623714E1
3.333599844E1,-9.748806357E-1,3.446041584E0,1.293813229E1
3.335599844E1,-2.184086591E-1,2.192198038E0,1.217763805E1
3.337599844E1,-1.069240808E0,2.584473610E0,1.173913479E1
3.339599844E1,-2.220267773E0,3.957060099E0,1.174756241E1
3.341599844E1,-2.408241272E0,4.132468700E0,1.210348415E1
3.343599844E1,-1.499009609E0,3.246365309E0,1.213324928E1
3.345599844E1,1.201889291E-1,1.955267906E0,1.101327991E1
3.347599844E1,1.646626592E0,1.050192595E0,9.746315956E0
3.349599844E1,2.780041695E0,2.887694836E-1,8.080679893E0
3.351600156E1,3.171206236E0,2.015726268E-1,6.688805580E0
3.353799844E1,2.549710035E0,6.801065207E-1,7.174014568E0
3.355799844E1,1.301717877E0,1.596693158E0,8.351740837E0
3.357799844E1,2.560071945E-1,2.235035181E0,8.804618835E0
3.359799844E1,-3.815878630E-1,2.766471386E0,8.646821976E0
3.361799844E1,-4.973044097E-1,2.870485067E0,9.006278038E0
3.363799844E1,-2.685049474E-1,2.469006062E0,9.340116501E0
3.365799844E1,-1.693849862E-1,2.206754923E0,9.414939880E0
3.367799844E1,-2.969672084E-1,2.113429070E0,9.391944885E0
3.369799844E1,-4.100884497E-1,1.936114311E0,9.341887474E0
3.371799844E1,-5.742061734E-1,2.030819416E0,9.793050766E0
3.373799844E1,-4.176924229E-1,2.095108509E0,1.022505188E1
3.375800000E1,3.811569214E-1,1.952960014E0,9.891040802E0
3.377999844E1,8.406233788E-1,2.184096098E0,8.419813156E0
3.379999844E1,6.429293156E-1,2.369378567E0,9.079493523E0
3.381999844E1,5.377089977E-1,1.571333766E0,1.152893353E1
3.383999844E1,1.405559182E0,1.018206120E0,1.254258060E1
3.385999844E1,2.659670830E0,7.284789681E-1,9.417631149E0
3.387999844E1,3.057194233E0,5.647443533E-1,6.857549191E0
3.389999844E1,2.058908224E0,1.639549248E-2,7.020613194E0
3.391999844E1,3.955221176E-2,-2.919010520E-1,1.161262512E1
3.393999844E1,-1.702449799E0,2.175467312E-1,1.552150345E1
3.396000000E1,-2.080139875E0,8.770534992E-1,1.543183708E1
3.398000000E1,-1.525882244E0,1.767744541E0,1.175117302E1
3.400000000E1,-7.615860105E-1,2.714411974E0,8.814158440E0
3.402000000E1,-1.977227479E-1,3.258652210E0,6.839726448E0
3.404000000E1,2.678728700E-1,2.797902346E0,5.862528324E0
3.406199844E1,3.915669024E-1,1.706347585E0,6.677342415E0
3.408199844E1,2.471294999E-1,1.259235263E0,8.149067879E0
3.410199844E1,3.882724941E-1,1.258296609E0,8.714693069E0
3.412199844E1,5.577436686E-1,1.676075339E0,8.514729500E0
3.414200156E1,7.247822881E-1,2.162519455E0,8.318356514E0
3.416399844E1,1.139276147E0,2.303547621E0,8.713247299E0
3.418399844E1,1.699576735E0,2.133128405E0,9.387320518E0
3.420399844E1,2.169749975E0,2.402753830E0,9.745616913E0
3.422399844E1,2.343655348E0,3.064721823E0,9.622900009E0
3.424399844E1,2.510808945E0,3.424541473E0,9.601400375E0
3.426399844E1,2.682568789E0,3.452984571E0,9.591631889E0
3.428399844E1,2.668586731E0,3.439021826E0,9.449904442E0
3.430399844E1,2.365212679E0,3.317760229E0,9.627620697E0
3.432399844E1,1.770904779E0,3.356996298E0,1.011434364E1
3.434399844E1,1.621975780E0,3.232153177E0,1.007926369E1
3.436399844E1,1.905085444E0,2.994495153E0,9.639381409E0
3.438399844E1,2.247178555E0,3.009128332E0,9.234550476E0
3.440399844E1,2.354180098E0,3.024547100E0,9.328910828E0
3.442399844E1,2.012450933E0,2.814748049E0,9.217398643E0
3.444399844E1,1.751052141E0,2.577942371E0,1.054513645E1
3.446399844E1,1.782090545E0,1.777541518E0,1.317666149E1
3.448399844E1,2.047071218E0,6.517400146E-1,1.523149014E1
3.450399844E1,1.785202980E0,-5.697337985E-1,1.437778378E1
3.452399844E1,6.751361489E-1,-4.625884891E-1,1.211277485E1
3.454399844E1,-8.154650927E-1,2.741648257E-1,1.103421497E1
3.456399844E1,-1.820244551E0,5.751063824E-1,1.146292114E1
3.458399844E1,-1.781784058E0,4.942015409E-1,1.182134151E1
3.460400000E1,-1.097502112E0,5.040943623E-1,1.062781334E1
3.462600000E1,-3.118112385E-1,9.567900300E-1,8.771148682E0
3.464800000E1,7.357860357E-2,1.824467897E0,7.250839710E0
3.466999844E1,3.580959439E-1,2.600600958E0,6.194307327E0
3.469000000E1,8.282022476E-1,3.023206234E0,5.473288536E0
3.471200000E1,1.259139419E0,2.683047771E0,5.992475986E0
3.473201250E1,1.242380023E0,2.263277054E0,6.774269104E0
3.475399844E1,1.159904599E0,1.790259480E0,7.791124821E0
3.477399844E1,9.336333275E-1,1.555714011E0,9.115118027E0
3.479399844E1,5.262359381E-1,1.943861961E0,9.423281670E0
3.481399844E1,3.505781591E-1,2.315853834E0,8.433173180E0
3.483399844E1,3.193194568E-1,2.871720552E0,7.848729610E0
3.485400000E1,2.061407566E-1,3.356172800E0,8.069484711E0
3.487599844E1,2.542354763E-1,3.643189669E0,8.344626427E0
3.489599844E1,6.569114923E-1,3.385592699E0,8.674269676E0
3.491599844E1,7.867826223E-1,2.830980778E0,8.920565605E0
3.493599844E1,5.056074858E-1,2.510646105E0,8.934748650E0
3.495599844E1,-1.487182379E-1,2.617140055E0,9.849611282E0
3.497599844E1,-6.113641858E-1,3.161007166E0,1.164443970E1
3.499599844E1,-7.923945785E-1,4.048528194E0,1.240550804E1
3.501599844E1,-5.291759968E-1,4.702394009E0,1.057157803E1
3.503599844E1,-4.517092705E-1,5.146776676E0,8.436936378E0
3.505600000E1,-4.667639732E-1,5.061725616E0,7.729680061E0
3.507800000E1,-6.349422969E-3,3.735854864E0,1.102071190E1
3.509999844E1,1.270056963E0,1.995049953E0,1.233281994E1
3.511999844E1,2.586101770E0,1.491664290E0,1.109404087E1
3.513999844E1,3.490755558E0,7.788817286E-1,1.052388573E1
3.515999844E1,3.549059391E0,1.819688976E-1,1.256069088E1
3.517999844E1,2.977783680E0,6.288610101E-1,1.394658852E1
3.519999844E1,3.188214779E0,1.228646874E0,1.218347931E1
3.521999844E1,3.791860104E0,9.281362295E-1,9.922529221E0
3.523999844E1,4.064281940E0,9.676693082E-1,7.903029919E0
3.525999844E1,3.686563015E0,1.288530588E0,6.119953156E0
3.527999844E1,2.872237444E0,1.447065115E0,5.921942711E0
3.529999844E1,1.632558227E0,1.509601712E0,7.218968391E0
3.531999844E1,4.214944243E-1,2.066282272E0,8.550240517E0
3.533999844E1,-3.965372741E-1,2.360404968E0,9.364995956E0
3.535999844E1,-5.759204030E-1,2.273055077E0,9.214995384E0
3.537999844E1,-4.829871058E-1,2.077822208E0,9.054114342E0
3.539999844E1,-4.703648686E-1,1.882723689E0,9.097018242E0
3.541999844E1,-6.299911141E-1,2.244899273E0,9.007571220E0
3.543999844E1,-8.606867790E-1,2.764469624E0,8.755997658E0
3.546000000E1,-9.939863086E-1,3.101257324E0,8.676682472E0
3.548199844E1,-6.476507187E-1,3.079393625E0,8.808200836E0
3.550199844E1,7.517793030E-2,2.679992676E0,8.680178642E0
3.552199844E1,5.072834492E-1,2.435037136E0,8.525157928E0
3.554199844E1,5.241865516E-1,2.295618057E0,8.511109352E0
3.556199844E1,1.744894236E-1,2.326091528E0,9.024291992E0
3.558199844E1,1.939399093E-1,2.871232033E0,9.049497604E0
3.560200000E1,-6.157887168E-3,2.847701788E0,8.144739151E0
3.562200000E1,-5.493927002E-1,2.836899281E0,8.854504585E0
3.564200000E1,-1.360481083E-1,2.180504799E0,1.162112999E1
3.566400000E1,7.939842939E-1,1.771249533E0,1.255028152E1
3.568599844E1,9.715574980E-1,1.261524081E0,1.181906223E1
3.570599844E1,-2.870168984E-1,1.627808094E0,1.023995304E1
3.572599844E1,-2.144285440E0,2.750851631E0,1.035444355E1
3.574600000E1,-3.229931355E0,3.632205009E0,1.088636780E1
3.576799844E1,-2.969423056E0,3.484559536E0,1.050341129E1
3.578799844E1,-2.096927881E0,2.094801903E0,9.856392860E0
3.580799844E1,-1.387114286E0,1.588294268E0,9.087747574E0
3.582799844E1,-1.118207097E0,1.889111280E0,8.086761475E0
3.584799844E1,-9.218633771E-1,2.091067076E0,7.081694126E0
3.586800000E1,-6.955443025E-1,2.301287651E0,6.550363064E0
3.589000000E1,-2.474263757E-1,2.378754377E0,6.687254429E0
3.591000000E1,2.372653782E-1,2.192140579E0,7.268825054E0
3.593200625E1,6.545843482E-1,2.083223581E0,8.272799492E0
3.595400000E1,5.747041702E-1,2.420854092E0,9.393123627E0
3.597599844E1,5.759108067E-1,2.707315445E0,9.281869888E0
3.599599844E1,9.510439634E-1,2.510636568E0,9.546563148E0
3.601599844E1,1.055718541E0,2.190474272E0,1.019884014E1
3.603599844E1,8.651974201E-1,2.175668478E0,1.066563225E1
3.605600000E1,4.369226694E-1,2.382537127E0,1.088720131E1
3.607799844E1,-1.332421154E-1,2.955038548E0,1.015562916E1
3.609799844E1,-1.192312464E-1,2.742452621E0,1.088387775E1
3.611799844E1,9.127175808E-1,6.968850493E-1,1.341696262E1
3.613799844E1,2.265987396E0,-5.919806957E-1,1.384539032E1
3.615800000E1,2.992167950E0,-7.569316626E-1,1.108085346E1
3.617999844E1,2.170774937E0,1.365365237E-1,7.736173153E0
3.619999844E1,8.806927204E-1,1.200021744E0,7.720352650E0
3.621999844E1,-4.117068946E-1,5.467590094E-1,1.018975067E1
3.623999844E1,-9.315838814E-1,2.963830233E-1,1.197520351E1
3.625999844E1,-5.618903637E-1,-1.223437041E-1,1.256029797E1
3.627999844E1,-2.472348511E-1,-5.022556186E-1,1.289289093E1
3.629999844E1,-1.436329484E-1,-4.056256413E-1,1.208825779E1
3.631999844E1,-2.081423253E-1,1.973971426E-1,9.660393715E0
3.633999844E1,-4.091307819E-1,7.343208194E-1,7.769481659E0
3.635999844E1,-1.019690514E0,1.234345078E0,6.693891048E0
3.637999844E1,-1.515050769E0,1.833987236E0,6.655296326E0
3.639999844E1,-1.566468716E0,1.604469538E0,7.496120930E0
3.641999844E1,-1.319885135E0,1.062843680E0,8.169236183E0
3.643999844E1,-9.456330538E-1,6.628299356E-1,8.373346329E0
3.645999844E1,-1.165612340E0,1.233253241E0,8.546964645E0
3.647999844E1,-1.466295242E0,1.806741238E0,8.899410248E0
3.649999844E1,-1.534951448E0,2.105336428E0,8.974732399E0
3.651999844E1,-1.132313728E0,1.994053960E0,8.913296700E0
3.653999844E1,-5.390593410E-1,1.697852850E0,9.447654724E0
3.655999844E1,-9.285672009E-2,1.406152964E0,1.010712242E1
3.657999844E1,5.140734315E-1,1.194112897E0,1.039238644E1
3.659999844E1,8.657816052E-1,8.780208230E-1,1.061951923E1
3.661999844E1,9.237692356E-1,8.565400243E-1,1.075508881E1
3.663999844E1,8.075546026E-1,1.046026707E0,1.112448502E1
3.665999844E1,1.878299117E-1,1.141986370E0,1.134158230E1
3.668000000E1,-3.619554043E-1,8.806160688E-1,1.231748772E1
3.670000000E1,-5.348551273E-1,1.667513549E-1,1.377783585E1
3.672200000E1,-1.780519933E-1,-6.518549323E-1,1.485957432E1
3.674399844E1,5.243876576E-1,-1.151610970E0,1.431371593E1
3.676399844E1,1.007001162E0,-1.089907646E0,1.154980183E1
3.678399844E1,9.735015631E-1,-6.207686067E-1,9.056020737E0
3.680400000E1,1.637921333E-1,-4.844427705E-1,8.113441467E0
3.682599844E1,-1.142436385E0,-2.306478173E-1,1.008293152E1
3.684599844E1,-1.622014165E0,-3.165709376E-1,1.155464745E1
3.686599844E1,-1.465883493E0,-5.372779965E-1,1.210122490E1
3.688599844E1,-6.106555462E-1,-8.880477548E-1,1.089114666E1
3.690600000E1,1.822849363E-1,-9.447520375E-1,9.258416176E0
3.692799844E1,3.299018443E-1,-3.936642110E-1,7.790703773E0
3.694799844E1,4.194928706E-1,7.442136109E-2,6.875151157E0
3.696799844E1,3.589195609E-1,5.076377988E-1,6.270663261E0
3.698799844E1,3.236864805E-1,7.059926391E-1,6.333391190E0
3.700799844E1,4.538736045E-1,6.523529291E-1,6.789247513E0
3.702799844E1,6.689016819E-1,4.852663875E-1,7.083092213E0
3.704799844E1,7.177337408E-1,3.953306079E-1,7.624019146E0
3.706799844E1,6.754617095E-1,4.598303735E-1,8.112599373E0
3.708800000E1,6.257773042E-1,5.320778489E-1,8.847887993E0
3.710800000E1,4.511058927E-1,6.054648757E-1,9.506216049E0
3.712800000E1,1.878969371E-1,6.801544428E-1,1.044951248E1
3.714999844E1,-1.721431017E-1,7.895023823E-1,1.119673347E1
3.716999844E1,-5.278065801E-1,9.369085431E-1,1.164228439E1
3.718999844E1,-1.008284569E0,1.184220076E0,1.249496460E1
3.720999844E1,-1.205988169E0,1.203038454E0,1.343410587E1
3.722999844E1,-7.278564572E-1,1.352656960E0,1.351255894E1
3.724999844E1,3.170018792E-1,1.816538334E0,1.094967079E1
3.726999844E1,1.280179739E0,1.962766647E0,9.131341934E0
3.728999844E1,1.679685712E0,1.916271091E0,9.414757729E0
3.730999844E1,1.915418863E0,1.124891758E0,1.104239368E1
3.732999844E1,2.148527861E0,6.104926467E-1,1.052656746E1
3.734999844E1,1.740192056E0,8.022969961E-1,9.709589005E0
3.736999844E1,6.903632879E-1,8.533987999E-1,1.048300266E1
3.738999844E1,-1.466017663E-1,4.881489873E-1,1.242270756E1
3.740999844E1,-5.193310380E-1,-3.990176618E-1,1.362597656E1
3.742999844E1,-7.375386357E-1,-1.175878644E0,1.389946079E1
3.744999844E1,-6.846171618E-1,-1.008456945E0,1.205876064E1
3.746999844E1,-5.904675722E-1,-2.573766708E-1,9.431775093E0
3.748999844E1,-1.818539947E-1,2.836458683E-1,7.053615093E0
3.750999844E1,6.685569137E-2,8.201960325E-1,5.289481163E0
3.752999844E1,2.673653066E-1,1.075437188E0,4.701943874E0
3.754999844E1,-7.946834713E-2,1.428083897E0,4.443370342E0
3.756999844E1,-5.263413191E-1,1.617005467E0,6.027555943E0
3.758999844E1,-7.891671658E-1,1.288568974E0,8.023851395E0
3.760999844E1,-6.819739938E-1,6.967701316E-1,9.296829224E0
3.762999844E1,-4.435402155E-1,4.948336184E-1,9.309776306E0
3.764999844E1,-3.823827505E-1,6.280278563E-1,8.756821632E0
3.766999844E1,-5.538458824E-1,5.763514042E-1,9.175232887E0
3.768999844E1,-6.190447807E-1,5.119856596E-1,1.001994419E1
3.770999844E1,-5.057415962E-1,7.965796590E-1,9.794036865E0
3.772999844E1,-1.243739948E-1,9.834327102E-1,8.924281120E0
3.774999844E1,1.745851934E-1,9.929807782E-1,8.889258385E0
3.776999844E1,3.835511208E-1,1.223369956E0,9.182893753E0
3.778999844E1,2.191652209E-1,1.059884429E0,9.399205208E0
3.780999844E1,-4.510005414E-1,8.268327713E-1,9.469872475E0
3.782999844E1,-9.726780057E-1,6.912826300E-1,1.138588524E1
3.784999844E1,-6.585777998E-1,-6.464345008E-2,1.331916428E1
3.786999844E1,1.434893012E-1,-1.074105978E0,1.404830360E1
3.789000000E1,2.560933828E-1,-1.830060840E0,1.422156715E1
3.791200156E1,-5.628576875E-1,-1.440868855E0,1.370622063E1
3.793399844E1,-1.202655435E0,3.374866769E-2,1.160853577E1
3.795400000E1,-1.416658640E0,5.938003659E-1,1.004592705E1
3.797600000E1,-1.342505455E0,7.813716531E-1,9.710432053E0
3.799799844E1,-1.090826988E0,5.361862779E-1,1.000884533E1
3.801799844E1,-8.796871901E-1,3.696455956E-1,9.549302101E0
3.803799844E1,-7.302506566E-1,5.422101021E-1,8.300141335E0
3.805799844E1,-5.474294424E-1,8.236628175E-1,7.223957539E0
3.807799844E1,-2.342199683E-1,1.026528358E0,6.777602196E0
3.809799844E1,1.342380941E-1,1.127448678E0,6.541600704E0
3.811799844E1,4.899207056E-1,9.388813972E-1,6.722133160E0
3.813799844E1,9.495595694E-1,5.433497429E-1,7.702529907E0
3.815799844E1,8.251376748E-1,6.036165953E-1,9.011736870E0
3.817799844E1,7.818121910E-1,8.318893313E-1,9.923955917E0
3.819799844E1,9.405382276E-1,7.790732384E-1,1.025142574E1
3.821799844E1,1.042674780E0,9.929137826E-1,1.068922997E1
3.823800000E1,1.030023932E0,1.387181282E0,1.125866604E1
3.825999844E1,7.979300022E-1,1.765197039E0,1.070413113E1
3.827999844E1,2.631706595E-1,1.480258346E0,1.113767242E1
3.830000000E1,-1.452227086E-1,6.147064567E-1,1.358660603E1
3.832000000E1,-2.899857052E-2,-7.015010715E-2,1.669206810E1
3.834200000E1,9.935362339E-1,-4.777102768E-1,1.456850719E1
3.836200000E1,1.820914865E0,2.366428971E-1,9.409500122E0
3.838200000E1,1.976815701E0,1.091612339E0,6.068678856E0
3.840399844E1,9.973765016E-1,1.839024663E0,6.557201385E0
3.842400000E1,-4.218200445E-1,1.526102424E0,1.007671547E1
3.844599844E1,-1.429759741E0,1.177947283E0,1.238766670E1
3.846600000E1,-1.547947168E0,4.766472578E-1,1.389411736E1
3.848799844E1,-5.225584507E-1,-2.938451469E-1,1.263842583E1
3.850800000E1,3.808121383E-1,-4.047062695E-1,1.014801598E1
3.852800000E1,6.234788895E-1,9.879434109E-2,7.970948696E0
3.854800000E1,4.572350681E-1,7.386878729E-1,6.557421207E0
3.856999844E1,1.231577396E-1,1.267346621E0,5.595431328E0
3.858999844E1,-1.687337607E-1,1.527969956E0,5.604002476E0
3.860999844E1,-2.996008396E-1,1.461047292E0,6.544895172E0
3.862999844E1,-1.545217782E-1,9.386132956E-1,7.387290001E0
3.864999844E1,1.201697662E-1,6.005615592E-1,7.639419079E0
3.866999844E1,1.639836580E-1,7.520474792E-1,7.316287518E0
3.869000000E1,1.838459671E-1,8.427015543E-1,7.097064972E0
3.871000000E1,-1.608903520E-2,8.044326305E-1,7.687092304E0
3.873200625E1,-3.366439342E-1,6.517017484E-1,8.750414848E0
3.875400000E1,-6.420961618E-1,6.406692266E-1,9.222589493E0
3.877400625E1,-7.482167482E-1,9.998377562E-1,9.756927490E0
3.879599844E1,-1.062910676E0,1.165966630E0,9.897073746E0
3.881599844E1,-1.535468578E0,1.011090517E0,1.155312538E1
3.883599844E1,-1.473564029E0,3.256210089E-1,1.414735699E1
3.885600000E1,-6.848374605E-1,-3.951869309E-1,1.629343414E1
3.887799844E1,7.019799352E-1,-1.340791225E0,1.439367294E1
3.889800000E1,7.043262124E-1,-8.947993517E-1,1.067241287E1
3.891999844E1,-9.493009448E-1,3.283982873E-1,9.266873360E0
3.893999844E1,-2.345819473E0,8.029099107E-1,1.028963757E1
3.895999844E1,-2.686236858E0,8.343409896E-1,1.128410244E1
3.897999844E1,-2.651664495E0,8.484763503E-1,1.155548000E1
3.899999844E1,-2.021769285E0,6.348178387E-1,1.063004494E1
3.901999844E1,-1.214837074E0,7.913123965E-1,9.025278091E0
3.903999844E1,-5.958498120E-1,9.387568831E-1,7.388429642E0
3.905999844E1,-3.952060938E-1,1.136249900E0,6.040120602E0
3.907999844E1,-2.695296705E-1,1.385476708E0,5.568137169E0
3.909999844E1,-2.158133388E-1,1.608539701E0,6.043338299E0
3.911999844E1,-1.108994186E-1,1.647718430E0,6.604213715E0
3.913999844E1,1.875426024E-1,1.405405998E0,7.397374630E0
3.915999844E1,3.856484294E-1,1.064672709E0,8.768179893E0
3.917999844E1,6.573328972E-1,5.394423604E-1,9.932211876E0
3.919999844E1,8.659732342E-1,-2.453578077E-2,1.119889736E1
3.921999844E1,6.973543763E-1,-1.900804639E-1,1.258354092E1
3.923999844E1,5.543630123E-1,6.355168670E-2,1.299041176E1
3.925999844E1,5.655870438E-1,4.055011570E-1,1.192183208E1
3.927999844E1,5.019970536E-1,8.408053517E-1,1.108966446E1
3.929999844E1,2.713300884E-1,1.009529591E0,1.092315197E1
3.931999844E1,-4.878425226E-2,1.264128923E0,1.112366199E1
3.933999844E1,-4.519582391E-1,1.206150889E0,1.093360996E1
3.935999844E1,-5.445563793E-1,8.343026638E-1,1.192962742E1
3.937999844E1,1.412866414E-1,2.053075880E-1,1.350002289E1
3.939999844E1,1.267806411E0,-1.275726408E-1,1.263844490E1
3.941999844E1,2.059003830E0,2.432796210E-1,9.625562668E0
3.943999844E1,1.991554499E0,7.236427069E-1,7.718964100E0
3.945999844E1,1.510396481E0,9.432867169E-1,7.805260181E0
3.947999844E1,4.950347245E-1,6.673310399E-1,9.748356819E0
3.949999844E1,-4.574936628E-1,6.687963009E-1,1.213255978E1
3.951999844E1,-9.514174461E-1,2.749117911E-1,1.424203300E1
3.953999844E1,-1.006991625E0,-5.261018872E-1,1.468783379E1
3.955999844E1,-5.324704647E-1,-7.514441609E-1,1.266532707E1
3.957999844E1,-2.107855231E-1,-2.507782578E-1,9.828417778E0
3.959999844E1,-1.493024081E-1,3.638324440E-1,7.919281960E0
3.961999844E1,-3.143970072E-1,9.381439686E-1,6.645164013E0
3.963999844E1,-3.107194901E-1,1.239545345E0,6.136157036E0
3.965999844E1,-3.351403475E-1,1.051772833E0,6.066830635E0
3.967999844E1,-3.695785403E-1,9.493009448E-1,6.531573772E0
3.969999844E1,-5.933981538E-1,9.880391955E-1,7.156680584E0
3.971999844E1,-6.661722660E-1,9.056403041E-1,7.540730000E0
3.973999844E1,-5.842043161E-1,6.512037516E-1,7.510716438E0
3.976000000E1,-3.784275353E-1,6.505141854E-1,7.225193501E0
3.978200000E1,-2.299582809E-1,7.241119146E-1,7.131579876E0
3.980399844E1,-5.905154943E-1,1.008045077E0,7.540969372E0
3.982400000E1,-5.897493362E-1,9.893416166E-1,8.277300835E0
3.984400000E1,-8.629947901E-1,7.309306264E-1,9.111144066E0
3.986599844E1,-1.289545774E0,1.129900336E0,1.000802135E1
3.988600000E1,-1.485688329E0,1.149734020E0,1.046580315E1
3.990600000E1,-1.464466214E0,1.087628365E0,1.084358883E1
3.992799844E1,-1.706596613E0,3.591398299E-1,1.335600567E1
3.994799844E1,-1.503386259E0,-3.895749152E-1,1.507353973E1
3.996799844E1,-9.643940330E-1,-7.575253844E-1,1.517448807E1
3.998799844E1,-3.419590592E-1,-9.049507976E-1,1.304368782E1
4.000799844E1,-6.718034148E-1,-1.148536921E0,1.215701866E1
4.002799844E1,-1.734417081E0,-4.094563723E-1,1.181470490E1
4.004799844E1,-2.408940315E0,4.568807185E-1,1.092137146E1
4.006799844E1,-2.629618645E0,1.030722976E0,9.868477821E0
4.008799844E1,-2.257368088E0,1.244352818E0,8.703594208E0
4.010799844E1,-1.589232802E0,1.301861525E0,7.717565536E0
4.012799844E1,-9.188849926E-1,1.266245365E0,6.953872681E0
4.014799844E1,-4.971990585E-1,1.228273273E0,6.210607052E0
4.016799844E1,-3.310127556E-1,1.332794666E0,5.856131554E0
4.018799844E1,-3.518231511E-1,1.381253242E0,6.189164639E0
4.020799844E1,-2.594835758E-1,1.252071738E0,6.681450844E0
4.022800000E1,1.745851897E-2,9.592320919E-1,7.443573475E0
4.025000000E1,3.554623425E-1,4.620521963E-1,8.372380257E0
4.027199844E1,6.517783403E-1,4.538927674E-1,9.128612518E0
4.029199844E1,8.578520417E-1,2.752853036E-1,9.419019699E0
4.031199844E1,7.732983828E-1,4.234576821E-1,9.942630768E0
4.033201406E1,5.362341404E-1,5.338208079E-1,1.070268440E1
4.035399844E1,4.403319955E-1,5.648975372E-1,1.153240013E1
4.037399844E1,5.389252305E-1,3.672801256E-1,1.215120602E1
4.039400000E1,3.639952838E-1,2.647316456E-1,1.256157207E1
4.041599844E1,-5.772803426E-1,5.862921104E-2,1.293409061E1
4.043599844E1,-1.234718561E0,-1.862688735E-2,1.445327854E1
4.045600000E1,-1.164300323E0,-4.197993279E-1,1.577862167E1
4.047799844E1,-1.664257497E-1,-1.269080043E0,1.540350914E1
4.049799844E1,7.840531468E-1,-9.477494955E-1,1.197547150E1
4.051799844E1,1.172459722E0,-1.637250781E-1,8.687925339E0
4.053799844E1,9.772748351E-1,8.984481096E-1,5.596293449E0
4.055799844E1,5.103672147E-1,1.893459201E0,4.871549129E0
4.057799844E1,-5.076186657E-1,2.016329527E0,7.142478466E0
4.059799844E1,-1.121271729E0,1.402791500E0,9.907244682E0
4.061799844E1,-1.014691353E0,6.079931855E-1,1.199289131E1
4.063799844E1,-9.928275943E-1,-3.776709735E-1,1.409525013E1
4.065799844E1,-7.407181263E-1,-8.540596366E-1,1.447666550E1
4.067799844E1,-2.091670334E-1,-6.675992012E-1,1.226856899E1
4.069799844E1,-4.405330983E-4,-5.286397040E-2,9.312304497E0
4.071799844E1,-5.860047787E-2,7.035601139E-1,7.608916283E0
4.073799844E1,-3.844226003E-1,1.098440528E0,7.085007668E0
4.075799844E1,-6.746956110E-1,1.065448523E0,7.347834110E0
4.077799844E1,-7.868496180E-1,1.013953924E0,7.362304211E0
4.079799844E1,-7.566730976E-1,9.879625440E-1,6.829786301E0
4.081799844E1,-7.357573509E-1,1.058103085E0,6.592520714E0
4.083801094E1,-7.115184069E-1,9.862674475E-1,6.571595192E0
4.085999844E1,-6.585395336E-1,9.290172458E-1,6.902416706E0
4.087999844E1,-7.539341450E-1,9.334992766E-1,7.263088226E0
4.089999844E1,-9.125643373E-1,4.981950819E-1,7.648143291E0
4.091999844E1,-1.249734998E0,3.217998743E-1,9.297719955E0
4.093999844E1,-1.544145107E0,9.560813308E-1,1.028362274E1
4.095999844E1,-2.388446093E0,1.441069961E0,9.524507523E0
4.097999844E1,-2.736946106E0,1.713731289E0,1.174987030E1
4.099999844E1,-1.503386259E0,9.021160007E-1,1.506666279E1
4.101999844E1,8.314391971E-1,-1.001944661E0,1.610357285E1
4.103999844E1,2.167451620E0,-2.301498175E0,1.485751534E1
4.105999844E1,1.642920375E0,-2.714660883E0,1.425816154E1
4.107999844E1,1.572798938E-1,-2.227268219E0,1.355765533E1
4.109999844E1,-1.637375355E0,-3.640335798E-1,1.234297180E1
4.111999844E1,-2.702316523E0,8.031014204E-1,1.124123669E1
4.113999844E1,-2.645382166E0,1.188213587E0,9.845627785E0
4.115999844E1,-1.833613753E0,1.362741351E0,8.144289017E0
4.117999844E1,-1.149935007E0,1.537853241E0,7.258338451E0
4.119999844E1,-4.065929055E-1,1.199255586E0,6.687081814E0
4.121999844E1,-2.641379237E-1,1.021682501E0,6.852655411E0
4.123999844E1,-1.186949462E-1,9.861142039E-1,7.416068554E0
4.125999844E1,-4.341453910E-1,8.959964514E-1,7.998481750E0
4.127999844E1,-6.063267589E-1,1.210872293E0,7.927757263E0
4.129999844E1,-1.350617111E-1,1.115793705E0,8.327033043E0
4.131999844E1,4.456567168E-1,6.959944367E-1,8.689563751E0
4.133999844E1,6.949697137E-1,7.485998273E-1,8.899937630E0
4.135999844E1,3.274693191E-1,1.152271867E0,8.466768265E0
4.137999844E1,5.037879348E-1,1.774065137E0,8.322628021E0
4.139999844E1,-3.931470513E-1,1.199179053E0,7.791440964E0
4.141999844E1,9.327905774E-1,1.639376998E0,9.977021217E0
4.143999844E1,6.416364908E-1,2.714861870E0,9.743586540E0
4.145999844E1,9.499713778E-1,3.320853472E0,8.897887230E0
4.147999844E1,8.751956224E-1,3.121426105E0,9.135708809E0
4.150000469E1,4.196556807E-1,2.514093637E0,1.010117435E1
4.152199844E1,8.431324959E-1,1.214051723E0,1.246933746E1
4.154199844E1,1.065822005E0,-1.241278648E0,1.519855595E1
4.156201094E1,1.775195241E0,2.429061234E-1,1.276054001E1
4.158399844E1,2.370968342E0,1.941142082E0,8.275203705E0
4.160400000E1,2.441664219E0,2.499699593E0,6.344548225E0
4.162599844E1,1.900335312E0,2.362454653E0,6.523481369E0
4.164601250E1,6.375855207E-1,1.536110282E0,8.999957085E0
4.166799844E1,-5.651848316E-1,8.179167509E-1,1.249991608E1
4.168799844E1,-1.272901297E0,7.896938920E-1,1.373180008E1
4.170799844E1,-1.007480145E0,6.794170141E-1,1.231981564E1
4.172799844E1,-9.298121929E-2,9.366883039E-1,9.572630882E0
4.174799844E1,3.706990480E-1,1.319502115E0,7.346540928E0
4.176799844E1,6.541150808E-1,2.010583401E0,5.977105618E0
4.178799844E1,4.447469115E-1,2.468680382E0,5.221437931E0
4.180799844E1,2.990262210E-1,2.758752346E0,5.533479214E0
4.182799844E1,2.417664975E-1,2.472013235E0,6.251768112E0
4.184799844E1,2.572138608E-1,2.067172766E0,7.621797562E0
4.186799844E1,3.300933838E-1,1.784254909E0,8.532944679E0
4.188799844E1,5.622351766E-1,1.462598681E0,9.000263214E0
4.190799844E1,7.050732374E-1,1.468335152E0,9.112312317E0
4.192799844E1,5.323459506E-1,1.602822304E0,9.212657928E0
4.194799844E1,1.904060692E-1,1.842299938E0,9.312458038E0
4.196799844E1,-1.282621771E-1,1.969614029E0,9.776588440E0
4.198799844E1,-2.637069523E-1,2.080905914E0,1.021222782E1
4.200799844E1,-7.972691208E-2,2.013906717E0,1.046370506E1
4.202799844E1,1.424645782E-1,1.903466940E0,1.084876919E1
4.204799844E1,-1.896590889E-1,2.216427565E0,1.162674141E1
4.206799844E1,-7.958709598E-1,2.755419731E0,1.164937115E1
4.208799844E1,-1.260757923E0,2.995739937E0,1.150356483E1
4.210799844E1,-1.572798967E0,2.485602856E0,1.126921940E1
4.212799844E1,-1.833192348E0,1.672493577E0,1.162692356E1
4.214799844E1,-1.799127698E0,9.656677246E-1,1.236329365E1
4.216799844E1,-1.248911381E0,2.606519461E-1,1.238668060E1
4.218799844E1,-5.490287542E-1,-1.713769585E-1,1.040421391E1
4.220799844E1,-4.792138338E-1,-2.031719536E-1,8.743997574E0
4.222799844E1,-1.514725208E0,1.825530827E-1,9.094681740E0
