"Time (s)","Gyroscope x (rad/s)","Gyroscope y (rad/s)","Gyroscope z (rad/s)"
1.528556880E-1,-7.208209950E-3,2.993239760E-1,1.117010694E-2
1.748510000E-1,-1.393645406E-1,5.279970169E-1,-7.267551124E-2
1.948510000E-1,-1.961924583E-1,5.794667602E-1,-3.317870945E-2
2.148510000E-1,-2.021091282E-1,3.231826127E-1,8.037241548E-2
2.348510000E-1,-1.992991418E-1,1.978505254E-1,1.896823794E-1
2.568510000E-1,-1.362404078E-1,-2.059488557E-3,2.467895597E-1
2.788556880E-1,-7.199483365E-2,-4.030488729E-1,2.212030292E-1
3.008494380E-1,-5.995205790E-2,-6.974859238E-1,1.651255935E-1
3.208510000E-1,-2.759365551E-2,-7.233865857E-1,1.360658705E-1
3.428510000E-1,5.897467583E-2,-4.314977527E-1,1.037947312E-1
3.628510000E-1,5.541420355E-2,-8.276351541E-2,1.043706909E-1
3.828510000E-1,-9.087929130E-2,2.101899981E-1,1.763655245E-1
4.028588130E-1,-2.553416789E-1,2.761634588E-1,2.605951130E-1
4.248494380E-1,-3.145257831E-1,2.115688175E-1,2.608743608E-1
4.448510000E-1,-3.042632341E-1,1.453161091E-1,1.999449134E-1
4.668494380E-1,-3.047170341E-1,1.324530393E-1,1.494176388E-1
4.868494380E-1,-2.665466964E-1,1.740093231E-1,1.502728462E-1
5.068510000E-1,-1.580919176E-1,1.822472811E-1,1.245816052E-1
5.268510000E-1,-5.705481395E-2,1.801528782E-1,6.496115774E-2
5.488494380E-1,-4.263839498E-2,1.938711703E-1,4.379031062E-2
5.688510000E-1,-1.129402518E-1,2.993239760E-1,2.996730246E-2
5.908510000E-1,-2.049190998E-1,3.632902801E-1,-1.881464943E-2
6.128494380E-1,-2.033657581E-1,1.921607554E-1,-6.110397726E-2
6.328510000E-1,-1.218239814E-1,6.375687569E-2,-9.018116444E-2
6.528510000E-1,-1.436406001E-2,3.637266159E-2,-1.036027446E-1
6.748494380E-1,6.695082784E-2,6.578145921E-2,-1.518785506E-1
6.948494380E-1,-4.234168679E-2,2.028945237E-1,-1.406211704E-1
7.148494380E-1,-2.701944113E-1,2.347991467E-1,-1.319294423E-1
7.348510000E-1,-3.717900217E-1,-7.881906629E-2,-1.499237865E-1
7.568494380E-1,-3.405835629E-1,-4.274136722E-1,-1.712691635E-1
7.768494380E-1,-2.376091182E-1,-5.926614404E-1,-1.777966917E-1
7.968494380E-1,-2.443460980E-3,-7.565478683E-1,-1.808510125E-1
8.168494380E-1,3.677583337E-1,-9.569989443E-1,-2.542770207E-1
8.368510000E-1,6.985331178E-1,-1.005728483E0,-3.891560733E-1
8.568510000E-1,8.033925295E-1,-8.114908338E-1,-5.158320665E-1
8.788510000E-1,5.685933828E-1,-4.169591665E-1,-5.639507771E-1
9.008494380E-1,9.285151958E-2,-1.229933500E-1,-5.475272536E-1
9.208494380E-1,-3.970798552E-1,-7.171557844E-2,-5.401968360E-1
9.408494380E-1,-6.657732725E-1,-1.142143458E-1,-4.772253633E-1
9.608494380E-1,-5.310513377E-1,-2.564063072E-1,-3.742684126E-1
9.808494380E-1,-1.076693609E-1,-4.547106326E-1,-4.102745354E-1
1.000849438E0,2.766172290E-1,-4.835783839E-1,-5.426926613E-1
1.020849438E0,4.469613731E-1,-3.767118752E-1,-6.148620248E-1
1.040849438E0,3.472332656E-1,-2.000496387E-1,-6.243391633E-1
1.060849438E0,6.454227865E-2,-1.187522039E-1,-5.789780617E-1
1.080849438E0,-2.428800166E-1,-1.411796808E-1,-5.139994621E-1
1.100849438E0,-4.549375176E-1,-1.883210242E-1,-3.989124596E-1
1.120849438E0,-5.803917646E-1,-1.321388781E-1,-3.221877813E-1
1.140849438E0,-6.163979173E-1,-5.672320258E-3,-2.913478017E-1
1.160849438E0,-6.347936988E-1,1.625250578E-1,-2.989400029E-1
1.180849438E0,-6.742032170E-1,2.726378739E-1,-3.180339038E-1
1.200849438E0,-6.522120833E-1,2.743483186E-1,-3.329739273E-1
1.220849438E0,-5.338264108E-1,1.986010075E-1,-3.042806983E-1
1.240849438E0,-4.266980886E-1,1.835213751E-1,-2.935469151E-1
1.260851000E0,-3.393443525E-1,1.844813079E-1,-2.911558151E-1
1.282851000E0,-1.534144431E-1,5.049935579E-1,-3.303559124E-1
1.304849438E0,3.235840425E-2,1.711766601E0,-4.727922380E-1
1.324851000E0,5.619960278E-2,2.071164846E0,-1.238311082E-1
1.346849438E0,1.759291887E-1,3.853163421E-1,8.987224102E-1
1.366851000E0,2.756049335E-1,-1.298874021E0,1.457349896E0
1.388849438E0,9.060004354E-2,-2.090799809E0,1.680944085E0
1.408849438E0,-6.724753231E-2,-2.001107216E0,1.725519776E0
1.428849438E0,7.183775306E-2,-1.851410389E0,1.724228263E0
1.448851000E0,4.573635161E-1,-1.810168266E0,1.538926601E0
1.470849438E0,9.387428164E-1,-1.690438628E0,9.515883923E-1
1.490849438E0,1.185375214E0,-1.558456898E0,2.224945724E-1
1.510851000E0,1.179301500E0,-1.017038226E0,-2.401747555E-1
1.530851000E0,9.355313778E-1,-2.779611349E-1,-5.248554349E-1
1.552851000E0,5.165825486E-1,4.776093364E-1,-1.016462326E0
1.572851000E0,1.091528907E-1,1.047197580E0,-1.420348883E0
1.592854125E0,-8.663814515E-2,1.101145625E0,-1.694348216E0
1.614851000E0,5.681046844E-2,5.687504411E-1,-1.879684687E0
1.636849438E0,3.886324763E-1,1.774999872E-2,-1.943563700E0
1.656851000E0,6.829124093E-1,-1.639213264E-1,-1.818353772E0
1.678849438E0,8.066737056E-1,5.249950290E-2,-1.594969153E0
1.698849438E0,6.875898838E-1,3.203900754E-1,-1.369053721E0
1.718849438E0,4.887445569E-1,4.711690843E-1,-1.080812573E0
1.738849438E0,3.082775176E-1,3.884055614E-1,-7.466867566E-1
1.758849438E0,1.115439907E-1,8.773770183E-2,-5.079256892E-1
1.778849438E0,-1.528384835E-1,-1.548805237E-1,-3.421368897E-1
1.798849438E0,-3.973591030E-1,-2.446427941E-1,-1.662775129E-1
1.818849438E0,-4.914847016E-1,-2.935992777E-1,-6.054547057E-2
1.838863500E0,-5.643522143E-1,-1.147728488E-1,-6.824237294E-3
1.860849438E0,-8.402887583E-1,5.347514153E-1,-5.106833205E-2
1.880849438E0,-1.008329034E0,7.328288555E-1,-2.117782533E-1
1.900849438E0,-8.909382224E-1,2.369633466E-1,-3.381226361E-1
1.920849438E0,-7.175223231E-1,-2.037846446E-1,-3.522598147E-1
1.940849438E0,-6.446722746E-1,-4.001691043E-1,-2.031563222E-1
1.960849438E0,-6.415306926E-1,-4.467170238E-1,-3.487167880E-2
1.980849438E0,-5.784021020E-1,-3.896796703E-1,-1.675515994E-2
2.000849438E0,-3.448072374E-1,-5.457469821E-1,-3.293436393E-2
2.020849438E0,6.911503617E-3,-7.670896649E-1,-1.028347984E-1
2.040849438E0,3.012612760E-1,-6.258052588E-1,-2.705260217E-1
2.060851000E0,4.359832406E-1,-2.704911232E-1,-4.140793681E-1
2.082849438E0,4.027870893E-1,1.249481216E-1,-4.141317308E-1
2.102849438E0,3.385938704E-1,2.164731920E-1,-3.377735615E-1
2.122849438E0,3.098657429E-1,1.354026496E-1,-2.811027169E-1
2.142849438E0,2.641206682E-1,3.064798191E-2,-2.757620215E-1
2.162849438E0,1.657364666E-1,7.155850180E-4,-2.882934809E-1
2.182849438E0,6.695082784E-2,1.050688233E-2,-3.391698301E-1
2.202849438E0,4.171337001E-3,1.338667516E-2,-3.878994286E-1
2.222849438E0,-9.061749279E-2,-1.977458037E-2,-3.914249837E-1
2.242851000E0,-1.649685204E-1,-8.042477071E-2,-3.640756905E-1
2.262851000E0,-1.362753063E-1,-1.885130107E-1,-3.055722415E-1
2.282851000E0,-7.005751878E-2,-2.884156704E-1,-2.744704783E-1
2.304849438E0,-1.126086414E-1,-2.646966279E-1,-2.521477044E-1
2.324849438E0,-2.674891651E-1,-1.430646330E-1,-2.510132492E-1
2.344849438E0,-4.757069349E-1,1.598721556E-2,-2.385341525E-1
2.364849438E0,-6.727720499E-1,1.099208370E-1,-2.125810981E-1
2.384849438E0,-7.781375647E-1,1.415462047E-1,-1.784599125E-1
2.404849438E0,-7.138571143E-1,1.333606094E-1,-1.204277202E-1
2.424849438E0,-5.159367919E-1,7.431612164E-2,-8.484045416E-2
2.444849438E0,-2.742435932E-1,8.395033889E-3,-1.177224591E-1
2.464849438E0,-6.403613091E-2,-2.336995862E-2,-1.570970863E-1
2.484849438E0,5.846852902E-3,2.349213138E-2,-1.639562249E-1
2.504849438E0,-8.984954655E-2,1.960702837E-1,-1.200611964E-1
2.524849438E0,-1.211258471E-1,3.994534910E-1,-1.566781998E-1
2.544849438E0,2.234021425E-1,2.264739275E-1,-3.227462769E-1
2.564849438E0,8.466592431E-1,-3.494149148E-1,-6.453529596E-1
2.584849438E0,1.178359032E0,-6.692290306E-1,-8.466417789E-1
2.604849438E0,9.059305787E-1,-4.120547771E-1,-9.197186828E-1
2.624849438E0,2.803696990E-1,1.606924683E-1,-9.625665545E-1
2.644849438E0,-2.489712238E-1,6.726324558E-1,-1.002255321E0
2.664849438E0,-4.087037444E-1,9.347110987E-1,-1.008172035E0
2.684849438E0,-2.548355162E-1,8.100771308E-1,-9.273458123E-1
2.704849438E0,6.452482194E-2,3.013660014E-1,-8.099374771E-1
2.724849438E0,3.671474457E-1,-1.983392090E-1,-7.009940147E-1
2.744849438E0,5.095489025E-1,-4.366813898E-1,-6.835058331E-1
2.764849438E0,4.555309415E-1,-5.812295675E-1,-5.921378732E-1
2.784849438E0,2.912431061E-1,-4.527035058E-1,-4.737696350E-1
2.804849438E0,6.700319052E-2,-2.446602583E-1,-4.283736050E-1
2.824849438E0,-8.803440630E-2,-1.014036313E-1,-3.807261288E-1
2.844849438E0,-9.238027781E-2,-1.355946362E-1,-3.440567553E-1
2.864849438E0,-6.021386012E-3,-2.249729335E-1,-3.138625622E-1
2.884849438E0,6.003932562E-3,-3.636393547E-1,-2.862165570E-1
2.904851000E0,-1.165879965E-1,-4.300665855E-1,-2.094569653E-1
2.924851000E0,-2.187944800E-1,-3.204773664E-1,-6.791076064E-2
2.946849438E0,-2.963743508E-1,-9.655161202E-2,8.293804526E-2
2.966849438E0,-3.801152706E-1,4.159119725E-2,1.870818436E-1
2.986849438E0,-4.402767420E-1,6.393141299E-2,2.546958923E-1
3.006849438E0,-5.685933828E-1,1.716182232E-1,2.376614809E-1
3.026849438E0,-6.989694834E-1,4.016875327E-1,2.790606916E-1
3.046849438E0,-7.675085068E-1,3.029542565E-1,4.115835428E-1
3.066849438E0,-7.692189813E-1,2.187421173E-1,4.761781693E-1
3.086849438E0,-6.937509179E-1,3.111049235E-1,4.382521808E-1
3.106849438E0,-6.226985455E-1,1.269552559E-1,3.573561609E-1
3.126849438E0,-5.351179242E-1,-1.495747119E-1,2.219186127E-1
3.146849438E0,-2.468419224E-1,-1.352630109E-1,1.185253114E-1
3.166849438E0,2.460739762E-1,-6.003932655E-2,1.596976258E-2
3.186849438E0,6.368008256E-1,-1.666265875E-1,-2.277829200E-1
3.206849438E0,9.191776514E-1,-3.334625959E-1,-5.146976113E-1
3.226849438E0,9.129991531E-1,3.067590594E-1,-5.245935917E-1
3.246851000E0,6.592283249E-1,8.066911697E-1,-3.998374641E-1
3.266851000E0,3.303908408E-1,7.741582394E-1,-1.415811032E-1
3.288849438E0,1.067268848E-1,3.721739948E-1,3.602883220E-1
3.308849438E0,2.881014943E-1,-5.583831668E-1,6.861238480E-1
3.328849438E0,5.448743105E-1,-1.102925897E0,8.324347734E-1
3.348849438E0,6.643944979E-1,-8.352971077E-1,8.857196569E-1
3.368849438E0,6.665936112E-1,-4.527907670E-1,8.892103434E-1
3.388849438E0,5.167919993E-1,-2.622008026E-1,8.318413496E-1
3.408849438E0,2.838952541E-1,-1.733461022E-1,7.954512835E-1
3.428849438E0,3.068288788E-2,-7.457792014E-2,7.493396401E-1
3.448849438E0,-2.734058201E-1,1.624028832E-1,5.459215641E-1
3.468849438E0,-5.250124931E-1,4.276754856E-1,2.359336019E-1
3.488849438E0,-5.761681199E-1,5.134235024E-1,2.163335532E-1
3.508851000E0,-5.577548742E-1,3.542320132E-1,5.062327385E-1
3.530851000E0,-4.952022731E-1,-1.281420738E-1,8.126602173E-1
3.552852563E0,-3.837106228E-1,-5.698674321E-1,8.805186152E-1
3.574851000E0,-3.153286278E-1,-5.538628101E-1,7.176968455E-1
3.594851000E0,-3.124488294E-1,-7.396705449E-2,5.354495645E-1
3.614851000E0,-3.107035160E-1,4.807858467E-1,3.671300113E-1
3.636849438E0,-2.467895597E-1,9.528275728E-1,1.061160211E-2
3.656851000E0,4.696680978E-2,4.739616215E-1,-3.410547972E-1
3.678849438E0,4.536983371E-1,-3.072128594E-1,-4.422489703E-1
3.698849438E0,5.199161172E-1,-3.507762849E-1,-2.995333970E-1
3.718849438E0,3.339163959E-1,-4.372049868E-2,-1.733635515E-1
3.738849438E0,1.989675313E-1,-4.403465614E-2,-1.544965506E-1
3.758849438E0,3.728721440E-1,-3.042981625E-1,-3.071081340E-1
3.778849438E0,6.807656884E-1,-3.934146762E-1,-5.660102963E-1
3.798849438E0,7.650650740E-1,-6.291911751E-2,-6.621081233E-1
3.818849438E0,4.524591565E-1,5.401968360E-1,-5.644569397E-1
3.838861938E0,-6.155776232E-2,1.080236673E0,-4.195771515E-1
3.860849438E0,-3.350508511E-1,1.011365891E0,-2.292140871E-1
3.880849438E0,-1.546012610E-1,2.602635026E-1,-1.467123777E-1
3.900849438E0,2.047969401E-1,-4.902280867E-1,-1.902059764E-1
3.920849438E0,5.253790021E-1,-8.494517207E-1,-2.157052457E-1
3.940849438E0,6.726847887E-1,-8.334296346E-1,-2.612408698E-1
3.960849438E0,6.327167749E-1,-4.926889837E-1,-2.277131081E-1
3.980849438E0,5.209284425E-1,-8.075638115E-2,-2.196147740E-1
4.000849438E0,3.295356035E-1,1.837133616E-1,-2.081654221E-1
4.020849438E0,7.948229462E-2,2.629687488E-1,-1.736602634E-1
4.040849438E0,-1.698205322E-1,2.639286816E-1,-1.101826355E-1
4.060849438E0,-3.631855547E-1,3.112969100E-1,-9.564404376E-3
4.080849438E0,-4.957956672E-1,5.284682512E-1,7.545058429E-2
4.100849438E0,-5.771629214E-1,8.256629109E-1,1.618269235E-1
4.120849438E0,-5.990493298E-1,8.596794009E-1,2.384119779E-1
4.140849438E0,-5.086238384E-1,5.436875224E-1,2.738072574E-1
4.160849438E0,-3.935543001E-1,2.486395985E-1,2.009746581E-1
4.180849438E0,-2.329316437E-1,1.651605070E-1,3.516838327E-2
4.200849438E0,-3.028146178E-2,2.765823305E-1,-9.501572698E-2
4.220849438E0,1.054527909E-1,5.080130100E-1,-1.709550023E-1
4.240849438E0,1.465029418E-1,5.839347839E-1,-2.486047000E-1
4.260849438E0,3.071779385E-2,5.098804832E-1,-3.004409671E-1
4.280849438E0,-2.717303038E-1,4.979075193E-1,-2.808060348E-1
4.300849438E0,-5.781053901E-1,3.338989317E-1,-1.782853752E-1
4.320849438E0,-6.159964800E-1,-3.768165782E-2,-7.456046343E-2
4.340849438E0,-2.423215061E-1,-4.013908207E-1,-7.354817539E-2
4.360849438E0,2.881538570E-1,-3.648261726E-1,-1.437278688E-1
4.380849438E0,5.389576554E-1,1.004262418E-1,-1.750390679E-1
4.400849438E0,3.767816722E-1,4.516563118E-1,-5.096361414E-2
4.420849438E0,-6.248278543E-3,4.188790321E-1,2.182708681E-1
4.440849438E0,-3.607071936E-1,-3.008947708E-2,5.035449266E-1
4.460849438E0,-5.856103301E-1,-4.419173598E-1,6.987425685E-1
4.480849438E0,-6.517408490E-1,-5.893976688E-1,7.929030657E-1
4.500849438E0,-5.069134235E-1,-5.979323387E-1,7.936535478E-1
4.520849438E0,-2.767394185E-1,-4.881511331E-1,6.814637780E-1
4.540858813E0,-1.207767874E-1,-3.557330072E-1,5.422912240E-1
4.562851000E0,-7.168067247E-2,-3.683517277E-1,4.667359591E-1
4.582851000E0,-1.140398160E-1,-4.775569737E-1,4.467170238E-1
4.602851000E0,-2.302263826E-1,-4.448146224E-1,4.373446107E-1
4.622851000E0,-3.722263575E-1,-3.068463206E-1,4.270820618E-1
4.642851000E0,-4.817806780E-1,-2.608568966E-1,4.470311701E-1
4.662851000E0,-6.516186595E-1,-1.306553483E-1,4.314279258E-1
4.684849438E0,-8.369377255E-1,-8.243189752E-2,3.947760165E-1
4.704851000E0,-8.555778265E-1,-2.036799192E-1,3.237760365E-1
4.726849438E0,-6.429269314E-1,-2.650282383E-1,1.467298269E-1
4.746849438E0,-2.807013094E-1,-2.848202884E-1,-5.215043947E-2
4.766849438E0,-8.637634665E-2,-1.426283121E-1,-1.743234843E-1
4.786849438E0,-6.133086979E-2,1.277057379E-1,-2.398955077E-1
4.806849438E0,-5.810201168E-2,3.339512944E-1,-2.624451518E-1
4.826849438E0,1.007054932E-2,3.539702296E-1,-2.820102870E-1
4.846849438E0,1.741664112E-1,9.009389579E-2,-2.251125723E-1
4.866851000E0,3.407406211E-1,-2.185152173E-1,-1.166054457E-1
4.888849438E0,3.940080702E-1,-1.452113967E-2,1.588249579E-2
4.908849438E0,5.677032471E-1,1.509884298E-1,2.256710641E-2
4.928849438E0,8.989143968E-1,5.305801053E-3,-1.242848933E-1
4.948849438E0,1.082627773E0,-6.155776232E-2,-3.466573060E-1
4.968849438E0,8.916887045E-1,3.330437243E-1,-5.522047281E-1
4.988849438E0,2.852042615E-1,1.066343784E0,-4.936663806E-1
5.008849438E0,-4.233994186E-1,1.641970873E0,-2.701071501E-1
5.028851000E0,-7.844556570E-1,1.665148854E0,-1.054353416E-1
5.050851000E0,-4.572413564E-1,8.456469178E-1,-1.364847422E-1
5.072849438E0,1.728225052E-1,-2.464055866E-1,-2.628814876E-1
5.092851000E0,5.493249297E-1,-7.041530609E-1,-3.772005439E-1
5.114849438E0,6.936811209E-1,-7.792196870E-1,-4.808905721E-1
5.134858813E0,6.862634420E-1,-5.745623708E-1,-5.430068374E-1
5.156849438E0,6.130120158E-1,-3.543891013E-1,-5.760633945E-1
5.176849438E0,4.339586496E-1,-1.909215599E-1,-4.912054539E-1
5.196849438E0,1.551074088E-1,-3.843215108E-2,-2.746450007E-1
5.216849438E0,-1.274613887E-1,6.604325771E-2,2.417281084E-2
5.236849438E0,-3.079633415E-1,9.192649275E-2,3.028844297E-1
5.256851000E0,-3.605501056E-1,-1.451590359E-1,4.270646274E-1
5.276851000E0,-4.243244529E-1,-5.801125169E-1,3.349286914E-1
5.296851000E0,-5.998871326E-1,-7.654839754E-1,1.941853315E-1
5.318849438E0,-8.523664474E-1,-5.879141688E-1,1.717578471E-1
5.338863500E0,-1.071021318E0,-1.459793448E-1,3.101275563E-1
5.360849438E0,-1.126260996E0,2.474178672E-1,5.625720024E-1
5.380851000E0,-8.408821821E-1,1.156280637E-1,7.263362408E-1
5.402849438E0,-4.100127518E-1,8.552113548E-3,1.055138826E0
5.422851000E0,-2.548006177E-1,1.919862181E-1,1.193927407E0
5.442851000E0,-3.295879662E-1,3.875503540E-1,1.038418531E0
5.464849438E0,-2.847853601E-1,1.790707856E-1,6.601707935E-1
5.484849438E0,1.194503307E-1,-1.267109066E-2,3.439171314E-1
5.504851000E0,6.351602077E-1,1.246688664E-1,2.047794759E-1
5.524851000E0,8.655436635E-1,5.964837074E-1,1.965066195E-1
5.546849438E0,8.327314854E-1,8.457341790E-1,2.715557814E-1
5.566849438E0,7.064220309E-1,6.015975475E-1,4.645717442E-1
5.586849438E0,5.214171410E-1,2.007477731E-1,7.323401570E-1
5.606849438E0,2.703340352E-1,-4.764748737E-2,9.716247916E-1
5.626849438E0,9.864600748E-2,-1.928065270E-1,1.124166608E0
5.646849438E0,7.955210656E-2,-3.429920971E-1,1.173402309E0
5.666849438E0,1.378286481E-1,-4.693888426E-1,1.135825396E0
5.686849438E0,1.592089385E-1,-4.662821591E-1,1.051822662E0
5.706849438E0,9.248499572E-2,-3.930132389E-1,9.925861955E-1
5.726849438E0,-5.935864896E-2,-3.440218568E-1,9.917659163E-1
5.746849438E0,-2.203827202E-1,-3.551395833E-1,1.028522491E0
5.766849438E0,-3.297974169E-1,-4.320562482E-1,1.019394398E0
5.786849438E0,-4.709596336E-1,-2.803696990E-1,9.519723654E-1
5.806849438E0,-6.033777595E-1,-1.344078034E-1,7.898487449E-1
5.826849438E0,-5.980021358E-1,-5.588544160E-2,6.337814331E-1
5.846860375E0,-3.974289298E-1,-1.129053459E-1,4.724955261E-1
5.868849438E0,-2.013062686E-1,-2.893057764E-1,1.570272744E-1
5.888849438E0,-1.911310107E-1,-2.107310593E-1,-9.026842564E-2
5.908849438E0,-2.424087822E-1,-5.607742816E-2,-1.594707370E-1
5.928849438E0,-2.129476219E-1,-2.139773592E-2,-1.761211753E-1
5.948849438E0,-8.868017793E-2,2.949606441E-2,-1.760339141E-1
5.968849438E0,8.019787818E-2,1.088910922E-1,-1.089434549E-1
5.988849438E0,3.270747066E-1,1.759990007E-1,-4.452335089E-2
6.008849438E0,8.000589013E-1,-7.396705449E-2,-1.045975834E-1
6.028849438E0,1.099836707E0,-8.754571527E-2,-2.055823356E-1
6.048849438E0,9.636486173E-1,3.242472708E-1,-2.611361742E-1
6.068849438E0,4.267329872E-1,8.783195019E-1,-1.335351467E-1
6.088849438E0,-1.101302728E-1,9.978920221E-1,1.540776640E-1
6.108849438E0,-3.226066530E-1,7.736520767E-1,4.529303908E-1
6.128849438E0,-1.513025910E-1,3.005456924E-1,6.629458666E-1
6.148849438E0,2.117782533E-1,-2.399827689E-1,6.186668873E-1
6.168849438E0,4.496317208E-1,-5.811073780E-1,3.969925940E-1
6.188849438E0,5.147848725E-1,-5.860815644E-1,1.192059889E-1
6.208849438E0,5.355542898E-1,-3.834837377E-1,-1.471836120E-1
6.228851000E0,5.414534807E-1,-9.599310905E-2,-2.901784480E-1
6.250849438E0,4.870341122E-1,1.502902955E-1,-2.738421559E-1
6.270849438E0,3.254689872E-1,3.380004764E-1,-1.120152324E-1
6.290851000E0,1.363625675E-1,4.080405235E-1,1.691747606E-1
6.310851000E0,5.846852809E-2,2.336472273E-1,4.346393347E-1
6.332857250E0,1.736602560E-2,-2.930407785E-2,4.285481572E-1
6.354849438E0,-9.567894787E-2,-2.497566193E-1,1.719672978E-1
6.374849438E0,-1.751263440E-1,-3.193778098E-1,-2.268928103E-3
6.394849438E0,-2.427403927E-1,-1.599943340E-1,-6.003932655E-2
6.414849438E0,-3.160093129E-1,-2.373647690E-2,4.216715321E-2
6.434849438E0,-4.071154892E-1,-1.674992442E-1,1.644798219E-1
6.454849438E0,-5.240002275E-1,-3.329739273E-1,8.278096467E-2
6.474849438E0,-5.977927446E-1,-3.160093129E-1,-9.152506292E-2
6.494849438E0,-6.654765606E-1,6.110397726E-2,-2.184454054E-1
6.514849438E0,-6.728942394E-1,7.339458466E-1,-2.259328663E-1
6.534849438E0,-4.493873715E-1,1.043898821E0,-1.492256522E-1
6.554851000E0,-6.140068173E-2,7.324623466E-1,-1.035503820E-1
6.574851000E0,2.822197378E-1,1.045626774E-1,-1.428901106E-1
6.596849438E0,4.370653629E-1,-2.440319359E-1,-1.962273717E-1
6.616849438E0,4.379554689E-1,2.321287990E-2,-2.154434472E-1
6.636849438E0,3.968878686E-1,2.435781509E-1,-1.943773180E-1
6.656849438E0,3.297625184E-1,2.391973734E-1,-5.436700583E-2
6.676849438E0,2.248158604E-1,3.412118554E-2,1.456477195E-1
6.696851000E0,5.180137232E-2,-2.456376404E-1,3.281044364E-1
6.718851000E0,-1.263269335E-1,-5.052379370E-1,4.121595025E-1
6.740849438E0,-1.776047051E-1,-5.731835961E-1,4.177271128E-1
6.760849438E0,-1.428202987E-1,-5.569694638E-1,3.921056688E-1
6.780849438E0,-1.118057892E-1,-5.668131113E-1,3.469190896E-1
6.800849438E0,-1.418603659E-1,-4.590564966E-1,2.630560100E-1
6.820851000E0,-2.372251451E-1,-1.683370024E-1,1.723338068E-1
6.842852563E0,-2.768266797E-1,5.173156038E-2,2.103645355E-1
6.864849438E0,-2.435956001E-1,-1.058193147E-1,4.199436605E-1
6.884851000E0,-3.316125572E-1,-1.109156758E-1,7.972489595E-1
6.906849438E0,-5.025675297E-1,1.578824818E-1,1.111198783E0
6.926849438E0,-5.492725372E-1,1.750565171E-1,1.125458121E0
6.946849438E0,-3.790156841E-1,-4.523893446E-2,1.115597010E0
6.966849438E0,-8.412487060E-2,-2.258106917E-1,1.390922666E0
6.986849438E0,1.867676824E-1,-1.032885835E-1,1.738313079E0
7.006849438E0,3.524518013E-1,2.693566680E-1,1.736096501E0
7.026849438E0,5.514542460E-1,6.012833714E-1,1.133940458E0
7.046849438E0,7.608588338E-1,6.749711633E-1,3.749490678E-1
7.066849438E0,8.259944916E-1,6.487388611E-1,2.613979578E-1
7.086849438E0,8.940100074E-1,7.106631398E-1,5.627988577E-1
7.106851000E0,1.169143677E0,4.620235562E-1,7.306995392E-1
7.128849438E0,1.295557857E0,1.518436372E-1,5.484347939E-1
7.148849438E0,9.928829074E-1,3.344923556E-1,1.093274206E-1
7.168849438E0,3.985633850E-1,8.278270960E-1,-3.212278485E-1
7.188849438E0,-2.137504667E-1,1.545279622E0,-5.498834252E-1
7.208851000E0,-4.886398315E-1,2.106595039E0,-6.316521168E-1
7.230849438E0,-3.084695041E-1,1.782452345E0,-5.224643350E-1
7.250849438E0,1.084547564E-1,6.043376923E-1,-3.821572959E-1
7.270849438E0,2.862339914E-1,-4.613603354E-1,-2.700547874E-1
7.290849438E0,1.483355314E-1,-1.090376973E0,-2.783800066E-1
7.310849438E0,-1.025031880E-1,-1.062207341E0,-3.482106328E-1
7.330849438E0,-2.454282045E-1,-4.572413564E-1,-3.494847417E-1
7.350849438E0,-1.590518504E-1,1.009149402E-1,-3.436204195E-1
7.370849438E0,1.087340154E-2,4.103792608E-1,-3.385066092E-1
7.390851000E0,1.400975734E-1,4.953593612E-1,-3.772529066E-1
7.412851000E0,7.328637689E-2,1.851794273E-1,-3.521027267E-1
7.434849438E0,-1.620363742E-1,-1.324355900E-1,-2.525840402E-1
7.454849438E0,-3.496592641E-1,-2.913478017E-1,-1.377239376E-1
7.474849438E0,-4.497713447E-1,-1.448972374E-1,2.818706818E-2
7.494849438E0,-3.930481374E-1,1.455604564E-2,2.167175263E-1
7.514851000E0,-1.861742735E-1,-3.258878887E-1,3.328517377E-1
7.534883813E0,8.569566533E-3,-1.221433759E0,2.837556303E-1
7.556849438E0,-1.409004331E-1,-1.727631569E0,1.933301240E-1
7.576851000E0,-7.453952432E-1,-1.163488865E0,3.185051382E-1
7.596851000E0,-1.236740351E0,-7.197912335E-1,5.615422130E-1
7.618849438E0,-1.255973816E0,-5.332329869E-1,6.951297522E-1
7.638849438E0,-9.279741049E-1,-2.771059275E-1,5.002462864E-1
7.658849438E0,-5.340881944E-1,2.073451132E-1,1.223824844E-1
7.678849438E0,1.087340154E-2,8.644615859E-2,-3.030240536E-1
7.698849438E0,4.905596972E-1,-4.969825149E-1,-5.727123618E-1
7.718849438E0,5.893278718E-1,-9.289515018E-1,-5.496739745E-1
7.738849438E0,3.899240196E-1,-1.145843506E0,-3.248406649E-1
7.758851000E0,2.144660652E-1,-1.217436910E0,-3.839724511E-2
7.778851000E0,2.240304649E-1,-1.116452217E0,1.793325841E-1
7.798851000E0,3.369183540E-1,-8.329758644E-1,2.342057377E-1
7.820849438E0,3.672521710E-1,-3.157824278E-1,1.915324330E-1
7.840849438E0,2.964267135E-1,1.624901593E-2,1.646194607E-1
7.860849438E0,2.328967303E-1,1.812349856E-1,1.720196456E-1
7.880849438E0,1.036551073E-1,3.204250038E-1,2.643650174E-1
7.900849438E0,-1.369734406E-1,4.885351062E-1,4.573984444E-1
7.920849438E0,-4.296651483E-1,6.015102863E-1,6.636090875E-1
7.940849438E0,-6.736447215E-1,6.215815544E-1,7.807381153E-1
7.960849438E0,-7.576125264E-1,3.583335578E-1,6.774321198E-1
7.980849438E0,-7.192152739E-1,8.936085552E-2,3.788411617E-1
8.000849438E0,-5.587671399E-1,5.375614017E-2,5.010840297E-2
8.020851000E0,-4.099429250E-1,4.050385654E-1,-1.146855876E-1
8.042851000E0,-1.116661653E-1,5.982639790E-1,-7.415904105E-2
8.062851000E0,1.897172928E-1,4.970872104E-1,-5.338962004E-2
8.084849438E0,3.178419173E-1,4.431740046E-1,-7.285004109E-2
8.104849438E0,3.319790661E-1,4.491430223E-1,-2.453932911E-2
8.124849438E0,5.808106661E-1,3.132167757E-1,-1.907644793E-2
8.144849438E0,8.738165498E-1,3.919136822E-1,-1.181587875E-1
8.164851000E0,8.418595791E-1,9.069952369E-1,-2.913129032E-1
8.184851000E0,4.902455211E-1,1.577393651E0,-3.521201611E-1
8.204855688E0,1.153139025E-1,1.702010155E0,-1.703266799E-1
8.226851000E0,4.084070399E-2,1.152912140E0,1.796990931E-1
8.246851000E0,1.392947286E-1,3.593109250E-1,5.118352771E-1
8.266851000E0,2.338741207E-3,2.605776489E-2,7.556926608E-1
8.286851000E0,-8.600982279E-2,-3.583160937E-1,9.227730036E-1
8.306851000E0,6.719517708E-2,-6.838374734E-1,9.727592468E-1
8.328849438E0,3.615624011E-1,-8.330281973E-1,8.273209929E-1
8.348851000E0,4.728271365E-1,-6.193824410E-1,5.980370641E-1
8.370849438E0,4.049513042E-1,-2.007826716E-1,4.297000468E-1
8.390851000E0,2.234545052E-1,1.236216724E-1,3.779335916E-1
8.412854125E0,-4.398229532E-3,2.861467302E-1,3.223623037E-1
8.434851000E0,-2.165430039E-1,3.481582701E-1,3.530800939E-1
8.454851000E0,-3.246137798E-1,4.485496283E-1,4.590564966E-1
8.474851000E0,-3.242472708E-1,4.672071934E-1,5.649631023E-1
8.494851000E0,-2.098583877E-1,3.387858570E-1,5.105087757E-1
8.514851000E0,-6.965608895E-2,9.937904775E-2,3.493276536E-1
8.536851000E0,3.001966281E-3,7.316420227E-2,1.631359309E-1
8.558849438E0,1.336922217E-2,1.678832173E-1,-1.103048120E-2
8.578851000E0,6.820746511E-2,9.140289575E-2,-1.392772794E-1
8.600851000E0,1.531875432E-1,-1.016479731E-1,-2.054077983E-1
8.622851000E0,4.593706504E-2,-1.702219546E-1,-2.386563271E-1
8.642851000E0,-4.655840397E-1,2.666513920E-1,-1.827359647E-1
8.662861938E0,-9.016370773E-1,5.010840297E-1,-1.060811132E-1
8.684849438E0,-5.967629552E-1,-3.792600334E-2,-1.022588387E-1
8.704849438E0,1.567829251E-1,-3.877249062E-1,-3.710395396E-1
8.724851000E0,7.569318414E-1,-1.587551534E-1,-8.034273982E-1
8.744851000E0,1.033583999E0,1.295034308E-2,-1.174798608E0
8.766851000E0,1.091581225E0,-1.828057915E-1,-1.274334669E0
8.788849438E0,8.972912431E-1,-3.953519762E-1,-1.113363028E0
8.808851000E0,5.922251344E-1,-4.798259139E-1,-8.284903169E-1
8.830849438E0,3.395363390E-1,-5.076813698E-1,-4.518657327E-1
8.850851000E0,2.916619778E-1,-5.355368257E-1,-1.924574524E-1
8.872860375E0,3.541447520E-1,-5.510528088E-1,-1.005135104E-1
8.892868188E0,3.669205606E-1,-4.867548645E-1,-1.153139025E-1
8.914849438E0,2.447998822E-1,-4.255287349E-1,-1.577079445E-1
8.934851000E0,7.949974388E-2,-3.664318621E-1,-9.459684789E-2
8.956849438E0,-5.169665068E-2,-3.025353849E-1,-1.514945831E-2
8.976852563E0,-1.497492492E-1,-2.559350729E-1,8.587019518E-3
8.998851000E0,-2.328094691E-1,-3.398505151E-1,2.127556317E-2
9.018851000E0,-1.976934373E-1,-4.295080602E-1,4.188790335E-4
9.040851000E0,-1.129751652E-1,-3.963119090E-1,-3.893829510E-2
9.062851000E0,-6.674139202E-2,-2.775422633E-1,-7.457792014E-2
9.082857250E0,-1.109156758E-1,-1.133940443E-1,-1.134987622E-1
9.104849438E0,-2.757620215E-1,3.082600534E-1,-1.508662552E-1
9.124851000E0,-3.723834455E-1,5.256931782E-1,-9.622000158E-2
9.146849438E0,-2.207317948E-1,-7.915068418E-2,1.256462485E-1
9.166851000E0,1.788962446E-2,-7.715926170E-1,2.877873480E-1
9.186851000E0,5.113814492E-3,-8.454200625E-1,2.700896859E-1
9.208851000E0,-1.532050073E-1,-5.106135011E-1,1.577952206E-1
9.230849438E0,-1.203753576E-1,-5.084842443E-1,6.588617712E-2
9.250851000E0,-8.206538111E-2,-3.467969298E-1,-4.131194204E-2
9.272851000E0,-2.027199864E-1,3.569372892E-1,-1.064825356E-1
9.294851000E0,-4.978900850E-1,1.211572647E0,-1.596976258E-2
9.314851000E0,-6.080203652E-1,1.522101641E0,9.468410909E-2
9.336869750E0,-3.173881173E-1,1.142946362E0,9.819222242E-2
9.358858813E0,1.100081056E-1,3.372325301E-1,1.652826741E-2
9.380851000E0,3.035651147E-1,-3.574608862E-1,-1.118232459E-1
9.402849438E0,4.754276872E-1,-7.465471029E-1,-2.617470324E-1
9.422851000E0,6.210928559E-1,-8.547052145E-1,-3.642327487E-1
9.444871313E0,6.017546058E-1,-7.000166774E-1,-3.994011581E-1
9.466849438E0,3.746523857E-1,-2.202605456E-1,-3.028669953E-1
9.486849438E0,1.534493417E-1,2.302263826E-1,-1.001644433E-1
9.506849438E0,-1.631882787E-2,5.110324025E-1,1.505520940E-1
9.526849438E0,-1.719323844E-1,5.316272974E-1,3.034603894E-1
9.546849438E0,-3.084520400E-1,4.433659911E-1,3.773925304E-1
9.566849438E0,-3.983016014E-1,3.092025220E-1,3.674616218E-1
9.586849438E0,-4.282165170E-1,2.295107991E-1,3.180339038E-1
9.606851000E0,-4.907342196E-1,2.640159428E-1,2.851344347E-1
9.626851000E0,-6.772052050E-1,4.336968660E-1,2.377138436E-1
9.648860375E0,-9.489005804E-1,6.999992132E-1,2.216044515E-1
9.670849438E0,-9.840340614E-1,6.147049665E-1,2.113419175E-1
9.690849438E0,-7.820296884E-1,1.622458100E-1,2.243271619E-1
9.710849438E0,-6.052103639E-1,-1.225395650E-1,1.373748630E-1
9.730849438E0,-7.439116836E-1,1.889318973E-1,1.118756086E-2
9.750851000E0,-1.071527481E0,6.485992670E-1,8.871508390E-2
9.772860375E0,-1.196737409E0,5.727996230E-1,3.658908308E-1
9.794849438E0,-7.775616050E-1,1.834166497E-1,5.030213594E-1
9.814849438E0,2.364921197E-2,-9.936159104E-2,2.908940315E-1
9.834849438E0,7.516086102E-1,1.117010717E-3,-9.103637189E-2
9.854849438E0,1.040181279E0,4.351105690E-1,-2.999871969E-1
9.874851000E0,9.825680256E-1,6.368182898E-1,-2.224073112E-1
9.896851000E0,7.406479120E-1,4.085466564E-1,1.278279126E-1
9.918849438E0,4.842067063E-1,-1.375842988E-1,5.766916871E-1
9.938849438E0,2.790781558E-1,-5.430417657E-1,8.934863806E-1
9.958849438E0,1.840973347E-1,-6.736097932E-1,1.050216913E0
9.978849438E0,1.867327690E-1,-6.708173156E-1,1.058734179E0
9.998849438E0,2.249031216E-1,-5.686631799E-1,9.440660477E-1
1.001884944E1,1.584235430E-1,-4.389328659E-1,8.073195219E-1
1.003884944E1,-3.431317210E-2,-3.609864414E-1,7.167194486E-1
1.005884944E1,-2.544166446E-1,-3.396759629E-1,7.269470692E-1
1.007884944E1,-4.061730206E-1,-3.492578268E-1,7.673863769E-1
1.009884944E1,-4.856378734E-1,-3.433237076E-1,7.541916966E-1
1.011884944E1,-5.234242678E-1,-3.085741997E-1,6.463128924E-1
1.013884944E1,-5.612978935E-1,-2.582389116E-1,4.548502564E-1
1.015884944E1,-5.203524828E-1,-2.544864714E-1,2.157052457E-1
1.017884944E1,-4.191931784E-1,-3.014532626E-1,3.083996847E-2
1.019884944E1,-3.033731282E-1,-3.086614907E-1,-1.194154248E-1
1.021884944E1,-2.308547050E-1,-1.522974372E-1,-2.231927067E-1
1.023884944E1,-2.218488008E-1,7.679448463E-3,-1.881639510E-1
1.025884944E1,-2.439970225E-1,1.349314004E-1,-1.407608092E-1
1.027885100E1,-2.045351416E-1,3.227113932E-2,-1.514771283E-1
1.030084944E1,-8.026769012E-2,-2.326174825E-1,-1.492431015E-1
1.032084944E1,-6.558947265E-2,-1.366069168E-1,-5.253440887E-2
1.034084944E1,-7.597418129E-2,1.980774105E-1,9.808750451E-2
1.036084944E1,6.066764519E-2,3.376339376E-1,1.642005742E-1
1.038085100E1,4.437499642E-1,8.365362883E-2,2.539454028E-2
1.040284944E1,7.660773396E-1,5.941100791E-2,-2.876127958E-1
1.042285100E1,6.480058432E-1,5.794842243E-1,-4.774522781E-1
1.044484944E1,3.196744919E-1,1.089469433E0,-3.933972120E-1
1.046484944E1,1.563989520E-1,1.190017819E0,-2.147103995E-1
1.048484944E1,2.709449232E-1,9.232791662E-1,-2.740166895E-2
1.050484944E1,5.282238722E-1,3.970449567E-1,6.229080260E-2
1.052484944E1,8.052250743E-1,-8.808676898E-2,1.001818944E-2
1.054484944E1,9.667553306E-1,-4.025602043E-1,-1.079660654E-1
1.056485100E1,1.025852203E0,-5.605648756E-1,-2.103296220E-1
1.058684944E1,9.861983061E-1,-5.339660048E-1,-2.299645841E-1
1.060684944E1,8.329584002E-1,-3.369707167E-1,-1.689129621E-1
1.062685100E1,5.861164927E-1,-7.880161703E-2,-4.640830308E-2
1.064685881E1,3.533768058E-1,8.632398397E-2,9.711012244E-2
1.066884944E1,1.122944802E-1,8.288568258E-2,2.292664498E-1
1.068884944E1,-1.019970402E-1,8.018042892E-2,3.275983036E-1
1.070885100E1,-1.723687202E-1,9.763371944E-2,4.330685437E-1
1.073084944E1,-1.283166111E-1,-3.539527580E-2,5.351179242E-1
1.075084944E1,-1.634326279E-1,-2.578724027E-1,5.612978935E-1
1.077084944E1,-2.985385656E-1,-3.645818233E-1,5.630606413E-1
1.079084944E1,-4.840147197E-1,-3.591887653E-1,5.189736485E-1
1.081084944E1,-7.024426460E-1,-2.851344347E-1,4.366639256E-1
1.083084944E1,-9.375035763E-1,-1.892635077E-1,3.704810441E-1
1.085084944E1,-1.082540512E0,-1.301492006E-1,3.111398518E-1
1.087084944E1,-1.085420251E0,-7.993607782E-3,2.087413818E-1
1.089084944E1,-9.544333220E-1,8.473573625E-2,7.532840967E-2
1.091084944E1,-7.292160392E-1,2.103296220E-1,-3.728023171E-2
1.093084944E1,-5.419945717E-1,2.609092593E-1,-1.026951745E-1
1.095084944E1,-3.213500082E-1,7.525859773E-2,-1.031489596E-1
1.097084944E1,1.288053021E-2,-4.188266695E-1,-9.054768085E-2
1.099084944E1,3.410896957E-1,-6.000616550E-1,-1.674817950E-1
1.101084944E1,5.612280965E-1,-1.574112475E-1,-3.553490341E-1
1.103085100E1,6.516011953E-1,5.222723484E-1,-5.398477912E-1
1.105286819E1,7.162307501E-1,7.558148503E-1,-5.450488925E-1
1.107484944E1,7.366860509E-1,5.886122584E-1,-2.758143842E-1
1.109485100E1,6.052452922E-1,2.657438219E-1,1.261174977E-1
1.111684944E1,3.506017327E-1,-3.293436393E-2,4.779584110E-1
1.113684944E1,1.094321460E-1,-2.082701325E-1,7.081324458E-1
1.115684944E1,-1.031489577E-2,-2.890788913E-1,8.473049998E-1
1.117684944E1,-4.701916873E-2,-2.216044515E-1,8.788430691E-1
1.119685100E1,-2.455678210E-2,-7.499679923E-2,8.186292052E-1
1.121885100E1,-3.757693991E-2,5.354670063E-2,6.923022866E-1
1.124084944E1,-1.288751066E-1,7.417649496E-3,5.167919993E-1
1.126084944E1,-2.147802114E-1,-5.586798862E-2,3.519456387E-1
1.128084944E1,-2.197194993E-1,-1.041961554E-2,2.195449620E-1
1.130084944E1,-2.159146816E-1,1.700125188E-1,1.192234382E-1
1.132084944E1,-1.700299680E-1,2.683618367E-1,-1.193805225E-2
1.134084944E1,-7.386233658E-2,2.940530777E-1,-1.322086900E-1
1.136084944E1,2.722713538E-2,1.561197042E-1,-2.775247991E-1
1.138084944E1,-1.396263367E-3,-1.832595654E-2,-4.474151433E-1
1.140084944E1,-1.770461947E-1,-4.729842301E-3,-5.714557171E-1
1.142084944E1,-3.210183978E-1,1.358913332E-1,-6.180036068E-1
1.144084944E1,-3.672521710E-1,3.265685439E-1,-6.157521605E-1
1.146085100E1,-3.157824278E-1,4.549026191E-1,-6.358932853E-1
1.148285100E1,-1.685289890E-1,2.458819896E-1,-5.794842243E-1
1.150484944E1,-1.453859266E-2,-1.705186628E-2,-5.647361875E-1
1.152485100E1,2.250078470E-1,-2.885203660E-1,-6.872583032E-1
1.154684944E1,6.250722408E-1,-8.011584878E-1,-8.149640560E-1
1.156684944E1,7.785390019E-1,-9.475392699E-1,-8.980940580E-1
1.158684944E1,6.109874249E-1,-6.984633207E-1,-9.513964057E-1
1.160684944E1,2.147802114E-1,2.689552307E-2,-8.871682882E-1
1.162685100E1,-1.204975322E-1,7.240324020E-1,-7.438244224E-1
1.164885100E1,-2.131221592E-1,1.171901345E0,-6.037617326E-1
1.167084944E1,-6.949900836E-2,1.135581017E0,-5.002113581E-1
1.169084944E1,1.881639510E-1,5.790478587E-1,-4.829151630E-1
1.171084944E1,5.056742430E-1,-1.329068244E-1,-5.142437816E-1
1.173084944E1,7.027917504E-1,-5.056742430E-1,-6.113888621E-1
1.175085100E1,6.631901860E-1,-5.860990286E-1,-6.924942732E-1
1.177085100E1,4.841194153E-1,-3.410024345E-1,-6.978175640E-1
1.179085100E1,3.025004566E-1,5.462880712E-3,-5.980545282E-1
1.181285413E1,1.369734406E-1,2.875778973E-1,-4.105188847E-1
1.183484944E1,1.935570128E-2,4.341506362E-1,-1.747772694E-1
1.185484944E1,-8.735372871E-2,4.412017763E-1,2.642428502E-2
1.187485100E1,-2.109753937E-1,4.351978600E-1,1.526639462E-1
1.189684944E1,-2.944894135E-1,3.113842010E-1,2.032610476E-1
1.191684944E1,-3.233222365E-1,6.707300246E-2,2.239257395E-1
1.193684944E1,-3.050486445E-1,-1.881464869E-1,2.708401978E-1
1.195685725E1,-3.540749550E-1,-2.349387705E-1,2.761983573E-1
1.197884944E1,-5.184151530E-1,-2.261946723E-2,2.316575497E-1
1.199884944E1,-6.495591998E-1,9.471901506E-2,2.753256857E-1
1.201885100E1,-6.551442146E-1,-7.606144994E-2,3.341781795E-1
1.203885100E1,-5.558350086E-1,-3.405486345E-1,3.253991902E-1
1.206084944E1,-5.093219876E-1,-2.890265286E-1,2.739468813E-1
1.208084944E1,-6.228207350E-1,-1.933824830E-2,2.679952979E-1
1.210084944E1,-8.002683520E-1,1.407433450E-1,4.595626295E-1
1.212084944E1,-8.537103534E-1,4.909611121E-2,6.880437136E-1
1.214084944E1,-6.164328456E-1,-2.242573500E-1,7.813664675E-1
1.216084944E1,-1.511978656E-1,-4.611334503E-1,6.113190055E-1
1.218084944E1,2.545562685E-1,-2.823768258E-1,2.812947035E-1
1.220084944E1,4.062777460E-1,-2.764601447E-2,5.883504823E-2
1.222085100E1,4.051432908E-1,3.473205259E-3,4.501204193E-2
1.224085100E1,3.489960432E-1,-5.644394830E-2,1.570098251E-1
1.226284944E1,2.019695044E-1,-2.117084339E-2,3.148224950E-1
1.228285100E1,1.171639487E-1,7.370525599E-2,4.145157039E-1
1.230286975E1,1.939933449E-1,8.122762293E-2,4.380776286E-1
1.232484944E1,2.998475730E-1,4.649557173E-2,4.108854234E-1
1.234485100E1,2.813296318E-1,-2.541199327E-2,3.843738735E-1
1.236485100E1,1.614953130E-1,-8.250171691E-2,4.084244967E-1
1.238684944E1,-2.076941729E-2,-1.359611452E-1,5.047143102E-1
1.240684944E1,-2.588323355E-1,-1.852667034E-1,6.233792305E-1
1.242684944E1,-4.730540514E-1,-1.635024399E-1,7.149915695E-1
1.244685100E1,-5.390275121E-1,-1.146157682E-1,6.875375509E-1
1.246884944E1,-4.603829384E-1,-8.501498401E-2,5.387656689E-1
1.248884944E1,-3.379131854E-1,-8.986700326E-2,3.551570475E-1
1.250884944E1,-1.989151686E-1,-1.399405003E-1,1.495747119E-1
1.252884944E1,-7.234390080E-2,-2.253220081E-1,1.308996929E-3
1.254884944E1,-3.724532574E-2,-2.230705321E-1,-4.946263134E-2
1.256885100E1,-7.806857675E-2,-1.266934574E-1,-3.087487444E-2
1.258885100E1,-1.710073650E-1,1.811651699E-2,4.995132238E-2
1.260885100E1,-1.862615347E-1,4.071853310E-2,1.160294861E-1
1.262885100E1,-8.541641384E-2,-3.726277873E-2,1.478119344E-1
1.264885100E1,4.686209187E-2,-1.484053433E-1,1.638166010E-1
1.267085100E1,1.135511175E-1,-2.170666009E-1,1.107062325E-1
1.269285569E1,1.138303727E-1,-1.835737228E-1,-3.054326167E-3
1.271484944E1,6.930702180E-2,-1.949881762E-1,-1.092576087E-1
1.273485100E1,-6.887069345E-2,-1.534318924E-1,-1.133067757E-1
1.275684944E1,-2.634923458E-1,1.535540670E-1,5.354670063E-2
1.277684944E1,-2.642602921E-1,3.963468075E-1,2.106786966E-1
1.279684944E1,1.414065808E-1,3.501130641E-2,1.104793400E-1
1.281684944E1,7.274357677E-1,-3.223274052E-1,-3.115936220E-1
1.283684944E1,9.140289426E-1,-3.778637946E-2,-8.630478382E-1
1.285685100E1,7.921525836E-1,6.995454431E-1,-1.263670683E0
1.287884944E1,6.543239355E-1,1.105002880E0,-1.298472643E0
1.289884944E1,6.045994759E-1,8.695928454E-1,-1.085716963E0
1.291884944E1,5.779657960E-1,1.634151787E-1,-7.199134231E-1
1.293884944E1,5.452932119E-1,-2.614154220E-1,-4.244466126E-1
1.295884944E1,5.970073342E-1,-3.786317408E-1,-4.415682852E-1
1.297884944E1,6.916739941E-1,-3.346494436E-1,-5.394812822E-1
1.299884944E1,7.845255136E-1,-2.289697379E-1,-6.205692887E-1
1.301884944E1,7.936361432E-1,-6.178465486E-2,-5.945638418E-1
1.303884944E1,6.467317343E-1,9.381144494E-2,-4.610636234E-1
1.305884944E1,4.090528190E-1,1.042834222E-1,-2.729694843E-1
1.307884944E1,1.935570091E-1,8.714429289E-2,-7.623597980E-2
1.309884944E1,7.070329040E-2,-8.726646047E-5,6.974335760E-2
1.311884944E1,9.285151958E-3,-1.156106070E-1,1.671327353E-1
1.313884944E1,-9.185668081E-2,-2.628640234E-1,1.747249067E-1
1.315884944E1,-2.471909821E-1,-3.933797479E-1,2.098234892E-1
1.317884944E1,-3.780906796E-1,-4.366290271E-1,2.538057864E-1
1.319884944E1,-5.008396506E-1,-3.313333094E-1,2.829178572E-1
1.321884944E1,-6.810449362E-1,-3.272492439E-2,2.679778636E-1
1.323885100E1,-8.465195894E-1,1.454906464E-1,2.267706245E-1
1.326084944E1,-8.234987259E-1,7.984881103E-2,1.086641997E-1
1.328085100E1,-6.725975275E-1,-8.484045416E-2,1.834340952E-2
1.330085100E1,-6.044424176E-1,-1.121374071E-1,-2.984513063E-3
1.332085100E1,-6.038664579E-1,-4.016002640E-2,1.295034308E-2
1.334284944E1,-6.224192977E-1,1.797165573E-1,9.704031050E-3
1.336284944E1,-5.284158587E-1,3.338465691E-1,3.616322204E-2
1.338284944E1,-4.421966076E-1,5.578944683E-1,7.663740963E-2
1.340285100E1,-4.178667367E-1,7.465645671E-1,1.368163526E-1
1.342285881E1,-3.199188411E-1,3.744603992E-1,3.530277610E-1
1.344485100E1,3.944444004E-3,-3.489611149E-1,5.021835566E-1
1.346485100E1,3.488389552E-1,-3.839026093E-1,3.667111397E-1
1.348485100E1,5.714557171E-1,2.411870509E-1,1.336224079E-1
1.350684944E1,6.570640802E-1,7.077310085E-1,-5.134758726E-2
1.352684944E1,6.199933290E-1,6.816906929E-1,3.364994749E-2
1.354685100E1,4.339237511E-1,5.825210810E-1,3.185400367E-1
1.356685100E1,1.869073063E-1,3.675663471E-1,6.420891881E-1
1.358685100E1,4.530874640E-2,-1.120501384E-2,8.730660677E-1
1.360685100E1,6.944665313E-2,-3.460115194E-1,9.791646004E-1
1.362685100E1,1.406211704E-1,-4.155454338E-1,9.880483150E-1
1.364685100E1,1.312313080E-1,-2.934945524E-1,9.118646979E-1
1.366685100E1,4.644321278E-2,-1.952674389E-1,8.396604657E-1
1.368685100E1,-6.513568759E-2,-2.148325741E-1,8.208109140E-1
1.370685100E1,-1.520356238E-1,-3.080855310E-1,8.267450333E-1
1.372685100E1,-1.967160553E-1,-4.031884968E-1,8.189084530E-1
1.374685100E1,-2.604380250E-1,-3.646865487E-1,6.879215240E-1
1.376685100E1,-2.958158553E-1,-3.020990491E-1,5.203698874E-1
1.378685100E1,-2.235068679E-1,-2.824815512E-1,4.100651145E-1
1.380685100E1,-8.199556917E-2,-1.631184667E-1,2.899340987E-1
1.382685100E1,1.500983164E-2,-4.337143153E-2,1.382300705E-1
1.384685100E1,1.321214251E-2,-6.773623079E-2,1.764527895E-2
1.386685100E1,-2.420771681E-2,-6.424556673E-2,-4.756022245E-2
1.388685100E1,-4.590216093E-3,-1.589645892E-1,-1.328893751E-1
1.390685100E1,-1.049291939E-1,3.577924892E-2,-1.668534726E-1
1.392685100E1,-3.514918685E-1,6.374815106E-1,-1.058542207E-1
1.394685100E1,-4.746946394E-1,8.446521163E-1,-2.883283980E-2
1.396685100E1,-8.873254061E-2,4.483052790E-1,-1.050339118E-1
1.398685100E1,6.653544307E-1,-5.629908442E-1,-3.211580217E-1
1.400685100E1,1.031489611E0,-1.040861964E0,-4.927413464E-1
1.402685100E1,1.007089853E0,-1.061247468E0,-6.082298160E-1
1.404884944E1,6.242519021E-1,-4.044451416E-1,-6.540621519E-1
1.406884944E1,7.967428118E-2,5.653819442E-1,-6.398900747E-1
1.408884944E1,-4.492477477E-1,1.710632086E0,-5.309466124E-1
1.410884944E1,-5.982639790E-1,2.486483335E0,-3.973591030E-1
1.412885100E1,-6.400122494E-2,2.188538074E0,-3.225019276E-1
1.415084944E1,8.315795660E-1,6.032904983E-1,-4.566130340E-1
1.417084944E1,1.188586712E0,-6.011263132E-1,-5.630781054E-1
1.419084944E1,1.101163149E0,-1.286831260E0,-5.745275021E-1
1.421084944E1,7.447145581E-1,-1.230841041E0,-4.579394758E-1
1.423084944E1,4.016177058E-1,-8.285077810E-1,-2.838079929E-1
1.425084944E1,9.801769257E-2,-1.546012610E-1,-1.016654298E-1
1.427084944E1,-6.988298148E-2,3.509333432E-1,1.046848446E-1
1.429084944E1,-1.249481216E-1,4.199087620E-1,2.623927891E-1
1.431084944E1,-1.542696506E-1,1.891238838E-1,3.568500280E-1
1.433084944E1,-9.457939118E-2,-2.214648277E-1,3.000919223E-1
1.435084944E1,-3.953170776E-2,-4.683416486E-1,2.496169955E-1
1.437084944E1,-9.976302087E-2,-4.297873378E-1,2.740516067E-1
1.439085100E1,-2.081479728E-1,-2.827433348E-1,2.431592643E-1
1.441285256E1,-3.486469686E-1,-1.919513047E-1,1.854935884E-1
1.443285256E1,-4.338015914E-1,-3.037571013E-1,1.578650326E-1
1.445485100E1,-5.042780042E-1,-4.816061556E-1,1.363102198E-1
1.447684944E1,-6.022782326E-1,-4.840496182E-1,8.175121993E-2
1.449684944E1,-7.364591360E-1,-2.421295196E-1,8.606218547E-2
1.451684944E1,-8.209854364E-1,8.196066320E-2,1.662426144E-1
1.453684944E1,-7.522718310E-1,2.490759343E-1,2.503325641E-1
1.455684944E1,-4.120198786E-1,1.351757497E-1,2.234370559E-1
1.457684944E1,3.862413764E-2,-1.174432039E-1,-1.471312530E-2
1.459684944E1,3.558900952E-1,1.855284907E-2,-4.605225623E-1
1.461684944E1,5.115908980E-1,2.010270208E-1,-7.192850709E-1
1.463684944E1,5.658706427E-1,2.307325304E-1,-7.656410336E-1
1.465685100E1,5.324301124E-1,1.281595230E-1,-5.988573432E-1
1.467884944E1,4.081801474E-1,-2.307325229E-2,-3.136705756E-1
1.469884944E1,3.033033311E-1,-1.452288479E-1,-1.155931577E-1
1.471885100E1,2.823244631E-1,-2.158448696E-1,-5.703736097E-2
1.474084944E1,3.024480939E-1,-1.292939931E-1,-6.075491011E-2
1.476084944E1,3.045250475E-1,-7.871435024E-3,-6.892304868E-2
1.478084944E1,2.503151298E-1,-4.223696887E-3,-1.548107062E-2
1.480084944E1,1.094495952E-1,2.892010473E-2,5.293583497E-2
1.482084944E1,-7.869689912E-2,1.042485163E-1,9.485864639E-2
1.484084944E1,-2.041686177E-1,8.243189752E-2,1.018574163E-1
1.486084944E1,-2.559700012E-1,8.901178953E-4,6.005677953E-2
1.488085100E1,-2.890963256E-1,-6.946410239E-2,-9.913469665E-3
1.490085100E1,-3.587175310E-1,-1.178795397E-1,-3.710569814E-2
1.492285100E1,-3.893829584E-1,-2.568426430E-1,-7.433357090E-2
1.494484944E1,-3.650356233E-1,-3.324503005E-1,-1.703790426E-1
1.496484944E1,-3.049613833E-1,-1.913055331E-1,-2.911209166E-1
1.498484944E1,-2.131221592E-1,6.124360487E-2,-3.970449567E-1
1.500484944E1,-2.025279999E-1,2.146755010E-1,-4.157897830E-1
1.502484944E1,-2.400700450E-1,1.254542619E-1,-4.349360466E-1
1.504484944E1,-1.430820972E-1,-1.594532728E-1,-4.277278483E-1
1.506484944E1,4.347615317E-2,-4.743106663E-1,-3.989473581E-1
1.508484944E1,1.435882300E-1,-5.276479125E-1,-3.822270930E-1
1.510485100E1,1.635897160E-1,-3.327993751E-1,-4.181634486E-1
1.512485100E1,2.497391552E-1,-1.552993953E-1,-4.789532423E-1
1.514684944E1,4.621282816E-1,-2.143264264E-1,-5.781228542E-1
1.516685100E1,5.538802147E-1,-2.584483624E-1,-7.233691812E-1
1.518884944E1,3.813718855E-1,3.747221828E-2,-8.975878954E-1
1.520884944E1,1.495223492E-1,6.181432605E-1,-9.192125797E-1
1.522884944E1,9.145525284E-3,1.170470119E0,-8.201650977E-1
1.524884944E1,1.061683744E-1,1.258138061E0,-7.308217287E-1
1.526884944E1,4.146727622E-1,6.875550151E-1,-6.754423976E-1
1.528884944E1,6.367484927E-1,2.683269083E-1,-6.260495782E-1
1.530884944E1,7.547850609E-1,2.441191971E-1,-4.896870255E-1
1.532884944E1,9.642071128E-1,1.747074537E-2,-4.895648658E-1
1.534884944E1,1.151219130E0,-2.648711801E-1,-6.148969531E-1
1.536884944E1,1.114619613E0,-4.098731279E-1,-7.134208083E-1
1.538884944E1,8.958774805E-1,-3.956312239E-1,-7.080451846E-1
1.540884944E1,6.740286946E-1,-2.687108815E-1,-6.047565937E-1
1.542884944E1,4.752182364E-1,-1.273043156E-1,-4.188266695E-1
1.544884944E1,2.722364664E-1,-9.812241048E-2,-1.673072577E-1
1.546884944E1,7.398450375E-2,-1.800481677E-1,4.181808978E-2
1.548884944E1,-1.449321359E-1,-2.079734355E-1,2.202430964E-1
1.550884944E1,-3.316823840E-1,-2.632130980E-1,3.329389989E-1
1.552884944E1,-4.988674521E-1,-3.594505489E-1,3.900112808E-1
1.554884944E1,-6.671521068E-1,-3.549650609E-1,4.435405135E-1
1.556884944E1,-8.191702962E-1,-2.947686613E-1,5.078558922E-1
1.558884944E1,-1.024927139E0,-2.268753499E-1,4.921653867E-1
1.560884944E1,-1.314931035E0,-1.828406900E-1,4.433136284E-1
1.562884944E1,-1.463685513E0,-2.630036771E-1,4.274485707E-1
1.564884944E1,-1.535121799E0,-2.889916301E-1,4.636816084E-1
1.566884944E1,-1.593241215E0,-4.902629927E-2,5.087110996E-1
1.568884944E1,-1.589157224E0,2.580120265E-1,5.173854232E-1
1.570884944E1,-1.403017879E0,2.221978605E-1,4.406607151E-1
1.572884944E1,-1.175444365E0,1.264141947E-1,3.226241171E-1
1.574884944E1,-1.059030890E0,2.991319895E-1,2.462484986E-1
1.576884944E1,-8.283507228E-1,2.389006615E-1,1.705012172E-1
1.578884944E1,-2.737897933E-1,-2.391973734E-1,1.246688664E-1
1.580884944E1,3.528881073E-1,-5.541769266E-1,-1.851794310E-2
1.582884944E1,6.464001536E-1,-1.089958102E-1,-1.939758956E-1
1.584884944E1,6.188937426E-1,5.123239756E-1,-3.315601945E-1
1.586884944E1,4.717275798E-1,7.490429282E-1,-2.856754959E-1
1.588884944E1,3.903952539E-1,5.592907667E-1,-8.059930801E-2
1.590884944E1,3.280520737E-1,3.211929500E-1,1.785995364E-1
1.592884944E1,3.030066192E-1,1.483878940E-1,3.898367286E-1
1.594884944E1,3.807261288E-1,-9.651671164E-3,5.320636034E-1
1.596884944E1,4.562814236E-1,-1.962273717E-1,6.042853594E-1
1.598884944E1,3.926467299E-1,-3.319092691E-1,6.378305554E-1
1.600884944E1,2.286904901E-1,-3.946363926E-1,6.381098032E-1
1.602884944E1,6.935938448E-2,-3.487342298E-1,6.172356606E-1
1.604884944E1,-7.726572454E-2,-2.116386294E-1,6.097482443E-1
1.606884944E1,-2.549227774E-1,-1.189616397E-1,6.116331816E-1
1.608884944E1,-3.697305620E-1,-1.085594818E-1,5.657310486E-1
1.610884944E1,-4.360007048E-1,-1.451415867E-1,4.821122885E-1
1.612884944E1,-4.390899241E-1,-2.396860719E-1,3.770260215E-1
1.614884944E1,-3.694512844E-1,-4.400324225E-1,2.643126547E-1
1.616884944E1,-3.077189922E-1,-5.411219001E-1,1.522101611E-1
1.618884944E1,-2.391450107E-1,-4.192630053E-1,5.209807679E-2
1.620884944E1,-1.610066295E-1,-2.189690024E-1,-4.501204193E-2
1.622884944E1,-1.281595230E-1,-7.951720059E-2,-1.394692659E-1
1.624884944E1,-1.318421662E-1,-5.461135134E-2,-1.999449134E-1
1.626884944E1,-1.779712290E-1,-1.112821922E-1,-1.688431501E-1
1.628884944E1,-3.388382196E-1,8.779006451E-2,-1.581268385E-2
1.630884944E1,-4.504520297E-1,4.420919120E-1,2.003986984E-1
1.632884944E1,-3.554013968E-1,5.601983070E-1,2.975262702E-1
1.634884944E1,-1.124166548E-1,2.376440316E-1,2.291617244E-1
1.636884944E1,1.272694021E-1,-3.272841275E-1,3.227113932E-2
1.638884944E1,3.880565166E-1,-6.811496615E-1,-1.634849906E-1
1.640884944E1,6.191206574E-1,-8.363443017E-1,-3.487342298E-1
1.642884944E1,5.695881844E-1,-2.335774153E-1,-5.910382867E-1
1.644884944E1,4.308868945E-1,9.402263165E-1,-8.375311494E-1
1.646884944E1,3.921929300E-1,1.737335682E0,-9.964259267E-1
1.648884944E1,3.509682715E-1,1.973653197E0,-1.019743562E0
1.650884944E1,3.394840062E-1,1.804705381E0,-8.883551359E-1
1.652884944E1,4.989896417E-1,9.419018626E-1,-3.243519962E-1
1.654884944E1,5.748242140E-1,1.673770696E-2,4.209385216E-1
1.656884944E1,4.304679930E-1,-6.895097494E-1,8.732754588E-1
1.658884944E1,4.031710625E-1,-9.284628034E-1,1.052538276E0
1.660884944E1,5.504070520E-1,-1.188307405E0,9.600358009E-1
1.662884944E1,5.416629314E-1,-1.113066316E0,8.392415643E-1
1.664884944E1,3.255213499E-1,-6.553362012E-1,7.785913944E-1
1.666884944E1,5.087634921E-2,-9.953612834E-2,7.202973962E-1
1.668884944E1,-1.213701963E-1,1.173035800E-1,6.165375710E-1
1.670884944E1,-2.048143893E-1,1.193805188E-1,4.941899776E-1
1.672884944E1,-3.212802112E-1,-2.268928103E-3,3.584557176E-1
1.674884944E1,-4.290717542E-1,2.111848444E-3,2.199638486E-1
1.676884944E1,-4.264712036E-1,1.432915330E-1,1.791754961E-1
1.678884944E1,-2.925869823E-1,2.344675362E-1,1.557182819E-1
1.680884944E1,-2.600366175E-1,8.337438107E-2,1.367814541E-1
1.682884944E1,-4.281816185E-1,-3.934321105E-1,2.023011148E-1
1.684884944E1,-7.650650740E-1,-8.509702086E-1,3.101624548E-1
1.686884944E1,-1.396752119E0,-7.412064075E-1,3.118554354E-1
1.688884944E1,-1.979761839E0,-3.634822667E-1,4.774697125E-1
1.690884944E1,-1.772119999E0,-4.536983371E-1,7.393040061E-1
1.692884944E1,-8.743052483E-1,-3.599392474E-1,6.127327681E-1
1.694884944E1,1.440943778E-1,2.015855350E-2,1.748819835E-2
1.696884944E1,6.954787970E-1,1.969778538E-1,-5.221676230E-1
1.698884944E1,7.563035488E-1,1.606750041E-1,-4.132066965E-1
1.700884944E1,4.531747401E-1,1.021017581E-1,5.305801053E-3
1.702884944E1,-1.343903481E-3,8.951793611E-2,4.877671599E-1
1.704884944E1,-1.511629671E-1,1.227490082E-1,6.750584245E-1
1.706885100E1,7.672467083E-2,2.858151197E-1,6.269571781E-1
1.709084944E1,6.378305554E-1,2.891661525E-1,3.665540516E-1
1.711084944E1,9.542936683E-1,1.896300167E-1,-1.609193534E-2
1.713085100E1,8.511098027E-1,1.855808645E-1,-4.106410742E-1
1.715284944E1,4.470486343E-1,1.940806061E-1,-6.037966609E-1
1.717284944E1,1.874832660E-1,4.822344705E-2,-5.864306092E-1
1.719484944E1,4.207988828E-2,4.815363511E-2,-3.772180080E-1
1.721484944E1,-1.154535264E-1,2.279749066E-1,-1.082627699E-1
1.723484944E1,-2.409252524E-1,2.324254960E-1,1.887049973E-1
1.725484944E1,-2.866703272E-1,2.621484548E-2,2.572789788E-1
1.727484944E1,-2.508561611E-1,-2.075545490E-1,1.452812105E-1
1.729484944E1,-1.413193047E-1,-3.690673113E-1,-1.143190637E-2
1.731484944E1,-4.654793069E-2,-2.662150562E-1,-1.218239777E-2
1.733484944E1,-2.129301662E-3,4.139921069E-2,2.494424582E-1
1.735484944E1,-1.149648353E-1,7.709119469E-2,5.693438649E-1
1.737484944E1,-3.140545487E-1,-2.967583239E-1,7.961668372E-1
1.739484944E1,-3.350334167E-1,-7.403512001E-1,6.873978972E-1
1.741484944E1,-2.324778587E-1,-7.828674316E-1,2.647489905E-1
1.743484944E1,-9.473647177E-2,-4.139921069E-1,5.459389836E-2
1.745484944E1,1.785646379E-1,-1.024508253E-1,1.108807698E-1
1.747484944E1,5.499881506E-1,-1.065872535E-1,1.142492518E-1
1.749484944E1,6.793170571E-1,-1.572716236E-1,1.618618369E-1
1.751484944E1,4.499982297E-1,9.398598224E-2,4.081801474E-1
1.753484944E1,1.104618907E-1,6.458939910E-1,8.019613624E-1
1.755484944E1,-4.045673087E-2,6.345842481E-1,1.276847959E0
1.757484944E1,-1.865756884E-2,-2.635447122E-2,1.513549566E0
1.759484944E1,2.352529317E-1,-8.304451108E-1,1.296360731E0
1.761484944E1,7.328463197E-1,-1.211677432E0,6.575527787E-1
1.763484944E1,1.190471649E0,-1.134394169E0,1.461538672E-1
1.765484944E1,1.362613440E0,-5.866575241E-1,3.687880561E-2
1.767484944E1,1.201589346E0,-1.628566682E-1,1.745154709E-1
1.769484944E1,9.043248892E-1,-2.038893551E-1,3.459067941E-1
1.771484944E1,7.436499000E-1,-2.857802212E-1,5.663418770E-1
1.773484944E1,7.496014833E-1,1.223475765E-2,7.724652886E-1
1.775484944E1,7.689397335E-1,4.253891110E-1,7.257078886E-1
1.777484944E1,7.246083617E-1,4.835260212E-1,3.966958821E-1
1.779484944E1,6.123138666E-1,2.184628546E-1,-9.016370773E-2
1.781484944E1,4.227361977E-1,-3.998549283E-2,-5.488362312E-1
1.783484944E1,1.952674389E-1,-1.256637042E-3,-9.055989981E-1
1.785484944E1,-5.763076991E-2,1.499761492E-1,-1.055610061E0
1.787484944E1,-1.888969839E-1,2.163335532E-1,-1.059030890E0
1.789485100E1,-3.193603456E-1,2.114117295E-1,-9.514138699E-1
1.791684944E1,-5.135282278E-1,-4.675737023E-2,-8.170933127E-1
1.793684944E1,-5.240525603E-1,-4.908913076E-1,-9.079726338E-1
1.795684944E1,-6.329087615E-1,-9.352346659E-1,-1.151219130E0
1.797684944E1,-9.202248454E-1,-1.039518118E0,-1.313499928E0
1.799684944E1,-1.315367341E0,-4.779758751E-1,-1.020843029E0
1.801684944E1,-1.353956580E0,2.222153246E-1,-5.478413701E-1
1.803684944E1,-7.656235695E-1,1.906946748E-1,-3.263765574E-1
1.805685100E1,7.541567832E-2,-4.673817158E-1,-5.162335038E-1
1.807885412E1,3.212802112E-1,-3.154508173E-1,-9.153902531E-1
1.810084944E1,1.834340952E-2,8.188211918E-1,-8.917410970E-1
1.812084944E1,-1.830850355E-2,1.055575132E0,-5.524315834E-1
1.814084944E1,8.808676898E-2,5.347339511E-1,-1.057494953E-1
1.816084944E1,6.623524427E-2,-3.369008899E-1,2.195624262E-1
1.818084944E1,2.345722541E-2,-9.496336579E-1,3.279124498E-1
1.820084944E1,1.813746095E-1,-1.100028634E0,3.573386967E-1
1.822084944E1,3.787887990E-1,-9.937031865E-1,3.442138433E-1
1.824085100E1,4.052130878E-1,-6.374815106E-1,3.178244531E-1
1.826285100E1,2.080956101E-1,-2.410997748E-1,2.533345520E-1
1.828484944E1,-6.511823088E-2,-3.246312495E-3,1.990722567E-1
1.830484944E1,-2.262295783E-1,1.359087825E-1,1.797514558E-1
1.832484944E1,-2.700547874E-1,2.139599174E-1,1.239532828E-1
1.834484944E1,-2.518335581E-1,1.507091820E-1,-5.846852902E-3
1.836484944E1,-2.854136825E-1,4.825835302E-2,-1.464680284E-1
1.838485100E1,-3.592760265E-1,7.061602175E-2,-1.892285943E-1
1.840684944E1,-3.875329196E-1,1.196772233E-1,-2.448871434E-1
1.842684944E1,-4.365940988E-1,2.483952641E-1,-2.907893062E-1
1.844684944E1,-5.104913712E-1,3.571990728E-1,-3.395014405E-1
1.846685100E1,-4.856902361E-1,4.637514353E-1,-4.306599796E-1
1.848884944E1,-3.112096488E-1,2.619390190E-1,-5.215567350E-1
1.850884944E1,-6.682865322E-2,-1.532922685E-1,-5.434606075E-1
1.852884944E1,-1.956514083E-2,-4.142189920E-1,-5.654866695E-1
1.854884944E1,-2.024407387E-1,-3.828554153E-1,-5.391147733E-1
1.856884944E1,-2.295631617E-1,-7.707373798E-2,-4.576427937E-1
1.858884944E1,-2.797762863E-2,2.235941291E-1,-3.742684126E-1
1.860885100E1,3.182433248E-1,1.311614960E-1,-4.456698298E-1
1.863085100E1,4.201880097E-1,2.794621289E-1,-5.926265717E-1
1.865286194E1,2.815390527E-1,5.808629990E-1,-6.292784810E-1
1.867484944E1,1.422268748E-1,8.201127648E-1,-5.407379270E-1
1.869484944E1,2.358812541E-1,7.454825044E-1,-4.826358855E-1
1.871484944E1,4.935092926E-1,4.217064381E-1,-4.427900314E-1
1.873485100E1,6.845355630E-1,-4.392993823E-2,-4.872086644E-1
1.875485100E1,7.177841067E-1,-3.923674822E-1,-5.454502702E-1
1.877485100E1,7.204719186E-1,-5.389576554E-1,-6.158917546E-1
1.879684944E1,6.888465285E-1,-4.776268005E-1,-6.725451946E-1
1.881684944E1,5.985432267E-1,-2.355496287E-1,-6.605198383E-1
1.883684944E1,4.975410104E-1,6.665412337E-2,-6.137275696E-1
1.885684944E1,4.023332894E-1,2.192482650E-1,-5.688202381E-1
1.887684944E1,3.367787302E-1,9.114108980E-2,-6.580938697E-1
1.889684944E1,2.724109888E-1,2.442762852E-1,-9.209055305E-1
1.891685100E1,1.186474785E-1,1.291892767E0,-4.800353646E-1
1.893685100E1,2.054427117E-1,1.676231623E0,-1.072853878E-1
1.895685100E1,4.054050744E-1,1.487491727E0,1.374621242E-1
1.897884944E1,5.598841906E-1,2.735454440E-1,1.817062348E-1
1.899884944E1,4.872784615E-1,-8.639903069E-1,-3.808308393E-2
1.901884944E1,2.080257982E-1,-1.281560302E0,-2.536137998E-1
1.903884944E1,-1.793849468E-1,-1.208465934E0,-3.211405873E-1
1.905884944E1,-5.124461055E-1,-1.057320476E0,-2.638065219E-1
1.907884944E1,-8.543212414E-1,-8.055392504E-1,-9.817477316E-2
1.909885100E1,-1.252500653E0,-2.325127572E-1,1.913928092E-1
1.912084944E1,-1.592106819E0,3.937288225E-1,5.408077240E-1
1.914084944E1,-1.650138974E0,4.971395731E-1,5.980719924E-1
1.916084944E1,-1.508435726E0,3.140370846E-1,4.698950052E-1
1.918084944E1,-1.057547331E0,-3.053627908E-1,2.363350391E-1
1.920084944E1,-4.935791194E-1,-7.517656684E-1,-8.150687441E-3
1.922084944E1,-2.438573986E-1,-3.914424479E-1,-2.120749503E-1
1.924084944E1,-2.332283407E-1,4.191931784E-1,-2.861641943E-1
1.926084944E1,-7.164576650E-2,7.431437373E-1,-2.744530141E-1
1.928084944E1,2.196845859E-1,6.156998277E-1,-1.731890142E-1
1.930084944E1,4.274311364E-1,3.724358082E-1,-5.249950290E-2
1.932084944E1,3.813544512E-1,9.677850455E-2,6.862634420E-2
1.934084944E1,3.428873718E-1,-2.474527806E-1,1.643751115E-1
1.936084944E1,3.367089033E-1,-4.378158450E-1,2.330189049E-1
1.938084944E1,2.675589621E-1,-3.612656891E-1,2.877000868E-1
1.940084944E1,1.145285070E-1,-1.036551073E-1,2.661103606E-1
1.942084944E1,-2.399827726E-2,9.782570601E-2,1.846034676E-1
1.944084944E1,-6.448991597E-2,1.175130159E-1,4.771730304E-2
1.946084944E1,-8.126252890E-2,8.180358261E-2,-4.576253146E-2
1.948084944E1,-8.386307210E-2,4.070107639E-2,-8.382816613E-2
1.950084944E1,-6.672393531E-2,-9.616764262E-3,-9.492845833E-2
1.952084944E1,-4.827580601E-2,-1.395565271E-1,-1.071457639E-1
1.954084944E1,-1.509360671E-1,-8.768533915E-2,-1.188394651E-1
1.956084944E1,-2.588497698E-1,1.411622316E-1,-9.264207631E-2
1.958084944E1,-2.509085238E-1,2.298424095E-1,9.375908971E-2
1.960084944E1,-3.526612222E-1,3.919311464E-1,3.929608762E-1
1.962084944E1,-4.868246913E-1,6.456845403E-1,4.182157815E-1
1.964084944E1,-4.274485707E-1,5.248030424E-1,2.476447672E-1
1.966084944E1,6.572909653E-2,-3.434982598E-1,1.769763790E-2
1.968084944E1,4.506265521E-1,-1.231574178E0,-1.263967454E-1
1.970084944E1,3.520503640E-1,-1.286150575E0,-1.390678287E-1
1.972084944E1,-7.183775306E-2,-4.351105690E-1,-4.991641641E-2
1.974084944E1,-3.235840499E-1,3.788411617E-1,-6.007423252E-2
1.976084944E1,-6.188937649E-2,6.572211981E-1,-2.519382834E-1
1.978084944E1,3.819129467E-1,7.012034655E-1,-5.141914487E-1
1.980084944E1,4.293335378E-1,1.085699558E0,-5.633573532E-1
1.982084944E1,1.741489470E-1,1.764615178E0,-3.650006950E-1
1.984084944E1,2.741039693E-1,1.640714169E0,-1.687907875E-1
1.986084944E1,5.272465348E-1,6.223495007E-1,-1.658935398E-1
1.988084944E1,6.141988039E-1,-3.019419611E-1,-2.879618704E-1
1.990084944E1,4.639957845E-1,-1.015048623E0,-3.506191969E-1
1.992084944E1,1.218065247E-1,-1.259132862E0,-3.202853799E-1
1.994084944E1,-1.567829251E-1,-1.140921712E0,4.468042869E-3
1.996084944E1,-1.953547001E-1,-8.126602173E-1,5.266181827E-1
1.998084944E1,-3.928736225E-2,-2.557954490E-1,1.050513625E0
2.000084944E1,1.575857848E-1,1.859997362E-1,1.383819222E0
2.002084944E1,2.733010948E-1,2.518335581E-1,1.537373304E0
2.004084944E1,2.935469151E-1,-4.803146049E-2,1.481714725E0
2.006084944E1,2.922030091E-1,-3.393792808E-1,1.252099156E0
2.008085100E1,2.863387167E-1,-1.736602634E-1,9.313600659E-1
2.010085100E1,3.234094977E-1,1.593136489E-1,6.768561602E-1
2.012285100E1,4.286354184E-1,3.126408160E-1,4.053352773E-1
2.014484944E1,5.318541527E-1,3.257133365E-1,1.420174390E-1
2.016484944E1,5.378057361E-1,3.436378837E-1,-9.361945838E-2
2.018484944E1,3.765373230E-1,4.482529163E-1,-2.697057426E-1
2.020485100E1,-6.707300246E-2,6.825633645E-1,-3.003013432E-1
2.022485100E1,-5.176995397E-1,8.226958513E-1,-1.316676438E-1
2.024684944E1,-5.479460955E-1,5.387133360E-1,7.079055160E-2
2.026684944E1,-1.879719645E-1,2.367888242E-1,5.038765445E-2
2.028684944E1,1.128180847E-1,1.161865667E-1,-8.621926606E-2
2.030685100E1,7.487462461E-2,2.079908848E-1,-1.712342501E-1
2.032685100E1,-8.555603772E-2,2.003463507E-1,-7.614871860E-2
2.034685100E1,-2.922379375E-1,2.017077059E-1,1.616174877E-1
2.036884944E1,-4.042880535E-1,1.267807186E-1,3.610039055E-1
2.038885100E1,-3.691022396E-1,-8.377579972E-3,4.514468610E-1
2.040885100E1,-2.799333632E-1,-3.282091618E-1,6.508507133E-1
2.043084944E1,-2.562143207E-1,-7.249923348E-1,9.415527582E-1
2.045084944E1,-3.025179207E-1,-7.249050736E-1,9.673836231E-1
2.047084944E1,-2.358812541E-1,-5.687679052E-1,6.403613091E-1
2.049084944E1,6.190682948E-2,-4.323529601E-1,6.548475474E-2
2.051084944E1,3.176848292E-1,-2.823069990E-1,-4.501378536E-1
2.053084944E1,4.569446445E-1,-2.225469351E-1,-6.351078749E-1
2.055084944E1,5.571091175E-1,-2.342929989E-1,-6.836978197E-1
2.057084944E1,7.025299072E-1,-8.506734669E-2,-7.985754013E-1
2.059084944E1,9.088453054E-1,1.530304700E-1,-1.043462515E0
2.061084944E1,9.687449932E-1,-1.260127686E-2,-1.393104315E0
2.063084944E1,6.937683821E-1,-5.654343367E-1,-1.716077566E0
2.065084944E1,4.817108624E-3,-1.480213702E-1,-1.720859766E0
2.067084944E1,-3.333927989E-1,3.592061996E-1,-1.359384537E0
2.069084944E1,4.283038154E-2,2.000321895E-1,-8.861734867E-1
2.071084944E1,4.098731279E-1,1.773778051E-1,-5.115908980E-1
2.073084944E1,1.870818436E-1,4.245338738E-1,-3.039665520E-1
2.075084944E1,-2.491457462E-1,5.784370303E-1,-4.427900165E-2
2.077084944E1,-3.962071836E-1,2.622182667E-1,1.458746195E-1
2.079084944E1,-3.734306395E-1,-1.333955079E-1,2.309070528E-1
2.081085100E1,-3.549475968E-1,-4.238357544E-1,1.810429990E-1
2.083085100E1,-4.153883457E-1,-5.676334500E-1,4.466297477E-2
2.085284944E1,-5.056742430E-1,-4.813618064E-1,-1.080358773E-1
2.087284944E1,-4.682718217E-1,-3.106860518E-1,-2.199638486E-1
2.089285725E1,-3.711966276E-1,-1.054004356E-1,-3.527834117E-1
2.091484944E1,-2.774550021E-1,4.461061582E-2,-5.229181051E-1
2.093484944E1,-1.472010612E-1,-1.624901593E-2,-6.694734097E-1
2.095485100E1,1.371828746E-2,-1.919164062E-1,-7.583455443E-1
2.097684944E1,1.377762854E-1,-3.289596438E-1,-7.082720399E-1
2.099684944E1,1.621759981E-1,-1.929636002E-1,-5.559048057E-1
2.101684944E1,1.580221057E-1,-1.167450696E-1,-4.096113145E-1
2.103684944E1,6.002187356E-2,-2.201383710E-1,-3.885975480E-1
2.105685256E1,-2.337694019E-1,-3.183131516E-1,-2.908416688E-1
2.107884944E1,-6.853559017E-1,-2.586577833E-1,8.883725852E-3
2.109884944E1,-7.890284657E-1,-3.134436905E-1,3.834837377E-1
2.111885100E1,-5.439318419E-1,-5.093394518E-1,5.063549280E-1
2.114084944E1,-2.144835144E-1,-5.345943570E-1,2.746101022E-1
2.116084944E1,-1.056273282E-1,-2.625324130E-1,-7.742280513E-2
2.118084944E1,-1.673421711E-1,6.914994121E-2,-3.481931984E-1
2.120084944E1,-1.766622216E-1,1.953372508E-1,-4.569446445E-1
2.122084944E1,-7.290240377E-2,-2.780309506E-2,-6.741857529E-1
2.124085100E1,2.267008126E-1,-3.978478014E-1,-1.660488844E0
2.126284944E1,4.933347702E-1,5.956459641E-1,-1.497963786E0
2.128284944E1,5.033180714E-1,1.116574407E0,1.481784508E-2
2.130284944E1,3.424161375E-1,1.148007751E0,8.265006542E-1
2.132285100E1,4.090702832E-1,5.908812284E-1,9.479057789E-1
2.134285100E1,7.090399861E-1,-4.339412153E-1,3.968355060E-1
2.136285100E1,1.009829998E0,-1.112734675E0,-1.632930040E-1
2.138285100E1,1.119628668E0,-9.023875594E-1,-2.620961070E-1
2.140285256E1,1.190035343E0,-4.985533059E-1,-9.519025683E-2
2.142485100E1,1.218903065E0,-2.237512022E-1,1.083500385E-1
2.144485100E1,1.057983637E0,-8.185594343E-3,4.777315259E-1
2.146485100E1,9.125628471E-1,1.101651788E-1,8.342324495E-1
2.148485100E1,8.461879492E-1,-3.782128543E-2,8.041080832E-1
2.150684944E1,7.411016822E-1,-5.144183636E-1,1.751437932E-1
2.152685100E1,5.362524390E-1,-7.343472838E-1,-5.262691379E-1
2.154884944E1,3.666238487E-1,-6.992661357E-1,-1.118546605E0
2.156884944E1,4.057890475E-1,-9.917309880E-1,-1.191640973E0
2.158884944E1,4.285655916E-1,-1.270983696E0,-1.034631133E0
2.160884944E1,1.610066295E-1,-7.862882614E-1,-7.856948376E-1
2.162884944E1,-2.907020450E-1,1.534493417E-1,-4.072551131E-1
2.164885100E1,-7.138221860E-1,1.061963081E0,1.030965969E-1
2.167085100E1,-9.292132854E-1,1.625739336E0,7.797433138E-1
2.169285256E1,-8.115780950E-1,1.188063025E0,1.325420499E0
2.171285569E1,-4.402244091E-1,1.181587856E-2,1.404675841E0
2.173285569E1,-9.440486133E-2,-6.377607584E-1,1.089556694E0
2.175285725E1,7.068583369E-2,-5.378755927E-1,7.106282711E-1
2.177285725E1,8.281587064E-2,-1.152789965E-1,5.621880293E-1
2.179485100E1,8.049458265E-2,4.483750835E-2,7.425677776E-1
2.181485256E1,9.998991340E-2,2.003114372E-1,9.668600559E-1
2.183684944E1,8.375835419E-2,3.736051917E-1,1.161254764E0
2.185685412E1,6.351253390E-2,4.448146224E-1,1.331825852E0
2.187885100E1,1.487893164E-1,3.870791197E-1,1.368233442E0
2.190084944E1,1.377064735E-1,4.586725235E-1,1.178062320E0
2.192084944E1,4.749041051E-2,5.955063105E-1,8.240222931E-1
2.194084944E1,-5.689773243E-3,6.040759087E-1,2.286904901E-1
2.196084944E1,-1.326624751E-1,3.068637848E-1,-2.749242485E-1
2.198084944E1,-5.909160972E-1,2.702293396E-1,-5.141041875E-1
2.200084944E1,-1.227106094E0,7.822042108E-1,-5.291838050E-1
2.202084944E1,-1.411203384E0,1.000405312E0,-3.355744481E-1
2.204085100E1,-1.002168059E0,8.608138561E-1,-2.329840064E-1
2.206085100E1,-3.009471297E-1,4.311137795E-1,-4.190884531E-1
2.208284944E1,1.869771183E-1,2.684316412E-2,-8.234288692E-1
2.210285412E1,1.364672929E-1,-1.836435497E-1,-8.358207345E-1
2.212484944E1,-2.057219595E-1,-2.540152073E-1,-6.190333962E-1
2.214484944E1,-5.704783201E-1,-7.822565734E-2,-3.170739710E-1
2.216485100E1,-7.572285533E-1,2.204874456E-1,-3.541272879E-2
2.218485100E1,-7.255856991E-1,4.573111832E-1,1.753183156E-1
2.220684944E1,-5.622926950E-1,5.584006310E-1,4.421617091E-1
2.222684944E1,-3.270921409E-1,2.193878889E-1,7.424805164E-1
2.224684944E1,-2.079036236E-1,-2.275734842E-1,9.543285966E-1
2.226684944E1,-2.633003592E-1,-3.508111835E-1,1.095578074E0
2.228684944E1,-4.541870356E-1,-3.197094202E-1,1.187975764E0
2.230685100E1,-6.867696047E-1,-2.840174139E-1,1.233808160E0
2.232685100E1,-5.481904745E-1,-3.458020687E-1,1.102105618E0
2.234884944E1,-1.925621778E-1,-1.625076085E-1,8.123984337E-1
2.236884944E1,1.635897160E-1,-2.244493365E-2,3.266209066E-1
2.238884944E1,3.372848630E-1,-1.283864230E-1,-2.719571888E-1
2.240884944E1,2.450267673E-1,1.213003788E-2,-5.241922140E-1
2.242884944E1,1.640085876E-1,1.684242785E-1,-6.036570072E-1
2.244884944E1,7.264060527E-2,3.728721440E-1,-4.815886915E-1
2.246884944E1,2.502802014E-1,1.106538773E-1,-2.606823742E-1
2.248885100E1,2.804220617E-1,-1.547932476E-1,-1.122246683E-1
2.250885100E1,1.162389293E-2,-3.000395596E-1,-1.334653348E-1
2.252885100E1,3.654719517E-2,-5.878617764E-1,-1.141619831E-1
2.254885100E1,3.581590056E-1,-8.045967817E-1,-2.425833046E-1
2.257084944E1,7.769333124E-1,-8.807106018E-1,-5.937435627E-1
2.259084944E1,8.228354454E-1,-4.320737123E-1,-8.708669543E-1
2.261084944E1,5.825734735E-1,1.722465456E-1,-9.019861817E-1
2.263085100E1,2.597922683E-1,7.749087214E-1,-6.752678752E-1
2.265085100E1,1.875879914E-1,8.626638651E-1,-3.155904412E-1
2.267085100E1,2.823768258E-1,3.935543001E-1,2.570869960E-2
2.269085100E1,4.512199759E-1,-4.087037444E-1,1.494001877E-2
2.271285100E1,5.950700045E-1,-1.009934783E0,-3.327121139E-1
2.273485100E1,6.230301857E-1,-1.060270071E0,-5.004731417E-1
2.275485100E1,6.030287147E-1,-9.673836231E-1,-2.513099611E-1
2.277684944E1,4.203974605E-1,-6.354918480E-1,2.858674824E-1
2.279684944E1,1.647067219E-1,-3.694862127E-2,6.589839458E-1
2.281684944E1,-1.576032303E-2,4.631580114E-1,7.611206174E-1
2.283684944E1,-3.152064607E-2,7.424455881E-1,7.713308334E-1
2.285685100E1,3.967133537E-2,8.578991294E-1,6.489308476E-1
2.287884944E1,1.283166111E-1,8.005650640E-1,3.748094440E-1
2.289884944E1,1.099033803E-1,7.855203152E-1,1.298524886E-1
2.291884944E1,1.092925146E-1,6.857049465E-1,-4.787437990E-2
2.293885100E1,1.921083927E-1,3.573736250E-1,-2.137504667E-1
2.296084944E1,1.798212677E-1,-2.802998759E-2,-4.116708040E-1
2.298084944E1,-2.250427604E-1,-1.415811032E-1,-6.213372350E-1
2.300084944E1,-9.115854502E-1,1.644100100E-1,-6.642723083E-1
2.302084944E1,-1.157292962E0,9.297368675E-2,-4.420744479E-1
2.304085100E1,-8.346338868E-1,5.658357590E-2,-2.211506665E-1
2.306285100E1,-2.584134340E-1,4.147774875E-1,-3.516489267E-1
2.308286819E1,5.351179466E-2,8.011934161E-1,-6.316521168E-1
2.310484944E1,3.131469786E-1,4.812570810E-1,-7.719940543E-1
2.312484944E1,4.187568426E-1,-1.280548126E-1,-7.459188104E-1
2.314485100E1,4.084070325E-1,-7.180110216E-1,-6.670997739E-1
2.316485100E1,3.990346193E-1,-9.981712699E-1,-6.931226254E-1
2.318485100E1,4.235914052E-1,-9.855350852E-1,-7.968824506E-1
2.320485100E1,4.398927689E-1,-6.493148208E-1,-8.577595353E-1
2.322485100E1,5.593256354E-1,-3.185400367E-1,-9.037489295E-1
2.324684944E1,6.750933528E-1,-1.659633517E-1,-1.016305208E0
2.326684944E1,5.838649869E-1,-1.757895648E-1,-1.151079535E0
2.328684944E1,3.926467299E-1,-3.362551332E-1,-1.246479273E0
2.330685100E1,1.347219646E-1,-5.402317643E-1,-1.236303926E0
2.332685100E1,-1.139874533E-1,-7.052526474E-1,-1.032554269E0
2.334884944E1,-3.668332994E-1,-7.575950623E-1,-6.538003087E-1
2.336884944E1,-5.512273312E-1,-6.848322749E-1,-3.745825589E-1
2.338884944E1,-6.920055747E-1,-5.613153577E-1,-2.535439730E-1
2.340885100E1,-8.689994216E-1,-5.598317981E-1,-2.474876940E-1
2.342885100E1,-1.173978209E0,-6.906616688E-1,-3.150144815E-1
2.344885100E1,-1.759501338E0,-3.821223974E-1,-2.314655632E-1
2.347084944E1,-2.314428806E0,1.440420300E-1,1.997005790E-1
2.349084944E1,-1.971698403E0,-2.607521974E-2,5.948605537E-1
2.351084944E1,-8.604822159E-1,-9.134355187E-1,6.001489162E-1
2.353085100E1,2.210808545E-1,-1.524841785E0,3.443360031E-1
2.355285725E1,5.728344917E-1,-9.909107089E-1,1.817760468E-1
2.357485100E1,1.585631669E-1,3.428873718E-1,2.727425992E-1
2.359485100E1,-2.228959948E-1,1.230684042E0,4.732285738E-1
2.361485100E1,-1.522625238E-1,1.478032112E0,6.270444393E-1
2.363485100E1,8.480554819E-2,1.051944852E0,7.362671494E-1
2.365485256E1,3.110176623E-1,3.633601069E-1,6.908711195E-1
2.367685100E1,5.053251982E-1,-3.597472608E-1,5.139471292E-1
2.369685100E1,5.853485465E-1,-6.424033642E-1,2.654645741E-1
2.371685100E1,6.522818804E-1,-6.379527450E-1,2.282890677E-2
2.373685100E1,6.271666288E-1,-3.864158988E-1,-1.192758009E-1
2.375685100E1,5.508608222E-1,1.850049011E-3,-1.204975322E-1
2.377685100E1,3.883008361E-1,3.362376690E-1,-4.113740847E-2
2.379884944E1,1.280024499E-1,5.257280469E-1,1.180540696E-1
2.381884944E1,-9.714502841E-2,5.107531548E-1,2.679603994E-1
2.383886350E1,-2.454282045E-1,3.929957747E-1,2.607870996E-1
2.386085100E1,-2.731265724E-1,2.674717009E-1,1.769589335E-1
2.388085100E1,-2.432465404E-1,3.078062534E-1,1.499063224E-1
2.390085100E1,-2.435781509E-1,4.972791970E-1,1.731890142E-1
2.392085100E1,-3.042806983E-1,6.448991299E-1,2.108183205E-1
2.394085100E1,-3.514395058E-1,5.198812485E-1,2.384294271E-1
2.396085100E1,-3.342654705E-1,1.683370024E-1,2.600889504E-1
2.398284944E1,-3.232524395E-1,-2.039068192E-1,2.734581828E-1
2.400285100E1,-5.049412251E-1,-1.262047589E-1,2.938785255E-1
2.402285100E1,-8.698022962E-1,2.596177161E-1,5.074719191E-1
2.404484944E1,-1.043410182E0,4.046196938E-1,8.614770770E-1
2.406484944E1,-7.850316167E-1,4.845033959E-2,9.817476869E-1
2.408485100E1,-3.801327050E-1,-1.397310644E-1,8.239699602E-1
2.410485100E1,-3.043854237E-2,3.248232305E-1,3.987728357E-1
2.412485100E1,2.966187000E-1,6.800152063E-1,9.669124149E-3
2.414485100E1,5.956459641E-1,5.914397240E-1,-1.553517580E-1
2.416684944E1,6.879913211E-1,4.475198686E-1,-5.797983706E-2
2.418685100E1,5.798332691E-1,3.019943237E-1,2.108706832E-1
2.420885100E1,4.705407619E-1,8.604473434E-3,4.909611046E-1
2.423084944E1,3.915471733E-1,-1.808684766E-1,6.554758549E-1
2.425084944E1,3.169168830E-1,-1.683370024E-1,7.005227804E-1
2.427085100E1,2.427578419E-1,-5.082398653E-2,7.148519754E-1
2.429286194E1,1.069886833E-1,1.142143458E-1,7.270867229E-1
2.431484944E1,-6.270968169E-2,2.209412307E-1,7.457442880E-1
2.433484944E1,-1.842194945E-1,2.574011683E-1,7.303853631E-1
2.435484944E1,-2.196845859E-1,1.995958537E-1,6.133959889E-1
2.437484944E1,-2.168571651E-1,-3.560471535E-2,4.220904112E-1
2.439484944E1,-2.288301140E-1,-5.206491947E-1,3.213151172E-2
2.441484944E1,-3.497116268E-1,-5.729392171E-1,-3.693291247E-1
2.443485100E1,-5.391845703E-1,5.679999590E-1,-7.139967680E-1
2.445485100E1,-3.363249600E-1,1.758192301E0,-1.348633409E0
2.447485100E1,3.859097362E-1,2.207597256E0,-1.765243411E0
2.449485100E1,1.199320436E0,1.873034954E0,-1.625844002E0
2.451485100E1,1.582961321E0,8.039335608E-1,-9.902300239E-1
2.453485100E1,1.334600925E0,-3.325201273E-1,-1.795943826E-2
2.455685100E1,8.459087014E-1,-1.262379169E0,2.972470224E-1
2.457884944E1,4.159643054E-1,-1.015170813E0,4.217762649E-1
2.459885100E1,2.970725000E-1,-8.062024713E-1,4.860916436E-1
2.461885100E1,3.576354086E-1,-9.967749715E-1,4.438372254E-1
2.464084944E1,3.256609738E-1,-8.774991632E-1,3.896098435E-1
2.466085100E1,-2.097885683E-2,-2.706656456E-1,4.067315161E-1
2.468085100E1,-5.346292257E-1,3.147875965E-1,4.906818569E-1
2.470085100E1,-9.453401566E-1,5.386086106E-1,5.764647722E-1
2.472085100E1,-1.097951770E0,5.869717002E-1,6.342177391E-1
2.474085100E1,-8.782845736E-1,2.284286916E-1,4.849920869E-1
2.476085100E1,-4.040786326E-1,-5.442460179E-1,1.319818050E-1
2.478285100E1,-3.963642567E-2,-1.030232906E0,-4.484449029E-1
2.480484944E1,2.078687213E-2,-1.021907687E0,-8.016995192E-1
2.482484944E1,-3.839724232E-3,-8.172155023E-1,-8.304800391E-1
2.484484944E1,-1.451764852E-1,-3.294483423E-1,-6.304478049E-1
2.486484944E1,-2.850122750E-1,2.553765774E-1,-3.758392036E-1
2.488484944E1,-3.554362953E-1,5.242968798E-1,-2.534392476E-1
2.490485100E1,-4.521973431E-1,4.988325536E-1,-2.250602096E-1
2.492684944E1,-5.461484194E-1,2.798635364E-1,-2.253918201E-1
2.494684944E1,-5.407727957E-1,-1.457349956E-2,-2.092126161E-1
2.496684944E1,-5.104739070E-1,-1.664346009E-1,-1.624203324E-1
2.498684944E1,-5.358510017E-1,-2.282890677E-1,-1.541300267E-1
2.500685100E1,-5.865178704E-1,-3.874979913E-1,-1.589296758E-1
2.502685100E1,-6.921975613E-1,-6.266779304E-1,-8.422958851E-2
2.504685100E1,-7.475070357E-1,-6.139020920E-1,-4.611159861E-2
2.506685100E1,-5.432860851E-1,-3.244392574E-1,-1.814793348E-1
2.508685100E1,-8.101818711E-2,8.491026610E-2,-4.694935679E-1
2.510884944E1,4.301538467E-1,5.781228542E-1,-8.388750553E-1
2.512884944E1,6.721088290E-1,9.029809833E-1,-1.022309184E0
2.514885100E1,7.927808762E-1,9.407324791E-1,-9.280264378E-1
2.516885100E1,7.995178699E-1,5.663768053E-1,-5.858197808E-1
2.518885100E1,6.884800196E-1,-9.960594028E-2,-2.844886780E-1
2.520885100E1,5.586973429E-1,-7.671943903E-1,-1.725257933E-1
2.522885100E1,4.596324563E-1,-1.017055750E0,-1.248608530E-1
2.524885100E1,2.897421122E-1,-9.496859908E-1,-3.654719517E-2
2.526885100E1,-8.702211827E-2,-5.143659711E-1,1.636769772E-1
2.528885100E1,-4.419871867E-1,3.923500329E-2,3.709697425E-1
2.531084944E1,-4.531572759E-1,7.583455741E-2,4.158421457E-1
2.533085100E1,-2.392846346E-1,-1.239881888E-1,3.469016552E-1
2.535285100E1,5.136504024E-2,-2.458819896E-1,1.234296858E-1
2.537286038E1,1.920036674E-1,-2.603856623E-1,-2.040638924E-1
2.539485100E1,1.930857748E-1,-1.648812592E-1,-4.852713346E-1
2.541485100E1,2.024058253E-1,-1.895427518E-2,-6.057339907E-1
2.543485100E1,2.433861643E-1,4.579744115E-2,-6.180036068E-1
2.545485100E1,1.935046464E-1,5.368632823E-2,-5.445252657E-1
2.547485100E1,1.891936921E-2,7.826056331E-2,-4.006054103E-1
2.549684944E1,-2.634050846E-1,1.745329238E-2,-2.089508176E-1
2.551685100E1,-4.668406546E-1,-1.362927556E-1,-9.887290001E-2
2.553685100E1,-5.629385114E-1,-1.507440805E-1,-7.361798733E-2
2.555685100E1,-5.848074555E-1,1.117708832E-1,-1.832595654E-2
2.557884944E1,-4.959876537E-1,3.100402951E-1,4.927064478E-2
2.559884944E1,-3.000569940E-1,1.422443390E-1,3.174753860E-2
2.561885100E1,-1.333431527E-2,-3.560297191E-1,-1.028173491E-1
2.563885100E1,2.415535748E-1,-6.903649569E-1,-2.554463744E-1
2.566084944E1,3.251897395E-1,-6.480581760E-1,-3.577575982E-1
2.568085100E1,2.399653196E-1,-5.223944783E-1,-3.862937093E-1
2.570085100E1,-1.672025397E-2,-3.617892861E-1,-2.927615345E-1
2.572085100E1,-3.745127618E-1,8.752825856E-2,-5.263913050E-2
2.574085100E1,-4.701742530E-1,4.580965638E-1,2.429498285E-1
2.576085100E1,-1.479341090E-1,3.026575446E-1,2.585879862E-1
2.578285100E1,4.937361777E-1,-3.523994386E-1,-1.573937982E-1
2.580285100E1,7.216761708E-1,-4.031012356E-1,-6.786713004E-1
2.582285100E1,5.848249197E-1,1.032536775E-1,-1.028173447E0
2.584285100E1,3.272143304E-1,1.144761443E0,-1.051613212E0
2.586285100E1,1.949881762E-1,1.916720629E0,-8.012632132E-1
2.588285100E1,3.155555129E-1,1.902269244E0,-3.910933733E-1
2.590285100E1,5.967280865E-1,7.632150054E-1,-6.101670861E-2
2.592285100E1,7.517133355E-1,-5.492202044E-1,-7.105235010E-2
2.594285100E1,7.295825481E-1,-1.142056227E0,-2.206619829E-1
2.596285100E1,6.812194586E-1,-1.060793638E0,-3.375466764E-1
2.598285100E1,6.861063838E-1,-6.349333525E-1,-3.378608227E-1
2.600285100E1,6.529800296E-1,-7.583455741E-2,-3.461337090E-1
2.602285256E1,5.157448053E-1,2.835112810E-1,-2.330887169E-1
2.604485100E1,2.566332221E-1,3.343527317E-1,6.187192351E-2
2.606684944E1,-1.254891697E-2,2.483254522E-1,4.002737999E-1
2.608685100E1,-2.083574086E-1,4.396484420E-2,6.444453597E-1
2.610685100E1,-2.873161137E-1,-2.016902417E-1,7.376459241E-1
2.612685100E1,-2.971772254E-1,-4.355643690E-1,7.176095843E-1
2.614685100E1,-2.807362080E-1,-5.258502364E-1,5.930279493E-1
2.616685100E1,-2.963045537E-1,-4.109028578E-1,4.007799625E-1
2.618685100E1,-3.541098535E-1,-2.701071501E-1,2.633352876E-1
2.620685100E1,-4.016351700E-1,-2.323905826E-1,2.337519526E-1
2.622885100E1,-4.287575781E-1,-3.059911132E-1,2.758492827E-1
2.624885100E1,-4.424060583E-1,-4.730191231E-1,3.261496723E-1
2.627084944E1,-5.516287684E-1,-6.410594583E-1,2.311688513E-1
2.629084944E1,-8.566424847E-1,-1.603608578E-1,1.738173366E-1
2.631085100E1,-1.203509212E0,9.409942627E-1,3.966609836E-1
2.633085100E1,-1.026951671E0,1.256340384E0,6.768910289E-1
2.635285100E1,-1.040041670E-1,5.467418432E-1,6.010913849E-1
2.637285100E1,6.637836099E-1,-1.456651837E-1,7.234390080E-2
2.639285100E1,8.026594520E-1,4.954989627E-2,-3.912329972E-1
2.641285100E1,6.926164627E-1,3.661700785E-1,-4.898790121E-1
2.643484944E1,7.175048590E-1,3.257308006E-1,-2.373822331E-1
2.645485100E1,8.176867366E-1,1.474977732E-1,-2.216568217E-3
2.647485100E1,7.863231897E-1,1.469567232E-2,1.408480704E-1
2.649684944E1,5.895721912E-1,1.908517480E-1,2.839476168E-1
2.651685100E1,4.991292655E-1,4.014431834E-1,3.374943137E-1
2.653685100E1,5.300041437E-1,5.428846478E-1,3.001442850E-1
2.655685100E1,5.819625854E-1,5.929406881E-1,2.339613885E-1
2.657885100E1,6.418797374E-1,4.987801909E-1,1.521577984E-1
2.660085100E1,6.490705013E-1,2.693392038E-1,6.909758598E-2
2.662085100E1,5.282238722E-1,1.940806061E-1,-8.032005280E-2
2.664085100E1,3.267430961E-1,1.281071603E-1,-3.351730406E-1
2.666285100E1,5.448918045E-2,-1.069886833E-1,-6.149667501E-1
2.668484944E1,-7.819075137E-3,-4.682369232E-1,-7.871609330E-1
2.670484944E1,-4.956734832E-3,-5.588020682E-1,-7.830768824E-1
2.672485100E1,-1.226791963E-1,-5.101073980E-1,-7.186043859E-1
2.674485100E1,-4.023158550E-1,-4.232423306E-1,-6.916565299E-1
2.676685100E1,-7.901279926E-1,-3.417005539E-1,-6.366786361E-1
2.678884944E1,-1.173489571E0,1.833293885E-1,-5.005604029E-1
2.680885100E1,-1.265119314E0,7.322354317E-1,-2.822895646E-1
2.683085100E1,-8.214915991E-1,4.893554151E-1,-7.449065149E-2
2.685285100E1,-2.047969401E-1,-4.664043486E-1,-1.792453080E-1
2.687484944E1,1.918116771E-2,-1.025171518E0,-3.935368359E-1
2.689485100E1,2.153038085E-1,-1.396612406E0,-5.300564766E-1
2.691485100E1,5.131267905E-1,-1.685289979E0,-6.292610168E-1
2.693485100E1,6.824411750E-1,-1.585404754E0,-6.961420178E-1
2.695485100E1,5.053426027E-1,-8.746019602E-1,-6.869965196E-1
2.697485100E1,6.724753231E-2,2.349213213E-1,-6.152459979E-1
2.699485100E1,-4.150741994E-1,1.224941850E0,-6.154379845E-1
2.701485100E1,-6.346889734E-1,1.713808656E0,-6.029763222E-1
2.703684944E1,-3.851941526E-1,1.764510393E0,-5.755921602E-1
2.705685100E1,1.552121341E-1,8.748288155E-1,-5.730963349E-1
2.707685100E1,5.386958718E-1,-3.240029216E-1,-6.737494469E-1
2.709884944E1,5.947732925E-1,-1.112176180E0,-8.419119120E-1
2.711885100E1,6.592457891E-1,-9.676803350E-1,-9.900380373E-1
2.714084944E1,7.519227266E-1,-2.677160501E-1,-8.045095205E-1
2.716084944E1,7.117627263E-1,2.702293396E-1,-4.653745890E-1
2.718085100E1,5.135456920E-1,3.765198886E-1,-1.270599663E-1
2.720085100E1,3.159220517E-1,1.019446775E-1,1.125039235E-1
2.722085100E1,1.891762316E-1,-3.331309855E-1,9.499827027E-2
2.724085100E1,7.997098565E-2,-5.852961540E-1,-8.735372871E-2
2.726285100E1,-4.886921961E-4,-3.584731817E-1,-2.463008612E-1
2.728285100E1,-3.211405873E-2,1.384220570E-1,-4.088433683E-1
2.730285100E1,-5.927138031E-2,2.942974269E-1,-5.270370841E-1
2.732285100E1,-4.238706529E-1,3.288025856E-1,-4.971570373E-1
2.734285256E1,-1.091057658E0,6.547079086E-1,-3.059562147E-1
2.736485100E1,-1.291229486E0,8.360127360E-2,9.271188825E-2
2.738485100E1,-8.230448961E-1,-1.025380969E0,3.362900317E-1
2.740485100E1,-3.977954388E-1,-1.113380432E0,1.985137463E-1
2.742684944E1,-4.962494671E-1,-1.859997362E-1,-1.313185692E-1
2.744685100E1,-6.904173493E-1,6.013706326E-1,-2.059139460E-1
2.746685100E1,-5.652074218E-1,6.565579772E-1,-5.483824387E-2
2.748685100E1,-3.552094102E-1,3.199188411E-1,2.068913281E-1
2.750685100E1,-2.068913281E-1,-3.089581728E-1,4.482354522E-1
2.752685100E1,-1.963669956E-1,-6.894923449E-1,5.701641440E-1
2.754884944E1,-1.422443390E-1,-6.462954283E-1,6.362946630E-1
2.756884944E1,-7.770206034E-2,-3.352603018E-1,5.900958180E-1
2.758884944E1,-5.131268129E-2,2.651155181E-2,4.786565602E-1
2.760884944E1,-8.311257511E-2,2.401573062E-1,3.526612222E-1
2.762884944E1,-1.269377917E-1,3.060958385E-1,2.858325839E-1
2.764885100E1,-1.578126699E-1,3.295181692E-1,2.320938855E-1
2.767084944E1,-1.709375530E-1,2.512226999E-1,2.099107504E-1
2.769085100E1,-1.987755448E-1,1.157676876E-1,1.812000871E-1
2.771085100E1,-2.020393163E-1,-5.389576778E-2,6.738716364E-2
2.773085100E1,-1.426981241E-1,-1.667487621E-1,-5.225515738E-2
2.775284944E1,-6.805038452E-2,-1.244070679E-1,-1.091703475E-1
2.777285569E1,-4.281292483E-2,-4.293509759E-3,-1.142143458E-1
2.779484944E1,-9.199630469E-2,1.693841964E-1,-6.017895415E-2
2.781485100E1,-8.564330637E-2,2.373124212E-1,-2.167698927E-2
2.783685100E1,-4.806636646E-2,2.256361693E-1,-7.710864395E-2
2.785884944E1,5.686282739E-2,-1.132718660E-2,-1.451241225E-1
2.787884944E1,6.180210784E-2,-2.661277950E-1,-6.447245926E-2
2.789884944E1,-1.356469840E-1,-2.787290812E-1,1.363451183E-1
2.791884944E1,-3.251024783E-1,8.445648104E-2,4.367162883E-1
2.793884944E1,-1.823170930E-1,3.108082414E-1,6.054198146E-1
2.795884944E1,2.213601023E-1,-1.399230510E-1,4.684987366E-1
2.797884944E1,4.605923891E-1,-4.666137695E-1,2.399129570E-1
2.799884944E1,3.218910694E-1,-3.820874691E-1,3.295181692E-2
2.801884944E1,-7.091272622E-2,2.226865590E-1,3.120648675E-2
2.803884944E1,-4.237484932E-1,1.130816221E0,2.083399594E-1
2.805884944E1,-4.443259239E-1,1.648480892E0,3.916693330E-1
2.807884944E1,-1.931730360E-1,1.616576314E0,5.976007581E-1
2.809884944E1,2.089333683E-1,7.836703062E-1,6.374465823E-1
2.811884944E1,4.424758852E-1,-2.131396085E-1,5.157796741E-1
2.813884944E1,4.496142566E-1,-6.691069007E-1,3.096737564E-1
2.815884944E1,3.831521273E-1,-7.737393379E-1,1.884431988E-1
2.817884944E1,3.586477041E-1,-5.698325634E-1,1.872912794E-1
2.819884944E1,3.904126883E-1,-1.689129621E-1,2.878397107E-1
2.821884944E1,3.701319695E-1,2.563016117E-1,3.923151195E-1
2.823884944E1,2.287777513E-1,3.951948881E-1,5.152910352E-1
2.825884944E1,1.033409461E-1,2.514844835E-1,6.333625317E-1
2.827884944E1,8.768533915E-2,-9.389871731E-3,7.087258697E-1
2.829884944E1,1.299572140E-1,-2.016204298E-1,6.286850572E-1
2.831884944E1,1.051909924E-1,-2.371902466E-1,5.256407857E-1
2.833886194E1,1.626646891E-2,-1.774301678E-1,4.707502127E-1
2.836084944E1,-2.827433310E-2,-9.145525284E-3,3.959628344E-1
2.838084944E1,4.717624933E-2,-3.143338114E-2,2.563365102E-1
2.840084944E1,1.360135078E-1,-2.720968425E-1,-2.740166849E-3
2.842084944E1,1.280722618E-1,-2.785894573E-1,-5.097582936E-1
2.844084944E1,5.059709400E-2,5.505815744E-1,-1.651954204E-1
2.846084944E1,1.355597228E-1,9.550616145E-1,3.822445571E-1
2.848084944E1,-1.223999411E-1,9.504539371E-1,7.808952332E-1
2.850084944E1,-6.987425685E-1,5.454677343E-1,1.073482156E0
2.852084944E1,-1.009114504E0,1.019097716E-1,1.218798280E0
2.854084944E1,-6.121568084E-1,-3.043505251E-1,1.190105081E0
2.856084944E1,2.926742733E-1,-4.811698198E-1,8.637459874E-1
2.858084944E1,1.032658935E0,-4.336445034E-1,3.125884533E-1
2.860084944E1,1.132264853E0,-4.441513717E-1,-1.245466918E-1
2.862084944E1,6.833487749E-1,-5.706353784E-1,-2.502802014E-1
2.864084944E1,-1.865756884E-2,-4.636467099E-1,2.764601447E-2
2.866084944E1,-4.643273950E-1,-8.255407214E-2,5.095837712E-1
2.868084944E1,-5.131267905E-1,3.842167854E-1,9.516233206E-1
2.870084944E1,-3.382971585E-1,4.985009432E-1,1.120082498E0
2.872084944E1,-2.817485034E-1,4.018096924E-1,1.067478299E0
2.874284944E1,-3.337942064E-1,3.352777660E-2,8.265704513E-1
2.876284944E1,-3.587524295E-1,-2.904576957E-1,5.493074656E-1
2.878284944E1,-3.145432472E-1,-2.845584750E-1,3.255039155E-1
2.880284944E1,-2.299296707E-1,-1.581442803E-1,1.508139074E-1
2.882286194E1,-2.083399594E-1,-2.129301615E-2,8.726646192E-4
2.884484944E1,-2.190213650E-1,1.497492474E-2,-8.269369602E-2
2.886484944E1,-2.355670929E-1,2.799508162E-2,-6.784094870E-2
2.888485256E1,-2.290570140E-1,-1.377064735E-2,3.443534672E-2
2.890684944E1,-1.145285070E-1,-1.018225104E-1,8.689994365E-2
2.892684944E1,7.417649496E-3,-8.827875555E-2,1.303760987E-2
2.894684944E1,3.200933710E-2,2.110103145E-2,-6.997025013E-2
2.896685100E1,-4.576253146E-2,6.112143025E-2,-1.428551972E-1
2.898685100E1,-1.881290376E-1,1.197470427E-1,-2.021789402E-1
2.900884944E1,-4.263839424E-1,4.642401338E-1,-1.499935985E-1
2.902884944E1,-5.191133022E-1,5.721887350E-1,-5.283111706E-2
2.904884944E1,-2.571218908E-1,2.375916690E-1,-6.030112505E-2
2.906884944E1,3.181386292E-1,-4.656887352E-1,-3.186622262E-1
2.908884944E1,7.289193273E-1,-7.337713242E-1,-6.878691912E-1
2.910885100E1,6.736621857E-1,-5.675810575E-1,-9.444674850E-1
2.913084944E1,1.515993029E-1,3.261845708E-1,-1.011645198E0
2.915084944E1,-2.700198889E-1,1.227699518E0,-9.068905115E-1
2.917084944E1,-3.588571548E-1,1.800935388E0,-7.022506595E-1
2.919084944E1,-1.111600175E-1,1.966078520E0,-4.466471970E-1
2.921084944E1,3.551745117E-1,1.074512005E0,-3.541447520E-1
2.923084944E1,5.991366506E-1,-1.287703961E-1,-5.176472068E-1
2.925084944E1,4.990594387E-1,-8.040208220E-1,-7.096858025E-1
2.927084944E1,3.613006175E-1,-8.739387393E-1,-7.807381153E-1
2.929084944E1,3.042109013E-1,-6.000267267E-1,-6.740636230E-1
2.931084944E1,1.915324330E-1,-5.272639543E-2,-4.481307268E-1
2.933084944E1,-6.981316837E-4,3.134611249E-1,-2.068913281E-1
2.935084944E1,-1.806590259E-1,2.338915765E-1,1.282817032E-2
2.937084944E1,-3.024131954E-1,-1.427504718E-1,1.439373046E-1
2.939084944E1,-3.659257293E-1,-4.499982297E-1,1.830326766E-1
2.941084944E1,-3.186796606E-1,-4.841019809E-1,1.822647303E-1
2.943084944E1,-2.224771231E-1,-3.601661325E-1,1.986708343E-1
2.945084944E1,-1.570796371E-1,-2.169793248E-1,1.902583390E-1
2.947084944E1,-1.851968914E-1,-1.186823919E-1,1.427504718E-1
2.949084944E1,-2.261074036E-1,-9.382890165E-2,6.478662044E-2
2.951084944E1,-1.810604632E-1,-9.454448521E-2,-4.049163777E-3
2.953084944E1,-5.407030135E-2,-9.880308807E-2,-3.358013555E-2
2.955084944E1,4.984660447E-2,-1.190314516E-1,-4.375540465E-2
2.957084944E1,3.680899367E-2,-2.480636388E-1,-7.688175142E-2
2.959084944E1,-1.992467940E-1,-2.607347369E-1,-6.682865322E-2
2.961084944E1,-6.850067973E-1,3.142988980E-1,7.836528122E-2
2.963085100E1,-9.092467427E-1,6.028367281E-1,3.835186362E-1
2.965285256E1,-3.874281943E-1,2.568252087E-1,4.940154552E-1
2.967484944E1,5.223072171E-1,-3.308446109E-1,1.863138974E-1
2.969484944E1,8.267275691E-1,-7.845254987E-2,-2.165430039E-1
2.971484944E1,6.911678314E-1,2.474004179E-1,-3.445978165E-1
2.973484944E1,4.975933731E-1,2.202081978E-1,-2.094395161E-1
2.975485100E1,3.879517913E-1,-1.182285994E-1,8.110544831E-2
2.977684944E1,3.239854574E-1,-5.676683187E-1,1.721418202E-1
2.979684944E1,4.193328023E-1,-7.463725805E-1,-4.418300986E-1
2.981684944E1,5.370377898E-1,4.774173498E-1,-5.654168725E-1
2.983684944E1,7.604923248E-1,1.177556157E0,2.564761341E-1
2.985684944E1,8.567821383E-1,1.043287992E0,4.656014740E-1
2.987684944E1,7.502472401E-1,5.568472743E-1,5.303357244E-1
2.989685100E1,5.692391396E-1,-6.211626902E-2,5.541245937E-1
2.991884944E1,4.774522781E-1,-5.978800058E-1,9.000139236E-1
2.993884944E1,4.296826124E-1,-7.840368152E-1,1.253984213E0
2.995884944E1,2.975437343E-1,-9.808052182E-1,1.255869150E0
2.997884944E1,5.977752805E-2,-1.180191636E0,9.029461145E-1
2.999884944E1,-2.326174825E-1,-8.681267500E-1,4.243942499E-1
3.001884944E1,-1.612684280E-1,-1.551248580E-1,5.202826485E-2
3.003884944E1,2.553591132E-1,2.855882347E-1,-2.423913330E-1
3.005884944E1,5.432686210E-1,2.403143793E-1,-5.077337027E-1
3.007884944E1,4.184077680E-1,-1.685987972E-2,-7.357261181E-1
3.009884944E1,1.397136003E-1,-1.445132643E-1,-8.964360356E-1
3.011884944E1,3.996803891E-3,-9.798278660E-2,-9.185144305E-1
3.013884944E1,5.021312088E-2,-8.133234084E-2,-8.201476932E-1
3.015884944E1,3.450515866E-2,-2.566855848E-1,-6.427873373E-1
3.017884944E1,-1.437802166E-1,-4.225791097E-1,-3.756821156E-1
3.019884944E1,-3.721390963E-1,-2.662499845E-1,-7.363544405E-2
3.021884944E1,-4.905945957E-1,6.077236310E-2,2.071007639E-1
3.023884944E1,-3.557679057E-1,1.630486548E-1,3.182433248E-1
3.025884944E1,-3.237585723E-2,-1.128529906E-1,1.984439343E-1
3.027884944E1,3.694687486E-1,-4.567177594E-1,-1.105491519E-1
3.029884944E1,4.882907569E-1,-4.583583772E-1,-3.631331921E-1
3.031884944E1,3.449817896E-1,-6.716027111E-2,-4.911007285E-1
3.033886194E1,6.222098693E-2,6.893177629E-1,-5.269323587E-1
3.036084944E1,-2.125636488E-1,1.577795148E0,-6.143384576E-1
3.038084944E1,-2.639112473E-1,1.823223233E0,-6.394711733E-1
3.040084944E1,-1.398183256E-1,1.426108479E0,-5.064072609E-1
3.042084944E1,6.588617712E-2,3.864158988E-1,-3.237062097E-1
3.044084944E1,1.073901057E-1,-5.455026627E-1,-1.899441779E-1
3.046084944E1,3.968878835E-2,-9.624966979E-1,-1.577428579E-1
3.048084944E1,-6.318091881E-3,-9.669647813E-1,-2.019171417E-1
3.050084944E1,-6.428047270E-2,-7.199482918E-1,-2.128952593E-1
3.052084944E1,-1.829803139E-1,-4.611334503E-1,-3.175975680E-1
3.054084944E1,-3.148050308E-1,-7.559020817E-2,-5.530075431E-1
3.056084944E1,-4.503124058E-1,7.638956904E-1,-2.797239125E-1
3.058084944E1,-5.052728057E-1,1.046447039E0,-6.122614816E-2
3.060084944E1,-6.019117236E-1,8.157668710E-1,-1.065348983E-1
3.062084944E1,-5.086587667E-1,2.615724802E-1,-2.746799290E-1
3.064084944E1,-2.480112910E-1,-5.024453998E-1,-5.485744476E-1
3.066084944E1,-6.407103688E-2,-8.992809057E-1,-6.374291182E-1
3.068084944E1,-2.682571113E-2,-7.327241302E-1,-4.862312675E-1
3.070084944E1,-9.231046587E-2,-3.118379712E-1,-2.045176774E-1
3.072084944E1,-2.409427017E-1,-1.166927144E-1,3.946189582E-2
3.074084944E1,-4.042706192E-1,-3.398330510E-1,1.647241712E-1
3.076084944E1,-6.270967722E-1,-5.081002712E-1,2.398431450E-1
3.078084944E1,-9.566149712E-1,-2.005034238E-1,4.075518250E-1
3.080084944E1,-1.124061823E0,2.288999259E-1,7.306122780E-1
3.082084944E1,-8.203745484E-1,2.394242734E-1,8.709890842E-1
3.084084944E1,-7.855726779E-2,-3.390302062E-1,6.895970106E-1
3.086084944E1,5.655215979E-1,-7.819598913E-1,2.719222903E-1
3.088084944E1,7.122514248E-1,-5.406680703E-1,-1.361356815E-3
3.090084944E1,5.488536954E-1,-4.789183289E-2,-7.848745584E-2
3.092084944E1,2.344675362E-1,2.476273179E-1,6.628760695E-2
3.094084944E1,4.963716492E-2,2.143787891E-1,3.238283992E-1
3.096084944E1,2.076941775E-3,3.748967126E-2,6.132388711E-1
3.098084944E1,8.744099177E-3,-6.480407715E-2,7.135778666E-1
3.100084944E1,1.424188633E-2,4.052654654E-2,6.068509817E-1
3.102085100E1,8.779006451E-2,2.154783458E-1,3.657337427E-1
3.104085100E1,1.874658167E-1,2.022487521E-1,2.240653634E-1
3.106284944E1,2.368935347E-1,1.094845012E-1,3.165678084E-1
3.108284944E1,1.337794811E-1,-9.665632993E-2,4.250051379E-1
3.110285100E1,6.283185212E-4,-2.718524933E-1,3.354522884E-1
3.112484944E1,2.642428502E-2,-2.483429015E-1,1.277581044E-2
3.114484944E1,9.649925679E-2,2.515368462E-1,2.289872058E-2
3.116484944E1,1.079660654E-1,9.571734667E-1,6.474473476E-1
3.118484944E1,8.887216449E-2,9.746791124E-1,9.603150487E-1
3.120485100E1,-4.874704406E-2,1.820029318E-1,8.932245970E-1
3.122684944E1,4.956734832E-3,-7.419394851E-1,5.224992037E-1
3.124684944E1,2.447649688E-1,-8.598713875E-1,2.449744195E-1
3.126684944E1,4.238008559E-1,-5.784718990E-1,3.118903376E-2
3.128684944E1,4.669977427E-1,-1.653175801E-1,-1.098161191E-1
3.130684944E1,3.351555765E-1,1.177573651E-1,-1.738522500E-1
3.132684944E1,1.488067657E-1,2.335948646E-1,-2.196671367E-1
3.134684944E1,4.085815698E-2,1.752310544E-1,-1.746201962E-1
3.136684944E1,7.024950534E-2,-8.192575723E-2,-7.138396613E-3
3.138684944E1,9.473647177E-2,-4.107806981E-1,1.135860309E-1
3.140684944E1,-8.475318551E-2,-4.985882044E-1,1.668185741E-1
3.142684944E1,-4.553738534E-1,-2.963743508E-1,3.340385556E-1
3.144686350E1,-9.012182355E-1,2.854311466E-1,5.915444493E-1
3.146884944E1,-9.346936345E-1,7.054795623E-1,7.482226491E-1
3.148884944E1,-5.835508108E-1,5.185024142E-1,6.791774035E-1
3.150884944E1,-1.956164986E-1,2.369284481E-1,4.970697761E-1
3.152884944E1,-7.431612164E-2,2.582040131E-1,3.277030289E-1
3.154884944E1,-1.782504767E-1,8.330281973E-1,3.201980889E-1
3.156884944E1,-2.278876454E-1,1.280722618E0,4.631405771E-1
3.158884944E1,-1.466774642E-1,1.234715700E0,5.805837512E-1
3.160884944E1,-5.520476401E-2,6.591759324E-1,6.521771550E-1
3.162884944E1,-3.401646763E-2,-7.501424849E-2,6.621429920E-1
3.164884944E1,3.124139272E-2,-4.160690308E-1,6.396282911E-1
3.166884944E1,2.147278637E-1,-3.336720467E-1,5.367934704E-1
3.169084944E1,4.754800498E-1,-1.669232845E-1,3.614751399E-1
3.171084944E1,4.943121374E-1,1.165879890E-2,1.836086363E-1
3.173084944E1,3.370928764E-1,7.105235010E-2,6.866125017E-2
3.175084944E1,2.288999259E-1,1.439896598E-2,5.981243402E-2
3.177084944E1,1.953896135E-1,-3.785619140E-2,5.352924764E-2
3.179084944E1,1.309345961E-1,-4.605923966E-2,4.604178667E-2
3.181084944E1,5.689773336E-2,-2.844886668E-2,1.623156108E-2
3.183084944E1,3.370230645E-2,-6.958627701E-2,-8.683013171E-2
3.185084944E1,6.766641140E-2,-1.429948211E-1,-2.148151249E-1
3.187084944E1,1.145110503E-1,-1.690700501E-1,-3.260449469E-1
3.189084944E1,1.420523524E-1,-7.960446924E-2,-4.066442549E-1
3.191084944E1,1.249306649E-1,-7.899360359E-2,-4.198912978E-1
3.193084944E1,6.276203692E-2,-2.296678722E-1,-3.522947133E-1
3.195084944E1,-9.166469425E-2,-3.252944648E-1,-2.313608378E-1
3.197084944E1,-2.610488832E-1,-3.730641305E-1,-9.241518378E-2
3.199084944E1,-3.855781257E-1,-3.094643354E-1,9.232792072E-3
3.201084944E1,-5.014680028E-1,-1.517040133E-1,1.157153305E-2
3.203084944E1,-7.219380140E-1,1.370781660E-1,-4.883431271E-2
3.205084944E1,-8.746368289E-1,2.991319895E-1,-9.299114347E-2
3.207084944E1,-6.843087077E-1,2.731440216E-2,-9.164723754E-2
3.209084944E1,-1.178097259E-2,-5.986653566E-1,-1.829628646E-1
3.211084944E1,6.350554824E-1,-7.701265216E-1,-4.565606713E-1
3.213084944E1,8.042477369E-1,-2.755351365E-1,-7.519576550E-1
3.215084944E1,6.094689965E-1,3.447898030E-1,-8.296248317E-1
3.217084944E1,2.945766747E-1,7.066314220E-1,-6.345842481E-1
3.219084944E1,1.302539259E-1,5.988399386E-1,-2.255838066E-1
3.221084944E1,1.812698990E-1,2.703340352E-1,3.215594590E-1
3.223084944E1,3.103893399E-1,-5.108578876E-2,7.157245874E-1
3.225084944E1,3.761882782E-1,-2.240304649E-1,9.123359323E-1
3.227084944E1,3.821223974E-1,-2.924822867E-1,9.868789911E-1
3.229084944E1,4.196993113E-1,-3.725405335E-1,1.028819203E0
3.231084944E1,4.127005637E-1,-3.933273852E-1,1.081737638E0
3.233084944E1,3.636742532E-1,-4.430518150E-1,1.109313846E0
3.235084944E1,2.883458436E-1,-4.588645101E-1,1.051491022E0
3.237084944E1,2.267008126E-1,-4.822693765E-1,9.216385484E-1
3.239084944E1,2.252347320E-1,-3.464653194E-1,7.955908775E-1
3.241084944E1,2.821499407E-1,-1.973792911E-1,6.877120733E-1
3.243084944E1,3.310714960E-1,-1.076868176E-1,6.180210710E-1
3.245084944E1,3.478964865E-1,-7.618362457E-2,5.690122247E-1
3.247084944E1,3.318045437E-1,3.391174600E-2,5.343849063E-1
3.249084944E1,3.106511533E-1,1.422792375E-1,5.297772288E-1
3.251084944E1,2.409252524E-1,3.117856085E-1,5.360604525E-1
3.253084944E1,1.568003744E-1,4.553389549E-1,5.663768053E-1
3.255084944E1,1.176177412E-1,3.348239660E-1,6.307619810E-1
3.257084944E1,7.201228291E-2,-2.579596639E-2,7.728317976E-1
3.259084944E1,7.161086053E-2,-3.247708678E-1,8.504989147E-1
3.261085100E1,5.211552978E-2,-2.878047824E-1,8.059232235E-1
3.263085100E1,-3.946189582E-2,1.139525473E-1,7.753276229E-1
3.265284944E1,-7.305948436E-2,6.561041474E-1,8.523489833E-1
3.267284944E1,4.125958309E-2,6.243740916E-1,7.484495640E-1
3.269285256E1,1.042310596E-1,4.126307368E-1,5.661673546E-1
3.271484944E1,-1.188569218E-1,4.313057661E-1,4.382696152E-1
3.273484944E1,-4.252494574E-1,9.601754546E-1,4.436801374E-1
3.275485256E1,-4.536808729E-1,1.263077378E0,4.577998519E-1
3.277684944E1,-1.079660654E-1,9.402088523E-1,4.011464715E-1
3.279684944E1,1.854761392E-1,-5.708971992E-2,3.103544414E-1
3.281684944E1,1.846034676E-1,-7.989419103E-1,3.897494674E-1
3.283684944E1,1.329766363E-1,-9.924640059E-1,5.444030762E-1
3.285684944E1,8.419468254E-2,-6.177942157E-1,6.696304679E-1
3.287684944E1,8.011060953E-2,4.843288660E-2,6.187017560E-1
3.289684944E1,1.550725102E-1,5.296201706E-1,4.042531550E-1
3.291684944E1,1.969429553E-1,5.797809362E-1,1.458920687E-1
3.293684944E1,1.729097664E-1,2.409950644E-1,-8.353145421E-2
3.295684944E1,1.271297783E-1,-7.129669935E-2,-2.838952541E-1
3.297684944E1,1.073202938E-1,-1.540602148E-1,-4.206941724E-1
3.299684944E1,1.166229025E-1,-1.635199040E-1,-5.382944345E-1
3.301684944E1,7.949974388E-2,-2.280796319E-1,-6.017546058E-1
3.303684944E1,-1.336922217E-2,-2.789036036E-1,-6.308143735E-1
3.305684944E1,-1.210734919E-1,-2.593035698E-1,-6.331705451E-1
3.307684944E1,-2.418677211E-1,-1.805019528E-1,-6.015626192E-1
3.309684944E1,-3.776194453E-1,-2.968805097E-2,-5.490631461E-1
3.311684944E1,-5.100899339E-1,1.170417815E-1,-4.963192642E-1
3.313684944E1,-5.814913511E-1,2.965139747E-1,-5.238605738E-1
3.315684944E1,-5.399699807E-1,4.100651145E-1,-6.202551126E-1
3.317684944E1,-4.484972656E-1,3.764849603E-1,-7.665137053E-1
3.319684944E1,-3.311064243E-1,1.589471400E-1,-8.717570305E-1
3.321684944E1,-2.431243658E-1,-6.819001585E-2,-8.532565832E-1
3.323684944E1,-1.464156657E-1,-2.653074861E-1,-7.807905078E-1
3.325684944E1,-1.137780100E-1,-3.610911667E-1,-8.570788503E-1
3.327684944E1,-3.624874353E-1,-2.160019428E-1,-1.041664839E0
3.329684944E1,-7.530921102E-1,1.955990493E-1,-9.689893723E-1
3.331684944E1,-7.285353541E-1,1.947438419E-1,-5.799554586E-1
3.333684944E1,-3.619463742E-1,6.117378920E-2,-1.941504180E-1
3.335684944E1,5.323254038E-3,8.269369602E-2,-2.255139947E-1
3.337684944E1,1.284038723E-1,2.148325741E-1,-3.458195329E-1
3.339684944E1,1.474803239E-1,3.028146327E-1,-6.328564137E-2
3.341684944E1,1.460316926E-1,2.544166446E-1,4.624773562E-1
3.343684944E1,1.443212777E-1,-1.606226563E-1,9.021781683E-1
3.345684944E1,9.719738364E-2,-6.675186157E-1,1.090760946E0
3.347684944E1,1.637817025E-1,-8.784067631E-1,1.016863704E0
3.349684944E1,3.120823205E-1,-6.895272136E-1,6.944490671E-1
3.351685256E1,3.519980013E-1,-2.220058739E-1,2.668259442E-1
3.353884944E1,2.834938169E-1,2.241700888E-1,-2.056346983E-1
3.355884944E1,3.033731282E-1,1.706233919E-1,-4.604353011E-1
3.357884944E1,2.501929402E-1,-1.862091720E-1,-5.215567350E-1
3.359884944E1,2.533869147E-1,-3.239854574E-1,-4.461585283E-1
3.361884944E1,3.613355160E-1,-2.672099173E-1,-2.920808494E-1
3.363884944E1,4.366639256E-1,-2.524444163E-1,-2.015331686E-1
3.365884944E1,4.782725871E-1,-3.218212724E-1,-1.985486597E-1
3.367884944E1,4.794244766E-1,-3.272841275E-1,-1.643227488E-1
3.369884944E1,4.710992575E-1,-2.082352340E-1,-1.475501359E-1
3.371884944E1,4.171162248E-1,-8.515461534E-2,-6.990043819E-2
3.373884944E1,3.909362853E-1,-1.071981192E-1,1.185253114E-1
3.375885100E1,3.441614807E-1,-2.699675262E-1,2.136632055E-1
3.378084944E1,5.511749908E-2,-1.760513633E-1,1.976759881E-1
3.380084944E1,-2.295631617E-1,3.235316873E-1,3.227986395E-1
3.382084944E1,-1.576381326E-1,4.192455411E-1,5.107356906E-1
3.384084944E1,1.055749655E-1,-2.701595128E-1,5.911779404E-1
3.386084944E1,1.105491519E-1,-1.007718205E0,4.714832306E-1
3.388084944E1,-2.774375379E-1,-7.257078886E-1,1.928065270E-1
3.390084944E1,-7.820645571E-1,5.563411713E-1,-5.270894244E-2
3.392084944E1,-8.419468403E-1,1.649126649E0,-1.660855263E-1
3.394084944E1,-4.096636772E-1,1.594305873E0,-6.408849359E-2
3.396085100E1,9.094911069E-2,3.258529603E-1,6.183701381E-2
3.398085100E1,1.978505254E-1,-8.503593206E-1,9.820967913E-2
3.400085100E1,1.340587437E-1,-1.278540969E0,1.859299242E-1
3.402085100E1,1.756499410E-1,-9.385508299E-1,3.433760703E-1
3.404085100E1,2.856580317E-1,-1.064127237E-1,5.283984542E-1
3.406284944E1,3.182433248E-1,6.704682112E-1,5.581563115E-1
3.408284944E1,2.724982500E-1,7.533713579E-1,5.184674859E-1
3.410284944E1,2.131396085E-1,4.528431296E-1,4.867199659E-1
3.412284944E1,5.597271025E-2,1.591391265E-1,4.700346291E-1
3.414285256E1,-9.957103431E-2,1.275137514E-1,5.365490913E-1
3.416484944E1,-1.551423222E-1,3.191683590E-1,6.573259234E-1
3.418484944E1,-1.295034289E-1,4.086863101E-1,6.734004021E-1
3.420484944E1,-1.530304700E-1,2.302612811E-1,5.470385551E-1
3.422484944E1,-2.206794322E-1,5.372123420E-2,4.213224947E-1
3.424484944E1,-2.529505789E-1,-2.045525797E-2,3.624001741E-1
3.426484944E1,-2.048318386E-1,2.792526735E-3,2.852566242E-1
3.428484944E1,-1.504997462E-1,1.417905539E-1,2.036799192E-1
3.430484944E1,-1.425759494E-1,2.504547536E-1,1.196423173E-1
3.432484944E1,-1.576381326E-1,1.308822334E-1,1.048768312E-1
3.434484944E1,-2.086890191E-1,-2.062455565E-1,1.377937496E-1
3.436484944E1,-3.079109788E-1,-4.570319057E-1,1.130275205E-1
3.438484944E1,-3.463082314E-1,-4.266108274E-1,3.005456924E-2
3.440484944E1,-3.023957312E-1,-1.685464382E-1,-8.332201838E-2
3.442484944E1,-3.585429788E-1,1.844987571E-1,-1.175828278E-1
3.444484944E1,-4.765796065E-1,5.909859538E-1,-9.724974632E-2
3.446484944E1,-3.764325976E-1,6.018942595E-1,-9.901253134E-2
3.448484944E1,8.623671532E-2,2.106437832E-1,-2.160892189E-1
3.450484944E1,6.701017022E-1,-1.745678335E-1,-4.902280867E-1
3.452484944E1,8.847597837E-1,-1.304284483E-1,-7.943167686E-1
3.454484944E1,7.677179575E-1,9.351474047E-2,-8.080176115E-1
3.456484944E1,5.968502164E-1,1.606575549E-1,-5.897816420E-1
3.458484944E1,5.877919793E-1,-1.266061813E-1,-3.685088158E-1
3.460485100E1,6.199060678E-1,-4.636118114E-1,-3.004933298E-1
3.462685100E1,6.094864011E-1,-5.451536179E-1,-3.553141356E-1
3.464885100E1,6.047042012E-1,-3.469190896E-1,-3.944618702E-1
3.467084944E1,5.203873515E-1,-6.059783325E-2,-3.059911132E-1
3.469085100E1,3.297625184E-1,2.086541057E-1,-1.798910797E-1
3.471285100E1,6.047565863E-2,3.623303473E-1,-1.009149402E-1
3.473286350E1,-1.864884347E-1,2.598795295E-1,-1.054353416E-1
3.475484944E1,-2.806838453E-1,2.469640821E-1,-1.509884298E-1
3.477484944E1,-1.366069168E-1,1.531700939E-1,-2.541373968E-1
3.479484944E1,5.476843193E-2,-1.172686741E-1,-2.604031265E-1
3.481484944E1,9.138543904E-2,-3.660653532E-1,-2.226341963E-1
3.483484944E1,-2.223549411E-2,-3.983539343E-1,-1.780235767E-1
3.485485100E1,-1.083151326E-1,-4.598593414E-1,-8.684758097E-2
3.487684944E1,-1.479166597E-1,-4.914323688E-1,4.836307466E-2
3.489684944E1,-6.941174716E-2,-4.371176958E-1,1.103048101E-1
3.491684944E1,2.307325229E-2,-3.798359931E-1,3.251548484E-2
3.493684944E1,-5.663593486E-2,-2.909463942E-1,-1.312662065E-1
3.495684944E1,-1.756150275E-1,-9.166469425E-2,-2.337170392E-1
3.497684944E1,-6.923720986E-2,-7.963937521E-2,-2.798635364E-1
3.499684944E1,2.680302262E-1,-3.638662398E-1,-2.446951568E-1
3.501684944E1,5.160763860E-1,-6.928259134E-1,-1.972745657E-1
3.503684944E1,3.553141356E-1,-5.561840534E-1,-6.578145921E-2
3.505685100E1,-4.317944497E-2,2.005383372E-2,2.519906461E-1
3.507885100E1,-2.771757245E-1,4.584805369E-1,7.467042208E-1
3.510084944E1,-6.824237294E-3,1.624377966E-1,9.223716259E-1
3.512084944E1,1.419999897E-1,1.173384860E-1,9.102939367E-1
3.514084944E1,-7.696901914E-3,5.057091713E-1,8.007745147E-1
3.516084944E1,-1.353153735E-1,7.203148603E-1,5.149070621E-1
3.518084944E1,3.344050795E-2,2.462136000E-1,3.244043589E-1
3.520084944E1,1.793674827E-1,-5.127253532E-1,3.298323154E-1
3.522084944E1,1.717927605E-1,-1.005152583E0,2.308721542E-1
3.524084944E1,1.857728511E-1,-1.097951770E0,4.427900165E-2
3.526084944E1,1.613207757E-1,-6.598915458E-1,-1.435184181E-1
3.528084944E1,8.960520476E-2,1.164832711E-1,-2.472782433E-1
3.530084944E1,-1.638864167E-2,5.661673546E-1,-3.714060783E-1
3.532084944E1,-1.297303289E-1,5.863608122E-1,-3.876550794E-1
3.534084944E1,-1.738173366E-1,3.198664784E-1,-3.131818771E-1
3.536084944E1,-1.972571164E-1,1.128180847E-1,-2.401049435E-1
3.538084944E1,-1.600990444E-1,1.377762854E-1,-2.284636050E-1
3.540084944E1,-8.466592431E-2,2.121273130E-1,-3.005805910E-1
3.542084944E1,-1.499237865E-2,2.630734742E-1,-3.827856183E-1
3.544084944E1,-1.904154196E-2,2.700722516E-1,-3.655766547E-1
3.546085100E1,-4.235913977E-2,2.825513482E-1,-2.372251451E-1
3.548284944E1,-1.108284108E-2,3.197966814E-1,-4.403465614E-2
3.550284944E1,4.009021446E-2,3.380702734E-1,4.073598608E-2
3.552284944E1,1.804670505E-2,3.681248426E-1,1.228711754E-2
3.554284944E1,-5.255186185E-2,4.507487416E-1,-4.483750835E-2
3.556284944E1,-6.283185631E-2,5.338264108E-1,-9.735446423E-2
3.558284944E1,-2.850122750E-2,4.911356568E-1,-1.064301804E-1
3.560285100E1,-3.180164397E-1,3.905872405E-1,-9.934414178E-2
3.562285100E1,-8.886867166E-1,3.849672675E-1,4.490732029E-2
3.564285100E1,-1.097567797E0,4.970697686E-2,1.315454692E-1
3.566485100E1,-7.716100812E-1,-2.356369048E-1,1.731366664E-2
3.568684944E1,-6.024876609E-2,9.396852553E-2,-3.706032038E-1
3.570684944E1,3.581066430E-1,7.474023700E-1,-7.189360261E-1
3.572684944E1,3.928736150E-1,1.142876506E0,-7.662693262E-1
3.574685100E1,2.066469789E-1,8.765741587E-1,-5.094092488E-1
3.576884944E1,4.687954485E-2,3.791553378E-1,-3.649483621E-2
3.578884944E1,1.972222002E-3,1.702219546E-1,1.312487572E-1
3.580884944E1,1.082104165E-3,4.237659276E-2,6.398376822E-2
3.582884944E1,3.951425478E-2,8.396779001E-2,2.530727303E-3
3.584884944E1,3.255039081E-2,2.447475195E-1,1.310742274E-2
3.586885100E1,-6.585127115E-2,4.090353549E-1,7.098253816E-2
3.589085100E1,-2.994984984E-1,3.310191333E-1,1.158200502E-1
3.591085100E1,-5.512098670E-1,2.053728998E-1,1.136558428E-1
3.593285725E1,-5.897991061E-1,2.402620167E-1,3.340560198E-2
3.595485100E1,-4.315675497E-1,1.761386245E-1,-1.420698036E-2
3.597684944E1,-3.208613396E-1,3.230604529E-2,1.012290921E-2
3.599684944E1,-3.193428814E-1,-6.972590089E-2,-1.692969352E-2
3.601684944E1,-2.947162986E-1,-2.218662500E-1,-1.499412358E-1
3.603684944E1,-2.821499407E-1,-3.750188947E-1,-2.894454002E-1
3.605685100E1,-2.608918250E-1,-5.754525065E-1,-3.532022834E-1
3.607884944E1,-4.200309217E-1,-4.287052155E-1,-2.228261828E-1
3.609884944E1,-6.847799420E-1,-3.021164984E-2,1.244245246E-1
3.611884944E1,-6.742730737E-1,-1.550375968E-1,2.242399007E-1
3.613884944E1,-3.035825789E-1,-6.677803993E-1,-2.872812003E-2
3.615885100E1,1.890017092E-1,-9.230173826E-1,-4.981693327E-1
3.618084944E1,2.093871534E-1,-2.805442214E-1,-8.885994554E-1
3.620084944E1,-9.831439704E-2,3.982841372E-1,-8.232718110E-1
3.622084944E1,-4.534190893E-1,4.938932657E-1,-5.967804193E-1
3.624084944E1,-5.959776044E-1,7.105235010E-2,-3.527659476E-1
3.626084944E1,-5.962393880E-1,-2.769663036E-1,-1.815840602E-1
3.628084944E1,-4.335397780E-1,-5.833064914E-1,-1.910786480E-1
3.630084944E1,-1.301666498E-1,-9.546776414E-1,-3.276506662E-1
3.632084944E1,1.251226515E-1,-1.045783877E0,-4.394913614E-1
3.634084944E1,2.235592157E-1,-7.678924799E-1,-4.976980984E-1
3.636084944E1,2.242573500E-1,-3.663795292E-1,-4.966334403E-1
3.638084944E1,1.219985113E-1,9.505063295E-2,-3.193079829E-1
3.640084944E1,1.754055917E-2,2.309943289E-1,-1.063952744E-1
3.642084944E1,-1.937315427E-2,1.611986160E-1,-3.574434295E-2
3.644084944E1,-4.478514940E-2,1.074948311E-1,-1.387885809E-1
3.646084944E1,-1.198168546E-1,1.037598252E-1,-2.012539208E-1
3.648084944E1,-1.292939931E-1,1.312662065E-1,-1.220159680E-1
3.650084944E1,-1.543220133E-1,1.353677362E-1,5.663593486E-2
3.652084944E1,-2.304358184E-1,2.007826716E-1,2.434908897E-1
3.654084944E1,-3.116459846E-1,3.000046313E-1,3.251723051E-1
3.656084944E1,-3.113492727E-1,2.071356773E-1,3.436727822E-1
3.658084944E1,-3.436727822E-1,1.737998873E-1,3.127281070E-1
3.660084944E1,-3.841644228E-1,1.826836169E-1,2.447649688E-1
3.662084944E1,-4.372747838E-1,2.384119779E-1,1.571668983E-1
3.664084944E1,-5.294456482E-1,2.818706632E-1,9.503317624E-2
3.666084944E1,-6.630156636E-1,3.611086309E-1,1.085071191E-1
3.668085100E1,-8.532565832E-1,4.345520735E-1,2.235068679E-1
3.670085100E1,-8.790001869E-1,2.949955463E-1,3.200759292E-1
3.672285100E1,-5.852612853E-1,-7.560766488E-2,3.560995162E-1
3.674484944E1,-6.956882030E-2,-7.021459341E-1,2.063153684E-1
3.676484944E1,3.678455949E-1,-8.918457627E-1,3.071779385E-3
3.678484944E1,5.379628539E-1,-4.749913514E-1,-1.561371535E-1
3.680485100E1,3.927863538E-1,2.619215548E-1,-2.068040669E-1
3.682684944E1,1.831024885E-1,6.559994221E-1,-6.298892945E-2
3.684684944E1,1.695063710E-1,4.775919020E-1,1.848652810E-1
3.686684944E1,2.470513582E-1,-4.293509759E-3,3.902032673E-1
3.688684944E1,3.485073447E-1,-3.942873180E-1,4.874355495E-1
3.690685100E1,4.410621524E-1,-4.647288322E-1,4.168020785E-1
3.692884944E1,4.684289098E-1,-3.713187873E-1,3.085916638E-1
3.694884944E1,4.058065116E-1,-3.051359057E-1,2.399827689E-1
3.696884944E1,2.661277950E-1,-2.179741710E-1,2.299471349E-1
3.698884944E1,1.074599251E-1,-9.025097638E-2,2.597748041E-1
3.700884944E1,7.504915702E-4,-6.112143025E-2,2.746973634E-1
3.702884944E1,-6.892304868E-2,-7.464773208E-2,2.215346396E-1
3.704884944E1,-1.136558428E-1,-8.620180935E-2,1.414589286E-1
3.706884944E1,-1.725432426E-1,-9.955357760E-2,3.452261165E-2
3.708885100E1,-2.400176823E-1,-1.123992056E-1,-6.459463388E-2
3.710885100E1,-2.706656456E-1,-6.801547855E-2,-1.772905439E-1
3.712885100E1,-1.990897059E-1,4.668755829E-2,-2.391799241E-1
3.715084944E1,-6.850416958E-2,1.589471400E-1,-2.875081003E-1
3.717084944E1,-3.618067503E-2,2.397558838E-1,-2.946814001E-1
3.719084944E1,-6.344271451E-2,2.157052457E-1,-2.411346883E-1
3.721084944E1,-4.747295380E-2,4.298745841E-2,-1.546187252E-1
3.723084944E1,1.667487621E-1,-4.755498469E-1,-9.218829125E-2
3.725084944E1,2.679778636E-1,-7.423757911E-1,-8.580038697E-2
3.727084944E1,8.817403018E-2,-4.480085671E-1,-1.785471886E-1
3.729084944E1,-3.851941600E-2,1.187172979E-1,-2.514495850E-1
3.731084944E1,2.129127085E-1,3.941302598E-1,-2.846457362E-1
3.733084944E1,5.181882381E-1,3.873409331E-1,-4.440990388E-1
3.735084944E1,4.377111197E-1,5.952794552E-1,-5.679824948E-1
3.737084944E1,1.802576035E-1,8.662243485E-1,-5.453804731E-1
3.739084944E1,1.181762442E-1,1.088876009E0,-3.817034960E-1
3.741084944E1,2.597748041E-1,1.075471878E0,-2.453409284E-1
3.743084944E1,4.893379509E-1,5.714033246E-1,-2.370680720E-1
3.745084944E1,6.597693563E-1,-1.535889804E-1,-3.248232305E-1
3.747084944E1,7.526208758E-1,-5.962568521E-1,-3.224146664E-1
3.749084944E1,8.256279826E-1,-6.800500751E-1,-2.795144916E-1
3.751084944E1,7.623947263E-1,-4.303807318E-1,-2.423215061E-1
3.753084944E1,6.081599593E-1,-1.124864668E-1,-2.139948159E-1
3.755084944E1,3.369008899E-1,2.461786866E-1,-1.541125774E-1
3.757084944E1,3.757693991E-2,5.320810676E-1,1.537635084E-2
3.759084944E1,-1.113170981E-1,4.067315161E-1,2.120924145E-1
3.761084944E1,-1.474105120E-1,4.328416660E-2,3.114190996E-1
3.763084944E1,-1.151044667E-1,-2.727949619E-1,2.951875329E-1
3.765084944E1,-1.356469840E-1,-2.039242685E-1,3.030938804E-1
3.767084944E1,-1.709375530E-1,3.017674200E-2,3.230604529E-1
3.769084944E1,-1.973618269E-1,-7.189010829E-2,3.319790661E-1
3.771084944E1,-2.208714187E-1,-3.786317408E-1,3.353126645E-1
3.773084944E1,-2.878397107E-1,-4.106061459E-1,3.431840837E-1
3.775084944E1,-3.602534235E-1,-2.155481577E-1,3.038792610E-1
3.777084944E1,-3.877947032E-1,-6.894050539E-2,2.877873480E-1
3.779084944E1,-4.744328558E-1,6.956882030E-2,2.667212188E-1
3.781084944E1,-7.304900885E-1,2.282716185E-1,2.973168492E-1
3.783084944E1,-1.030494690E0,3.591015041E-1,4.497888088E-1
3.785084944E1,-9.636835456E-1,2.254267186E-1,5.703212619E-1
3.787084944E1,-6.285105348E-1,1.784250140E-1,4.937012792E-1
3.789085100E1,-1.762084365E-1,2.693741024E-1,2.089682668E-1
3.791285256E1,1.793325841E-1,1.849350929E-1,-9.321803600E-2
3.793484944E1,2.537883222E-1,-4.309218004E-2,-8.477064222E-2
3.795485100E1,1.118930578E-1,-4.209734127E-2,9.000662714E-2
3.797685100E1,-5.178391933E-2,2.155481651E-2,2.950653732E-1
3.799884944E1,-1.713913307E-2,-4.358087108E-2,4.488637745E-1
3.801884944E1,9.536478668E-2,-2.065248042E-1,4.743804932E-1
3.803884944E1,1.405688226E-1,-3.241076469E-1,4.859345555E-1
3.805884944E1,4.120722413E-2,-3.637440801E-1,5.171235800E-1
3.807884944E1,-1.073726565E-1,-3.570594490E-1,5.335820317E-1
3.809884944E1,-1.974665523E-1,-2.749068141E-1,5.330410004E-1
3.811884944E1,-2.184803188E-1,-6.953391433E-2,5.084143877E-1
3.813884944E1,-2.249031216E-1,7.798130810E-2,3.446676135E-1
3.815884944E1,-1.723512560E-1,9.082693607E-2,1.380555481E-1
3.817884944E1,2.624975145E-2,2.611012571E-2,1.516691130E-2
3.819884944E1,1.820727438E-1,-3.717551241E-3,-1.289100200E-1
3.821884944E1,2.088984549E-1,-4.230678082E-2,-3.112620115E-1
3.823885100E1,2.531076372E-1,-7.435102761E-2,-4.485321641E-1
3.826084944E1,2.731091082E-1,9.253735840E-2,-5.460088253E-1
3.828084944E1,1.160469428E-1,7.438767552E-1,-5.189387202E-1
3.830085100E1,-2.076941729E-2,1.045242786E0,-4.974188209E-1
3.832085100E1,1.985835582E-1,4.494746327E-1,-5.235638618E-1
3.834285100E1,8.288917542E-1,-9.496161938E-1,-7.482575774E-1
3.836285100E1,1.019359589E0,-1.156664610E0,-1.018120408E0
3.838285100E1,8.027293086E-1,-3.509682715E-1,-1.195742488E0
3.840484944E1,4.003436267E-1,1.035852909E0,-1.152632833E0
3.842485100E1,2.638763189E-1,1.532591105E0,-9.508553743E-1
3.844684944E1,2.764601409E-1,1.344357252E0,-6.334847212E-1
3.846685100E1,4.180063605E-1,5.790304542E-1,-3.640407622E-1
3.848884944E1,5.267403722E-1,-4.480783641E-1,-2.916270494E-1
3.850885100E1,5.949303508E-1,-8.321031928E-1,-4.031361639E-1
3.852885100E1,6.159616113E-1,-8.189259171E-1,-5.419247150E-1
3.854885100E1,5.563237071E-1,-6.433981657E-1,-5.706703067E-1
3.857084944E1,3.641454875E-1,-4.466995597E-1,-4.631929398E-1
3.859084944E1,1.110902056E-1,-2.035752088E-1,-2.961823642E-1
3.861084944E1,-4.937536269E-2,-9.770353138E-2,-1.027998924E-1
3.863084944E1,-1.400801241E-1,-2.190911770E-1,1.047197543E-2
3.865084944E1,-1.963495463E-1,-4.135034084E-1,1.096066739E-2
3.867084944E1,-2.510307133E-1,-4.773475528E-1,-1.399754081E-2
3.869085100E1,-3.722961843E-1,-3.552617729E-1,-1.186823845E-2
3.871085100E1,-5.185896754E-1,-1.825265288E-1,-2.797762863E-2
3.873285725E1,-5.719094872E-1,-1.027126238E-1,-3.166027367E-2
3.875485100E1,-6.491577625E-1,-5.199335888E-2,-2.703515068E-2
3.877485725E1,-8.089950085E-1,-1.621410809E-2,1.239183708E-3
3.879684944E1,-1.101669312E0,1.794896573E-1,9.512044489E-2
3.881684944E1,-1.410418034E0,4.723559022E-1,2.617819309E-1
3.883684944E1,-1.453143716E0,4.055097997E-1,4.279198349E-1
3.885685100E1,-9.746965766E-1,-1.174781099E-1,4.831594825E-1
3.887884944E1,-1.066570729E-1,-5.607917309E-1,1.789311469E-1
3.889885100E1,3.685611784E-1,-1.104269847E-1,-2.360732406E-1
3.892084944E1,3.462035060E-1,7.561813593E-1,-3.863286376E-1
3.894084944E1,1.671850830E-1,1.008905053E0,-2.043955028E-1
3.896084944E1,5.204571784E-2,7.697076797E-1,4.029965401E-2
3.898084944E1,2.878047898E-2,2.272942215E-1,2.960427403E-1
3.900084944E1,1.036725566E-1,-2.652027905E-1,4.574682415E-1
3.902084944E1,2.922728360E-1,-3.855432272E-1,5.391147733E-1
3.904084944E1,4.214446545E-1,-3.231651485E-1,5.664116740E-1
3.906084944E1,3.254689872E-1,-2.481160015E-1,5.633573532E-1
3.908084944E1,7.225663215E-2,-1.447052509E-1,5.746322274E-1
3.910084944E1,-1.987580955E-1,-1.194328815E-1,6.082123518E-1
3.912084944E1,-3.655592203E-1,-1.091528907E-1,6.821968555E-1
3.914084944E1,-4.815712571E-1,6.178465672E-3,7.351501584E-1
3.916084944E1,-5.924519897E-1,9.238027781E-2,7.151660919E-1
3.918084944E1,-6.164328456E-1,6.595598906E-2,6.397678852E-1
3.920084944E1,-5.612629652E-1,1.378111988E-1,4.594579339E-1
3.922084944E1,-3.337244093E-1,9.911724925E-2,2.312212139E-1
3.924084944E1,-2.513274178E-2,-1.090656221E-1,4.513421282E-2
3.926084944E1,1.639213264E-1,-2.863561809E-1,-1.247910410E-1
3.928084944E1,1.665742248E-1,-2.338566631E-1,-2.487268746E-1
3.930084944E1,1.590693146E-1,-7.489208132E-2,-3.206169903E-1
3.932084944E1,1.412320435E-1,7.328637689E-2,-3.745650947E-1
3.934084944E1,5.222025141E-2,2.654122114E-1,-3.340560198E-1
3.936084944E1,-5.878268927E-2,4.832118452E-1,-2.397035211E-1
3.938084944E1,1.097986624E-1,2.155830711E-1,-2.234894037E-1
3.940084944E1,5.044001341E-1,-3.362725973E-1,-3.992266059E-1
3.942084944E1,6.931924224E-1,-4.688477814E-1,-6.756693125E-1
3.944084944E1,5.718745589E-1,-1.164134592E-2,-8.926661015E-1
3.946084944E1,3.253642917E-1,7.432659268E-1,-9.852209091E-1
3.948084944E1,1.420872509E-1,1.361583710E0,-9.892526269E-1
3.950084944E1,1.204102635E-1,1.508121490E0,-8.532565832E-1
3.952084944E1,2.718350291E-1,1.335089564E0,-6.238853931E-1
3.954084944E1,5.743180513E-1,6.163630486E-1,-5.534613729E-1
3.956084944E1,7.684859037E-1,-1.722465456E-1,-6.391744614E-1
3.958084944E1,7.753624916E-1,-5.341056585E-1,-7.240149379E-1
3.960084944E1,7.249399424E-1,-6.020163894E-1,-7.485368252E-1
3.962084944E1,6.141988039E-1,-4.499284327E-1,-6.434679627E-1
3.964084944E1,4.840147197E-1,-2.540152073E-1,-4.751135409E-1
3.966084944E1,2.915747166E-1,-1.335874945E-1,-3.328342736E-1
3.968084944E1,1.294336170E-1,-6.455972791E-2,-2.560921609E-1
3.970084944E1,8.365362883E-2,-1.279675364E-1,-1.425410360E-1
3.972084944E1,9.250245243E-2,-2.487094104E-1,-3.996803891E-3
3.974084944E1,1.017701477E-1,-3.821921945E-1,7.110471278E-2
3.976085100E1,3.637266159E-2,-4.706803858E-1,7.124433666E-2
3.978285100E1,-1.090132669E-1,-4.941725135E-1,2.019345947E-2
3.980484944E1,-2.397209704E-1,-3.967831433E-1,1.286307629E-2
3.982485100E1,-3.097435832E-1,-3.311587572E-1,3.721041977E-2
3.984485100E1,-4.389154017E-1,-2.623578906E-1,2.096140385E-2
3.986684944E1,-5.813866258E-1,-2.848551869E-1,6.972590089E-2
3.988685100E1,-7.476466894E-1,-3.038269281E-1,1.736951619E-1
3.990685100E1,-1.000876546E0,-7.192502171E-2,2.833018303E-1
3.992884944E1,-1.162197232E0,1.911833584E-1,3.890687823E-1
3.994884944E1,-9.229475856E-1,2.867575921E-2,3.840422332E-1
3.996884944E1,-4.453731179E-1,-2.775247991E-1,2.765125036E-1
3.998884944E1,-2.907718532E-2,-1.120152324E-1,6.812020391E-2
4.000884944E1,2.095616758E-1,3.289945722E-1,-1.860869974E-1
4.002884944E1,3.452435732E-1,4.715879560E-1,-3.226066530E-1
4.004884944E1,4.165926278E-1,4.420046210E-1,-2.162637413E-1
4.006884944E1,3.684215546E-1,2.350434959E-1,1.870992966E-2
4.008884944E1,2.013935447E-1,-4.003785178E-2,2.552543879E-1
4.010884944E1,6.819001585E-2,-1.763480604E-1,4.306425452E-1
4.012884944E1,4.546582699E-2,-1.892635077E-1,5.349608660E-1
4.014884944E1,4.361577705E-2,-4.522148147E-2,5.841966271E-1
4.016884944E1,-3.008947708E-2,1.156978756E-1,6.144605875E-1
4.018884944E1,-1.454382837E-1,1.811826229E-1,6.782523990E-1
4.020884944E1,-2.266659141E-1,1.733984649E-1,7.472976446E-1
4.022885100E1,-2.718873918E-1,9.618509561E-2,7.783994079E-1
4.025085100E1,-3.450864851E-1,-7.040657848E-2,6.845006943E-1
4.027284944E1,-3.502701223E-1,-2.200162113E-1,5.589242578E-1
4.029284944E1,-2.894977629E-1,-2.107485086E-1,4.164704680E-1
4.031284944E1,-2.717477679E-1,-1.665393114E-1,2.488141358E-1
4.033286506E1,-2.702118754E-1,-1.467647403E-1,1.450019479E-1
4.035484944E1,-2.136283070E-1,-1.059414819E-1,6.843435764E-2
4.037484944E1,-1.788787991E-1,-7.010987401E-2,-3.977605328E-2
4.039485100E1,-1.915149838E-1,2.155481651E-2,-2.114815414E-1
4.041684944E1,-3.057642281E-1,3.651752472E-1,-3.257831633E-1
4.043684944E1,-3.677757680E-1,5.168443322E-1,-2.863561809E-1
4.045685100E1,-1.899790913E-1,2.513623238E-1,-2.049365640E-1
4.047884944E1,3.888942599E-1,-3.689800501E-1,-3.467620015E-1
