"Time (s)","Linear Acceleration x (m/s^2)","Linear Acceleration y (m/s^2)","Linear Acceleration z (m/s^2)"
1.000000000E-2,-2.589999884E-2,6.258999705E-1,9.248999953E-1
3.000000000E-2,-3.549999744E-2,6.161000133E-1,9.761999846E-1
5.000000000E-2,-1.722899914E0,1.516899943E0,1.294700027E0
7.000781300E-2,-3.409999907E-1,1.674099922E0,1.686100006E0
1.000000000E-1,3.989000022E-1,1.045999974E-1,8.323999643E-1
1.200062500E-1,9.418999553E-1,-6.283000112E-1,8.633999825E-1
1.500000000E-1,9.542999864E-1,-9.100999832E-1,3.192999959E-1
1.700093750E-1,3.351999819E-1,-8.089999557E-1,4.899999797E-1
2.000000000E-1,-9.308999777E-1,-8.479999900E-1,1.624099970E0
2.200000000E-1,-1.278100014E0,-9.769999981E-1,1.358600020E0
2.400000000E-1,-1.259599924E0,-9.617999792E-1,1.054999948E0
2.600046880E-1,-9.325000048E-1,-8.513999581E-1,1.145900011E0
2.899984380E-1,-1.802999973E-1,-3.695999980E-1,-1.458999962E-1
3.100031250E-1,7.029999793E-2,7.789999992E-2,-9.873999953E-1
3.399984380E-1,4.201999903E-1,5.306000113E-1,-2.011699915E0
3.600062500E-1,2.890999913E-1,9.584999681E-1,-2.411900043E0
3.900000000E-1,-2.168999910E-1,9.418999553E-1,-1.904799938E0
4.199984380E-1,6.529999524E-2,4.445999861E-1,-5.582000017E-1
4.399984380E-1,3.531000018E-1,4.521999955E-1,-2.397999913E-1
4.600078130E-1,2.430999875E-1,6.129999757E-1,-3.027999997E-1
4.899984380E-1,4.250999987E-1,9.052999616E-1,-1.318999976E-1
5.100046880E-1,6.776999831E-1,1.036999941E0,-1.457999945E-1
5.399984380E-1,7.149999738E-1,1.341599941E0,-4.420999885E-1
5.599984380E-1,9.046999812E-1,1.390299916E0,-5.983999968E-1
5.799984380E-1,1.023800015E0,1.298399925E0,-2.750000060E-1
5.999984380E-1,9.314000010E-1,1.287699938E0,6.354999542E-1
6.199984380E-1,8.148999810E-1,1.317600012E0,1.026600003E0
6.399984380E-1,7.767999768E-1,1.392099977E0,1.085799932E0
6.599984380E-1,9.310999513E-1,1.475099921E0,1.000100017E0
6.799984380E-1,8.039999604E-1,1.470899940E0,5.828999877E-1
6.999984380E-1,5.554000139E-1,1.375299931E0,6.466999650E-1
7.199984380E-1,1.994999945E-1,1.097899914E0,1.686399937E0
7.399984380E-1,-6.700000167E-2,8.014999628E-1,2.457099915E0
7.599984380E-1,-1.840000004E-1,6.517999768E-1,2.344699860E0
7.799984380E-1,-3.753999770E-1,3.466999829E-1,2.273599863E0
8.000000000E-1,-3.398999870E-1,-3.619999811E-2,2.119099855E0
8.300000000E-1,-3.631999791E-1,-4.842999876E-1,4.241999984E-1
8.500000000E-1,-6.100000143E-1,-5.838999748E-1,-1.242499948E0
8.700000000E-1,-1.147400022E0,-4.623999894E-1,-2.462699890E0
8.900000000E-1,-1.685400009E0,-7.677999735E-1,-2.746999979E0
9.199984380E-1,-2.275500059E0,-9.671999812E-1,-1.661399961E0
9.399984380E-1,-2.515599966E0,-8.756999969E-1,-3.418999910E-1
9.599984380E-1,-2.217900038E0,-9.723999500E-1,7.583000064E-1
9.799984380E-1,-1.678499937E0,-1.147899985E0,4.758999944E-1
9.999984380E-1,-1.374300003E0,-8.671999574E-1,-8.705999851E-1
1.019998438E0,-1.340199947E0,-3.377999961E-1,-2.179199934E0
1.039998438E0,-1.466099977E0,1.560999900E-1,-3.093999863E0
1.059998438E0,-1.571499944E0,3.919000030E-1,-3.348699808E0
1.079998438E0,-1.550400019E0,5.493999720E-1,-3.162199974E0
1.099998438E0,-1.499099970E0,6.225000024E-1,-2.698499918E0
1.119998438E0,-1.437099934E0,5.297999978E-1,-2.268899918E0
1.139998438E0,-1.245999932E0,4.570999742E-1,-1.793399930E0
1.159998438E0,-1.185199976E0,5.658999681E-1,-1.408699989E0
1.179998438E0,-1.259899974E0,5.918999910E-1,-5.067999959E-1
1.199998438E0,-1.401399970E0,7.136999965E-1,5.694999695E-1
1.219998438E0,-1.548699975E0,8.018999696E-1,1.201599956E0
1.239998438E0,-1.402599931E0,9.751999974E-1,1.394099951E0
1.260000000E0,-1.208099961E0,1.053900003E0,1.650099993E0
1.289998438E0,-1.682399988E0,7.874000072E-1,1.157099962E0
1.309998438E0,-4.435199738E0,1.523899913E0,1.507399917E0
1.329998438E0,-5.830699921E0,3.169099808E0,4.356499672E0
1.350000000E0,-3.953399897E0,3.225499868E0,5.336199760E0
1.379998438E0,-1.545399904E0,1.961799979E0,1.964699984E0
1.399998438E0,-3.427000046E-1,1.382900000E0,1.174799919E0
1.419998438E0,5.097000003E-1,2.232999951E-1,1.534999967E0
1.439998438E0,1.608299971E0,-5.473999977E-1,1.487299919E0
1.459998438E0,3.235599995E0,-1.261999965E0,5.845000148E-1
1.479998438E0,4.334599972E0,-1.831099987E0,-8.185999990E-1
1.499998438E0,3.766599894E0,-2.168499947E0,-2.714399815E0
1.519998438E0,3.477099895E0,-1.876199961E0,-3.739699841E0
1.539998438E0,3.523599863E0,-2.109499931E0,-3.341599941E0
1.559998438E0,3.128099918E0,-2.379799843E0,-1.611299992E0
1.579998438E0,1.932199955E0,-2.608000040E0,8.935999870E-1
1.599998438E0,9.580000043E-1,-2.626600027E0,3.085899830E0
1.619998438E0,1.928000003E-1,-2.408900023E0,3.763399839E0
1.639998438E0,-3.764999807E-1,-1.918599963E0,2.430099964E0
1.660000000E0,-5.744000077E-1,-1.029199958E0,2.471999973E-1
1.689998438E0,-5.781999826E-1,-2.994000018E-1,-2.462999821E0
1.709998438E0,-7.246999741E-1,1.656000018E-1,-3.057799816E0
1.730000000E0,-7.451999784E-1,1.838999987E-1,-2.989599943E0
1.759998438E0,-2.043000013E-1,-1.994999945E-1,-3.261199951E0
1.779998438E0,1.924999952E-1,1.105999947E-1,-3.278999805E0
1.799998438E0,4.820999801E-1,6.369999796E-2,-2.799199820E0
1.819998438E0,8.475999832E-1,7.459999621E-2,-2.318599939E0
1.839998438E0,1.069599986E0,5.999999866E-2,-2.320799828E0
1.859998438E0,9.386999607E-1,-2.433999926E-1,-1.285899997E0
1.879998438E0,9.549999982E-2,-6.647999883E-1,2.119600058E0
1.899998438E0,-4.655999839E-1,-6.168000102E-1,4.475699902E0
1.919998438E0,-7.678999901E-1,8.999999613E-2,4.780900002E0
1.939998438E0,-1.100799918E0,3.770999908E-1,4.452499866E0
1.959998438E0,-1.216599941E0,-5.889999866E-2,3.905200005E0
1.979998438E0,-1.326900005E0,-6.791999936E-1,3.997599840E0
1.999998438E0,-1.490899920E0,-9.162999988E-1,4.134200096E0
2.019998438E0,-1.406000018E0,-1.154500008E0,2.666299820E0
2.039998438E0,-1.482800007E0,-1.160099983E0,6.064000130E-1
2.060000000E0,-1.956599951E0,-8.835999966E-1,-8.411999941E-1
2.090000000E0,-2.504999876E0,-5.045999885E-1,-1.308099985E0
2.119998438E0,-2.282299995E0,-6.301999688E-1,-1.311200023E0
2.139998438E0,-1.944299936E0,-6.502999663E-1,-1.717000008E0
2.159998438E0,-1.752499938E0,-6.409999728E-1,-1.974799991E0
2.179998438E0,-1.631599903E0,-6.617999673E-1,-1.922199965E0
2.199998438E0,-1.613699913E0,-5.230000019E-1,-1.921700001E0
2.219998438E0,-1.714699984E0,-2.990999818E-1,-1.953899980E0
2.240000000E0,-1.761799932E0,-1.909999922E-2,-1.655499935E0
2.269998438E0,-1.564399958E0,3.716999888E-1,-1.359499931E0
2.289998438E0,-1.379899979E0,6.696000099E-1,-1.839199901E0
2.309998438E0,-1.065799952E0,9.056999683E-1,-2.338099957E0
2.329998438E0,-8.707000017E-1,1.311599970E0,-2.361899853E0
2.349998438E0,-8.617999554E-1,1.586799979E0,-1.786299944E0
2.369998438E0,-1.071099997E0,1.732800007E0,-6.649000049E-1
2.389998438E0,-1.081399918E0,1.814799905E0,7.707999945E-1
2.409998438E0,-1.029699922E0,1.639099956E0,2.175899982E0
2.429998438E0,-8.589999676E-1,1.219900012E0,3.087800026E0
2.450000000E0,-4.258999825E-1,1.139299989E0,3.625699997E0
2.479998438E0,-2.669999935E-2,7.666999698E-1,3.219399929E0
2.499998438E0,2.278999984E-1,3.183999956E-1,2.580999851E0
2.519998438E0,7.894999981E-1,-5.324000120E-1,2.976599932E0
2.539998438E0,1.325899959E0,-1.381399989E0,4.222599983E0
2.559998438E0,1.846399903E0,-2.035300016E0,3.696399927E0
2.579998438E0,1.996299982E0,-1.480099916E0,8.316999674E-1
2.599998438E0,2.006999969E0,-7.450000048E-1,-1.993899941E0
2.619998438E0,1.844799995E0,-6.078000069E-1,-3.180299997E0
2.639998438E0,1.299199939E0,-7.796999812E-1,-2.223000050E0
2.659998438E0,5.911999941E-1,-1.101300001E0,-4.580999911E-1
2.679998438E0,-1.950000040E-2,-1.250000000E0,1.084399939E0
2.700007813E0,-3.522000015E-1,-1.251699924E0,1.741499901E0
2.729998438E0,-1.688999981E-1,-1.057799935E0,1.098999977E-1
2.749998438E0,-1.612000018E-1,-7.142999768E-1,-1.323199987E0
2.769998438E0,-3.390000015E-2,-1.823000014E-1,-2.615099907E0
2.789998438E0,1.678999960E-1,-1.185999960E-1,-3.164899826E0
2.809998438E0,-6.659999490E-2,-3.094999790E-1,-2.880599976E0
2.829998438E0,-8.810000122E-2,-4.338999987E-1,-1.939299941E0
2.849998438E0,3.049999848E-2,-4.629999995E-1,-1.188199997E0
2.869998438E0,-2.558999956E-1,-4.371999800E-1,-9.923999906E-1
2.889998438E0,-3.200999796E-1,-1.665999889E-1,-1.293099999E0
2.909998438E0,-2.336999923E-1,4.210999906E-1,-1.702799916E0
2.929998438E0,-8.199999481E-2,7.425999641E-1,-1.784399986E0
2.949998438E0,-5.859999731E-2,9.329999685E-1,-1.516499996E0
2.969998438E0,-9.899999946E-2,8.973000050E-1,-7.461999655E-1
2.989998438E0,3.242000043E-1,8.693000078E-1,-3.895999789E-1
3.009998438E0,3.727999926E-1,1.064800024E0,-3.619999811E-2
3.030000000E0,-2.904999852E-1,1.468799949E0,9.706999660E-1
3.059998438E0,-2.865999937E-1,1.471099973E0,2.459899902E0
3.079998438E0,-2.944000065E-1,1.248299956E0,2.985899925E0
3.099998438E0,-5.697000027E-1,6.980999708E-1,3.583799839E0
3.119998438E0,-4.227999747E-1,1.924999952E-1,3.696399927E0
3.139998438E0,-4.217000008E-1,-5.419999734E-2,3.432099819E0
3.159998438E0,-4.790000021E-1,-4.748999774E-1,3.223099947E0
3.179998438E0,-4.127999842E-1,-1.323300004E0,2.521800041E0
3.199998438E0,-1.674999893E-1,-1.194100022E0,1.967000008E0
3.219998438E0,-1.484899998E0,-8.560000062E-1,-2.471999973E-1
3.239998438E0,-2.534600019E0,-4.600999951E-1,-3.346000016E-1
3.259998438E0,-2.996099949E0,-3.409000039E-1,5.212000012E-1
3.279998438E0,-3.480700016E0,-2.140000015E-1,6.841999888E-1
3.299998438E0,-3.112099886E0,-8.077999949E-1,2.138099909E0
3.319998438E0,-1.819700003E0,-1.027899981E0,8.919000030E-1
3.339998438E0,-6.772999763E-1,-1.028599977E0,-1.722499967E0
3.359998438E0,-7.959999889E-2,-9.853999615E-1,-3.151099920E0
3.379998438E0,-1.879999973E-2,-1.148399949E0,-3.776000023E0
3.399998438E0,1.499999966E-2,-9.924999475E-1,-4.250099659E0
3.419998438E0,1.168999970E-1,-8.920999765E-1,-4.763299942E0
3.439998438E0,2.468999922E-1,-8.216999769E-1,-5.210299969E0
3.459998438E0,-7.499999553E-2,-5.802999735E-1,-4.800899982E0
3.479998438E0,-1.244799972E0,2.646999955E-1,-3.582899809E0
3.499998438E0,-2.299700022E0,1.211599946E0,-2.221199989E0
3.519998438E0,-2.228600025E0,1.334800005E0,-6.978999972E-1
3.539998438E0,-1.241500020E0,1.110000014E0,5.999999703E-4
3.559998438E0,-2.022999972E-1,8.024999499E-1,-2.802999914E-1
3.579998438E0,6.784999967E-1,8.906999826E-1,-5.044999719E-1
3.600000000E0,1.074000001E0,6.866999865E-1,4.050999880E-1
3.629998438E0,7.992999554E-1,-4.790999889E-1,3.235599995E0
3.649998438E0,1.129999980E-1,-8.116999865E-1,6.172499657E0
3.670000000E0,-4.794999957E-1,-7.999999798E-4,6.255099773E0
3.690000000E0,-4.054999948E-1,9.529999495E-1,3.806199789E0
3.719998438E0,5.467999578E-1,1.024399996E0,2.048500061E0
3.739998438E0,1.090999961E0,1.655000001E-1,2.684299946E0
3.759998438E0,1.689999938E0,-5.794999599E-1,2.644700050E0
3.779998438E0,1.898000002E0,-5.719000101E-1,1.313399911E0
3.799998438E0,1.546999931E0,-1.970000006E-2,-3.610999882E-1
3.819998438E0,8.501999974E-1,5.329999700E-2,-9.057999849E-1
3.839998438E0,9.420000017E-2,-4.271000028E-1,7.504000068E-1
3.859998438E0,-4.887999892E-1,-1.188099980E0,3.240000010E0
3.879998438E0,-7.023999691E-1,-1.952099919E0,4.034999847E0
3.899998438E0,-4.235000014E-1,-2.110499859E0,2.451799870E0
3.919998438E0,-1.893000007E-1,-1.929799914E0,-3.673999906E-1
3.939998438E0,-2.600000007E-3,-1.644500017E0,-2.975199938E0
3.959998438E0,4.859999940E-2,-1.408900023E0,-4.644299984E0
3.979998438E0,5.999999703E-4,-1.397499919E0,-5.268499851E0
3.999998438E0,-2.938999832E-1,-1.272899985E0,-5.363999844E0
4.019998438E0,-5.971999764E-1,-1.186399937E0,-5.177999973E0
4.039998438E0,-7.746999860E-1,-8.166999817E-1,-4.828099728E0
4.059998438E0,-7.282999754E-1,-1.659999937E-1,-4.322999954E0
4.079998438E0,-8.682999611E-1,6.459999681E-1,-3.698799849E0
4.099998438E0,-1.257300019E0,1.255900025E0,-2.433799982E0
4.119998438E0,-1.414399981E0,1.389199972E0,-2.487999946E-1
4.139998438E0,-9.401999712E-1,1.138599992E0,1.587499976E0
4.159998438E0,-2.250999957E-1,7.896999717E-1,2.489799976E0
4.179998438E0,4.569999874E-2,4.269999862E-1,2.760499954E0
4.199998438E0,1.162999943E-1,4.208999872E-1,2.546499968E0
4.219998438E0,2.511000037E-1,3.919000030E-1,2.517599821E0
4.239998438E0,3.039000034E-1,2.712000012E-1,2.622099876E0
4.259998438E0,1.089999974E-1,3.079999983E-2,2.277499914E0
4.279998438E0,-1.057999954E-1,-1.555999964E-1,2.093899965E0
4.299998438E0,-4.255999923E-1,-6.175999641E-1,2.978799820E0
4.319998438E0,-5.101999640E-1,-1.302099943E0,3.842999935E0
4.339998438E0,-3.682000041E-1,-1.970899940E0,3.578399897E0
4.359998438E0,-2.927999794E-1,-1.979900002E0,1.638499975E0
4.379998438E0,-6.811999679E-1,-1.737599969E0,-3.033999801E-1
4.399998438E0,-1.490999937E0,-1.455099940E0,-1.166399956E0
4.419998438E0,-1.781599998E0,-1.176900029E0,-7.587999701E-1
4.439998438E0,-1.623099923E0,-1.278499961E0,-4.348999858E-1
4.459998438E0,-1.092800021E0,-1.389500022E0,-8.046000004E-1
4.479998438E0,-2.893999815E-1,-1.336799979E0,-1.192999959E0
4.499998438E0,2.857999802E-1,-1.379499912E0,-1.560299993E0
4.519998438E0,5.243999958E-1,-1.159399986E0,-2.056799889E0
4.540007813E0,3.105999827E-1,-7.911999822E-1,-2.486500025E0
4.569998438E0,1.119999960E-2,-5.799999833E-2,-2.853600025E0
4.590000000E0,5.130000040E-2,2.928999960E-1,-3.316200018E0
4.619998438E0,-1.660999954E-1,8.481999636E-1,-3.233500004E0
4.640000000E0,-3.720999956E-1,1.023699999E0,-2.701499939E0
4.660000000E0,-4.785999954E-1,1.174299955E0,-2.249899864E0
4.689998438E0,-6.480000019E-1,1.394099951E0,-2.960000001E-2
4.709998438E0,-4.607999921E-1,1.283900023E0,1.426100016E0
4.729998438E0,-2.951999903E-1,1.281399965E0,2.527400017E0
4.749998438E0,-4.141999781E-1,1.530799985E0,2.702399969E0
4.769998438E0,-6.794999838E-1,1.578099966E0,2.272199869E0
4.789998438E0,-1.016199946E0,1.509999990E0,2.507400036E0
4.809998438E0,-1.374499917E0,1.461399913E0,3.464799881E0
4.829998438E0,-1.828499913E0,1.376399994E0,4.294699669E0
4.849998438E0,-1.868099928E0,1.454499960E0,4.596699715E0
4.870000000E0,-1.304799914E0,1.485199928E0,3.118599892E0
4.890000000E0,-4.773999751E-1,1.003899932E0,1.898199916E0
4.919998438E0,7.556999922E-1,-4.461999834E-1,1.581299901E0
4.939998438E0,1.432299972E0,-8.060999513E-1,-1.034999937E-1
4.959998438E0,1.631199956E0,-4.959999919E-1,-2.476399899E0
4.979998438E0,1.173300028E0,1.307999939E-1,-3.712999821E0
4.999998438E0,3.412999809E-1,1.983999908E-1,-2.365399837E0
5.019998438E0,-8.999999845E-4,-3.668999970E-1,1.018299937E0
5.039998438E0,-1.917999983E-1,-1.505599976E0,4.315400124E0
5.059998438E0,-3.889999911E-2,-1.922499895E0,4.884399891E0
5.079998438E0,3.716999888E-1,-1.661000013E0,2.364699841E0
5.099998438E0,7.156999707E-1,-1.310400009E0,-5.169000030E-1
5.119998438E0,8.470999599E-1,-9.539999962E-1,-2.785399914E0
5.139998438E0,6.789999604E-1,-6.926999688E-1,-4.048200130E0
5.159998438E0,1.333999932E-1,-3.463999927E-1,-4.797800064E0
5.179998438E0,-5.428999662E-1,1.571999937E-1,-5.057499886E0
5.199998438E0,-1.088199973E0,4.792999923E-1,-4.811199665E0
5.219998438E0,-1.366500020E0,6.292999983E-1,-3.995899916E0
5.239998438E0,-1.235999942E0,2.492999882E-1,-2.707999945E0
5.259998438E0,-9.986999631E-1,-4.616999924E-1,-1.364899993E0
5.279998438E0,-6.441000104E-1,-7.121999860E-1,-9.748999476E-1
5.299998438E0,-6.104999781E-1,-2.829999924E-1,-9.889999628E-1
5.319998438E0,-8.254999518E-1,2.947999835E-1,-5.146999955E-1
5.339998438E0,-1.329599977E0,6.248999834E-1,6.140999794E-1
5.359998438E0,-1.754799962E0,5.902000070E-1,2.947599888E0
5.380000000E0,-2.068399906E0,7.663999796E-1,4.589099884E0
5.409998438E0,-1.655099988E0,1.421299934E0,3.314699888E0
5.429998438E0,-4.651999772E-1,4.724999964E-1,2.939599991E0
5.450001563E0,-4.209999740E-2,-5.245999694E-1,4.113399982E0
5.479998438E0,-4.588999748E-1,-1.367799997E0,5.042399883E0
5.499998438E0,-6.956999898E-1,-1.148000002E0,3.709100008E0
5.520000000E0,-1.247299910E0,-1.085099936E0,1.878199935E0
5.540000000E0,-2.016499996E0,-1.037500024E0,1.472899914E0
5.569998438E0,-2.531299829E0,-6.444000006E-1,9.728999734E-1
5.590000000E0,-2.184700012E0,-4.438999891E-1,-3.495000005E-1
5.620000000E0,-1.143999934E0,-6.918999553E-1,-2.075700045E0
5.649998438E0,-3.173999786E-1,-9.660999775E-1,-3.084899902E0
5.669998438E0,1.181999967E-1,-9.685999751E-1,-4.153199673E0
5.689998438E0,2.281999886E-1,-7.694999576E-1,-5.080699921E0
5.709998438E0,1.959999949E-1,-3.201999962E-1,-5.579099655E0
5.730000000E0,5.379999802E-2,-1.889999956E-2,-5.400899887E0
5.760000000E0,2.237999886E-1,1.568999887E-1,-4.393599987E0
5.790000000E0,4.640999734E-1,1.469999999E-1,-3.330899954E0
5.810000000E0,3.310999870E-1,2.330999970E-1,-1.376599908E0
5.839998438E0,2.678000033E-1,5.548999906E-1,1.907899976E0
5.859998438E0,3.798999786E-1,2.613999844E-1,3.041899920E0
5.880000000E0,9.939999878E-2,4.240999818E-1,3.298099995E0
5.909998438E0,-6.915999651E-1,1.168399930E0,4.623199940E0
5.929998438E0,-8.343999982E-1,1.404199958E0,5.543499947E0
5.949998438E0,-1.226699948E0,1.157799959E0,5.591499805E0
5.969998438E0,-1.233799934E0,8.379999995E-1,5.315899849E0
5.989998438E0,-7.032999992E-1,1.219999976E-2,5.138400078E0
6.009998438E0,-2.630000003E-2,-5.543999672E-1,3.630800009E0
6.029998438E0,3.732999861E-1,-4.752999842E-1,4.262000024E-1
6.049998438E0,2.142999917E-1,5.329999700E-2,-1.989699960E0
6.069998438E0,-5.295999646E-1,5.324000120E-1,-1.804699898E0
6.090000000E0,-1.174299955E0,1.955000013E-1,2.012999952E-1
6.119998438E0,-1.068499923E0,-6.893000007E-1,2.384099960E0
6.139998438E0,-2.360999882E-1,-1.462199926E0,1.918499947E0
6.160000000E0,5.934000015E-1,-1.785599947E0,-1.865999997E-1
6.189998438E0,1.269500017E0,-1.538499951E0,-3.243299961E0
6.209998438E0,1.043900013E0,-1.198099971E0,-4.418799877E0
6.230000000E0,6.283000112E-1,-4.894999862E-1,-4.826299667E0
6.259998438E0,-2.096000016E-1,5.914999843E-1,-4.697499752E0
6.279998438E0,-7.565000057E-1,9.202999473E-1,-3.874599934E0
6.299998438E0,-8.380999565E-1,7.490999699E-1,-2.371199846E0
6.319998438E0,-3.330000043E-1,-2.524999976E-1,-1.370199919E0
6.339998438E0,2.989999950E-1,-8.650999665E-1,-9.475999475E-1
6.359998438E0,3.467999995E-1,-7.073000073E-1,-7.619999647E-1
6.379998438E0,-4.749999940E-2,-2.179999948E-1,-7.646999955E-1
6.399998438E0,-4.579999745E-1,2.926000059E-1,-6.613000035E-1
6.419998438E0,-5.952000022E-1,6.805999875E-1,1.837999970E-1
6.439998438E0,-1.749999970E-1,4.179999828E-1,6.254999638E-1
6.459998438E0,6.047999859E-1,3.634999990E-1,8.406999707E-1
6.479998438E0,6.165999770E-1,6.887999773E-1,8.204999566E-1
6.499998438E0,-3.189999983E-2,6.529999971E-1,8.671999574E-1
6.519998438E0,-7.059999704E-1,5.489999652E-1,2.957499981E0
6.540003125E0,-1.207599998E0,-4.389999807E-2,5.087999821E0
6.569998438E0,-1.559199929E0,-9.144999981E-1,5.717999935E0
6.590000000E0,-1.226699948E0,-9.621999860E-1,3.722100019E0
6.619998438E0,-1.263700008E0,-1.031999946E0,1.213699937E0
6.639998438E0,-1.858699918E0,-1.036499977E0,7.806999683E-1
6.660000000E0,-1.990599990E0,-6.869999766E-1,2.786000073E-1
6.689998438E0,-1.401799917E0,-3.901999891E-1,-1.082899928E0
6.709998438E0,-7.049999833E-1,-3.234999776E-1,-2.014299870E0
6.729998438E0,-1.204999983E-1,-2.137999982E-1,-2.967700005E0
6.749998438E0,2.388999909E-1,4.710000008E-2,-3.754400015E0
6.769998438E0,7.274000049E-1,6.115999818E-1,-4.323499680E0
6.789998438E0,1.170699954E0,1.193699956E0,-5.027800083E0
6.810000000E0,1.293799996E0,1.803599954E0,-5.495999813E0
6.839998438E0,-1.189999934E-2,2.724599838E0,-4.087899685E0
6.859998438E0,-8.414999843E-1,3.201999903E0,-2.514799833E0
6.879998438E0,-1.135399938E0,3.158200026E0,-1.968799949E0
6.899998438E0,-1.540300012E0,2.578899860E0,-6.495000124E-1
6.919998438E0,-2.128099918E0,1.238499999E0,1.881099939E0
6.939998438E0,-2.842999935E0,1.114699960E0,4.117599964E0
6.959998438E0,-3.253199816E0,1.734599948E0,5.133800030E0
6.979998438E0,-3.033799887E0,1.399799943E0,4.812299728E0
6.999998438E0,-2.089900017E0,-1.109999977E-2,4.334899902E0
7.019998438E0,-8.010999560E-1,-1.239599943E0,4.373699665E0
7.039998438E0,-3.276000023E-1,-3.786000013E-1,4.675699711E0
7.059998438E0,-1.298799992E0,9.728999734E-1,3.716699839E0
7.079998438E0,-1.577499986E0,7.058999538E-1,2.753499985E0
7.099998438E0,-1.859000027E-1,-7.580999732E-1,2.452499866E0
7.119998438E0,1.684399962E0,-2.038699865E0,4.080999792E-1
7.139998438E0,3.165699959E0,-2.572499990E0,-2.135299921E0
7.159998438E0,3.520299911E0,-2.263700008E0,-3.416299820E0
7.179998438E0,2.893599987E0,-1.883899927E0,-3.152899981E0
7.199998438E0,1.780799985E0,-1.913299918E0,-8.244000077E-1
7.219998438E0,7.677999735E-1,-1.612299919E0,2.230099916E0
7.239998438E0,5.715000033E-1,-1.440500021E0,3.939499855E0
7.259998438E0,1.313799977E0,-1.000499964E0,2.443699837E0
7.279998438E0,2.091899872E0,-8.736999631E-1,-5.843999982E-1
7.299998438E0,2.563599825E0,-7.279999852E-1,-3.238699913E0
7.319998438E0,2.821699858E0,-2.533999979E-1,-4.684299946E0
7.339998438E0,2.617499828E0,-9.799999744E-2,-4.104499817E0
7.359998438E0,2.114500046E0,-2.910999954E-1,-2.953799963E0
7.379998438E0,1.771399975E0,-4.562999904E-1,-2.154599905E0
7.399998438E0,1.250299931E0,-4.814999998E-1,-1.337700009E0
7.419998438E0,7.356999516E-1,-2.522000074E-1,-9.153999686E-1
7.439998438E0,2.728999853E-1,-1.942999959E-1,-5.744000077E-1
7.459998438E0,-5.969999731E-2,6.699999794E-3,-1.853999943E-1
7.479998438E0,-4.870999753E-1,-1.184000000E-1,6.895999908E-1
7.499998438E0,-8.219999671E-1,-5.860999823E-1,2.216099977E0
7.519998438E0,-7.911999822E-1,-1.300400019E0,3.520299911E0
7.539998438E0,-3.982999921E-1,-1.255100012E0,2.396699905E0
7.559998438E0,-4.663999975E-1,-7.641999722E-1,-3.983999789E-1
7.580000000E0,-6.904000044E-1,1.131999940E-1,-8.294999599E-1
7.600000000E0,-8.483999968E-1,7.329999655E-2,2.068300009E0
7.629998438E0,-3.281999826E-1,-1.679999948E0,4.959700108E0
7.649998438E0,-6.035000086E-1,-2.692199945E0,5.734299660E0
7.670000000E0,-1.794799924E0,-2.977200031E0,6.973799706E0
7.699998438E0,-3.120100021E0,-1.291000009E0,4.374300003E0
7.719998438E0,-3.390599966E0,1.949999928E-1,9.303999543E-1
7.740000000E0,-3.241099834E0,1.153900027E0,-1.692399979E0
7.760000000E0,-2.820499897E0,1.401099920E0,-3.172999859E0
7.780000000E0,-2.112599850E0,1.106899977E0,-4.364799976E0
7.800000000E0,-1.551599979E0,8.055999875E-1,-5.544199944E0
7.829998438E0,-1.398999929E0,7.976999879E-1,-6.297800064E0
7.849998438E0,-1.794099927E0,8.495999575E-1,-5.908499718E0
7.869998438E0,-2.220099926E0,1.169199944E0,-5.652999878E0
7.890000000E0,-2.522599936E0,1.422199965E0,-5.393199921E0
7.919998438E0,-2.561899900E0,1.323300004E0,-3.728599787E0
7.939998438E0,-2.121199846E0,9.161999822E-1,-1.819199920E0
7.959998438E0,-1.393100023E0,3.920999765E-1,4.730999768E-1
7.979998438E0,-7.657999992E-1,4.140000045E-2,2.077199936E0
7.999998438E0,-6.304000020E-1,3.852999806E-1,2.845399857E0
8.020000000E0,-1.027300000E0,9.973999858E-1,3.752099991E0
8.049998438E0,-1.305799961E0,1.514599919E0,5.835199833E0
8.069998438E0,-1.260499954E0,1.319499969E0,5.377599716E0
8.090000000E0,-9.663999677E-1,1.274799943E0,4.274600029E0
8.110000000E0,-3.267000020E-1,7.866999507E-1,3.918799877E0
8.140004688E0,1.258599997E0,-5.059999973E-2,1.693899989E0
8.170000000E0,1.601099968E0,8.779999614E-2,-8.538999557E-1
8.190000000E0,5.266999602E-1,4.041000009E-1,2.393999994E-1
8.210000000E0,-5.205000043E-1,3.120000064E-1,2.620299816E0
8.230000000E0,-9.153999686E-1,-1.079999954E-1,4.058899879E0
8.250000000E0,-7.692999840E-1,-5.435000062E-1,2.817099810E0
8.270000000E0,-1.720999926E-1,-7.541999817E-1,1.271700025E0
8.290000000E0,5.661999583E-1,-1.032099962E0,4.639999866E-1
8.319998438E0,1.715899944E0,-1.196599960E0,-1.509499907E0
8.339998438E0,1.782999992E0,-1.190599918E0,-3.403299809E0
8.359998438E0,1.621099949E0,-7.999999523E-1,-4.535900116E0
8.380000000E0,1.218099952E0,-5.421000123E-1,-4.839799881E0
8.409998438E0,6.394000053E-1,-2.642999887E-1,-3.967799902E0
8.429998438E0,2.450999916E-1,1.832000017E-1,-3.359400034E0
8.450000000E0,-1.048999950E-1,4.608999789E-1,-2.411900043E0
8.479998438E0,-1.352999955E-1,9.389999509E-2,-7.022999525E-1
8.499998438E0,2.547000051E-1,-1.668999940E-1,3.834999800E-1
8.520000000E0,6.153999567E-1,-6.799999624E-2,5.101000071E-1
8.540000000E0,8.858999610E-1,2.273999900E-1,4.415999949E-1
8.570000000E0,7.489999533E-1,5.081999898E-1,1.150399923E0
8.590004688E0,9.782999754E-1,9.476999640E-1,1.486599922E0
8.619998438E0,1.094900012E0,1.393199921E0,7.735999823E-1
8.639998438E0,2.924999893E-1,8.795999885E-1,3.206999898E-1
8.659998438E0,-1.811999977E-1,1.932999939E-1,3.597299814E0
8.680000000E0,9.489999712E-2,-8.265999556E-1,6.362599850E0
8.709998438E0,1.240899920E0,-2.192100048E0,5.122399807E0
8.729998438E0,9.197999835E-1,-2.249300003E0,2.999599934E0
8.750000000E0,1.300000004E-3,-1.398999929E0,1.975799918E0
8.779998438E0,-1.206399918E0,-1.603000015E-1,-2.280000001E-1
8.799998438E0,-1.485499978E0,3.328999877E-1,-1.480299950E0
8.819998438E0,-1.454999924E0,5.433999896E-1,-2.046599865E0
8.839998438E0,-1.111199975E0,2.234999985E-1,-2.137399912E0
8.860000000E0,-5.974000096E-1,-3.849000037E-1,-2.378099918E0
8.880000000E0,-2.283999920E-1,-7.414000034E-1,-3.008299828E0
8.909998438E0,-4.063999951E-1,-8.152999878E-1,-3.688999891E0
8.929998438E0,-7.254999876E-1,-5.005999804E-1,-3.621999979E0
8.950000000E0,-8.543999791E-1,-5.040999651E-1,-3.148999929E0
8.970000000E0,-1.014500022E0,-5.037999749E-1,-2.690099955E0
8.990000000E0,-1.172799945E0,-3.772999942E-1,-1.969599962E0
9.010000000E0,-1.118399978E0,-2.744999826E-1,-1.320199966E0
9.030000000E0,-9.642999768E-1,-8.839999884E-2,-9.923999906E-1
9.059998438E0,-7.342999578E-1,2.856000066E-1,-6.028000116E-1
9.079998438E0,-7.572999597E-1,5.241000056E-1,-4.069999754E-1
9.100000000E0,-1.159600019E0,5.641999841E-1,1.093999967E-1
9.129998438E0,-2.418900013E0,1.071099997E0,3.363899946E0
9.149998438E0,-2.116199970E0,1.202099919E0,4.597799778E0
9.170000000E0,-6.493999958E-1,1.064899921E0,2.674899817E0
9.190000000E0,8.272999525E-1,9.983999729E-1,3.928000033E-1
9.219998438E0,1.937799931E0,4.685999751E-1,2.293999940E-1
9.240000000E0,2.447399855E0,1.523000002E-1,-2.672999799E-1
9.269998438E0,2.411799908E0,-1.030000020E-2,-1.460999966E0
9.289998438E0,1.519099951E0,-2.219999880E-1,-1.448999941E-1
9.310001563E0,5.593999624E-1,-6.581999660E-1,2.631999969E0
9.339998438E0,-5.259000063E-1,-1.696399927E0,5.501800060E0
9.360001563E0,-6.204000115E-1,-1.671599984E0,4.615999699E0
9.390000000E0,4.429999739E-2,-1.160799980E0,1.113299966E0
9.420000000E0,3.220999837E-1,-5.404999852E-1,-2.194000006E0
9.450000000E0,1.171999946E-1,1.058999971E-1,-5.032199860E0
9.479998438E0,-4.858999848E-1,6.201999784E-1,-5.587100029E0
9.499998438E0,-7.655000091E-1,6.412000060E-1,-4.817599773E0
9.519998438E0,-6.730999947E-1,3.206999898E-1,-3.713199854E0
9.539998438E0,-5.302000046E-1,-2.089999989E-2,-2.828899860E0
9.559998438E0,-3.283999860E-1,-3.436000049E-1,-1.996999979E0
9.579998438E0,-1.096999943E-1,-4.335999787E-1,-1.411799908E0
9.599998438E0,-3.549999744E-2,-2.717999816E-1,-1.169899940E0
9.619998438E0,8.630000055E-2,-1.475999951E-1,-8.991999626E-1
9.639998438E0,5.319999903E-2,7.149999589E-2,1.513999999E-1
9.659998438E0,-2.361999899E-1,1.614999920E-1,2.252799988E0
9.680001563E0,-4.125999808E-1,2.476999909E-1,3.845499992E0
9.709998438E0,5.000000000E-1,6.590999961E-1,2.671799898E0
9.729998438E0,5.155999660E-1,9.210999608E-1,1.164799929E0
9.750000000E0,-2.861999869E-1,1.175799966E0,2.230299950E0
9.779998438E0,-4.883999825E-1,6.117999554E-1,5.354499817E0
9.799998438E0,3.289999962E-1,-5.327000022E-1,6.076699734E0
9.819998438E0,9.915999770E-1,-1.255299926E0,4.804100037E0
9.839998438E0,5.133999586E-1,-1.161999941E0,2.054699898E0
9.859998438E0,-8.754999638E-1,-6.164000034E-1,6.534999609E-1
9.880000000E0,-2.107300043E0,-1.950000040E-2,9.529999644E-2
9.909998438E0,-2.549999952E0,4.166999757E-1,-3.739999831E-1
9.929998438E0,-1.899999976E0,1.859000027E-1,-1.369799972E0
9.949998438E0,-9.199000001E-1,-2.707000077E-1,-2.453999996E0
9.969998438E0,-5.399999768E-2,-6.669999957E-1,-3.060099840E0
9.989998438E0,5.055999756E-1,-8.242999911E-1,-3.781899929E0
1.000999844E1,6.631000042E-1,-7.781999707E-1,-4.372600079E0
1.003000000E1,5.615999699E-1,-4.147999883E-1,-4.628399849E0
1.005999844E1,2.046999931E-1,2.360000014E-1,-3.975799799E0
1.007999844E1,2.124999911E-1,3.488999903E-1,-3.245800018E0
1.009999844E1,4.573999941E-1,3.445999920E-1,-2.418999910E0
1.011999844E1,7.857999802E-1,2.755999863E-1,-1.601599932E0
1.013999844E1,8.922999501E-1,2.345999926E-1,-7.834999561E-1
1.015999844E1,7.288999557E-1,3.819999993E-1,2.915999889E-1
1.017999844E1,4.594999850E-1,7.037000060E-1,6.425999999E-1
1.019999844E1,2.459999919E-1,9.167000055E-1,6.128000021E-1
1.021999844E1,-2.219999880E-1,1.120999932E0,7.113999724E-1
1.023999844E1,-6.717000008E-1,1.212299943E0,1.231299996E0
1.025999844E1,-8.468999863E-1,1.079599977E0,2.279999971E0
1.027999844E1,-1.047500014E0,1.115599990E0,3.426499844E0
1.029999844E1,-1.174999952E0,1.520599961E0,3.269999981E0
1.031999844E1,-9.358999729E-1,1.935499907E0,2.251600027E0
1.033999844E1,-5.001000166E-1,1.646999955E0,2.144399881E0
1.035999844E1,4.082999825E-1,6.189000010E-1,3.290299892E0
1.038000000E1,1.260299921E0,-3.071999848E-1,3.308099985E0
1.040999844E1,1.662899971E0,-3.581999838E-1,-2.539999969E-2
1.042999844E1,8.499000072E-1,2.098999918E-1,-3.967999816E-1
1.045000000E1,-7.180000097E-2,1.603000015E-1,1.458400011E0
1.047999844E1,-5.798999667E-1,-4.235000014E-1,4.360899925E0
1.049999844E1,-4.878000021E-1,-1.168699980E0,4.733500004E0
1.052000000E1,-1.316999942E-1,-1.658599973E0,3.596199989E0
1.054999844E1,2.904999852E-1,-1.639699936E0,3.170000017E-1
1.056999844E1,3.021999896E-1,-1.207700014E0,-1.738099933E0
1.058999844E1,1.294000000E-1,-9.125999808E-1,-3.406399965E0
1.060999844E1,4.749999940E-2,-5.807999969E-1,-4.639999866E0
1.062999844E1,-9.860000014E-2,-3.479999900E-1,-4.903999805E0
1.064999844E1,-7.710000128E-2,-3.691000044E-1,-4.535999775E0
1.066999844E1,8.359999955E-2,-2.904999852E-1,-4.154599667E0
1.068999844E1,1.191999987E-1,-8.869999647E-2,-3.741799831E0
1.070999844E1,6.399999559E-2,-1.445999891E-1,-2.773099899E0
1.072999844E1,1.288999915E-1,-1.832000017E-1,-2.297899961E0
1.074999844E1,3.109999895E-1,-7.509999722E-2,-2.370699883E0
1.076999844E1,6.013999581E-1,1.097999960E-1,-2.780699968E0
1.078999844E1,8.843999505E-1,9.119999409E-2,-2.712699890E0
1.080999844E1,9.316999912E-1,2.457999885E-1,-2.259799957E0
1.082999844E1,8.910999894E-1,6.022999883E-1,-1.142699957E0
1.084999844E1,8.884999752E-1,7.077999711E-1,3.838000000E-1
1.086999844E1,8.659999967E-1,7.921999693E-1,2.031899929E0
1.088999844E1,4.948000014E-1,8.829999566E-1,3.631999969E0
1.090999844E1,6.599999964E-2,9.709999561E-1,4.523600101E0
1.092999844E1,-5.234999657E-1,1.063599944E0,5.223599911E0
1.094999844E1,-8.606999516E-1,1.031000018E0,5.818599701E0
1.096999844E1,-5.385999680E-1,8.405999541E-1,5.562699795E0
1.098999844E1,1.589999907E-2,2.685999870E-1,3.249799967E0
1.100999844E1,2.708999813E-1,-2.261999995E-1,1.204599977E0
1.103000000E1,-5.031999946E-1,-4.596000016E-1,8.258000016E-1
1.105999844E1,-2.415099859E0,-2.583000064E-1,1.441699982E0
1.107999844E1,-2.951299906E0,1.757999957E-1,9.031999707E-1
1.109999844E1,-2.592000008E0,2.578999996E-1,-2.412999868E-1
1.112000000E1,-1.790399909E0,-6.469999999E-2,-1.349499941E0
1.114999844E1,-6.782999635E-1,-3.978999853E-1,-2.393800020E0
1.116999844E1,5.529999733E-2,-6.335999966E-1,-3.041699886E0
1.118999844E1,5.060999990E-1,-7.604999542E-1,-3.454900026E0
1.120999844E1,7.695999742E-1,-8.453999758E-1,-3.631699800E0
1.122999844E1,9.101999998E-1,-7.889999747E-1,-3.367699862E0
1.124999844E1,1.080699921E0,-6.981999874E-1,-3.016899824E0
1.126999844E1,1.180999994E0,-4.332999885E-1,-2.726599932E0
1.128999844E1,1.162099957E0,-1.542000026E-1,-2.485599995E0
1.130999844E1,1.106899977E0,-7.279999554E-2,-1.626699924E0
1.132999844E1,1.134799957E0,1.203999966E-1,-6.984999776E-1
1.134999844E1,1.247699976E0,3.242000043E-1,3.296999931E-1
1.136999844E1,1.461300015E0,4.797999859E-1,7.224000096E-1
1.139000000E1,1.313799977E0,7.027999759E-1,8.108999729E-1
1.141999844E1,6.298999786E-1,8.601999879E-1,1.954299927E0
1.143999844E1,2.458999902E-1,8.411999941E-1,3.410799980E0
1.146000000E1,-2.049999870E-2,6.270999908E-1,4.407299995E0
1.148999844E1,6.920000166E-2,5.562999845E-1,5.249700069E0
1.150999844E1,5.385000110E-1,2.215999961E-1,4.592299938E0
1.152999844E1,8.464999795E-1,4.529999942E-2,3.807999849E0
1.154999844E1,1.168799996E0,1.516999900E-1,1.544399977E0
1.156999844E1,1.473099947E0,3.840999901E-1,-1.321599960E0
1.158999844E1,1.359300017E0,5.859000087E-1,-3.506099939E0
1.160999844E1,1.251500010E0,7.628999949E-1,-3.790999889E0
1.162999844E1,7.784000039E-1,2.960999906E-1,-1.849399924E0
1.164999844E1,2.730000019E-1,-2.742999792E-1,3.448999822E-1
1.166999844E1,-7.759999484E-2,-9.707999825E-1,2.525699854E0
1.168999844E1,-9.579999745E-2,-1.368199944E0,3.600899935E0
1.170999844E1,3.325999975E-1,-1.531399965E0,2.654199839E0
1.172999844E1,7.480999827E-1,-1.293200016E0,-3.390000015E-2
1.175000000E1,8.235999942E-1,-8.208999634E-1,-2.300899982E0
1.177000000E1,7.091000080E-1,-3.068999946E-1,-3.771199942E0
1.179000000E1,3.601000011E-1,1.037999988E-1,-4.037399769E0
1.181999844E1,-1.482999921E-1,2.406999916E-1,-3.437099934E0
1.183999844E1,-2.413999885E-1,2.904999852E-1,-2.744199991E0
1.185999844E1,-1.245999932E-1,3.269999847E-2,-2.278199911E0
1.188000000E1,-3.999999724E-3,-3.193999827E-1,-1.500800014E0
1.190999844E1,-4.959999770E-2,-4.212999940E-1,-4.736000001E-1
1.192999844E1,5.379999802E-2,-2.656999826E-1,-2.160999924E-1
1.194999844E1,3.450999856E-1,-2.500999868E-1,-5.801999569E-1
1.196999844E1,3.437999785E-1,-2.245999873E-1,-7.493999600E-1
1.198999844E1,-3.309999779E-2,-2.329999954E-2,1.613999903E-1
1.200999844E1,-3.052999973E-1,1.066999957E-1,1.629599929E0
1.203000938E1,-5.150000006E-2,5.069999769E-2,2.422699928E0
1.205999844E1,2.987000048E-1,3.037000000E-1,1.412299991E0
1.207999844E1,-1.501999944E-1,7.276999950E-1,1.167099953E0
1.209999844E1,-8.544999957E-1,1.136199951E0,2.121599913E0
1.211999844E1,-9.487999678E-1,8.307999969E-1,3.617499828E0
1.213999844E1,-3.247999847E-1,3.029999882E-2,4.417900085E0
1.215999844E1,3.549000025E-1,-8.690999746E-1,3.706399918E0
1.217999844E1,4.633999765E-1,-1.052399993E0,1.936599970E0
1.219999844E1,-3.865000010E-1,-7.123999596E-1,6.006000042E-1
1.222000000E1,-9.672999978E-1,-1.573999971E-1,-1.925999969E-1
1.224000000E1,-1.174700022E0,1.860999912E-1,-1.093099952E0
1.226999844E1,-7.606999874E-1,2.354999930E-1,-2.003200054E0
1.229000000E1,-4.881999791E-1,-1.011999995E-1,-1.687799931E0
1.231999844E1,-4.025999904E-1,-2.158999890E-1,-1.949399948E0
1.234000000E1,-3.285999894E-1,-6.159999967E-2,-2.524699926E0
1.236999844E1,-3.792999983E-1,5.234000087E-1,-3.080199957E0
1.239000000E1,-4.027999938E-1,7.527999878E-1,-3.148999929E0
1.241999844E1,-1.583999991E-1,7.383999825E-1,-2.624599934E0
1.243999844E1,1.623999923E-1,3.129000068E-1,-1.513000011E0
1.246000000E1,4.406999946E-1,3.019999899E-2,-3.703999817E-1
1.248999844E1,6.739000082E-1,8.700000122E-3,6.541000009E-1
1.250999844E1,5.242999792E-1,3.368999958E-1,9.562999606E-1
1.252999844E1,2.445999980E-1,9.140999913E-1,6.215999722E-1
1.254999844E1,6.079999730E-2,1.541399956E0,-1.050999984E-1
1.256999844E1,-1.041999981E-1,1.943599939E0,-4.098999798E-1
1.258999844E1,-2.748999894E-1,2.080199957E0,-5.729999766E-2
1.260999844E1,-3.352999985E-1,1.895199895E0,8.837999701E-1
1.262999844E1,-4.208000004E-1,1.696900010E0,1.452399969E0
1.264999844E1,-2.020999938E-1,1.607100010E0,1.422699928E0
1.267000000E1,1.973999888E-1,1.602999926E0,1.039999962E0
1.269999844E1,6.026999950E-1,1.889699936E0,9.417999983E-1
1.271999844E1,5.655999780E-1,2.165899992E0,1.059700012E0
1.273999844E1,2.786000073E-1,2.341399908E0,1.226499915E0
1.275999844E1,-5.109999701E-2,1.589100003E0,2.069599867E0
1.277999844E1,5.753999949E-1,1.958999932E-1,4.452199936E0
1.279999844E1,1.918799996E0,-1.483199954E0,5.521299839E0
1.281999844E1,3.035599947E0,-2.049599886E0,3.236399889E0
1.283999844E1,2.642999887E0,-2.126600027E0,7.480999827E-1
1.286000000E1,1.128099918E0,-1.355000019E0,4.210999906E-1
1.289000000E1,-1.293799996E0,-7.939999700E-1,2.341500044E0
1.291999844E1,-1.688699961E0,-3.617999852E-1,2.166399956E0
1.293999844E1,-5.803999901E-1,-8.574000001E-1,4.987999797E-1
1.295999844E1,3.551000059E-1,-1.285399914E0,-7.594000101E-1
1.297999844E1,4.895999730E-1,-1.127599955E0,-1.809299946E0
1.299999844E1,2.838999927E-1,-9.437999725E-1,-2.911499977E0
1.301999844E1,-3.639999777E-2,-4.417999983E-1,-3.884299994E0
1.303999844E1,-3.626999855E-1,-1.119999960E-1,-4.225299835E0
1.305999844E1,-5.744999647E-1,-5.309999734E-2,-4.029599667E0
1.307999844E1,-5.769000053E-1,-1.655000001E-1,-3.448599815E0
1.309999844E1,-4.854999781E-1,-3.116999865E-1,-2.776000023E0
1.311999844E1,-2.996999919E-1,-4.787999988E-1,-2.362799883E0
1.313999844E1,-3.307999969E-1,-6.144999862E-1,-2.286700010E0
1.315999844E1,-3.907999992E-1,-4.831999838E-1,-2.146399975E0
1.317999844E1,-3.310999870E-1,-3.894999921E-1,-1.894299984E0
1.319999844E1,-2.260999978E-1,-4.144999981E-1,-1.930399895E0
1.321999844E1,-2.264999896E-1,-3.675999939E-1,-1.269799948E0
1.324000000E1,-3.705999851E-1,-4.591999948E-1,3.666999936E-1
1.327000000E1,-6.538999677E-1,-2.712999880E-1,2.268499851E0
1.329000000E1,-6.927999854E-1,4.694999754E-1,1.909299970E0
1.331000000E1,-7.129999995E-1,9.790999889E-1,1.428599954E0
1.333999844E1,-8.220999837E-1,1.411499977E0,1.179700017E0
1.335999844E1,-1.037899971E0,1.639199972E0,1.849799991E0
1.337999844E1,-1.234200001E0,1.612599969E0,1.768000007E0
1.340000000E1,-1.813699961E0,1.394099951E0,2.562700033E0
1.342000000E1,-2.239300013E0,1.216199994E0,4.244100094E0
1.344000000E1,-1.445899963E0,4.096999764E-1,4.098599911E0
1.346000000E1,-8.039999753E-2,-4.690999985E-1,1.780699968E0
1.348000000E1,2.204999924E-1,-1.000699997E0,-1.549999975E-2
1.350999844E1,-1.011699915E0,-9.638999701E-1,2.730000019E-2
1.353000000E1,-1.805400014E0,-2.969000041E-1,-3.195999861E-1
1.355000000E1,-1.930099964E0,1.538999975E-1,-6.771999598E-1
1.357000000E1,-1.515299916E0,-2.290000021E-2,-4.269999862E-1
1.359000000E1,-8.062999845E-1,-4.072999954E-1,-2.261999995E-1
1.361000000E1,-1.899999939E-2,-6.510999799E-1,-9.154999852E-1
1.363000000E1,6.013999581E-1,-7.075999975E-1,-2.097100019E0
1.366000000E1,8.682999611E-1,-4.098999798E-1,-2.924299955E0
1.368000000E1,7.161999941E-1,-1.066999957E-1,-2.817999840E0
1.370000000E1,5.126999617E-1,1.347000003E-1,-2.389999866E0
1.372000000E1,5.590999722E-1,1.808999926E-1,-1.933999896E0
1.374000000E1,8.298999667E-1,2.510000020E-2,-1.725199938E0
1.376000000E1,8.033999801E-1,1.288999915E-1,-1.036100030E0
1.378000000E1,5.273000002E-1,4.875999987E-1,-1.699000001E-1
1.380000000E1,4.949999750E-1,6.093999743E-1,2.665999830E-1
1.382000000E1,4.660999775E-1,7.157999873E-1,5.979999900E-1
1.384000000E1,2.757000029E-1,9.977999926E-1,1.068699956E0
1.386000000E1,6.859999895E-2,1.328499913E0,1.314000010E0
1.388000000E1,7.569999993E-2,1.557899952E0,1.843099952E0
1.390000000E1,-1.899999939E-2,1.863899946E0,1.146499991E0
1.392000000E1,-3.380999863E-1,2.019199848E0,8.215000033E-1
1.394000000E1,-5.199999809E-1,1.661000013E0,2.907299995E0
1.396000000E1,-1.312000006E-1,6.426999569E-1,5.328399658E0
1.398000000E1,3.938999772E-1,-1.260000020E-1,5.527299881E0
1.400000000E1,7.874000072E-1,2.942000031E-1,1.382099986E0
1.402000000E1,1.245700002E0,8.357999921E-1,-1.942299962E0
1.404000000E1,1.561699986E0,1.327099919E0,-4.582499981E0
1.406999844E1,1.397599936E0,1.690999985E0,-4.826499939E0
1.408999844E1,7.486000061E-1,1.110299945E0,-1.946299911E0
1.410999844E1,3.219999745E-2,6.560000032E-2,2.869799852E0
1.413000000E1,-4.510999918E-1,-1.348999977E0,7.940699577E0
1.415999844E1,-4.529999942E-2,-1.787199974E0,5.606899738E0
1.417999844E1,3.067999780E-1,-1.164499998E0,1.252200007E0
1.419999844E1,7.407000065E-1,-1.722999960E-1,-2.879999876E0
1.421999844E1,9.068999887E-1,2.581000030E-1,-4.968699932E0
1.423999844E1,9.122999907E-1,4.937999845E-1,-5.900099754E0
1.425999844E1,7.482999563E-1,5.868999958E-1,-5.075200081E0
1.427999844E1,6.349999905E-1,1.324999928E-1,-3.229399920E0
1.429999844E1,6.119999886E-1,-2.319999933E-1,-1.755499959E0
1.431999844E1,7.490999699E-1,-7.095999718E-1,-7.067999840E-1
1.434000000E1,9.256999493E-1,-7.318999767E-1,-7.908999920E-1
1.436999844E1,1.029799938E0,-1.246999949E-1,-1.824499965E0
1.439000000E1,1.141099930E0,-2.700999975E-1,-1.647699952E0
1.441999844E1,9.593999982E-1,-4.509999976E-2,-4.281999767E-1
1.443999844E1,9.167000055E-1,3.352999985E-1,2.035999894E-1
1.446000000E1,1.107599974E0,5.921999812E-1,3.132999837E-1
1.448999844E1,7.749999762E-1,1.082199931E0,1.656000018E-1
1.450999844E1,3.279999793E-1,1.189999938E0,1.060599923E0
1.452999844E1,-3.329999745E-2,6.574000120E-1,2.846299887E0
1.454999844E1,2.490999997E-1,2.359999903E-2,4.786399841E0
1.456999844E1,6.477000117E-1,-1.024399996E0,5.377899647E0
1.458999844E1,7.577999830E-1,-1.823399901E0,3.906799793E0
1.460999844E1,-4.580000043E-2,-1.484099984E0,2.951999903E0
1.462999844E1,-1.098799944E0,-7.852999568E-1,2.068599939E0
1.464999844E1,-1.710199952E0,-2.749999985E-2,1.170499921E0
1.466999844E1,-1.686199903E0,4.034000039E-1,2.206999958E-1
1.468999844E1,-1.226899981E0,3.150999844E-1,-5.784999728E-1
1.470999844E1,-5.654000044E-1,-1.420000009E-2,-1.339499950E0
1.472999844E1,-4.619999975E-2,-8.839999884E-2,-2.314399958E0
1.474999844E1,1.222999990E-1,4.050000012E-2,-3.072199821E0
1.476999844E1,1.399999950E-3,1.771999896E-1,-3.416699886E0
1.478999844E1,4.099999741E-2,3.026999831E-1,-3.869799852E0
1.480999844E1,3.078999817E-1,2.651000023E-1,-3.973199844E0
1.482999844E1,3.984999955E-1,1.810999960E-1,-3.208599806E0
1.484999844E1,5.428999662E-1,3.260000050E-2,-2.272399902E0
1.486999844E1,7.410999537E-1,-7.199999690E-2,-1.464800000E0
1.489000000E1,7.383999825E-1,1.538999975E-1,-9.639999866E-1
1.491999844E1,7.347999811E-1,3.784999847E-1,2.079999894E-1
1.493999844E1,8.615999818E-1,4.540999830E-1,5.694000125E-1
1.495999844E1,8.869999647E-1,6.301999688E-1,7.447999716E-1
1.497999844E1,7.145000100E-1,8.208999634E-1,1.140299916E0
1.499999844E1,2.656999826E-1,1.089100003E0,1.802899957E0
1.501999844E1,-1.565999985E-1,1.200299978E0,2.888200045E0
1.503999844E1,-4.298000038E-1,1.395399928E0,3.600099802E0
1.505999844E1,-5.713999867E-1,1.542799950E0,3.400499821E0
1.507999844E1,-9.600000083E-2,1.801899910E0,1.751599908E0
1.510000000E1,4.660999775E-1,1.648199916E0,5.661999583E-1
1.512999844E1,8.836999536E-1,9.426999688E-1,6.010999680E-1
1.514999844E1,1.255999923E0,5.069000125E-1,2.842999995E-1
1.517000000E1,1.452499986E0,2.078999877E-1,-9.282999635E-1
1.519999844E1,1.161899924E0,4.503999949E-1,-1.478999972E0
1.521999844E1,5.922999978E-1,2.485999912E-1,3.204999864E-1
1.524000000E1,1.656999886E-1,-3.797000051E-1,3.257599831E0
1.526999844E1,-5.115999579E-1,-1.449999928E0,5.014800072E0
1.528999844E1,-3.879999816E-1,-1.333299994E0,2.773399830E0
1.530999844E1,2.565000057E-1,-1.308799982E0,1.592399955E0
1.532999844E1,7.084999681E-1,-2.069399834E0,1.094200015E0
1.534999844E1,5.812000036E-1,-2.104199886E0,-5.159999728E-1
1.536999844E1,4.266999960E-1,-1.657999992E0,-2.386100054E0
1.538999844E1,1.234999970E-1,-1.237100005E0,-3.630499840E0
1.540999844E1,-2.221999913E-1,-8.691999912E-1,-4.038099766E0
1.542999844E1,-5.469999909E-1,-5.611999631E-1,-4.010900021E0
1.544999844E1,-6.967999935E-1,-5.419999957E-1,-3.756500006E0
1.546999844E1,-6.358000040E-1,-7.317000031E-1,-3.650399923E0
1.548999844E1,-4.961999953E-1,-7.708999515E-1,-3.565799952E0
1.550999844E1,-3.707000017E-1,-9.035999775E-1,-3.216300011E0
1.553000312E1,-2.462999970E-1,-8.281999826E-1,-3.066099882E0
1.555999844E1,-1.565999985E-1,-3.892999887E-1,-2.809900045E0
1.557999844E1,3.539999947E-2,-3.713999987E-1,-2.447499990E0
1.559999844E1,-6.229999661E-2,-2.370999902E-1,-1.727100015E0
1.561999844E1,-1.261000037E-1,1.288999915E-1,-3.856000006E-1
1.563999844E1,-1.194999963E-1,5.525999665E-1,4.262999892E-1
1.565999844E1,8.889999986E-2,1.032400012E0,7.304999828E-1
1.567999844E1,3.139999881E-2,1.054099917E0,1.639499903E0
1.569999844E1,3.920000046E-2,8.597999811E-1,3.444599867E0
1.571999844E1,2.644000053E-1,9.165999889E-1,3.990499973E0
1.573999844E1,2.093999982E-1,1.163900018E0,3.493700027E0
1.575999844E1,-1.920999885E-1,9.611999989E-1,4.699699879E0
1.577999844E1,-3.438999951E-1,6.837999821E-1,5.929299831E0
1.579999844E1,1.307999939E-1,2.485999912E-1,4.606499672E0
1.581999844E1,5.862999558E-1,9.640000015E-2,1.210399985E0
1.583999844E1,1.756999940E-1,-9.259999543E-2,-5.870000124E-1
1.585999844E1,-9.129999876E-1,8.399999700E-3,-1.357000023E-1
1.587999844E1,-1.564099908E0,3.443000019E-1,7.899999619E-1
1.590000000E1,-1.738699913E0,3.648999929E-1,8.152999878E-1
1.592999844E1,-1.185299993E0,-1.449999958E-2,3.416999876E-1
1.594999844E1,-6.705999970E-1,-2.495999932E-1,-1.946999878E-1
1.596999844E1,-2.489999980E-1,-3.572999835E-1,-1.261299968E0
1.598999844E1,8.699999750E-2,-2.254999876E-1,-2.524600029E0
1.600999844E1,3.037000000E-1,-2.272999883E-1,-3.298799992E0
1.602999844E1,4.152999818E-1,-1.455999911E-1,-3.780099869E0
1.604999844E1,4.178999960E-1,-3.329999745E-2,-3.781599998E0
1.606999844E1,4.501999915E-1,-7.840000093E-2,-3.048399925E0
1.608999844E1,3.700999916E-1,-2.134999931E-1,-2.052299976E0
1.610999844E1,3.339000046E-1,-2.721000016E-1,-1.144400001E0
1.612999844E1,2.336999923E-1,-2.362999916E-1,-1.150000002E-2
1.614999844E1,1.600999981E-1,-3.859999776E-2,7.107999921E-1
1.616999844E1,2.171999961E-1,2.637999952E-1,5.227000117E-1
1.618999844E1,1.086999997E-1,6.498999596E-1,5.130000114E-1
1.620999844E1,-4.319999740E-2,9.217000008E-1,6.409999728E-1
1.622999844E1,-3.755999804E-1,1.005699992E0,1.092499971E0
1.624999844E1,-8.676999807E-1,1.238499999E0,1.661399961E0
1.626999844E1,-1.276799917E0,1.668399930E0,1.651799917E0
1.628999844E1,-1.583699942E0,1.929499984E0,1.583400011E0
1.630999844E1,-1.571999907E0,1.362299919E0,2.886699915E0
1.632999844E1,-1.158200026E0,4.757999778E-1,4.415199757E0
1.634999844E1,-8.678999543E-1,-4.429999888E-1,5.111499786E0
1.636999844E1,-1.555999964E-1,-5.569999814E-1,3.571899891E0
1.638999844E1,7.409999967E-1,1.209999993E-2,1.355599999E0
1.640999844E1,1.907599926E0,4.941999912E-1,-1.603500009E0
1.642999844E1,2.440999985E0,6.326000094E-1,-4.305099964E0
1.644999844E1,1.948199987E0,5.564000010E-1,-3.874300003E0
1.646999844E1,6.226999760E-1,4.994999766E-1,-1.103799939E0
1.648999844E1,-8.662999868E-1,6.820999980E-1,8.815000057E-1
1.650999844E1,-2.099299908E0,2.062900066E0,3.880100012E0
1.652999844E1,-3.387799978E0,2.325999975E0,4.655399799E0
1.654999844E1,-2.834699869E0,1.346499920E0,2.640799999E0
1.656999844E1,-9.210000038E-1,-4.549999908E-2,4.842999876E-1
1.658999844E1,4.175999761E-1,-1.405200005E0,-6.031000018E-1
1.661000000E1,1.032899976E0,-2.146199942E0,-1.865299940E0
1.663000000E1,1.008000016E0,-2.129099846E0,-3.885999918E0
1.665999844E1,9.923999906E-1,-1.858299971E0,-4.986700058E0
1.667999844E1,8.384999633E-1,-2.075099945E0,-3.641099930E0
1.669999844E1,6.724999547E-1,-1.833400011E0,-2.534800053E0
1.671999844E1,6.444999576E-1,-1.388999939E0,-1.910799980E0
1.673999844E1,5.131999850E-1,-9.592999816E-1,-1.622799993E0
1.675999844E1,3.118999898E-1,-2.707000077E-1,-1.023000002E0
1.677999844E1,1.559000015E-1,-5.999999866E-2,-2.076999992E-1
1.679999844E1,-1.490999907E-1,-4.269999862E-1,1.898999959E-1
1.681999844E1,-1.854999959E-1,-1.324999928E-1,2.450999916E-1
1.683999844E1,4.468999803E-1,6.350000203E-2,-5.749999881E-1
1.685999844E1,1.430299997E0,6.696000099E-1,-2.093099833E0
1.687999844E1,1.402300000E0,2.011899948E0,-1.021999955E0
1.690000000E1,1.508499980E0,2.041499853E0,3.556399822E0
1.692999844E1,1.990399957E0,-1.143199921E0,5.454099655E0
1.694999844E1,1.490199924E0,-1.717899919E0,4.216899872E0
1.696999844E1,-1.433999985E-1,-2.719999850E-2,2.935099840E0
1.698999844E1,-1.388599992E0,2.320600033E0,9.832999706E-1
1.700999844E1,-1.548099995E0,3.474299908E0,1.821999997E-1
1.703000000E1,-1.139299989E0,2.750599861E0,5.623999834E-1
1.705999844E1,-8.079999685E-2,4.968999922E-1,2.121500015E0
1.707999844E1,4.889999703E-2,-7.807999849E-1,2.482399940E0
1.709999844E1,-1.330000013E-1,-1.853699923E0,1.193099976E0
1.711999844E1,-2.483999878E-1,-2.255599976E0,-1.075999975E0
1.713999844E1,-9.883999825E-1,-1.779199958E0,-2.596299887E0
1.715999844E1,-1.848399997E0,-1.149899960E0,-2.644099951E0
1.717999844E1,-2.470899820E0,-5.091999769E-1,-2.868499994E0
1.719999844E1,-2.559499979E0,2.081999928E-1,-3.279599905E0
1.721999844E1,-2.222399950E0,8.905999660E-1,-3.025099993E0
1.723999844E1,-1.395299911E0,7.705000043E-1,-1.859499931E0
1.725999844E1,-4.073999822E-1,4.405999780E-1,-1.174399972E0
1.727999844E1,2.404999882E-1,7.687999606E-1,-8.026999831E-1
1.729999844E1,4.081999958E-1,1.503199935E0,-8.226000071E-1
1.731999844E1,5.399999768E-2,2.236000061E0,-9.591999650E-1
1.733999844E1,-6.159999967E-1,1.806899905E0,-5.273999572E-1
1.735999844E1,-2.645999789E-1,8.073999882E-1,1.041199923E0
1.737999844E1,9.637999535E-1,-3.436000049E-1,2.306200027E0
1.739999844E1,2.107399940E0,-1.155699968E0,2.043900013E0
1.741999844E1,2.341500044E0,-3.314999938E-1,9.615999460E-1
1.743999844E1,2.077999830E0,1.378000021E0,8.697999716E-1
1.745999844E1,1.915199995E0,2.422499895E0,1.480399966E0
1.747999844E1,1.505899906E0,2.956399918E0,1.088699937E0
1.749999844E1,3.027999997E-1,3.459699869E0,-3.604999781E-1
1.751999844E1,-3.761999905E-1,4.016600132E0,-1.024899960E0
1.753999844E1,-8.554999828E-1,3.450599909E0,1.079999924E0
1.755999844E1,-7.206000090E-1,1.918699980E0,4.142099857E0
1.757999844E1,1.909999922E-2,-1.150000002E-2,5.541199684E0
1.759999844E1,1.845899940E0,-8.871999979E-1,4.878699780E0
1.761999844E1,2.637199879E0,-1.658999920E-1,2.689499855E0
1.763999844E1,2.243999958E0,1.166399956E0,-1.191999987E-1
1.765999844E1,1.681199908E0,1.979299903E0,-1.977799892E0
1.767999844E1,9.912999868E-1,1.317600012E0,-1.703099966E0
1.770999844E1,6.859999895E-1,-3.255999982E-1,-5.435999632E-1
1.772999844E1,9.957999587E-1,-2.076499939E0,-5.042999983E-1
1.774999844E1,1.171399951E0,-4.032000065E0,-5.248999596E-1
1.776999844E1,1.195599914E0,-5.232500076E0,-4.116999805E-1
1.778999844E1,1.038699985E0,-5.328799725E0,-7.034999728E-1
1.780999844E1,8.302999735E-1,-4.771699905E0,-1.713799953E0
1.782999844E1,5.133000016E-1,-3.911799908E0,-2.648200035E0
1.784999844E1,-1.435000002E-1,-2.699199915E0,-2.798499823E0
1.786999844E1,-7.355999947E-1,-2.030599833E0,-2.255699873E0
1.788999844E1,-8.865999579E-1,-1.111199975E0,-2.003299952E0
1.790999844E1,-5.162999630E-1,-4.571999907E-1,-1.108099937E0
1.792999844E1,3.102999926E-1,-7.172999978E-1,-2.838000059E-1
1.794999844E1,9.352999926E-1,-2.193999887E-1,-6.089000106E-1
1.796999844E1,1.180199981E0,1.125900030E0,-1.339499950E0
1.798999844E1,4.251999855E-1,2.611899853E0,-1.994199991E0
1.800999844E1,-2.802000046E-1,2.619899988E0,3.804999888E-1
1.803000000E1,5.059999973E-2,1.437799931E0,3.896099806E0
1.805999844E1,1.074999928E0,-3.188999891E-1,4.372999668E0
1.807999844E1,2.034999877E-1,-5.439999700E-2,5.970999599E-1
1.809999844E1,-1.457199931E0,1.110899925E0,1.503700018E0
1.811999844E1,-2.766000032E0,1.121099949E0,3.699699879E0
1.813999844E1,-3.289099932E0,8.173999786E-1,4.818799973E0
1.815999844E1,-2.728799820E0,2.787999809E-1,3.648999929E0
1.817999844E1,-1.851399899E0,-1.187999994E-1,1.786299944E0
1.819999844E1,-1.272499919E0,-3.447999954E-1,-1.940999925E-1
1.821999844E1,-9.023000002E-1,-3.192999959E-1,-2.156399965E0
1.824000000E1,-6.873999834E-1,-2.780999839E-1,-3.807899952E0
1.826999844E1,-5.737000108E-1,-1.771999896E-1,-4.625099659E0
1.828999844E1,-7.506999969E-1,-6.849999726E-2,-4.239299774E0
1.830999844E1,-7.716000080E-1,-1.024999991E-1,-3.578799963E0
1.832999844E1,-5.304999948E-1,-8.249999583E-2,-2.611899853E0
1.834999844E1,-2.732999921E-1,-7.589999586E-2,-1.995399952E0
1.836999844E1,-2.830999792E-1,3.291999996E-1,-1.877499938E0
1.839000000E1,-3.181000054E-1,4.168999791E-1,-1.298099995E0
1.841999844E1,2.049999870E-2,6.963999867E-1,-1.662999988E-1
1.843999844E1,2.784000039E-1,7.813999653E-1,9.948999882E-1
1.846000000E1,2.619000077E-1,5.045999885E-1,2.435600042E0
1.848999844E1,-1.347000003E-1,6.255999804E-1,4.546700001E0
1.850999844E1,-9.699999355E-3,7.809000015E-1,4.139199734E0
1.852999844E1,4.930000007E-1,1.445699930E0,2.282699823E0
1.854999844E1,7.813000083E-1,1.695099950E0,1.203799963E0
1.856999844E1,8.891999722E-1,1.558899999E0,8.651999831E-1
1.858999844E1,1.186100006E0,9.722999930E-1,1.615700006E0
1.861000000E1,1.582899928E0,2.565000057E-1,1.307699919E0
1.863000000E1,1.741699934E0,2.263000011E-1,-5.359999835E-2
1.865999844E1,1.119199991E0,1.744000018E-1,4.113999903E-1
1.867999844E1,8.259999752E-1,-2.863999903E-1,2.144199848E0
1.870000000E1,6.363999844E-1,-7.015999556E-1,3.220099926E0
1.872999844E1,6.186999679E-1,-1.198099971E0,2.606499910E0
1.874999844E1,7.283999920E-1,-1.087399960E0,7.484999895E-1
1.876999844E1,8.066999912E-1,-9.450999498E-1,-1.038699985E0
1.878999844E1,7.894999981E-1,-6.327999830E-1,-2.529099941E0
1.880999844E1,6.606000066E-1,-2.272000015E-1,-3.547999859E0
1.883000000E1,4.230999947E-1,1.455999911E-1,-3.875699997E0
1.886000000E1,5.602999926E-1,1.170099974E0,-3.038899899E0
1.889000000E1,2.626299858E0,3.975699902E0,-2.558199883E0
1.891000000E1,-6.262999773E-1,2.352200031E0,-3.011600018E0
1.893000000E1,-8.240000010E-1,1.527599931E0,1.283999979E-1
1.895999844E1,-1.810499907E0,-1.217899919E0,2.587599993E0
1.897999844E1,-1.187299967E0,-2.476999998E0,3.125799894E0
1.899999844E1,-4.742999971E-1,-2.798499823E0,6.875000000E-1
1.901999844E1,8.999999613E-3,-2.344099998E0,-1.685400009E0
1.903999844E1,1.989999972E-2,-1.443300009E0,-3.063099861E0
1.905999844E1,-1.048999950E-1,-6.850999594E-1,-3.433499813E0
1.907999844E1,-3.333999813E-1,6.889999658E-2,-4.062200069E0
1.910000000E1,-4.564999938E-1,6.549999714E-1,-3.774599791E0
1.912999844E1,-2.251999974E-1,-3.628999889E-1,1.809999943E-1
1.914999844E1,2.630000003E-2,-1.194399953E0,2.505599976E0
1.916999844E1,4.016999900E-1,-1.316799998E0,4.932899952E0
1.918999844E1,7.264999747E-1,-9.264000058E-1,5.230999947E0
1.920999844E1,9.821999669E-1,-3.876999915E-1,2.759999990E0
1.922999844E1,5.134999752E-1,2.214999944E-1,1.145599961E0
1.924999844E1,-5.108999610E-1,1.639999896E-1,2.432999849E0
1.926999844E1,-1.363299966E0,1.128999963E-1,3.560499907E0
1.928999844E1,-1.641899943E0,1.464999914E-1,2.976199865E0
1.930999844E1,-1.534600019E0,3.032000065E-1,1.428200006E0
1.932999844E1,-1.205699921E0,3.059999943E-1,3.156999946E-1
1.934999844E1,-7.872999907E-1,2.554999888E-1,-1.158399940E0
1.936999844E1,-3.892999887E-1,3.313999772E-1,-2.755800009E0
1.938999844E1,7.639999688E-2,3.317999840E-1,-3.855199814E0
1.940999844E1,4.070999920E-1,1.555999964E-1,-3.937899828E0
1.942999844E1,6.214999557E-1,-1.064999998E-1,-3.144299984E0
1.944999844E1,4.770999849E-1,-4.529999942E-2,-2.519299984E0
1.946999844E1,3.771999776E-1,2.924999893E-1,-2.168799877E0
1.948999844E1,2.712999880E-1,4.354999959E-1,-1.749300003E0
1.950999844E1,3.810999990E-1,6.150999665E-1,-1.299600005E0
1.952999844E1,5.076999664E-1,8.881999850E-1,-1.573899984E0
1.954999844E1,3.224000037E-1,1.172699928E0,-1.466899991E0
1.956999844E1,-3.914999962E-1,1.791599989E0,-1.392000020E-1
1.958999844E1,-5.710999966E-1,2.129999876E0,5.805000067E-1
1.960999844E1,-1.887999922E-1,1.201599956E0,1.787099957E0
1.962999844E1,-3.267999887E-1,1.280999929E-1,3.983199835E0
1.964999844E1,-7.418999672E-1,-1.912999898E-1,6.591099739E0
1.966999844E1,-5.863999724E-1,3.989999890E-1,5.453399658E0
1.968999844E1,-2.773000002E-1,1.332599998E0,1.288800001E0
1.970999844E1,5.216999650E-1,1.770399928E0,-1.986400008E0
1.972999844E1,1.205699921E0,1.149500012E0,-1.571399927E0
1.974999844E1,1.450999975E0,-1.855999976E-1,1.548399925E0
1.976999844E1,1.317999959E0,-8.880999684E-1,2.998699903E0
1.978999844E1,3.034999967E-1,-7.757999897E-1,2.131399870E0
1.980999844E1,-9.964999557E-1,-4.272999763E-1,1.796399951E0
1.982999844E1,-1.767799973E0,-8.062999845E-1,4.354000092E0
1.984999844E1,-2.122999907E0,-1.645599961E0,5.432600021E0
1.986999844E1,-1.839100003E0,-1.538599968E0,2.848599911E0
1.988999844E1,-1.729399920E0,-7.646999955E-1,-2.075999975E-1
1.990999844E1,-1.118899941E0,3.109999932E-2,-2.870599985E0
1.992999844E1,-1.453999996E0,1.282799959E0,-4.321899891E0
1.994999844E1,-2.021399975E0,2.095399857E0,-4.274699688E0
1.996999844E1,-2.138299942E0,1.924799919E0,-3.824399948E0
1.998999844E1,-1.753299952E0,8.863999844E-1,-2.803699970E0
2.000999844E1,-1.397300005E0,-3.203999996E-1,-1.752299905E0
2.003000000E1,-7.565000057E-1,-1.334100008E0,-7.681999803E-1
2.005000000E1,-3.190999925E-1,-2.098500013E0,-4.466999769E-1
2.008000000E1,3.877999783E-1,-2.316799879E0,-1.196599960E0
2.010000000E1,5.302000046E-1,-1.970399976E0,-6.089000106E-1
2.012999844E1,4.745000005E-1,-1.721499920E0,3.935000002E-1
2.014999844E1,5.661999583E-1,-1.422899961E0,1.110999957E-1
2.016999844E1,6.789999604E-1,-7.929999828E-1,-4.332000017E-1
2.019000000E1,3.113999963E-1,-1.639000028E-1,-1.015299916E0
2.021999844E1,-9.509999752E-1,7.293999791E-1,5.900000036E-2
2.024000000E1,-8.208999634E-1,6.911999583E-1,2.333899975E0
2.026999844E1,8.280000091E-2,3.000999987E-1,2.889799833E0
2.029000000E1,7.689999789E-2,5.033999681E-1,1.064999938E0
2.032000000E1,-6.509000063E-1,1.243399978E0,-3.616999984E-1
2.034999844E1,-5.572999716E-1,1.479099989E0,-7.587999701E-1
2.036999844E1,-4.952999949E-1,1.007799983E0,-2.685999870E-1
2.039000000E1,-9.899999499E-1,9.167999625E-1,3.086999953E-1
2.041000000E1,-1.203099966E0,1.223799944E0,4.167999923E-1
2.043999844E1,3.254999816E-1,4.469999969E-1,-1.065899968E0
2.046000000E1,1.841699958E0,-5.755000114E-1,-1.209999919E0
2.048999844E1,2.591899872E0,-1.536700010E0,-9.296999574E-1
2.050999844E1,1.564000010E0,-1.063099980E0,-1.532299995E0
2.052999844E1,4.921999872E-1,-3.316999972E-1,-1.559599996E0
2.054999844E1,5.268999934E-1,-5.198000073E-1,-1.203400016E0
2.056999844E1,9.538999796E-1,-1.092800021E0,-8.499000072E-1
2.058999844E1,1.072999954E0,-1.604499936E0,-6.390000135E-2
2.060999844E1,6.882999539E-1,-1.440999985E0,6.759999990E-1
2.062999844E1,3.152000010E-1,-5.805999637E-1,-3.755999804E-1
2.064999844E1,-5.275999904E-1,1.419600010E0,-1.773299932E0
2.066999844E1,-8.491999507E-1,2.375999928E0,1.682599902E0
2.068999844E1,-7.350999713E-1,2.294299841E0,3.792699814E0
2.070999844E1,-4.800000042E-2,1.726199985E0,2.101899862E0
2.072999844E1,2.608999908E-1,1.699800014E0,3.233999908E-1
2.074999844E1,4.054999948E-1,1.209699988E0,9.140999913E-1
2.076999844E1,6.485999823E-1,3.481999934E-1,2.069000006E0
2.078999844E1,1.296299934E0,-2.829999924E-1,1.661199927E0
2.081000000E1,1.899799943E0,-6.363999844E-1,3.713999987E-1
2.083000000E1,2.068099976E0,-7.106999755E-1,-9.068999887E-1
2.085999844E1,1.901199937E0,-3.826999962E-1,-1.902099967E0
2.087999844E1,1.726999998E0,-4.451999962E-1,-1.986400008E0
2.089999844E1,1.543299913E0,-5.332999825E-1,-1.822399974E0
2.091999844E1,1.329699993E0,-5.625000000E-1,-1.263299942E0
2.093999844E1,1.158499956E0,-4.537999928E-1,-6.520999670E-1
2.095999844E1,5.805000067E-1,-1.321000010E-1,-5.062000155E-1
2.097999844E1,1.489999983E-2,3.429999948E-2,-9.535999894E-1
2.099999844E1,-2.021999955E-1,2.459999919E-2,-8.600999713E-1
2.101999844E1,-1.867999882E-1,-5.389999747E-1,-2.953999937E-1
2.103999844E1,-4.746999741E-1,-6.543999910E-1,1.319999993E-2
2.106000000E1,-1.105700016E0,-6.109999865E-2,-4.666999876E-1
2.109000000E1,-1.345399976E0,7.355999947E-1,1.237499952E0
2.112000000E1,-1.770000011E-1,-5.809000134E-1,2.880100012E0
2.114999844E1,5.843999982E-1,-1.507599950E0,1.524299979E0
2.116999844E1,1.305999905E-1,-1.237200022E0,7.910999656E-1
2.118999844E1,-5.421999693E-1,-3.409000039E-1,1.031700015E0
2.120999844E1,-2.158999890E-1,1.238099933E0,1.566699982E0
2.122999844E1,3.048399925E0,4.848000050E0,1.985899925E0
2.125000000E1,2.579999901E-2,7.531499863E0,-4.767999947E-1
2.127999844E1,-4.718400002E0,6.074699879E0,-1.366000026E-1
2.129999844E1,-2.345399857E0,2.969399929E0,5.327999592E-1
2.131999844E1,-9.208999872E-1,6.269999593E-2,2.812000036E0
2.134000000E1,7.019999623E-2,-1.178099990E0,3.235199928E0
2.136000000E1,-4.050000012E-2,-5.576999784E-1,1.062500000E0
2.138000000E1,-6.972999573E-1,8.422999978E-1,-1.083599925E0
2.140000000E1,-1.376299977E0,1.140299916E0,-1.253000021E0
2.142000000E1,-1.875699997E0,5.009999871E-1,-1.270499945E0
2.144000000E1,-2.208199978E0,-4.149999917E-1,-1.259400010E0
2.146000000E1,-1.655999899E0,-2.197499990E0,-3.418999910E-1
2.148000000E1,-2.309999913E-1,-4.220699787E0,7.069999576E-1
2.150000000E1,1.626699924E0,-5.808799744E0,1.276499987E0
2.152000000E1,2.778699875E0,-5.544799805E0,3.740999997E-1
2.154999844E1,2.365700006E0,-2.633399963E0,-1.691000015E-1
2.156999844E1,1.315999985E0,-3.418000042E-1,-1.245999932E-1
2.158999844E1,7.955999970E-1,1.417099953E0,-2.280799866E0
2.160999844E1,-3.859999776E-2,2.447700024E0,-4.162499905E0
2.162999844E1,-1.303599954E0,2.510499954E0,-3.808499813E0
2.164999844E1,-2.274199963E0,2.457900047E0,-1.770200014E0
2.167000000E1,-2.801699877E0,1.723399997E0,1.123899937E0
2.170000000E1,-2.131399870E0,1.711999923E-1,5.396299839E0
2.173000000E1,-2.335999906E-1,-9.621999860E-1,2.537299871E0
2.175000000E1,1.466999948E-1,-8.463000059E-1,-4.156000018E-1
2.178000000E1,-9.488999844E-1,3.773999810E-1,-1.899099946E0
2.180000000E1,-1.614199996E0,5.242999792E-1,-2.217999935E0
2.182000000E1,-1.596099973E0,1.766999960E-1,-2.598199844E0
2.184999844E1,-1.273199916E0,-1.718999892E-1,-2.367100000E0
2.186999844E1,-3.655999899E-1,-9.585999846E-1,-1.686599970E0
2.189000000E1,8.762999773E-1,-1.627900004E0,-1.884599924E0
2.191999844E1,2.446099997E0,-2.270799875E0,-1.693499923E0
2.193999844E1,3.088999987E0,-2.172999859E0,-9.893999696E-1
2.195999844E1,2.780699968E0,-1.420699954E0,-1.081499934E0
2.197999844E1,2.293299913E0,-5.069000125E-1,-2.126800060E0
2.199999844E1,1.593999982E0,-6.610000134E-2,-1.397400022E0
2.201999844E1,1.172699928E0,-3.289999962E-1,2.368999958E0
2.204000000E1,1.216300011E0,-1.554799914E0,4.924999714E0
2.206000000E1,9.741999507E-1,-2.842999935E0,5.197599888E0
2.208999844E1,6.699999794E-3,-1.409699917E0,1.809399962E0
2.211000000E1,-3.662000000E-1,2.908000052E-1,-1.152999997E-1
2.213000000E1,-4.834999740E-1,1.398899913E0,-1.372200012E0
2.215999844E1,-6.107000113E-1,1.983299971E0,-1.349799991E0
2.218000000E1,-9.589999914E-1,1.754999995E0,-3.965999782E-1
2.220000000E1,-1.774299979E0,2.401999950E0,1.709999889E-2
2.222999844E1,-2.252699852E0,2.658399820E0,5.056999922E-1
2.225000000E1,-2.030999899E0,2.291699886E0,-7.181999683E-1
2.227999844E1,-1.227599978E0,2.053299904E0,-2.286000013E0
2.230000000E1,-4.666999876E-1,2.053400040E0,-2.354899883E0
2.232999844E1,1.330299973E0,1.448300004E0,-1.158699989E0
2.234999844E1,1.774099946E0,-1.627999991E-1,2.011299849E0
2.236999844E1,2.375299931E0,-1.043599963E0,2.658599854E0
2.239000000E1,2.945899963E0,-2.094999999E-1,7.418999672E-1
2.241999844E1,1.816899896E0,6.628999710E-1,2.703999877E-1
2.243999844E1,7.080999613E-1,9.672999978E-1,3.218999803E-1
2.246000000E1,3.269000053E-1,1.005399942E0,2.429699898E0
2.248000000E1,6.578999758E-1,9.010999799E-1,2.247499943E0
2.250000000E1,1.539999962E0,5.769999623E-1,1.205899954E0
2.252000000E1,1.523399949E0,5.561999679E-1,2.650699854E0
2.254999844E1,2.551499844E0,-8.405999541E-1,2.700099945E0
2.256999844E1,3.039199829E0,-1.015499949E0,6.380000114E-1
2.258999844E1,2.438799858E0,-5.073999763E-1,-1.170400023E0
2.260999844E1,1.112599969E0,3.094999790E-1,-1.474799991E0
2.263000000E1,-3.950999975E-1,1.648999900E-1,2.639999986E-2
2.265000000E1,-1.524899960E0,-5.712999701E-1,2.396499872E0
2.267000000E1,-2.103999853E0,-1.927099943E0,3.563599825E0
2.269000000E1,-1.427399993E0,-2.939899921E0,3.021600008E0
2.271999844E1,-1.188499928E0,-1.674299955E0,-7.630999684E-1
2.274000000E1,-2.197399855E0,2.316999882E-1,-2.468899965E0
2.276000000E1,-2.607899904E0,1.489799976E0,-3.738499880E0
2.279000000E1,-1.610000014E0,1.581799984E0,-5.182099819E0
2.281999844E1,-4.851999879E-1,-2.429999970E-2,-3.681799889E0
2.283999844E1,-1.599999890E-2,-6.473999619E-1,-2.314399958E0
2.285999844E1,3.358999789E-1,-1.406099916E0,-1.389699936E0
2.287999844E1,5.274999738E-1,-1.920799971E0,-1.057799935E0
2.289999844E1,5.749999881E-1,-1.950699925E0,-7.103999853E-1
2.291999844E1,6.482999921E-1,-1.733999968E0,3.343999982E-1
2.293999844E1,9.138999581E-1,-1.233099937E0,7.177999616E-1
2.295999844E1,1.290300012E0,-5.647000074E-1,-2.057999969E-1
2.297999844E1,1.270999908E0,1.146999970E-1,-1.591599941E0
2.299999844E1,9.641000032E-1,1.512499928E0,-1.030799985E0
2.301999844E1,8.604999781E-1,2.266299963E0,1.960099936E0
2.304000000E1,1.768599987E0,1.965399981E0,3.254299879E0
2.306999844E1,1.829199910E0,1.897999942E-1,3.609799862E0
2.309000000E1,1.085699916E0,4.247999787E-1,4.704499722E0
2.312000000E1,3.711999953E-1,1.482999921E0,4.504699707E0
2.314000000E1,5.026999712E-1,1.670599937E0,2.873699903E0
2.316000000E1,8.842999935E-1,1.289699912E0,1.026099920E0
2.318000000E1,1.196200013E0,1.026899934E0,-4.271000028E-1
2.320000000E1,9.185999632E-1,5.042999983E-1,-1.618199944E0
2.322000000E1,6.529999524E-2,-1.439599991E0,-1.798999906E0
2.324999844E1,-1.144299984E0,-3.357199907E0,-2.505800009E0
2.326999844E1,-1.869599938E0,-3.593499899E0,-2.990299940E0
2.328999844E1,-2.437700033E0,-3.175099850E0,-3.451299906E0
2.330999844E1,-3.036399841E0,-2.309599876E0,-3.639699936E0
2.332999844E1,-3.362999916E0,-1.190400004E0,-3.625499964E0
2.334999844E1,-3.148299932E0,-5.112000108E-1,-3.445599794E0
2.336999844E1,-2.501399994E0,-4.967999756E-1,-2.993799925E0
2.339000000E1,-1.768099904E0,-4.857999980E-1,-2.242100000E0
2.341000000E1,-1.073099971E0,-8.869999647E-2,-1.482499957E0
2.343000000E1,-1.018899918E0,6.017000079E-1,-8.634999990E-1
2.345999844E1,-2.111099958E0,1.933899999E0,9.942999482E-1
2.347999844E1,-2.140300035E0,1.695500016E0,5.493199825E0
2.349999844E1,-1.178099990E0,8.747999668E-1,8.343400002E0
2.352000000E1,2.004999965E-1,6.425999999E-1,6.679199696E0
2.354999844E1,1.074199915E0,2.053799868E0,-4.251999855E-1
2.357000000E1,8.829999566E-1,2.880300045E0,-2.949899912E0
2.359000000E1,2.063999921E-1,2.270200014E0,-1.471599936E0
2.361000000E1,-1.840000041E-2,1.561900020E0,1.447499990E0
2.363000000E1,-2.215999961E-1,7.095999718E-1,3.233299971E0
2.365000000E1,1.099999994E-2,-1.476999968E-1,3.410499811E0
2.367000000E1,5.918999910E-1,-5.469999909E-1,2.459800005E0
2.369000000E1,1.023299932E0,-7.238000035E-1,3.193999827E-1
2.371000000E1,1.215399981E0,-4.912000000E-1,-1.352199912E0
2.373000000E1,8.861999512E-1,-3.779999912E-2,-2.881099939E0
2.375000000E1,4.592999816E-1,4.095000029E-1,-3.710599899E0
2.377000000E1,6.009999663E-2,6.427999735E-1,-3.889099836E0
2.379000000E1,-3.359999955E-1,6.901999712E-1,-3.443699837E0
2.381999844E1,-2.034000009E-1,1.223999932E-1,-2.033999920E0
2.383999844E1,1.636999995E-1,-4.790000021E-1,-1.048599958E0
2.386000000E1,2.927999794E-1,-5.022999644E-1,-6.220999956E-1
2.388000000E1,1.727000028E-1,-1.929999888E-1,-7.132999897E-1
2.390000000E1,-5.989999697E-2,-5.579999834E-2,-7.554999590E-1
2.392000000E1,-1.949999928E-1,-3.819999844E-2,-1.251000017E-1
2.394000000E1,-2.565999925E-1,-6.929999590E-2,8.306999803E-1
2.396000000E1,-1.054999977E-1,2.266999930E-1,1.258000016E0
2.398999844E1,1.539999992E-1,7.723999619E-1,-1.265999973E-1
2.400999844E1,-1.815000027E-1,1.154500008E0,-7.418999672E-1
2.403000000E1,-8.852999806E-1,1.093099952E0,3.619000018E-1
2.405999844E1,1.314999908E-1,2.761999965E-1,3.959999800E0
2.407999844E1,1.194599986E0,-9.562999606E-1,4.021800041E0
2.410000000E1,1.803599954E0,-1.854999900E0,3.264799833E0
2.412000000E1,8.878999949E-1,-1.927399993E0,3.702799797E0
2.414000000E1,-4.723999798E-1,-1.544199944E0,3.749099970E0
2.416000000E1,-1.386899948E0,-6.322999597E-1,2.231600046E0
2.419000000E1,-1.726300001E0,7.999999449E-3,5.098000169E-1
2.421000000E1,-1.325699925E0,-9.209999442E-2,-3.865999877E-1
2.424000000E1,-4.098999798E-1,-3.265999854E-1,-2.307699919E0
2.427000000E1,4.769999906E-2,-2.286999971E-1,-3.414899826E0
2.429999844E1,2.389999926E-1,8.200000040E-3,-3.772399902E0
2.431999844E1,4.160999954E-1,8.649999648E-2,-3.507900000E0
2.433999844E1,8.716999888E-1,1.254999936E-1,-2.834800005E0
2.435999844E1,1.323099971E0,3.111000061E-1,-1.897799969E0
2.437999844E1,2.480200052E0,1.540799975E0,-1.176599979E0
2.439999844E1,4.555900097E0,3.653199911E0,-1.072399974E0
2.442000000E1,5.101599693E0,3.665999889E0,-2.398799896E0
2.444999844E1,3.315599918E0,5.900000036E-2,1.204999924E0
2.447000000E1,4.148999751E-1,-6.360999942E-1,5.420000076E0
2.449999844E1,-3.294299841E0,4.193999767E-1,7.076699734E0
2.452000000E1,-4.725299835E0,6.570000052E-1,5.024499893E0
2.454000000E1,-2.538100004E0,2.198999971E-1,2.507699966E0
2.456999844E1,4.059999809E-2,-6.112999916E-1,-1.833499908E0
2.458999844E1,6.965000033E-1,-1.009199977E0,-2.070299864E0
2.460999844E1,1.148699999E0,-1.103899956E0,-1.647499919E0
2.463000000E1,1.467899919E0,-9.710999727E-1,-2.898599863E0
2.465000000E1,1.740499973E0,-3.619999886E-1,-4.545599937E0
2.467000000E1,1.584800005E0,-1.589999944E-1,-4.337800026E0
2.469000000E1,1.163299918E0,-6.146000028E-1,-2.373199940E0
2.471000000E1,8.370999694E-1,-1.123399973E0,-4.409999773E-2
2.474000000E1,1.155300021E0,-2.161099911E0,3.692499876E0
2.476000000E1,1.536799908E0,-2.469499826E0,3.845799923E0
2.479000000E1,1.296000004E0,-1.095999956E0,-1.659999937E-1
2.481999844E1,1.659999937E-1,1.024500012E0,-2.701900005E0
2.483999844E1,-3.337000012E-1,1.942999959E0,-3.912999868E0
2.485999844E1,-4.989999831E-1,2.014699936E0,-3.894299984E0
2.487999844E1,-4.424999952E-1,1.291700006E0,-2.638000011E0
2.490000000E1,-3.346999884E-1,9.742999673E-1,-1.532599926E0
2.492999844E1,-2.192000002E-1,7.705999613E-1,-7.909999788E-2
2.494999844E1,1.222999990E-1,1.190799952E0,2.840999961E-1
2.496999844E1,6.538000107E-1,1.607199907E0,1.081999987E-1
2.499000000E1,1.071200013E0,1.824899912E0,2.491999865E-1
2.501000000E1,1.219399929E0,1.973399997E0,8.998999596E-1
2.503000000E1,1.482499957E0,2.054699898E0,1.043699980E0
2.505000000E1,2.263599873E0,1.623099923E0,1.484499931E0
2.507999844E1,3.222800016E0,5.892999768E-1,2.761600018E0
2.510000000E1,2.724299908E0,-3.206000030E-1,3.074499846E0
2.512999844E1,1.022999957E-1,-1.148299932E0,3.058799982E0
2.514999844E1,-1.636999965E0,-1.080500007E0,3.441299915E0
2.517000000E1,-2.418299913E0,-1.151299953E0,3.663699865E0
2.519000000E1,-2.147799969E0,-1.756199956E0,3.118099928E0
2.521000000E1,-1.606299996E0,-2.214900017E0,1.624099970E0
2.523000000E1,-1.262199998E0,-1.874300003E0,-4.068999887E-1
2.525000000E1,-1.046700001E0,-1.013100028E0,-2.325199842E0
2.527000000E1,-6.121999621E-1,-7.099999487E-2,-3.561800003E0
2.529000000E1,-2.944000065E-1,-2.326999903E-1,-2.093099833E0
2.532000000E1,3.184999824E-1,-6.674000025E-1,7.930000126E-2
2.534000000E1,8.605999947E-1,-6.491000056E-1,-1.891999990E-1
2.536000000E1,1.284799933E0,-7.766000032E-1,-1.187699914E0
2.538000000E1,1.282499909E0,-5.031999946E-1,-2.427399874E0
2.540000000E1,8.246999979E-1,3.209999949E-2,-3.019599915E0
2.543000000E1,-7.719999552E-2,4.177999794E-1,-2.934299946E0
2.546000000E1,-8.593999743E-1,6.721999645E-1,-3.114899874E0
2.548000000E1,-1.182199955E0,7.057999969E-1,-2.789899826E0
2.551000000E1,-1.104099989E0,4.242999852E-1,-1.237200022E0
2.553000000E1,-7.943999767E-1,1.894999892E-1,-3.322999775E-1
2.555000000E1,-7.691999674E-1,1.687999964E-1,3.570999801E-1
2.557000000E1,-9.337999821E-1,8.709999919E-2,1.778199911E0
2.559000000E1,-8.341999650E-1,-1.961999983E-1,3.495399952E0
2.561000000E1,-6.961999536E-1,-4.372999966E-1,4.430500031E0
2.563999844E1,-5.206999779E-1,3.579999804E-1,2.221199989E0
2.565999844E1,-5.458999872E-1,1.064000010E0,4.688999951E-1
2.568000000E1,-6.728999615E-1,1.898199916E0,-4.778999984E-1
2.570000000E1,-9.253000021E-1,2.625099897E0,-1.101099968E0
2.572000000E1,-8.967999816E-1,2.640899897E0,-6.665999889E-1
2.574000000E1,-4.530999959E-1,1.613199949E0,1.794299960E0
2.576000000E1,9.580999613E-1,-1.722999960E-1,3.939799786E0
2.579000000E1,2.723299980E0,-1.245599985E0,1.970999956E0
2.581000000E1,2.654799938E0,-8.314999938E-1,-7.477999926E-1
2.583000000E1,1.531399965E0,-1.323999912E-1,-2.118499994E0
2.585000000E1,-2.540999949E-1,1.314999908E-1,-6.547999978E-1
2.587999844E1,-1.621599913E0,-1.811999977E-1,4.038499832E0
2.590000000E1,-1.509400010E0,-1.175499916E0,5.758299828E0
2.592000000E1,-4.183000028E-1,-2.219199896E0,3.783199787E0
2.594000000E1,2.885999978E-1,-2.129400015E0,5.489999801E-2
2.597000000E1,4.723999798E-1,-1.106400013E0,-3.555499792E0
2.599000000E1,2.087000012E-1,-6.487999558E-1,-4.540499687E0
2.602000000E1,-7.274000049E-1,3.016999960E-1,-4.294899940E0
2.604000000E1,-1.207999945E0,7.567999959E-1,-3.642799854E0
2.606000000E1,-1.528699994E0,6.388999820E-1,-2.928599834E0
2.608000000E1,-1.366400003E0,6.089999899E-2,-1.978599906E0
2.610000000E1,-8.977999687E-1,-4.097999930E-1,-1.241199970E0
2.612000000E1,-3.517999947E-1,-8.319000006E-1,-9.470999837E-1
2.614000000E1,1.878999919E-1,-9.848999977E-1,-1.151099920E0
2.617000000E1,4.135999978E-1,-6.437999606E-1,-1.511699915E0
2.619000000E1,5.159999803E-2,-7.710000128E-2,-1.029899955E0
2.621000000E1,-2.304999977E-1,3.595999777E-1,-2.421000004E-1
2.623000000E1,-4.341000021E-1,7.181000113E-1,3.271999955E-1
2.625000000E1,-5.299999937E-2,9.440000057E-1,5.363000035E-1
2.628000000E1,4.632000029E-1,1.399399996E0,-3.980999887E-1
2.630000000E1,-4.041999876E-1,1.720699906E0,-5.173999667E-1
2.633000000E1,-5.643000007E-1,5.217999816E-1,5.960799694E0
2.636000000E1,1.158100009E0,-2.121399879E0,8.192299843E0
2.638000000E1,1.282599926E0,-2.295399904E0,3.813399792E0
2.640000000E1,6.300000008E-3,-1.060699940E0,1.247799993E0
2.642000000E1,-1.176900029E0,2.705000043E-1,1.022799969E0
2.644000000E1,-1.198599935E0,1.188099980E0,4.854999781E-1
2.646000000E1,-4.675999880E-1,1.972999930E0,-5.975999832E-1
2.648000000E1,4.052999914E-1,2.510200024E0,-2.085700035E0
2.651000000E1,1.089999914E0,1.802500010E0,-2.290400028E0
2.653000000E1,1.420599937E0,9.235000014E-1,-1.697899938E0
2.655000000E1,1.504299998E0,3.042999804E-1,-1.311399937E0
2.657999844E1,1.403899908E0,-5.823000073E-1,-9.941999912E-1
2.660000000E1,1.402799964E0,-1.371899962E0,-1.411599994E0
2.662000000E1,1.350000024E0,-2.355099916E0,-2.139299870E0
2.664000000E1,1.193699956E0,-3.065099955E0,-2.352299929E0
2.667000000E1,2.985000014E-1,-2.916899920E0,-1.494300008E0
2.669000000E1,-1.702999920E-1,-2.091799974E0,-1.690999985E0
2.672000000E1,-1.035999954E-1,-8.637999892E-1,-2.583899975E0
2.674000000E1,2.428999990E-1,-1.851999909E-1,-2.539799929E0
2.677000000E1,3.168999851E-1,7.617999911E-1,-1.163399935E0
2.680000000E1,-2.904999852E-1,8.991999626E-1,1.796499968E0
2.683000000E1,-6.200999618E-1,1.797999889E-1,6.486999989E0
2.685999844E1,7.079999894E-2,-1.649999917E-1,4.911799908E0
2.687999844E1,2.933999896E-1,6.944999695E-1,2.753299952E0
2.690000000E1,5.525000095E-1,1.378299952E0,1.191699982E0
2.693000000E1,6.489999890E-1,1.845699906E0,-2.622499943E0
2.695999844E1,7.850999832E-1,1.969699979E0,-5.831899643E0
2.698000000E1,7.161999941E-1,1.358399987E0,-5.166299820E0
2.700000000E1,2.339999974E-1,7.005999684E-1,-2.064599991E0
2.703000000E1,-7.530000061E-2,2.009999901E-1,3.342299938E0
2.705000000E1,-2.611999810E-1,-2.096999884E-1,6.351199627E0
2.707999844E1,5.722999573E-1,1.662999988E-1,4.450200081E0
2.710000000E1,1.346300006E0,9.386000037E-1,1.174299955E0
2.712000000E1,1.301699996E0,1.759999990E0,-1.174099922E0
2.714999844E1,-6.315999627E-1,9.605999589E-1,-2.626899958E0
2.717000000E1,-1.021700025E0,-9.889999777E-2,-2.366999865E0
2.720000000E1,-5.044000149E-1,-1.722499967E0,-1.390100002E0
2.722000000E1,1.934999973E-1,-2.677700043E0,-1.395900011E0
2.724000000E1,6.882999539E-1,-2.852099895E0,-1.956099987E0
2.727000000E1,7.985999584E-1,-2.522599936E0,-2.801599979E0
2.729000000E1,7.110999823E-1,-2.039700031E0,-1.851399899E0
2.731000000E1,3.294999897E-1,-1.338299990E0,-1.472800016E0
2.733000000E1,-8.455999494E-1,-1.317399979E0,-1.831099987E0
2.735999844E1,-1.374199986E0,-2.764999866E-1,3.270099878E0
2.738000000E1,-3.357999921E-1,-6.121000051E-1,4.698199749E0
2.741000000E1,1.467899919E0,-1.293499947E0,-1.808999926E-1
2.743000000E1,7.611999512E-1,-8.719999790E-1,-1.236999989E0
2.746000000E1,-1.381899953E0,-5.399999768E-2,2.141199827E0
2.748000000E1,-2.056999922E0,4.684000015E-1,2.934899807E0
2.750000000E1,-1.992100000E0,7.583999634E-1,2.648799896E0
2.752000000E1,-1.447600007E0,8.452000022E-1,6.042000055E-1
2.754000000E1,-7.631999850E-1,1.078099966E0,-1.102900028E0
2.756000000E1,-3.227999806E-1,9.784999490E-1,-2.267400026E0
2.758000000E1,-7.189999521E-2,8.822000027E-1,-2.814399958E0
2.760000000E1,-3.949999809E-2,7.802999616E-1,-2.560299873E0
2.762000000E1,-3.709000051E-1,4.465999901E-1,-1.995700002E0
2.765000000E1,-9.005999565E-1,-2.809999883E-2,-1.260399938E0
2.768000000E1,-9.641000032E-1,-2.845000029E-1,-6.218999624E-1
2.770000000E1,-6.929000020E-1,-5.259999633E-1,-2.845999897E-1
2.772000000E1,-5.302000046E-1,-4.897999763E-1,-1.115999967E-1
2.774999844E1,-7.699999809E-1,2.279999852E-2,-3.588999808E-1
2.777000000E1,-9.368999600E-1,2.212999910E-1,-3.100999892E-1
2.780000000E1,-1.152400017E0,3.350999951E-1,4.914999902E-1
2.782999844E1,-1.085600019E0,-6.169999763E-2,1.790799975E0
2.784999844E1,-1.330399990E0,3.629999980E-2,2.592399836E0
2.787000000E1,-1.707399964E0,7.038999796E-1,2.220299959E0
2.789000000E1,-1.756299973E0,1.365999937E0,1.174000025E0
2.791999844E1,-1.332599998E0,1.331799984E0,8.687999845E-1
2.793999844E1,-2.427999973E-1,3.370000049E-2,2.490099907E0
2.795999844E1,8.387999535E-1,-6.348999739E-1,2.399199963E0
2.797999844E1,1.425999999E0,-4.781000018E-1,-2.805999815E-1
2.799999844E1,1.429299951E0,8.370000124E-2,-2.337699890E0
2.801999844E1,1.019999981E0,7.680999637E-1,-3.223599911E0
2.803999844E1,4.379999936E-1,4.638999999E-1,-1.369099975E0
2.805999844E1,8.519999683E-2,-5.299999844E-3,1.634400010E0
2.807999844E1,2.620000020E-2,-7.070999742E-1,4.098000050E0
2.809999844E1,2.588000000E-1,-1.315699935E0,4.948100090E0
2.811999844E1,7.093999982E-1,-1.403399944E0,2.631799936E0
2.813999844E1,1.035799980E0,-9.968999624E-1,7.599999662E-3
2.815999844E1,1.122300029E0,-2.484999895E-1,-1.812999964E0
2.817999844E1,8.199999928E-1,2.566999793E-1,-2.710000038E0
2.819999844E1,5.697000027E-1,4.138000011E-1,-3.152799845E0
2.821999844E1,4.219999909E-1,4.132999778E-1,-2.948400021E0
2.823999844E1,2.911999822E-1,3.400000036E-1,-1.783399940E0
2.825999844E1,2.264999896E-1,5.599999800E-3,-7.186999917E-1
2.827999844E1,5.141999722E-1,-4.129000008E-1,-2.009999938E-2
2.829999844E1,7.441999912E-1,-8.355999589E-1,-2.136999965E-1
2.831999844E1,7.344999909E-1,-7.044999599E-1,-4.946999848E-1
2.833999844E1,4.404999912E-1,-6.019999981E-1,-6.590999961E-1
2.835999844E1,1.972000003E-1,-6.103000045E-1,-1.784999967E-1
2.837999844E1,2.550999820E-1,-1.799999923E-2,4.387999773E-1
2.839999844E1,1.986599922E0,2.388099909E0,5.295999646E-1
2.841999844E1,2.167599916E0,4.078400135E0,-6.523000002E-1
2.843999844E1,-2.415299892E0,1.909299970E0,-8.158999681E-1
2.845999844E1,-2.667899847E0,1.208699942E0,7.928000093E-1
2.847999844E1,-2.972199917E0,-2.741000056E-1,1.100499988E0
2.849999844E1,-2.307299852E0,-7.332999706E-1,2.077999830E0
2.851999844E1,-8.032000065E-1,-1.012799978E0,4.019799709E0
2.853999844E1,2.545999885E-1,-2.551199913E0,5.005199909E0
2.855999844E1,7.403999567E-1,-4.266299725E0,3.779699802E0
2.857999844E1,9.229999781E-1,-4.184700012E0,4.539999962E-1
2.859999844E1,3.172999918E-1,-2.443899870E0,-1.932699919E0
2.861999844E1,-5.345000029E-1,-2.678999901E-1,-4.040100098E0
2.863999844E1,-1.197000027E0,1.421399951E0,-5.100399971E0
2.865999844E1,-1.187999964E0,1.926999927E0,-4.141600132E0
2.867999844E1,-7.062000036E-1,1.312699914E0,-2.266399860E0
2.869999844E1,-1.384999901E-1,3.999999724E-3,-9.001999497E-1
2.871999844E1,3.898999989E-1,-9.281999469E-1,-4.484999776E-1
2.874999844E1,9.164999723E-1,-1.466899991E0,5.759999901E-2
2.876999844E1,1.124799967E0,-9.742999673E-1,-4.696999788E-1
2.878999844E1,1.112399936E0,-3.553999960E-1,-8.772999644E-1
2.880999844E1,9.666000009E-1,1.807999909E-1,-1.156599998E0
2.882999844E1,5.812000036E-1,5.313999653E-1,-1.071799994E0
2.884999844E1,9.369999915E-2,7.924999595E-1,-8.901000023E-1
2.886999844E1,-3.019999862E-1,1.072700024E0,-4.630999863E-1
2.888999844E1,-4.472999871E-1,1.079299927E0,1.209999993E-1
2.890999844E1,-1.645999998E-1,5.264999866E-1,5.497999787E-1
2.892999844E1,6.709999591E-2,2.710999846E-1,2.556000054E-1
2.894999844E1,6.169999763E-2,3.822000027E-1,3.052999973E-1
2.896999844E1,2.600000007E-3,5.857999921E-1,4.914999902E-1
2.899000000E1,-1.867999882E-1,8.682999611E-1,4.698999822E-1
2.901999844E1,-3.378999829E-1,1.041999936E0,2.097599983E0
2.903999844E1,2.184000015E-1,4.851999879E-1,4.118899822E0
2.905999844E1,1.301100016E0,-4.011999965E-1,4.889299870E0
2.907999844E1,2.137199879E0,-6.319000125E-1,2.038699865E0
2.909999844E1,2.188199997E0,-1.133999974E-1,-1.223899961E0
2.912000000E1,1.734399915E0,3.583000004E-1,-3.887899876E0
2.914999844E1,2.219999880E-1,2.578999996E-1,-2.238100052E0
2.916999844E1,-2.619000077E-1,-1.970000006E-2,6.169999838E-1
2.918999844E1,-1.405999959E-1,-5.648999810E-1,3.863999844E0
2.920999844E1,9.239999950E-2,-1.493999958E0,5.656599998E0
2.922999844E1,7.066999674E-1,-2.066299915E0,3.725299835E0
2.924999844E1,9.854999781E-1,-1.365999937E0,4.445999861E-1
2.926999844E1,1.000599980E0,-4.203999937E-1,-1.737699986E0
2.928999844E1,6.524999738E-1,4.048999846E-1,-3.241999865E0
2.930999844E1,2.963999808E-1,8.100000024E-1,-3.927399874E0
2.932999844E1,-2.190000005E-2,8.069999814E-1,-3.207399845E0
2.934999844E1,-1.889999956E-1,5.528999567E-1,-1.783100009E0
2.936999844E1,-3.999999724E-3,1.674999893E-1,-9.726999998E-1
2.938999844E1,2.472999990E-1,-4.309999943E-2,-9.128999710E-1
2.940999844E1,4.057999849E-1,4.149999842E-2,-1.024999976E0
2.942999844E1,4.892999828E-1,3.165999949E-1,-1.043799996E0
2.944999844E1,5.152999759E-1,3.184999824E-1,-9.230999947E-1
2.946999844E1,5.284000039E-1,2.768000066E-1,-7.207999825E-1
2.948999844E1,3.761000037E-1,3.190000057E-1,-3.879999742E-2
2.950999844E1,2.107999921E-1,4.000999928E-1,5.748999715E-1
2.952999844E1,-1.305999905E-1,5.579999685E-1,8.661999702E-1
2.954999844E1,-3.366000056E-1,7.872999907E-1,7.574999928E-1
2.956999844E1,-2.282999903E-1,1.177799940E0,3.850999773E-1
2.958999844E1,-5.780999660E-1,1.562999964E0,-7.536000013E-1
2.960999844E1,-1.109399915E0,1.501099944E0,-4.253999889E-1
2.963000000E1,-1.055099964E0,8.935999870E-1,3.107199907E0
2.965999844E1,2.447999865E-1,-1.527499914E0,6.366999626E0
2.967999844E1,8.205999732E-1,-2.495499849E0,3.454499960E0
2.969999844E1,1.078999937E-1,-1.849999905E0,5.956999660E-1
2.971999844E1,-1.082999945E0,-7.188999653E-1,-7.209999859E-2
2.973999844E1,-1.778499961E0,1.693999916E-1,2.319999933E-1
2.975999844E1,-1.192700028E0,9.180999994E-1,-3.686999977E-1
2.977999844E1,1.952499986E0,2.967700005E0,-3.743000031E-1
2.979999844E1,4.241199970E0,6.243799686E0,-1.713699937E0
2.981999844E1,-1.859899998E0,3.897599936E0,-2.696199894E0
2.983999844E1,-1.265999913E0,2.984799862E0,1.551000029E-1
2.985999844E1,-8.691999912E-1,1.144599915E0,3.317999840E-1
2.987999844E1,-8.186999559E-1,5.073999763E-1,8.266999722E-1
2.989999844E1,-1.875899911E0,-2.487999946E-1,5.679000020E-1
2.991999844E1,-2.243199825E0,-6.222000122E-1,-1.143999994E-1
2.993999844E1,-1.210299969E0,-1.761500001E0,-8.585000038E-1
2.995999844E1,5.791999698E-1,-2.533599854E0,-1.526399970E0
2.997999844E1,2.106299877E0,-2.650399923E0,-2.352699995E0
2.999999844E1,2.077999830E0,-2.578299999E0,-2.440099955E0
3.001999844E1,1.646899939E0,-2.264400005E0,-1.072399974E0
3.003999844E1,1.372200012E0,-1.945999980E0,4.363999963E-1
3.005999844E1,1.119099975E0,-1.715499997E0,2.428999990E-1
3.007999844E1,7.647999525E-1,-1.389099956E0,-5.087000132E-1
3.009999844E1,1.462000012E-1,-8.412999511E-1,-7.407999635E-1
3.011999844E1,-6.243999600E-1,-8.200000040E-3,-2.854000032E-1
3.013999844E1,-1.159799933E0,8.879999518E-1,3.331999779E-1
3.015999844E1,-1.580999970E0,1.717199922E0,2.577999830E-1
3.017999844E1,-1.645599961E0,2.245300055E0,-2.803999782E-1
3.019999844E1,-1.589599967E0,2.322299957E0,-5.224999785E-1
3.021999844E1,-1.148699999E0,1.679299951E0,5.385999680E-1
3.023999844E1,-3.007999957E-1,4.353999794E-1,2.050699949E0
3.025999844E1,5.893999934E-1,-5.310999751E-1,2.510099888E0
3.027999844E1,1.293099999E0,-8.078999519E-1,1.192499995E0
3.029999844E1,1.226499915E0,-5.001999736E-1,-1.070699930E0
3.031999844E1,1.107499957E0,-3.073999882E-1,-2.567899942E0
3.033999844E1,9.623000026E-1,-5.787000060E-1,-2.734099865E0
3.035999844E1,6.804999709E-1,-1.240299940E0,-1.066699982E0
3.037999844E1,-7.499999553E-2,-1.141799927E0,1.638700008E0
3.039999844E1,-6.432999969E-1,-9.540999532E-1,3.658299923E0
3.041999844E1,-6.031000018E-1,-8.226999640E-1,3.933699846E0
3.043999844E1,2.938999832E-1,-5.695999861E-1,1.262499928E0
3.045999844E1,1.040799975E0,-5.062999725E-1,-8.608999848E-1
3.047999844E1,1.458699942E0,-2.250999957E-1,-2.567199945E0
3.049999844E1,1.519400001E0,2.016000003E-1,-3.742599964E0
3.051999844E1,2.356400013E0,1.355000019E0,-4.131099701E0
3.053999844E1,2.852499962E0,3.366899967E0,-4.395999908E0
3.055999844E1,9.883999825E-1,2.602699995E0,-3.703899860E0
3.057999844E1,1.337700009E0,1.093999982E0,-1.226899981E0
3.059999844E1,1.347499967E0,-3.818999827E-1,5.370000005E-1
3.061999844E1,1.167400002E0,-1.393299937E0,2.397799969E0
3.063999844E1,6.606000066E-1,-1.539699912E0,2.784699917E0
3.065999844E1,-1.868999898E-1,-1.256999969E-1,9.574999809E-1
3.067999844E1,-7.700999975E-1,6.651999950E-1,-4.458999932E-1
3.069999844E1,-1.092700005E0,9.986999631E-1,-1.041399956E0
3.071999844E1,-1.140200019E0,8.046999574E-1,-1.240999997E-1
3.073999844E1,-9.654999971E-1,6.121000051E-1,7.788999677E-1
3.075999844E1,-9.873999953E-1,4.132999778E-1,6.764000058E-1
3.077999844E1,-1.360299945E0,6.104999781E-1,5.769000053E-1
3.079999844E1,-1.413599968E0,3.867000043E-1,3.066499949E0
3.081999844E1,-4.285999835E-1,-8.341000080E-1,5.370599747E0
3.083999844E1,3.827999830E-1,-1.946799994E0,6.272299767E0
3.085999844E1,8.021999598E-1,-1.913100004E0,2.840699911E0
3.087999844E1,3.382999897E-1,-9.858999848E-1,-3.549000025E-1
3.089999844E1,-4.737999737E-1,-1.997999996E-1,-1.880199909E0
3.091999844E1,-1.393999934E0,2.301999927E-1,-1.801299930E0
3.093999844E1,-1.753199935E0,4.921999872E-1,-9.356999993E-1
3.095999844E1,-1.277599931E0,3.012999892E-1,-5.433999896E-1
3.097999844E1,-4.764999747E-1,-4.518999755E-1,-7.296999693E-1
3.099999844E1,1.642999947E-1,-9.406999946E-1,-9.059000015E-1
3.102000000E1,1.966999918E-1,-1.257099986E0,-6.505999565E-1
3.104000000E1,-5.713999867E-1,-6.690999866E-1,-4.724999964E-1
3.106999844E1,-9.589999914E-1,2.657999992E-1,-1.210699916E0
3.108999844E1,-6.319999695E-2,9.879999757E-1,-1.726099968E0
3.111000000E1,1.431599975E0,2.541899920E0,-1.695099950E0
3.113999844E1,1.728999913E-1,4.450999737E0,-1.761599898E0
3.115999844E1,-2.105700016E0,3.040299892E0,-1.133000016E0
3.117999844E1,-1.323300004E0,1.000800014E0,1.024699926E0
3.119999844E1,-7.020999789E-1,-1.206499934E0,2.538499832E0
3.121999844E1,-4.669999704E-2,-2.182299852E0,2.939999819E0
3.123999844E1,9.849999845E-2,-2.233500004E0,1.360299945E0
3.125999844E1,1.129999943E-2,-1.923399925E0,-2.404999882E-1
3.127999844E1,-1.867000014E-1,-1.434700012E0,-1.304999948E0
3.129999844E1,-4.503999949E-1,-9.074999690E-1,-1.554899931E0
3.131999844E1,-1.032899976E0,-7.105999589E-1,-1.093799949E0
3.133999844E1,-1.850299954E0,-2.463999987E-1,-2.264999896E-1
3.135999844E1,-2.323999882E0,4.206999838E-1,4.801999927E-1
3.137999844E1,-1.969699979E0,8.197000027E-1,1.295000017E-1
3.139999844E1,-1.554399967E0,1.213899970E0,-1.355999947E0
3.141999844E1,-1.233699918E0,1.825899959E0,-2.521699905E0
3.143999844E1,-9.630999565E-1,1.879799962E0,-2.689100027E0
3.145999844E1,-5.264999866E-1,9.516999722E-1,-2.348999977E-1
3.147999844E1,2.423999906E-1,1.415999979E-1,2.245699883E0
3.149999844E1,1.046000004E0,4.959999770E-2,2.707999945E0
3.151999844E1,1.392300010E0,2.176999897E-1,1.348299980E0
3.153999844E1,9.883999825E-1,5.676999688E-1,-8.569999784E-2
3.155999844E1,5.597000122E-1,8.826999664E-1,9.199999571E-1
3.157999844E1,4.363999963E-1,4.348999858E-1,2.761600018E0
3.159999844E1,5.242999792E-1,1.699999906E-3,3.923899889E0
3.161999844E1,7.267999649E-1,-4.318999946E-1,3.548799992E0
3.163999844E1,1.100799918E0,-5.417000055E-1,1.891099930E0
3.165999844E1,1.644299984E0,-7.178999782E-1,3.574999869E-1
3.167999844E1,1.937099934E0,-8.348000050E-1,-3.191999793E-1
3.169999844E1,1.837599993E0,-9.497999549E-1,-1.362299919E0
3.171999844E1,1.463899970E0,-7.849000096E-1,-1.813799977E0
3.173999844E1,9.440000057E-1,-4.889999926E-1,-1.500399947E0
3.175999844E1,6.739000082E-1,-4.244999886E-1,-1.385800004E0
3.177999844E1,6.388999820E-1,-8.789999783E-2,-1.479399920E0
3.179999844E1,7.461999655E-1,-7.829999924E-2,-1.377699971E0
3.181999844E1,8.554999828E-1,-2.892999947E-1,-9.248999953E-1
3.183999844E1,8.174999952E-1,-3.946000040E-1,-4.926999807E-1
3.185999844E1,7.781999707E-1,-2.870999873E-1,-4.134999812E-1
3.187999844E1,5.371999741E-1,-1.780999899E-1,-5.587999821E-1
3.189999844E1,6.539999694E-2,7.889999449E-2,-4.375999868E-1
3.191999844E1,-3.678999841E-1,3.619999886E-1,-1.992999911E-1
3.193999844E1,-6.765999794E-1,6.611999869E-1,-5.018000007E-1
3.195999844E1,-6.502000093E-1,9.758999944E-1,-6.712999940E-1
3.197999844E1,-3.044999838E-1,1.135399938E0,-5.606999993E-1
3.199999844E1,1.485999972E-1,9.981999993E-1,-3.843999803E-1
3.201999844E1,2.063999921E-1,3.711999953E-1,-1.802999973E-1
3.203999844E1,-1.943999976E-1,-8.579999954E-2,1.117299914E0
3.205999844E1,-3.596999943E-1,-2.902999818E-1,3.426599979E0
3.207999844E1,-4.439999908E-2,-5.005999804E-1,5.178999901E0
3.209999844E1,8.022999763E-1,-8.059999943E-1,3.321399927E0
3.211999844E1,1.085899949E0,-4.769999981E-1,-1.912999898E-1
3.213999844E1,1.855999976E-1,3.764999807E-1,-1.980299950E0
3.215999844E1,-1.339299917E0,1.300899982E0,-1.662899971E0
3.217999844E1,-2.370100021E0,2.024199963E0,9.119999409E-2
3.219999844E1,-2.682699919E0,2.657199860E0,1.606899977E0
3.221999844E1,-2.375999928E0,2.138599873E0,2.111799955E0
3.223999844E1,-1.731799960E0,1.129899979E0,1.452199936E0
3.225999844E1,-1.163499951E0,3.692999780E-1,6.865999699E-1
3.227999844E1,-9.698999524E-1,8.899999782E-3,1.867999882E-1
3.229999844E1,-8.616999984E-1,-8.980000019E-2,-5.562999845E-1
3.231999844E1,-7.867999673E-1,-2.459999919E-1,-1.099900007E0
3.233999844E1,-5.695999861E-1,-4.553000033E-1,-1.577399969E0
3.235999844E1,-3.711999953E-1,-4.893999994E-1,-1.622599959E0
3.237999844E1,-2.752999961E-1,-3.226999938E-1,-1.825199962E0
3.239999844E1,-4.677999914E-1,-4.189999774E-2,-1.675599933E0
3.242999844E1,-7.222999930E-1,1.561999917E-1,-1.450199962E0
3.244999844E1,-6.507999897E-1,2.124999911E-1,-1.483500004E0
3.246999844E1,-5.130999684E-1,1.609999985E-1,-1.323499918E0
3.248999844E1,-6.712999940E-1,-9.510000050E-2,-1.074599981E0
3.250999844E1,-8.245999813E-1,-2.356999964E-1,-5.368999839E-1
3.252999844E1,-1.177999973E0,-3.614999950E-1,3.107999861E-1
3.254999844E1,-1.475799918E0,-1.043999940E-1,1.565799952E0
3.256999844E1,-1.270799994E0,3.434999883E-1,1.802799940E0
3.258999844E1,-4.955999851E-1,4.786999822E-1,1.356400013E0
3.261000000E1,2.651000023E-1,5.259999633E-1,7.059999555E-2
3.263000000E1,6.245999932E-1,6.620000005E-1,-6.308000088E-1
3.265999844E1,1.462399960E0,-1.151999980E-1,8.858000040E-1
3.267999844E1,2.156399965E0,-6.875000000E-1,1.364599943E0
3.269999844E1,2.391499996E0,-7.253999710E-1,4.192999899E-1
3.271999844E1,2.027799845E0,-6.595999599E-1,-3.601000011E-1
3.273999844E1,1.493399978E0,-1.006600022E0,7.856000066E-1
3.275999844E1,1.261799932E0,-1.196099997E0,3.339099884E0
3.277999844E1,1.369599938E0,-9.447000027E-1,4.978899956E0
3.279999844E1,9.544999599E-1,-2.674999833E-1,3.725099802E0
3.281999844E1,9.689999819E-1,7.141000032E-1,8.892999887E-1
3.283999844E1,1.379799962E0,9.395999908E-1,-1.120800018E0
3.285999844E1,2.155499935E0,4.034000039E-1,-2.364599943E0
3.287999844E1,2.563599825E0,-8.102999926E-1,-2.053900003E0
3.289999844E1,2.414399862E0,-1.510699987E0,-1.062099934E0
3.291999844E1,1.870499969E0,-1.787400007E0,-1.159999985E-2
3.293999844E1,1.416700006E0,-2.020200014E0,1.199999973E-1
3.295999844E1,1.050799966E0,-1.864599943E0,-3.743999898E-1
3.297999844E1,7.374999523E-1,-1.761500001E0,-8.197999597E-1
3.299999844E1,4.526999891E-1,-1.355199933E0,-1.127599955E0
3.301999844E1,2.226999998E-1,-7.840999961E-1,-1.699499965E0
3.303999844E1,1.428000033E-1,-4.025000036E-1,-2.206099987E0
3.305999844E1,4.839999974E-2,5.399999768E-2,-2.490700006E0
3.307999844E1,4.989999905E-2,3.660999835E-1,-2.535399914E0
3.309999844E1,1.099999994E-3,4.567999840E-1,-2.184000015E0
3.311999844E1,2.889999934E-2,6.650000066E-2,-1.604399920E0
3.313999844E1,1.530999988E-1,-5.184999704E-1,-6.369000077E-1
3.315999844E1,5.799999833E-2,-1.019400001E0,4.844999909E-1
3.317999844E1,-7.930000126E-2,-9.894999862E-1,1.191900015E0
3.319999844E1,-3.950999975E-1,-5.325999856E-1,1.354499936E0
3.321999844E1,-6.686999798E-1,-1.820999980E-1,1.119300008E0
3.323999844E1,-1.224999949E-1,5.379999802E-2,9.265999794E-1
3.325999844E1,2.997999787E-1,-1.269999985E-2,-2.434999943E-1
3.327999844E1,-7.260999680E-1,3.066000044E-1,-1.111599922E0
3.329999844E1,-1.937599897E0,1.921099901E0,3.911999762E-1
3.331999844E1,-1.866799951E0,2.782599926E0,2.755699873E0
3.333999844E1,-6.729999781E-1,2.017099857E0,3.133699894E0
3.335999844E1,-2.184000015E-1,1.001699924E0,2.247299910E0
3.337999844E1,-1.223799944E0,1.742699981E0,1.964599967E0
3.339999844E1,-2.227099895E0,2.951200008E0,2.056499958E0
3.341999844E1,-2.151399851E0,2.882900000E0,2.443199873E0
3.343999844E1,-1.052999973E0,1.807599902E0,2.251399994E0
3.345999844E1,4.842000008E-1,5.175999999E-1,1.027500033E0
3.347999844E1,1.793199897E0,-3.761000037E-1,-3.816999793E-1
3.349999844E1,2.608999968E0,-1.044700027E0,-1.990899920E0
3.351999844E1,2.739599943E0,-1.069499969E0,-3.125599861E0
3.353999844E1,2.034499884E0,-6.506999731E-1,-2.410399914E0
3.355999844E1,8.346999884E-1,1.929999888E-1,-1.266399980E0
3.357999844E1,-1.659999937E-1,7.744999528E-1,-8.944000006E-1
3.359999844E1,-7.556999922E-1,1.229699969E0,-1.033200026E0
3.362000156E1,-8.809999824E-1,1.191699982E0,-6.294999719E-1
3.364999844E1,-6.337000132E-1,4.825999737E-1,-1.818999946E-1
3.366999844E1,-7.800999880E-1,3.588999808E-1,-2.419999987E-1
3.368999844E1,-9.452999830E-1,-4.160000011E-2,-2.568999827E-1
3.370999844E1,-1.126799941E0,-4.380000010E-2,7.599999662E-3
3.372999844E1,-1.224399924E0,-5.669999868E-2,5.582999587E-1
3.375000000E1,-5.981000066E-1,-1.821999997E-1,6.532999873E-1
3.377999844E1,7.849999517E-2,-1.026000008E-1,-1.094699979E0
3.379999844E1,-1.331000030E-1,8.949999511E-2,-4.369999766E-1
3.381999844E1,-1.846999973E-1,-6.550999880E-1,1.988599896E0
3.383999844E1,7.154999971E-1,-1.186299920E0,2.999399900E0
3.385999844E1,1.838099957E0,-1.489699960E0,-1.140999943E-1
3.387999844E1,2.053499937E0,-1.666000009E0,-2.646199942E0
3.389999844E1,9.395999908E-1,-2.138999939E0,-2.495300055E0
3.391999844E1,-9.106000066E-1,-2.268599987E0,2.043499947E0
3.393999844E1,-2.292599916E0,-1.632499933E0,5.900399685E0
3.396000000E1,-2.421299934E0,-9.243999720E-1,5.789899826E0
3.398000000E1,-1.865399957E0,-5.719999969E-2,2.116799831E0
3.400000000E1,-1.320299983E0,8.578999639E-1,-8.077999949E-1
3.402000000E1,-9.734999537E-1,1.386399984E0,-2.759299994E0
3.404000000E1,-6.912999749E-1,8.939999938E-1,-3.719399929E0
3.406999844E1,-6.111999750E-1,-5.181999803E-1,-2.315799952E0
3.408999844E1,-4.757999778E-1,-7.993999720E-1,-1.061900020E0
3.410999844E1,-2.409999967E-1,-6.956999898E-1,-8.448999524E-1
3.412999844E1,-3.500000015E-2,-2.126999944E-1,-1.176699996E0
3.414999844E1,1.524000019E-1,2.255999893E-1,-1.180400014E0
3.416999844E1,6.545999646E-1,2.233999968E-1,-6.797999740E-1
3.418999844E1,1.258099914E0,1.700999886E-1,-2.639999986E-2
3.420999844E1,1.694700003E0,6.150000095E-1,8.500000089E-2
3.422999844E1,1.817399979E0,1.314299941E0,-2.180000022E-2
3.424999844E1,2.018399954E0,1.532099962E0,6.700000167E-2
3.426999844E1,2.121199846E0,1.673599958E0,-7.759999484E-2
3.428999844E1,2.008699894E0,1.575099945E0,-2.224999964E-1
3.430999844E1,1.638700008E0,1.552500010E0,1.335999966E-1
3.432999844E1,1.178900003E0,1.594900012E0,5.471999645E-1
3.434999844E1,1.161399961E0,1.503199935E0,2.574000061E-1
3.436999844E1,1.438499928E0,1.311800003E0,-1.983999908E-1
3.438999844E1,1.688699961E0,1.430499911E0,-4.872999787E-1
3.440999844E1,1.484699965E0,1.419399977E0,-3.957999945E-1
3.442999844E1,1.192999959E0,1.374599934E0,-2.962999940E-1
3.444999844E1,9.936999679E-1,1.062799931E0,1.527499914E0
3.446999844E1,1.345499992E0,2.843999863E-1,4.038700104E0
3.448999844E1,1.564700007E0,-1.063799977E0,5.600599766E0
3.451000156E1,1.160899997E0,-2.008499861E0,3.926199913E0
3.453999844E1,-9.763000011E-1,-1.424299955E0,1.393399954E0
3.455999844E1,-2.104099989E0,-1.220499992E0,1.685199976E0
3.457999844E1,-2.187500000E0,-1.339399934E0,2.253200054E0
3.459999844E1,-1.612299919E0,-1.533999920E0,1.355000019E0
3.461999844E1,-8.922999501E-1,-1.312099934E0,-3.518999815E-1
3.463999844E1,-5.200999975E-1,-7.854999900E-1,-1.732399940E0
3.465999844E1,-3.899999857E-1,-6.189999729E-2,-2.887099981E0
3.467999844E1,4.799999762E-3,4.080999792E-1,-3.732100010E0
3.470000000E1,5.152999759E-1,4.608999789E-1,-3.865999937E0
3.472999844E1,7.963999510E-1,-2.965999842E-1,-2.757400036E0
3.474999844E1,7.718999982E-1,-6.396999955E-1,-1.897599936E0
3.476999844E1,6.700999737E-1,-9.628999829E-1,-6.280999780E-1
3.478999844E1,2.750999928E-1,-5.992999673E-1,-4.629999772E-2
3.480999844E1,3.260000050E-2,-2.398999929E-1,-8.071999550E-1
3.482999844E1,-5.549999699E-2,2.531999946E-1,-1.634199977E0
3.484999844E1,-2.311999947E-1,7.860999703E-1,-1.475199938E0
3.486999844E1,-3.452000022E-1,1.129999995E0,-1.240800023E0
3.489000000E1,-1.072999984E-1,1.049600005E0,-9.183999896E-1
3.491999844E1,3.879999742E-2,3.080999851E-1,-5.701000094E-1
3.493999844E1,-4.190999866E-1,8.980000019E-2,-4.855999947E-1
3.495999844E1,-1.077999949E0,2.967999876E-1,7.277999520E-1
3.497999844E1,-1.525699973E0,8.935999870E-1,2.358199835E0
3.499999844E1,-1.604499936E0,1.808200002E0,2.795799971E0
3.501999844E1,-1.467099905E0,2.344399929E0,6.283999681E-1
3.503999844E1,-1.498399973E0,2.605099916E0,-1.246299982E0
3.505999844E1,-1.628199935E0,2.369299889E0,-1.491899967E0
3.507999844E1,-1.029699922E0,9.733999968E-1,1.904699922E0
3.509999844E1,1.782999933E-1,-5.076999664E-1,2.895399809E0
3.511999844E1,1.477699995E0,-1.005200028E0,1.659299970E0
3.513999844E1,2.371899843E0,-1.713899970E0,1.092199922E0
3.515999844E1,2.503099918E0,-2.287499905E0,3.117300034E0
3.517999844E1,2.027099848E0,-1.815499902E0,4.481299877E0
3.519999844E1,2.261499882E0,-1.211699963E0,2.725199938E0
3.521999844E1,2.736199856E0,-1.549999952E0,4.790000021E-1
3.523999844E1,2.812099934E0,-1.529500008E0,-1.508299947E0
3.525999844E1,2.216599941E0,-1.254299998E0,-3.242199898E0
3.527999844E1,1.325099945E0,-1.116099954E0,-3.429499865E0
3.529999844E1,1.571999937E-1,-1.079200029E0,-2.138299942E0
3.531999844E1,-9.271999598E-1,-5.324000120E-1,-8.236999512E-1
3.533999844E1,-1.610499978E0,-2.115999907E-1,-3.089999966E-2
3.535999844E1,-1.725099921E0,-2.730999887E-1,-1.930999905E-1
3.537999844E1,-1.594599962E0,-4.479999840E-1,-3.719999790E-1
3.539999844E1,-1.539899945E0,-6.101999879E-1,-3.443999887E-1
3.541999844E1,-1.644299984E0,-2.423999906E-1,-4.398999810E-1
3.543999844E1,-1.800999999E0,2.716000080E-1,-6.908000112E-1
3.546000000E1,-1.869799972E0,6.033999920E-1,-7.754999995E-1
3.548999844E1,-1.139899969E0,5.012999773E-1,-6.291999817E-1
3.550999844E1,-4.576999843E-1,1.659999974E-2,-8.973000050E-1
3.552999844E1,-1.194999963E-1,-1.074000001E-1,-9.891999960E-1
3.554999844E1,-2.358999997E-1,-2.504000068E-1,-7.987999916E-1
3.556999844E1,-3.400000036E-1,4.649999738E-2,-2.787999809E-1
3.558999844E1,-1.987999976E-1,4.045999944E-1,-7.746999860E-1
3.560999844E1,-5.769000053E-1,3.544999957E-1,-1.523299932E0
3.562999844E1,-6.753999591E-1,2.888999879E-1,3.962000012E-1
3.564999844E1,-2.099999925E-3,-1.027999967E-1,2.481299877E0
3.566999844E1,7.401999831E-1,-3.208999932E-1,2.820299864E0
3.569000000E1,5.924999714E-1,-5.708000064E-1,1.886899948E0
3.571999844E1,-1.648899913E0,5.145999789E-1,5.918999910E-1
3.573999844E1,-2.837999821E0,1.273100019E0,1.186100006E0
3.575999844E1,-2.797099829E0,1.819700003E0,1.111599922E0
3.577999844E1,-2.008399963E0,5.518000126E-1,4.413999915E-1
3.579999844E1,-1.121399999E0,-3.427000046E-1,-1.545999944E-1
3.582000000E1,-6.617000103E-1,-2.854999900E-1,-1.134500027E0
3.584999844E1,-3.657999933E-1,8.540000021E-2,-2.562299967E0
3.586999844E1,-8.839999884E-2,3.093999922E-1,-3.010099888E0
3.589000000E1,4.120999873E-1,3.849999905E-1,-2.902799845E0
3.591000000E1,9.206999540E-1,2.496999949E-1,-2.323400021E0
3.593999844E1,1.389500022E0,3.965999782E-1,-1.017400026E0
3.596000000E1,1.331900001E0,8.266999722E-1,-2.378999889E-1
3.598999844E1,1.673399925E0,1.028200030E0,-2.520000041E-1
3.600999844E1,1.865700006E0,7.621999979E-1,3.832999766E-1
3.602999844E1,1.680299997E0,7.138999701E-1,7.928000093E-1
3.604999844E1,1.291700006E0,9.387999773E-1,1.240399957E0
3.606999844E1,6.026999950E-1,1.475700021E0,6.570000052E-1
3.609000312E1,2.955999970E-1,1.870299935E0,5.925999880E-1
3.611999844E1,1.547299981E0,-5.676000118E-1,3.865099907E0
3.613999844E1,2.838399887E0,-1.631599903E0,3.958400011E0
3.616000000E1,3.259999990E0,-1.648599982E0,9.398999810E-1
3.619000000E1,1.649299979E0,-8.959999681E-2,-2.350800037E0
3.621999844E1,-2.009999901E-1,-4.306999743E-1,4.325999916E-1
3.623999844E1,-6.281999946E-1,-5.740999579E-1,2.199499846E0
3.625999844E1,-2.534999847E-1,-8.589999676E-1,2.779099941E0
3.627999844E1,-4.699999932E-3,-1.129999995E0,3.102799892E0
3.629999844E1,-2.279999852E-2,-9.677999616E-1,2.292000055E0
3.631999844E1,-2.830999792E-1,-3.658999801E-1,-1.409000009E-1
3.633999844E1,-6.802999973E-1,1.420999914E-1,-2.028199911E0
3.635999844E1,-1.416999936E0,5.936999917E-1,-3.099399805E0
3.637999844E1,-1.964999914E0,1.142499924E0,-3.133199930E0
3.639999844E1,-1.986499906E0,8.980000019E-1,-2.289700031E0
3.641999844E1,-1.686800003E0,3.461000025E-1,-1.604900002E0
3.643999844E1,-1.285099983E0,-4.230000079E-2,-1.410200000E0
3.645999844E1,-1.489099979E0,5.376999974E-1,-1.235199928E0
3.647999844E1,-1.768599987E0,1.129699945E0,-8.845999837E-1
3.649999844E1,-1.810799956E0,1.448799968E0,-8.086000085E-1
3.651999844E1,-1.379699945E0,1.387699962E0,-8.804000020E-1
3.653999844E1,-7.448999882E-1,1.129400015E0,-3.543999791E-1
3.655999844E1,-2.426999956E-1,8.971999884E-1,3.079999983E-1
3.657999844E1,3.718999922E-1,7.540999651E-1,5.888999701E-1
3.659999844E1,7.562999725E-1,5.001999736E-1,8.112999797E-1
3.661999844E1,8.513000011E-1,5.582000017E-1,9.456999898E-1
3.663999844E1,7.913999557E-1,8.438000083E-1,1.306199908E0
3.665999844E1,2.263999879E-1,1.060899973E0,1.530200005E0
3.668000000E1,-2.351000011E-1,9.108999968E-1,2.501499891E0
3.670000000E1,-3.078999817E-1,3.883000016E-1,3.966899872E0
3.672999844E1,3.132999837E-1,-4.427999854E-1,5.122799873E0
3.675000000E1,8.723999858E-1,-6.990999579E-1,3.789699793E0
3.677999844E1,9.757999778E-1,-2.775000036E-1,-2.946999967E-1
3.679999844E1,2.171999961E-1,-1.853999943E-1,-1.758999944E0
3.681999844E1,-9.343999624E-1,-2.859999985E-2,-3.788000047E-1
3.683999844E1,-1.564700007E0,-5.749999732E-2,1.423900008E0
3.685999844E1,-1.476300001E0,-2.675999999E-1,2.316200018E0
3.687999844E1,-7.971000075E-1,-6.784999967E-1,1.550799966E0
3.690000000E1,4.529999942E-2,-9.122999907E-1,-5.859999731E-2
3.692999844E1,2.478999943E-1,-4.452999830E-1,-2.087899923E0
3.694999844E1,2.365999967E-1,-6.329999864E-2,-3.017299891E0
3.696999844E1,1.331000030E-1,2.604999840E-1,-3.583499908E0
3.698999844E1,6.049999967E-2,3.981999755E-1,-3.444399834E0
3.700999844E1,1.933999956E-1,3.283999860E-1,-2.972999811E0
3.702999844E1,3.833999932E-1,1.587999910E-1,-2.678499937E0
3.704999844E1,3.965999782E-1,1.281999946E-1,-2.139199972E0
3.706999844E1,3.500999808E-1,2.004999965E-1,-1.629299998E0
3.709000000E1,2.793999910E-1,3.111000061E-1,-9.038999677E-1
3.711000000E1,6.489999592E-2,4.535000026E-1,-2.175999880E-1
3.713999844E1,-3.564999998E-1,6.283000112E-1,1.105299950E0
3.715999844E1,-6.349999905E-1,7.929999828E-1,1.623999953E0
3.717999844E1,-1.043499947E0,9.641999602E-1,2.220799923E0
3.719999844E1,-1.384499907E0,1.130800009E0,3.043099880E0
3.721999844E1,-1.316299915E0,1.131799936E0,4.052700043E0
3.723999844E1,-5.054999590E-1,1.523100019E0,2.622599840E0
3.725999844E1,4.633999765E-1,1.824199915E0,-8.819999546E-2
3.727999844E1,9.900999665E-1,1.820899963E0,-8.179000020E-1
3.729999844E1,1.223099947E0,1.429999948E0,4.672999978E-1
3.731999844E1,1.617599964E0,5.511999726E-1,1.346699953E0
3.733999844E1,1.643700004E0,4.300999939E-1,1.000999957E-1
3.735999844E1,9.481999874E-1,4.784999788E-1,1.388999969E-1
3.737999844E1,3.159999847E-2,2.944000065E-1,1.618699908E0
3.739999844E1,-2.985000014E-1,-4.053999782E-1,3.315599918E0
3.741999844E1,-3.377999961E-1,-1.288999915E0,4.292399883E0
3.743999844E1,-2.662000060E-1,-1.802299976E0,3.517999887E0
3.745999844E1,-2.046999931E-1,-1.273299932E0,9.470999837E-1
3.747999844E1,-2.389999852E-2,-8.352999687E-1,-1.507200003E0
3.749999844E1,2.180999964E-1,-3.798999786E-1,-3.691799879E0
3.751999844E1,3.122999966E-1,-1.743000001E-1,-4.825399876E0
3.753999844E1,2.469999939E-1,-4.609999806E-2,-5.241600037E0
3.755999844E1,-1.622999907E-1,2.357999980E-1,-4.651700020E0
3.757999844E1,-4.608999789E-1,1.438999921E-1,-2.616699934E0
3.759999844E1,-4.723999798E-1,-4.301999807E-1,-9.197999835E-1
3.761999844E1,-2.126999944E-1,-8.547999859E-1,-2.557999790E-1
3.763999844E1,-9.879999608E-2,-7.321999669E-1,-7.511999607E-1
3.765999844E1,-2.081999928E-1,-6.728000045E-1,-8.924999833E-1
3.767999844E1,-3.692999780E-1,-7.606999874E-1,-8.280000091E-2
3.769999844E1,-3.743000031E-1,-6.231999993E-1,3.728999794E-1
3.771999844E1,-1.692000031E-1,-2.732000053E-1,-4.171999991E-1
3.773999844E1,1.224999949E-1,-1.827999949E-1,-9.832999706E-1
3.775999844E1,2.498999983E-1,1.599999960E-3,-6.183999777E-1
3.777999844E1,3.658999801E-1,2.106999904E-1,-4.797999859E-1
3.779999844E1,-9.209999442E-2,-4.600000102E-3,-4.089999795E-1
3.781999844E1,-8.091999888E-1,5.099999905E-2,4.038999975E-1
3.783999844E1,-7.660999894E-1,-1.909999996E-1,2.705199957E0
3.785999844E1,-1.700999886E-1,-9.844999909E-1,4.088200092E0
3.787999844E1,4.777999818E-1,-1.831999898E0,4.436899662E0
3.789999844E1,1.807999909E-1,-2.017400026E0,4.259799957E0
3.791999844E1,-6.064000130E-1,-1.111299992E0,3.212100029E0
3.793999844E1,-1.050099969E0,1.999999862E-3,1.163699985E0
3.795999844E1,-1.187899947E0,3.564999998E-1,2.689999901E-2
3.797999844E1,-1.045099974E0,4.689999819E-1,-3.179999813E-2
3.799999844E1,-7.999999523E-1,1.944999993E-1,1.737999916E-1
3.801999844E1,-6.340000033E-1,7.140000165E-2,-3.853999972E-1
3.803999844E1,-5.408999920E-1,2.321999967E-1,-1.631099939E0
3.805999844E1,-4.319999814E-1,4.793999791E-1,-2.670699835E0
3.807999844E1,-1.657999903E-1,6.876999736E-1,-3.053599834E0
3.809999844E1,1.074999943E-1,7.930999994E-1,-3.270200014E0
3.811999844E1,4.159999788E-1,6.281999946E-1,-3.035699844E0
3.813999844E1,8.525999784E-1,2.805999815E-1,-2.007099867E0
3.815999844E1,7.221999764E-1,4.415999949E-1,-6.940999627E-1
3.817999844E1,7.258999944E-1,6.610999703E-1,1.485999972E-1
3.819999844E1,8.772000074E-1,5.976999998E-1,4.626999795E-1
3.821999844E1,9.638999701E-1,8.075999618E-1,9.144999981E-1
3.823999844E1,9.459999800E-1,1.156899929E0,1.464699984E0
3.825999844E1,7.091000080E-1,1.445199966E0,8.877999783E-1
3.827999844E1,2.158999890E-1,1.110899925E0,1.320699930E0
3.830000000E1,-8.700000122E-3,2.322999984E-1,3.773699999E0
3.832000000E1,3.030000031E-1,-4.314000010E-1,6.886799812E0
3.834999844E1,1.707099915E0,-6.960999966E-1,2.596299887E0
3.836999844E1,2.042599916E0,-8.320000023E-2,-1.954999924E0
3.839000000E1,1.684299946E0,5.227999687E-1,-4.187799931E0
3.842000000E1,4.659999907E-2,6.154999733E-1,-3.182999790E-1
3.845000000E1,-8.429999948E-1,-3.390000015E-2,3.143899918E0
3.847000000E1,-5.270000100E-1,-8.313999772E-1,4.224100113E0
3.850000000E1,9.945999980E-1,-1.670799971E0,1.347800016E0
3.853000000E1,1.252399921E0,-1.295499921E0,-1.891999960E0
3.855000000E1,9.161999822E-1,-7.773000002E-1,-3.187099934E0
3.857999844E1,3.603000045E-1,-2.101999968E-1,-4.222399712E0
3.859999844E1,9.319999814E-2,-1.736999899E-1,-3.580899954E0
3.861999844E1,1.241999939E-1,-4.843999743E-1,-2.630800009E0
3.863999844E1,2.886999846E-1,-9.924999475E-1,-2.056999922E0
3.865999844E1,3.854999840E-1,-9.672999978E-1,-2.084599972E0
3.868000000E1,3.140999973E-1,-7.842999697E-1,-2.574499846E0
3.870000000E1,1.463999897E-1,-7.193999887E-1,-2.468199968E0
3.872000000E1,-1.261000037E-1,-7.027999759E-1,-1.500699997E0
3.874000000E1,-4.537999928E-1,-7.415999770E-1,-7.317000031E-1
3.876999844E1,-7.665999532E-1,-2.245999873E-1,-5.900000036E-2
3.878999844E1,-9.549999833E-1,1.509999931E-1,5.069999769E-2
3.880999844E1,-1.379799962E0,3.175999820E-1,1.108299971E0
3.883000000E1,-1.510100007E0,8.179999888E-2,3.415400028E0
3.885999844E1,-2.651999891E-1,-7.339000106E-1,6.543099880E0
3.887999844E1,9.110999703E-1,-1.311299920E0,4.109399796E0
3.890000000E1,5.544999838E-1,-7.917000055E-1,4.902999997E-1
3.892999844E1,-1.661899924E0,5.787999630E-1,-9.669999778E-2
3.894999844E1,-2.281499863E0,6.607999802E-1,1.035099983E0
3.896999844E1,-2.265399933E0,7.038999796E-1,1.699399948E0
3.898999844E1,-1.829800010E0,5.203999877E-1,1.437999964E0
3.900999844E1,-1.112499952E0,4.889999926E-1,-4.999999888E-3
3.902999844E1,-4.549999833E-1,6.173999906E-1,-1.693899989E0
3.904999844E1,-7.180000097E-2,7.037999630E-1,-3.155499935E0
3.906999844E1,4.699999932E-3,8.234999776E-1,-4.056900024E0
3.908999844E1,3.229999915E-2,1.074100018E0,-4.076200008E0
3.910999844E1,5.309999734E-2,1.227999926E0,-3.460299969E0
3.913000000E1,2.017000020E-1,1.212499976E0,-2.855299950E0
3.915999844E1,5.805999637E-1,8.411999941E-1,-1.044799924E0
3.917999844E1,8.599999547E-1,4.375000000E-1,1.203999966E-1
3.919999844E1,1.079800010E0,1.549999975E-2,1.385299921E0
3.921999844E1,9.379999638E-1,-6.129999831E-2,2.769299984E0
3.923999844E1,8.040999770E-1,2.155999988E-1,3.182299852E0
3.925999844E1,7.931999564E-1,5.631999969E-1,2.102699995E0
3.927999844E1,6.685000062E-1,9.527999759E-1,1.267499924E0
3.929999844E1,4.025999904E-1,1.097899914E0,1.109599948E0
3.931999844E1,9.200000018E-2,1.310299993E0,1.305299997E0
3.933999844E1,-2.917999923E-1,1.239499927E0,1.119099975E0
3.935999844E1,-3.141999841E-1,8.644999862E-1,2.110800028E0
3.937999844E1,4.320999980E-1,2.461999953E-1,3.682299852E0
3.939999844E1,1.580099940E0,-1.030000001E-1,2.829699993E0
3.941999844E1,2.286499977E0,1.425999999E-1,-1.826999933E-1
3.943999844E1,2.151799917E0,4.918999970E-1,-2.084699869E0
3.945999844E1,1.712199926E0,5.997999907E-1,-2.002399921E0
3.947999844E1,8.571999669E-1,2.811000049E-1,-5.409999937E-2
3.949999844E1,2.184999883E-1,2.653000057E-1,2.344399929E0
3.951999844E1,1.819999889E-2,-1.406999975E-1,4.488100052E0
3.953999844E1,1.999000013E-1,-9.673999548E-1,4.958299637E0
3.955999844E1,7.651999593E-1,-1.311900020E0,2.954799891E0
3.957999844E1,1.035099983E0,-9.460999966E-1,1.138999984E-1
3.959999844E1,9.945999980E-1,-4.925999939E-1,-1.800099969E0
3.961999844E1,7.390999794E-1,-3.189999983E-2,-3.074899912E0
3.963999844E1,6.732999682E-1,1.708000004E-1,-3.571399927E0
3.965999844E1,6.193999648E-1,-9.409999847E-2,-3.634599924E0
3.967999844E1,5.651000142E-1,-2.357999980E-1,-3.160099983E0
3.969999844E1,3.419999778E-1,-2.188999951E-1,-2.540299892E0
3.971999844E1,2.381999940E-1,-3.204999864E-1,-2.158499956E0
3.973999844E1,2.558999956E-1,-5.974000096E-1,-2.190599918E0
3.976000000E1,3.894999921E-1,-6.150999665E-1,-2.478699923E0
3.978999844E1,3.048999906E-1,-4.308999777E-1,-2.559099913E0
3.981000000E1,-1.231999993E-1,-2.064999938E-1,-1.951099992E0
3.983000000E1,-1.343999952E-1,-2.210000008E-1,-1.284500003E0
3.985000000E1,-6.309999824E-1,-2.732999921E-1,-3.050999939E-1
3.988000000E1,-1.178499937E0,3.371999860E-1,6.755999923E-1
3.990000000E1,-1.225999951E0,3.674999774E-1,9.078999758E-1
3.992999844E1,-1.434999943E0,-1.996999979E-1,3.730899811E0
3.994999844E1,-1.190299988E0,-6.815999746E-1,5.332200050E0
3.996999844E1,-6.014999747E-1,-8.822999597E-1,5.201600075E0
3.998999844E1,-9.169999510E-2,-9.833999872E-1,3.032699823E0
4.000999844E1,-5.666999817E-1,-1.203499913E0,2.297600031E0
4.002999844E1,-1.545099974E0,-4.150999784E-1,1.907699943E0
4.005000000E1,-2.051699877E0,3.091999888E-1,1.030099988E0
4.007999844E1,-1.961699963E0,8.874999881E-1,-6.398999691E-1
4.009999844E1,-1.352599978E0,8.971999884E-1,-1.746299982E0
4.011999844E1,-7.195999622E-1,8.655999899E-1,-2.502199888E0
4.013999844E1,-1.827999949E-1,8.815000057E-1,-3.346899986E0
4.015999844E1,3.219999745E-2,8.471999764E-1,-3.866899967E0
4.017999844E1,8.249999583E-2,9.233999848E-1,-3.768299818E0
4.019999844E1,1.437999904E-1,8.915999532E-1,-3.326299906E0
4.021999844E1,2.581999898E-1,7.757999897E-1,-2.737900019E0
4.023999844E1,6.498000026E-1,3.236999810E-1,-1.954199910E0
4.025999844E1,1.005200028E0,1.982999891E-1,-9.949999452E-1
4.027999844E1,1.171999931E0,1.942999959E-1,-5.275999904E-1
4.029999844E1,1.229099989E0,1.004000008E-1,-1.973999888E-1
4.031999844E1,1.021099925E0,4.011999965E-1,3.892000020E-1
4.033999844E1,7.657999992E-1,5.217999816E-1,1.191999912E0
4.035999844E1,7.612999678E-1,5.185999870E-1,1.936499953E0
4.037999844E1,8.023999929E-1,3.495000005E-1,2.504799843E0
4.039999844E1,3.828999996E-1,2.567999959E-1,2.750000000E0
4.041999844E1,-4.386999905E-1,1.660999954E-1,3.349599838E0
4.044000000E1,-8.697999716E-1,1.934999973E-1,5.021599770E0
4.046000000E1,-5.400999784E-1,-2.987999916E-1,6.212899685E0
4.048999844E1,9.941999912E-1,-9.631999731E-1,3.709100008E0
4.050999844E1,1.286899924E0,-4.857999980E-1,1.512999982E-1
4.052999844E1,1.254799962E0,2.813999951E-1,-3.194499969E0
4.054999844E1,8.053999543E-1,1.185799956E0,-4.994499683E0
4.056999844E1,4.600000009E-2,1.537400007E0,-3.790599823E0
4.058999844E1,-5.634999871E-1,1.081399918E0,-8.011999726E-1
4.060999844E1,-4.239999950E-1,3.526999950E-1,1.364199996E0
4.062999844E1,-8.599999361E-3,-5.834999681E-1,3.611299992E0
4.064999844E1,3.050000072E-1,-1.275599957E0,4.823599815E0
4.066999844E1,8.342999816E-1,-1.510199904E0,3.697499990E0
4.068999844E1,1.146999955E0,-1.078199983E0,7.009999752E-1
4.070999844E1,1.122499943E0,-5.216999650E-1,-1.552599907E0
4.072999844E1,7.972999811E-1,-3.859999776E-2,-2.596400023E0
4.074999844E1,4.921999872E-1,3.439999744E-2,-2.480700016E0
4.076999844E1,3.025999963E-1,-1.330000013E-1,-2.247499943E0
4.078999844E1,2.320999950E-1,-2.116999924E-1,-2.656599998E0
4.080999844E1,2.145999968E-1,-2.168999910E-1,-3.053099871E0
4.082999844E1,1.418000013E-1,-3.137999773E-1,-3.090699911E0
4.084999844E1,5.169999972E-2,-3.134999871E-1,-3.042099953E0
4.086999844E1,-7.669999450E-2,-3.386999965E-1,-2.615299940E0
4.088999844E1,-2.931999862E-1,-5.949999690E-1,-2.437799931E0
4.090999844E1,-4.532999992E-1,-8.886999488E-1,-1.452799916E0
4.092999844E1,-8.061999679E-1,-7.885999680E-1,3.052999973E-1
4.094999844E1,-1.338299990E0,-5.759999901E-2,2.784999907E-1
4.096999844E1,-2.224699974E0,4.716999829E-1,2.062999904E-1
4.098999844E1,-1.957699895E0,5.094999671E-1,4.088699818E0
4.100999844E1,-1.217999980E-1,-6.026999950E-1,6.041199684E0
4.102999844E1,1.705699921E0,-2.070999861E0,5.821199894E0
4.104999844E1,2.029599905E0,-2.795799971E0,4.514299870E0
4.106999844E1,9.301999807E-1,-2.963399887E0,4.152299881E0
4.108999844E1,-5.691999793E-1,-1.760899901E0,3.177199841E0
4.110999844E1,-2.095799923E0,-2.360999882E-1,1.951799989E0
4.113000000E1,-2.467799902E0,2.965999842E-1,1.017499924E0
4.115999844E1,-1.442600012E0,3.766999841E-1,-1.610899925E0
4.117999844E1,-8.263999820E-1,4.545999765E-1,-2.495100021E0
4.119999844E1,-1.634999961E-1,5.379999802E-2,-3.058599949E0
4.121999844E1,-5.040000007E-2,-1.658999920E-1,-2.888599873E0
4.123999844E1,1.125999987E-1,-2.347999960E-1,-2.325700045E0
4.125999844E1,-1.603000015E-1,-3.542000055E-1,-1.732399940E0
4.127999844E1,-3.197000027E-1,-8.449999988E-2,-1.803299904E0
4.129999844E1,1.216999963E-1,-2.230999917E-1,-1.396600008E0
4.131999844E1,5.945000052E-1,-6.692999601E-1,-1.032199979E0
4.133999844E1,7.177999616E-1,-6.200999618E-1,-8.163999915E-1
4.135999844E1,2.056999952E-1,-2.161999941E-1,-1.247499943E0
4.137999844E1,2.425999939E-1,4.104000032E-1,-1.393399954E0
4.139999844E1,-7.264999747E-1,-1.577000022E-1,-1.930199981E0
4.141999844E1,5.622999668E-1,2.838999927E-1,2.559999824E-1
4.143999844E1,2.374999970E-1,1.353999972E0,3.289999813E-2
4.145999844E1,4.799000025E-1,1.918899894E0,-8.025999665E-1
4.147999844E1,3.895999789E-1,1.729499936E0,-5.773999691E-1
4.150000469E1,3.280000016E-2,1.175899982E0,3.813000023E-1
4.152999844E1,1.249199986E0,-1.518299937E0,7.906599998E0
4.154999844E1,1.080399990E0,-2.049299955E0,4.968899727E0
4.156999844E1,1.403800011E0,-1.498000026E-1,1.263299942E0
4.158999844E1,1.501599908E0,8.441999555E-1,-2.244299889E0
4.160999844E1,1.277899981E0,1.012400031E0,-3.503099918E0
4.162999844E1,8.360999823E-1,6.035999656E-1,-2.755399942E0
4.164999844E1,-2.349999994E-1,-4.238999784E-1,-5.350000039E-2
4.166999844E1,-8.453999758E-1,-9.348999858E-1,3.025699854E0
4.169000000E1,-1.146399975E0,-8.799999952E-1,4.031599998E0
4.171999844E1,-3.100000024E-1,-8.273999691E-1,1.006699920E0
4.173999844E1,2.047999948E-1,-4.637999833E-1,-1.528699994E0
4.175999844E1,3.543999791E-1,-6.069999933E-2,-3.239799976E0
4.177999844E1,3.883999884E-1,4.287000000E-1,-4.191400051E0
4.179999844E1,9.559999406E-2,7.978000045E-1,-4.350800037E0
4.181999844E1,1.368999928E-1,6.011999846E-1,-3.673299789E0
4.183999844E1,2.099999934E-1,2.289000005E-1,-2.546299934E0
4.185999844E1,2.922999859E-1,-1.819999889E-2,-1.396699905E0
4.187999844E1,4.958999753E-1,-3.367999792E-1,-7.520999908E-1
4.189999844E1,7.058999538E-1,-3.174999952E-1,-5.806999803E-1
4.191999844E1,6.037999988E-1,-1.903999895E-1,-4.575999975E-1
4.193999844E1,3.154999912E-1,8.229999989E-2,-5.182999969E-1
4.195999844E1,8.299999870E-3,3.428999782E-1,-9.589999914E-2
4.197999844E1,-1.297999918E-1,4.989999831E-1,3.476999998E-1
4.199999844E1,-1.040000003E-2,5.432000160E-1,7.142999768E-1
4.201999844E1,2.875999808E-1,4.745999873E-1,8.601999879E-1
4.203999844E1,2.248999923E-1,7.148000002E-1,1.649099946E0
4.205999844E1,-2.660999894E-1,1.353099942E0,1.988799930E0
4.207999844E1,-7.881000042E-1,1.837199926E0,1.814799905E0
4.209999844E1,-1.067399979E0,1.711899996E0,1.597299933E0
4.211999844E1,-1.195400000E0,9.642999768E-1,1.620899916E0
4.213999844E1,-1.230199933E0,1.902000010E-1,2.205999851E0
4.215999844E1,-6.911000013E-1,-5.433999896E-1,2.957899809E0
4.217999844E1,-3.109999932E-2,-1.044399977E0,1.506099939E0
4.219999844E1,3.355000019E-1,-1.287199974E0,-4.993999898E-1
4.221999844E1,-3.176999986E-1,-1.054399967E0,-1.067099929E0
4.223999844E1,-1.539299965E0,-8.396999836E-1,3.537999988E-1
4.225999844E1,-1.948199987E0,-6.972000003E-1,1.356499910E0
4.227999844E1,-1.461199999E0,-5.704999566E-1,1.047899961E0
4.230000000E1,-5.788999796E-1,-7.433999777E-1,-2.791000009E-1
4.232999844E1,4.542999864E-1,-6.577000022E-1,-1.524099946E0
4.234999844E1,7.951999903E-1,-4.289999902E-1,-2.312199831E0
4.236999844E1,7.411999702E-1,-1.050999984E-1,-2.676699877E0
4.238999844E1,6.938999891E-1,2.273999900E-1,-2.763999939E0
4.240999844E1,7.465999722E-1,5.904999971E-1,-2.793299913E0
4.242999844E1,9.000999928E-1,6.128999591E-1,-2.760900021E0
4.244999844E1,9.134999514E-1,5.586999655E-1,-2.228800058E0
4.247000000E1,7.414000034E-1,5.875999928E-1,-1.488799930E0
4.249999844E1,5.313999653E-1,6.531999707E-1,-1.401999891E-1
4.251999844E1,5.594999790E-1,5.903999805E-1,4.266999960E-1
4.253999844E1,8.412999511E-1,5.590999722E-1,6.893999577E-1
4.255999844E1,1.054999948E0,8.082999587E-1,3.630999923E-1
4.257999844E1,9.536999464E-1,1.026099920E0,6.743999720E-1
4.259999844E1,5.719000101E-1,1.178099990E0,1.546100020E0
4.261999844E1,-1.127999946E-1,1.200399995E0,1.977499962E0
4.263999844E1,-9.113000035E-1,1.165599942E0,2.861799955E0
4.265999844E1,-1.633599997E0,1.215199947E0,3.688999891E0
4.268000000E1,-1.999799967E0,1.380599976E0,3.987199783E0
4.270999844E1,-1.553599954E0,1.479099989E0,2.998899937E0
4.272999844E1,-1.157299995E0,9.431999922E-1,2.185199976E0
4.274999844E1,-4.105999768E-1,3.515999913E-1,1.871799946E0
4.276999844E1,5.888000131E-1,-1.530999988E-1,7.227999568E-1
4.278999844E1,1.438499928E0,-4.564999938E-1,-8.571999669E-1
4.280999844E1,1.367299914E0,-4.531999826E-1,-1.784299970E0
4.282999844E1,4.418999851E-1,-3.341999948E-1,-4.481999874E-1
4.284999844E1,-3.515999913E-1,-4.359000027E-1,1.745700002E0
4.286999844E1,-5.062000155E-1,-5.399999619E-1,3.797699928E0
4.288999844E1,-3.509999812E-2,-9.285999537E-1,4.414700031E0
4.290999844E1,8.216999769E-1,-1.301100016E0,2.861500025E0
4.293000000E1,1.288699985E0,-1.115999937E0,9.835000038E-1
4.295999844E1,1.487299919E0,-6.060999632E-1,-1.736899972E0
4.297999844E1,1.375100017E0,-2.736999989E-1,-2.887199879E0
4.299999844E1,1.163100004E0,-5.700000003E-2,-3.681900024E0
4.301999844E1,1.028100014E0,5.089999735E-2,-3.668299913E0
4.303999844E1,9.704999924E-1,-2.283999920E-1,-3.248499870E0
