"Time (s)","Acceleration x (m/s^2)","Acceleration y (m/s^2)","Acceleration z (m/s^2)"
0.000000000E0,-3.644559145E0,2.840500116E0,9.138887405E0
2.000000000E-2,-2.717629671E0,2.851082563E0,8.604655266E0
4.000468700E-2,-2.327642918E0,2.504133701E0,8.644475937E0
6.199843700E-2,-2.006417513E0,2.169223309E0,8.789229393E0
8.200000000E-2,-1.442755461E0,1.711183786E0,7.347641945E0
1.020000000E-1,-7.060500979E-1,1.261409044E0,8.151806831E0
1.240062500E-1,-8.704264164E-1,6.854886413E-1,9.021821022E0
1.459984370E-1,-1.288080573E0,1.083203912E0,1.152011299E1
1.660000000E-1,-3.208594322E0,3.408950567E0,1.300419235E1
1.879984370E-1,-9.121046662E-1,2.943843365E0,1.231737328E1
2.080062500E-1,-5.495362878E-1,7.403828949E-2,7.107532501E0
2.299984370E-1,9.069810510E-1,-1.152319670E0,5.101756573E0
2.499984370E-1,3.466516733E-1,-1.172938585E0,5.629400253E0
2.699984370E-1,-9.419268370E-1,-1.944474727E-1,9.597339630E0
2.899984370E-1,-2.208832979E0,2.098948807E-1,1.007647610E1
3.099984370E-1,-1.823136687E0,-5.640930533E-1,8.323394775E0
3.299984370E-1,-3.197714806E0,-4.729889333E-1,7.328804493E0
3.499984370E-1,-5.155223846E0,-1.701999664E0,1.131070709E1
3.699984370E-1,-4.225919247E0,1.799395800E0,6.117463112E0
3.899984370E-1,-8.715851605E-2,9.695750475E-1,9.770000458E0
4.099984370E-1,-8.465897292E-2,6.571987867E-1,1.132249641E1
4.300015620E-1,-2.073828936E0,1.525585353E-1,1.196594238E1
4.519984370E-1,-3.752729177E0,2.597613335E-1,1.210594559E1
4.720046870E-1,-3.402323484E0,4.957912862E-1,1.116616440E1
4.939984370E-1,-2.062824965E0,8.221975565E-1,1.027653599E1
5.140015620E-1,-1.514830589E0,8.392155766E-1,1.046894360E1
5.359984370E-1,-1.770550370E0,3.564583063E-1,1.106645966E1
5.560093750E-1,-1.505263329E0,3.829764947E-2,1.085327053E1
5.780000000E-1,-8.430271745E-1,-5.552632362E-2,1.056815052E1
5.980000000E-1,-7.139988542E-1,1.686379910E-1,1.032294559E1
6.199984370E-1,-3.482222557E-1,4.090828896E-1,1.015700817E1
6.400000000E-1,-3.879085779E-1,7.046806216E-1,9.084549904E0
6.619984370E-1,-3.790787458E-1,1.476887226E0,8.444540977E0
6.819984370E-1,-3.047531545E-1,1.824669003E0,7.385700703E0
7.019984370E-1,-2.190407217E-1,1.963389039E0,7.443994522E0
7.219984370E-1,-3.480403125E-1,1.867889166E0,7.590079308E0
7.419984370E-1,-7.696112990E-1,1.749835849E0,7.952264309E0
7.619984370E-1,-1.141708612E0,1.785375357E0,8.264114380E0
7.819984370E-1,-1.039370894E0,1.851014733E0,8.470637321E0
8.020109370E-1,-1.171894670E0,1.918627024E0,8.705116272E0
8.239984370E-1,-1.177545071E0,1.641234875E0,8.976217270E0
8.439984370E-1,-8.926254511E-1,1.225831270E0,9.952945709E0
8.639984370E-1,-1.493033767E0,1.146420360E0,1.167684746E1
8.839984370E-1,-1.797509193E0,6.764290333E-1,1.162910652E1
9.039984370E-1,-2.067316532E0,7.520762086E-1,1.115210533E1
9.239984370E-1,-2.158104658E0,1.070543289E0,1.140727901E1
9.439984370E-1,-2.498694420E0,1.260365248E0,1.165115261E1
9.639984370E-1,-1.817811966E0,7.621797323E-1,1.279767895E1
9.839984370E-1,-6.777601838E-1,-4.103278518E-1,1.240527821E1
1.003998437E0,-4.495736063E-1,-1.023684025E0,1.273938465E1
1.023998437E0,-8.916773200E-1,-7.732601166E-1,1.243852901E1
1.043998437E0,-9.564070106E-1,-2.373515815E-1,1.105733299E1
1.063998437E0,-8.953644037E-1,3.806397617E-1,8.942065239E0
1.083998437E0,5.193693638E-1,-7.246482372E-1,8.380070686E0
1.103998437E0,5.743114948E-1,2.299391292E-2,9.128325462E0
1.123998437E0,-5.197811723E-1,5.635759234E-1,1.064752293E1
1.143998437E0,-1.004089952E0,-7.019799203E-3,1.027260971E1
1.163998437E0,-2.450475216E0,-5.049850047E-2,8.748614311E0
1.183998437E0,-1.591282248E0,1.580268890E-1,8.797541618E0
1.203998437E0,-1.438465118E0,4.536820650E-1,8.120518684E0
1.223998437E0,-9.551044703E-1,9.137135744E-1,7.798920631E0
1.243998437E0,-6.403723359E-1,1.061924219E0,8.890599251E0
1.263998437E0,-6.959944367E-1,1.412224650E0,7.913248539E0
1.284000000E0,-1.044542313E0,1.585986257E0,6.849954605E0
1.306006250E0,-1.327058077E0,1.804538608E0,6.571939945E0
1.328000000E0,-1.372634172E0,2.062748432E0,7.034375668E0
1.350000000E0,-1.394689560E0,2.144476891E0,7.721252441E0
1.371998437E0,-1.357866645E0,2.271618605E0,7.312208176E0
1.391998437E0,-1.338617325E0,2.450992107E0,7.497097492E0
1.411998437E0,-1.824669003E0,3.152177334E0,8.354892731E0
1.431998437E0,-2.342506170E0,3.396328449E0,8.667804718E0
1.451998437E0,-1.719697595E0,2.693974972E0,9.048684120E0
1.472000000E0,-7.584160566E-1,1.709536672E0,1.007376671E1
1.492000000E0,-5.242439508E-1,1.270535707E0,1.117907333E1
1.512000000E0,-1.358230591E0,1.580575347E0,1.122985935E1
1.533998437E0,-1.547640800E0,1.656672597E0,1.104996872E1
1.553998437E0,-4.434157312E-1,1.177784443E0,1.112585545E1
1.573998437E0,7.172070444E-2,3.309552968E-1,1.183914566E1
1.593998437E0,-3.807642460E-1,-4.351701140E-1,1.193171501E1
1.613998437E0,-8.778388500E-1,-8.070183992E-1,1.143485069E1
1.633998437E0,-7.170442343E-1,-8.617689610E-1,1.121886539E1
1.653998437E0,-1.155345961E-1,-1.050221324E0,1.179964161E1
1.674000000E0,-9.892841429E-2,-8.543948531E-1,1.222987938E1
1.694000000E0,-2.733699679E-1,-5.957635641E-1,1.175030136E1
1.714000000E0,-7.173028588E-1,-1.861348152E-1,1.131387711E1
1.736000000E0,-1.191756964E0,2.996582985E-1,1.078762245E1
1.757998437E0,-9.671329856E-1,5.712661147E-1,9.691220284E0
1.777998437E0,-4.692443907E-1,7.307199240E-1,8.420091629E0
1.797998437E0,-1.396490037E-1,8.483231068E-1,7.686067581E0
1.817998437E0,1.874372512E-1,8.585703373E-1,7.775332928E0
1.837998437E0,2.209273577E-1,7.126676440E-1,8.069637299E0
1.858000000E0,3.431561291E-1,5.889257193E-1,8.069924355E0
1.878000000E0,6.967031360E-1,5.723770261E-1,8.171161652E0
1.899998437E0,1.009577394E0,8.243907094E-1,8.627007484E0
1.920000000E0,1.142455578E0,1.027438164E0,8.622104645E0
1.941998437E0,1.024201155E0,1.300425053E0,8.141962051E0
1.961998437E0,5.157589316E-1,1.658597589E0,7.964800358E0
1.981998437E0,-1.303690672E-1,1.893085718E0,8.018229485E0
2.001998437E0,-4.197227061E-1,2.036718607E0,8.070700645E0
2.021998437E0,-4.707096219E-1,2.215546370E0,8.195257187E0
2.042000000E0,-3.731315732E-1,2.286950827E0,8.661790848E0
2.063998437E0,-6.919913292E-1,2.339441299E0,8.932794571E0
2.083998437E0,-1.027332783E0,2.366706848E0,8.575656891E0
2.103998437E0,-1.089926720E0,2.473392248E0,7.974894524E0
2.123998437E0,-8.129272461E-1,2.446309090E0,8.029041290E0
2.143998437E0,-6.372503042E-1,2.400933981E0,8.676750183E0
2.163998437E0,-5.903143883E-1,2.362521648E0,9.408265114E0
2.183998437E0,-7.590864301E-1,2.422223330E0,9.987680435E0
2.203998437E0,-8.980554938E-1,2.585230112E0,1.021677780E1
2.223998437E0,-8.396943808E-1,2.811434269E0,9.786797523E0
2.243998437E0,-9.994547367E-1,3.141776800E0,9.540845871E0
2.263998437E0,-7.423461676E-1,2.572435617E0,1.012307739E1
2.284000000E0,-1.952615231E-1,1.981374264E0,1.113931084E1
2.305998437E0,7.226945758E-1,1.143815517E0,1.271869850E1
2.325998437E0,6.655114889E-1,3.804961145E-1,1.342026615E1
2.345998437E0,-4.267520607E-1,3.650870323E-1,1.229990387E1
2.366001562E0,-1.145491481E0,6.984269619E-1,1.058568573E1
2.387998437E0,-7.302410603E-1,9.822164178E-1,1.025679874E1
2.408000000E0,4.171274006E-1,8.564155102E-1,1.104500771E1
2.430000000E0,7.465791106E-1,9.875794649E-1,1.190898895E1
2.451998437E0,1.244027261E-2,1.430171609E0,1.124702168E1
2.471998437E0,-4.091020226E-1,1.866280317E0,9.754312515E0
2.491998437E0,-3.373621702E-1,2.169797897E0,8.682294846E0
2.511998437E0,-2.111685872E-1,2.306918621E0,8.563082695E0
2.531998437E0,-1.885577589E-1,2.176271915E0,8.631671906E0
2.551998437E0,-2.470528930E-1,2.038107395E0,8.569383621E0
2.572000000E0,-6.102341413E-2,1.690124393E0,8.255503654E0
2.593998437E0,2.114942074E-1,1.441127419E0,7.668723583E0
2.613998437E0,5.095148683E-1,1.302512765E0,7.279024601E0
2.633998437E0,5.703850389E-1,1.300568700E0,7.525167465E0
2.653998437E0,3.982323706E-1,1.677023292E0,7.364506721E0
2.674000000E0,4.943355918E-1,1.719324112E0,7.252458572E0
2.694000000E0,5.438189507E-1,1.920877576E0,6.723071575E0
2.714000000E0,5.830264091E-1,2.198107004E0,6.356902122E0
2.734000000E0,6.227414608E-1,2.363603830E0,6.308185101E0
2.755998437E0,8.572008014E-1,2.218141556E0,6.387443066E0
2.775998437E0,1.223427534E0,2.008974552E0,7.178257465E0
2.796000000E0,1.381607652E0,1.727253675E0,8.431679726E0
2.817998437E0,7.324532866E-1,1.807143450E0,9.560248375E0
2.837998437E0,-9.381822944E-1,2.965314388E0,1.018147659E1
2.858000000E0,-6.958795190E-1,2.304965019E0,1.171174526E1
2.879998437E0,6.490105987E-1,1.475824237E0,1.463872337E1
2.899998437E0,3.597623408E-1,7.612987161E-1,1.660847282E1
2.919998437E0,-1.041343570E0,6.468175054E-1,1.604932022E1
2.939998437E0,-1.531542063E0,1.017459154E0,1.379090786E1
2.959998437E0,-7.208079100E-1,1.402485132E0,1.214665604E1
2.979998437E0,-1.312884390E-1,1.608625889E0,1.204917526E1
2.999998437E0,-1.592718810E-1,1.344018698E0,1.219909000E1
3.019998437E0,-2.654403746E-1,9.593757987E-1,1.189558220E1
3.039998437E0,-5.193310380E-1,7.473165393E-1,1.138229275E1
3.059998437E0,-7.602835298E-1,6.670629382E-1,1.118075848E1
3.080000000E0,-8.213644624E-1,7.840148807E-1,1.069942856E1
3.101998437E0,-4.266180098E-1,1.098928928E0,9.828926086E0
3.121998437E0,3.688315749E-1,1.477299094E0,8.982192039E0
3.141998437E0,9.350315332E-1,1.738640547E0,8.200610161E0
3.161998437E0,1.007786512E0,1.934170127E0,7.736412525E0
3.181998437E0,7.339569330E-1,1.833297729E0,7.699838638E0
3.201998437E0,4.792904258E-1,1.715866923E0,7.747742176E0
3.221998437E0,3.034889996E-1,1.518057942E0,7.634055614E0
3.241998437E0,3.254198655E-2,1.397026300E0,7.747828007E0
3.261998437E0,-3.014587164E-1,1.126127124E0,8.055186272E0
3.281998437E0,-6.148022413E-1,9.906727672E-1,8.437070847E0
3.302010937E0,-1.237505317E0,1.202846885E0,8.911065102E0
3.323998437E0,-1.579933763E0,1.255117178E0,9.737485886E0
3.344000000E0,-1.672675490E0,1.187667727E0,1.024306583E1
3.366007812E0,-1.727560163E0,1.344210148E0,1.029929066E1
3.387998437E0,-1.605446339E0,1.684474111E0,1.019709682E1
3.408000000E0,-1.340274215E0,1.957355738E0,9.776090622E0
3.429998437E0,-9.927126169E-1,2.257875919E0,9.099124908E0
3.449998437E0,-5.397679806E-1,2.428888798E0,9.306251526E0
3.469998437E0,-1.162432805E-1,2.520826101E0,9.822911263E0
3.490000000E0,7.642291952E-3,2.764977217E0,9.775659561E0
3.510000000E0,1.072698161E-1,2.941257477E0,9.248590469E0
3.531998437E0,1.238281131E-1,3.163439512E0,8.437386513E0
3.552043750E0,4.527914524E-2,3.263574600E0,8.471404076E0
3.573998437E0,-8.131666481E-2,3.463270187E0,8.592081070E0
3.593998437E0,-2.570415139E-1,3.761415243E0,8.527562141E0
3.613998437E0,2.602976002E-2,3.361133575E0,9.421998024E0
3.633998437E0,2.012853175E-1,2.507389784E0,1.067737293E1
3.653998437E0,-8.775228262E-2,1.984161139E0,1.148221779E1
3.673998437E0,-8.682332635E-1,1.990462661E0,1.073885632E1
3.693998437E0,-1.326282382E0,2.800277233E0,8.942017555E0
3.713998437E0,-1.155537516E-1,2.327211857E0,7.903470516E0
3.733998437E0,1.006072283E0,1.663452983E0,9.156796455E0
3.753998437E0,8.528816700E-1,1.239334583E0,1.231923008E1
3.773998437E0,5.142745096E-3,1.867333651E0,1.357434750E1
3.793998437E0,-2.228139788E-1,2.697049141E0,1.196952438E1
3.813998437E0,6.284300983E-2,3.463854551E0,9.869301796E0
3.834000000E0,5.222807527E-1,3.885655165E0,8.167675018E0
3.854000000E0,5.179712176E-1,4.057204723E0,7.571337223E0
3.876000000E0,9.630436450E-2,3.822668791E0,8.162838936E0
3.897998437E0,-3.529436290E-1,3.190293074E0,8.732477188E0
3.917998437E0,-7.459757924E-1,2.747700691E0,8.992343903E0
3.937998437E0,-1.000498652E0,2.578842640E0,9.107140541E0
3.957998437E0,-8.486869931E-1,2.429109097E0,8.722019196E0
3.978000000E0,-5.617659092E-1,2.477117777E0,7.888387203E0
3.999998437E0,-2.851015329E-1,2.581945419E0,7.127768040E0
4.019998437E0,-3.264924884E-1,2.669094563E0,6.953202248E0
4.040000000E0,-6.691410542E-1,2.717313528E0,7.081665516E0
4.060000000E0,-8.299835324E-1,2.790892124E0,7.106910229E0
4.081998437E0,-5.898642540E-1,2.878472090E0,7.090025902E0
4.101998437E0,-9.085516632E-2,2.828519583E0,7.375405312E0
4.121998437E0,1.844684631E-1,2.654872894E0,8.330366135E0
4.142000000E0,-1.532289083E-3,2.633334398E0,9.308349609E0
4.163998437E0,-6.325384974E-1,3.258690357E0,9.832392693E0
4.183998437E0,-7.866389155E-1,4.092447281E0,9.825860977E0
4.203998437E0,3.004627526E-1,3.960019350E0,9.986550331E0
4.223998437E0,5.009436011E-1,3.863513708E0,1.047541809E1
4.243998437E0,-6.219370365E-1,3.398550034E0,1.083250809E1
4.263998437E0,-1.471093297E0,2.613999128E0,1.069201660E1
4.283998437E0,-1.584817886E0,2.070936441E0,1.050696373E1
4.303998437E0,-1.092962623E0,2.062355757E0,1.077346706E1
4.323998437E0,-6.797809005E-1,2.643227339E0,1.109299660E1
4.343998437E0,-9.239703417E-2,3.156122684E0,1.086752033E1
4.363998437E0,5.569966435E-1,3.322654009E0,1.042531109E1
4.383998437E0,5.415492654E-1,3.433198929E0,1.019572735E1
4.403998437E0,-1.559104118E-2,3.397372246E0,9.860385895E0
4.423998437E0,-5.319054723E-1,3.410176516E0,9.388134003E0
4.443998437E0,-7.070077658E-1,3.433515072E0,9.127626419E0
4.463998437E0,-7.517505884E-1,3.590785503E0,9.029167175E0
4.483998437E0,-6.163249612E-1,3.631735802E0,8.515275002E0
4.503998437E0,-4.248750210E-1,3.624735117E0,8.132529259E0
4.526004687E0,-3.242993951E-1,3.333887339E0,7.954725742E0
4.547998437E0,-4.503014386E-1,2.977017403E0,8.087278366E0
4.567998437E0,-5.191682577E-1,2.795230389E0,8.011238098E0
4.587998437E0,9.749189019E-3,2.767582178E0,7.701131821E0
4.607998437E0,4.315021932E-1,2.876250267E0,7.907119274E0
4.627998437E0,5.871922970E-1,2.747221947E0,8.499464035E0
4.647998437E0,1.265287697E-1,3.232890606E0,8.821943283E0
4.667998437E0,-1.948592812E-1,3.330650568E0,9.129579544E0
4.687998437E0,-2.218180001E-1,2.928798199E0,9.488891602E0
4.707998437E0,-4.444404542E-1,2.937388659E0,1.094215298E1
4.727998437E0,-6.816100478E-1,2.607391119E0,1.205759239E1
4.747998437E0,3.862326220E-2,1.910084605E0,1.170154572E1
4.767998437E0,1.674044967E0,8.152352571E-1,1.155847740E1
4.787998437E0,1.649882674E0,5.429187417E-1,1.331368637E1
4.807998437E0,6.670724750E-1,7.157992721E-1,1.505331326E1
4.827998437E0,-2.300444841E-1,1.676065683E0,1.383001041E1
4.847998437E0,-1.646348834E-1,2.781708002E0,1.096858501E1
4.867998437E0,2.983175218E-1,3.512131214E0,8.610889435E0
4.887998437E0,3.301795721E-1,3.628738165E0,8.377273560E0
4.907998437E0,-1.340752989E-1,3.149342537E0,8.988427162E0
4.927998437E0,-5.849513412E-1,2.602564096E0,9.449636459E0
4.947998437E0,-8.671223521E-1,2.165172338E0,9.229579926E0
4.967998437E0,-1.004061103E0,1.924756169E0,8.508456230E0
4.987998437E0,-9.933829904E-1,1.966511130E0,8.101681709E0
5.007998437E0,-6.968946457E-1,1.883231163E0,7.979797840E0
5.027998437E0,-4.185734987E-1,2.028185606E0,7.958039284E0
5.048000000E0,-7.332003117E-2,2.226732254E0,7.919951916E0
5.070000000E0,4.929182306E-2,2.307292223E0,8.398955345E0
5.091998437E0,-2.799204588E-1,2.458778143E0,9.620055199E0
5.111998437E0,-4.011436999E-1,2.666182995E0,1.063865471E1
5.131998437E0,-5.096776411E-2,2.625108242E0,1.080186272E1
5.151998437E0,2.934429348E-1,2.313488245E0,1.073308182E1
5.172000000E0,-8.249748349E-1,2.799156904E0,1.104247952E1
5.193998437E0,-1.191747427E0,2.644893885E0,1.134914875E1
5.213998437E0,-1.110526472E-1,1.638265967E0,1.183285332E1
5.233998437E0,-5.827199817E-1,1.258459449E0,1.275006294E1
5.253998437E0,-2.244909048E0,1.654402971E0,1.242750549E1
5.273998437E0,-2.528305769E0,1.788631439E0,1.049962807E1
5.293998437E0,-1.712802410E0,1.976672173E0,9.295402527E0
5.313998437E0,-6.103011370E-1,1.707381845E0,9.742868423E0
5.333998437E0,-5.031941533E-1,1.185800195E0,1.032755184E1
5.353998437E0,-9.681481123E-1,8.268040419E-1,1.047947884E1
5.373998437E0,-1.006177664E0,6.732016802E-1,1.020182705E1
5.393998437E0,-4.976013303E-1,8.077940941E-1,9.571204185E0
5.413998437E0,-1.356937736E-1,1.177975893E0,8.949325562E0
5.433998437E0,-9.557653219E-3,1.551787496E0,8.416988373E0
5.453998437E0,7.345411181E-2,1.731888890E0,7.940791607E0
5.473998437E0,8.117301017E-2,1.903543591E0,7.598228931E0
5.494000000E0,1.621353477E-1,1.865178823E0,7.628376961E0
5.516000000E0,1.882033944E-1,1.780472040E0,7.895061970E0
5.537998437E0,2.173073292E-1,1.749452710E0,8.137020111E0
5.557998437E0,2.570606470E-1,1.696071625E0,8.232720375E0
5.577998437E0,2.155643404E-1,1.739627004E0,8.522342682E0
5.597998437E0,1.588888019E-1,1.771048427E0,8.951125145E0
5.618000000E0,2.932035327E-1,1.745411396E0,9.278029442E0
5.639998437E0,3.457323015E-1,1.952337384E0,9.765881538E0
5.659998437E0,2.079412043E-1,2.305855751E0,1.035247040E1
5.679998437E0,3.462781608E-1,2.559621811E0,1.086251259E1
5.699998437E0,6.628395319E-1,2.866922379E0,1.114093876E1
5.719998437E0,6.849140525E-1,3.290543079E0,1.098456001E1
5.739998437E0,1.050566196E0,2.951418638E0,1.014060211E1
5.759998437E0,1.924899936E0,1.942540288E0,9.513072968E0
5.779998437E0,2.442899704E0,8.452106118E-1,1.005088806E1
5.799998437E0,1.870714188E0,2.739541233E-1,1.169009209E1
5.819998437E0,9.096626043E-1,3.342784345E-1,1.282648563E1
5.839998437E0,8.603802919E-1,7.171496153E-1,1.204554462E1
5.860000000E0,1.281022429E0,1.438848138E0,1.055324841E1
5.881998437E0,1.477844954E0,2.010114193E0,9.598776817E0
5.901998437E0,1.057863593E0,2.246929407E0,9.288698196E0
5.921998437E0,5.668224692E-1,2.250291109E0,8.731375694E0
5.942001562E0,2.845365107E-1,2.279567480E0,8.318720818E0
5.963998437E0,1.805994213E-1,2.023023844E0,8.289454460E0
5.983998437E0,8.542511612E-3,1.900938749E0,8.417630196E0
6.003998437E0,-2.170104384E-1,1.827906013E0,8.751314163E0
6.023998437E0,-1.720473319E-1,1.816672325E0,8.959638596E0
6.043998437E0,1.916223317E-1,1.963436842E0,8.959150314E0
6.063998437E0,3.462398648E-1,2.169960737E0,8.943483353E0
6.083998437E0,3.409439027E-1,2.485152483E0,8.719031334E0
6.104000000E0,3.846333027E-1,2.831708431E0,8.542243004E0
6.124000000E0,3.362321258E-1,3.019940615E0,8.469651222E0
6.145998437E0,-5.746083916E-4,3.141393900E0,8.639554024E0
6.166006250E0,-3.476859629E-1,3.183254004E0,9.182654381E0
6.188000000E0,-5.631545186E-1,3.308844328E0,9.658143044E0
6.210000000E0,-4.870189130E-1,3.299592972E0,9.618149757E0
6.231998437E0,-5.748190880E-1,3.282996416E0,9.551140785E0
6.251998437E0,-7.023246884E-1,3.128723621E0,9.455765724E0
6.271998437E0,-4.616787136E-1,2.851341009E0,9.660603523E0
6.291998437E0,-5.951506495E-1,3.091307163E0,9.827201843E0
6.311998437E0,-9.536201358E-1,3.602153063E0,9.836184502E0
6.331998437E0,-9.022501111E-1,3.579341173E0,9.775610924E0
6.351998437E0,-8.935543895E-1,3.147360086E0,1.001797199E1
6.371998437E0,-8.111076951E-1,2.104704380E0,1.096992588E1
6.391998437E0,-1.210000873E0,1.257865667E0,1.180454445E1
6.411998437E0,-1.985157132E0,1.375152826E0,1.186877632E1
6.431998437E0,-2.043949127E0,1.740086675E0,1.054774189E1
6.451998437E0,-1.017727256E0,1.907805324E0,9.030315399E0
6.471998437E0,-1.408173740E-1,1.848515272E0,8.322196960E0
6.491998437E0,1.422538906E-1,1.548512220E0,8.622133255E0
6.511998437E0,1.672876626E-1,1.045557499E0,9.188553810E0
6.532000000E0,1.152281389E-1,9.104191065E-1,9.685924530E0
6.553998437E0,-7.134721149E-3,1.067880988E0,1.026882744E1
6.573998437E0,-2.489682436E-1,1.373381138E0,1.025142574E1
6.593998437E0,-5.086721182E-1,1.821920395E0,9.724892616E0
6.613998437E0,-6.794170141E-1,2.249716282E0,8.827105522E0
6.633998437E0,-6.007243395E-1,2.527099133E0,8.237527847E0
6.653998437E0,-4.796064794E-1,2.652220011E0,8.176907539E0
6.673998437E0,-3.618404865E-1,2.767266035E0,8.251280785E0
6.693998437E0,-3.578182459E-1,2.831717968E0,8.462372780E0
6.713998437E0,-2.505196929E-1,2.818281651E0,8.586641312E0
6.733998437E0,-2.440553457E-1,2.898410797E0,8.611809731E0
6.753998437E0,-5.526966453E-1,3.027975559E0,8.819166183E0
6.773998437E0,-8.518952727E-1,3.004627466E0,8.925440788E0
6.793998437E0,-1.126720905E0,2.900278568E0,9.040868759E0
6.813998437E0,-1.266915798E0,2.917899847E0,9.445642471E0
6.833998437E0,-1.255222559E0,2.889791965E0,9.779807091E0
6.853998437E0,-1.215028644E0,2.745383263E0,9.918257713E0
6.873998437E0,-1.441271067E0,2.723040581E0,9.910281181E0
6.893998437E0,-1.697967887E0,2.870389223E0,9.860175133E0
6.913998437E0,-1.367194414E0,2.956302643E0,9.967675209E0
6.933998437E0,-1.153995633E0,3.236414909E0,1.052323437E1
6.953998437E0,-8.741996288E-1,3.477290869E0,1.067652988E1
6.973998437E0,8.091444522E-2,3.052013397E0,1.016016769E1
6.993998437E0,8.250993490E-1,2.441386700E0,1.030347538E1
7.013998437E0,4.020247757E-1,1.870513201E0,1.139454174E1
7.033998437E0,-7.426047325E-1,1.689846635E0,1.174202728E1
7.053998437E0,-8.985152245E-1,1.506747842E0,1.064321327E1
7.073998437E0,-1.936238855E-1,1.541818023E0,9.258617401E0
7.093998437E0,4.358021915E-1,1.498185992E0,8.936693192E0
7.113998437E0,-7.254431397E-2,1.642240405E0,9.596879959E0
7.133998437E0,-7.514537573E-1,1.782569289E0,9.819108963E0
7.153998437E0,-9.612624049E-1,2.078071356E0,9.552654266E0
7.173998437E0,-7.004380226E-1,2.194103956E0,9.140947342E0
7.193998437E0,-6.132412553E-1,2.346959114E0,9.164889336E0
7.213998437E0,-8.566262126E-1,2.563921928E0,9.307028770E0
7.233998437E0,-9.696612358E-1,2.810294867E0,8.972031593E0
7.253998437E0,-8.062521815E-1,3.140215874E0,8.462727547E0
7.273998437E0,-5.457247496E-1,3.481025696E0,8.219074249E0
7.293998437E0,-1.592718810E-1,3.613798618E0,8.314870834E0
7.313998437E0,7.189308852E-2,3.766797543E0,8.294940948E0
7.333998437E0,2.201899439E-1,3.629207611E0,8.276218414E0
7.353998437E0,2.649232149E-1,3.526793242E0,8.259621620E0
7.373998437E0,2.130073458E-1,3.373152494E0,8.434274673E0
7.393998437E0,-4.434061702E-3,3.232134104E0,8.803795815E0
7.413998437E0,-1.018110365E-1,3.188444614E0,9.084990501E0
7.433998437E0,4.958870634E-2,3.154715061E0,9.294319153E0
7.453998437E0,3.009032607E-1,3.143079281E0,9.526930809E0
7.473998437E0,5.727505088E-1,3.211744785E0,9.731654167E0
7.493998437E0,5.213900805E-1,3.269464254E0,9.823418617E0
7.513998437E0,4.623586535E-1,3.241911888E0,9.812520981E0
7.533998437E0,2.492651194E-1,3.218132734E0,9.858834267E0
7.554000000E0,-3.702489436E-1,3.161428452E0,9.937220573E0
7.576000000E0,-1.182917595E0,3.062327623E0,1.009421253E1
7.596000000E0,-1.515433908E0,3.027736187E0,1.015041924E1
7.617998437E0,-1.324548960E0,2.632539749E0,1.027204514E1
7.637998437E0,-1.567129493E0,2.224481344E0,1.043599033E1
7.657998437E0,-1.878117204E0,2.137696505E0,9.793807983E0
7.677998437E0,-1.498636246E0,2.248481035E0,8.707327843E0
7.698000000E0,-6.361297965E-1,2.233234644E0,7.882890224E0
7.720000000E0,-1.991018094E-2,1.961349249E0,8.464384079E0
7.742000000E0,-1.336539090E-1,1.591100216E0,9.536746979E0
7.763998437E0,-4.446990490E-1,1.555053115E0,9.809523582E0
7.783998437E0,-1.406449825E-1,1.724074244E0,9.230844498E0
7.803998437E0,5.283524469E-2,2.277920246E0,8.846048355E0
7.823998437E0,-4.467963576E-1,2.805181026E0,8.770381927E0
7.843998437E0,-9.497702718E-1,3.034181356E0,8.510784149E0
7.863998437E0,-9.347825050E-1,3.127631903E0,8.268586159E0
7.883998437E0,-6.910719872E-1,3.038797379E0,8.369286537E0
7.903998437E0,-5.927469134E-1,2.872103453E0,8.753689766E0
7.923998437E0,-7.134146690E-1,2.792022228E0,9.172636986E0
7.944000000E0,-7.590385675E-1,2.778882742E0,9.263291359E0
7.966012500E0,-7.414938211E-1,2.841189623E0,9.264899254E0
7.987998437E0,-6.441072822E-1,2.982380390E0,9.249452591E0
8.007998437E0,-5.269542336E-1,3.177632332E0,9.066516876E0
8.028000000E0,-4.935407341E-1,3.337028742E0,8.943061829E0
8.048000000E0,-6.117472649E-1,3.444221973E0,8.828848839E0
8.069998437E0,-7.031866312E-1,3.472961903E0,8.665631294E0
8.089998437E0,-6.715448499E-1,3.512322426E0,8.711733818E0
8.109998437E0,-5.001295805E-1,3.382422924E0,9.060502052E0
8.129998437E0,-5.363011956E-1,3.273390770E0,9.439063072E0
8.149998437E0,-7.280097008E-1,3.104599714E0,9.770737648E0
8.169998437E0,-1.042014003E0,3.026184797E0,9.874626160E0
8.189998437E0,-1.150222421E0,3.054522514E0,1.005360699E1
8.209998437E0,-9.638097882E-1,3.193826675E0,1.019489384E1
8.229998437E0,-6.890512705E-1,3.278476000E0,1.016432476E1
8.249998437E0,-3.489213884E-1,3.160259962E0,1.002485752E1
8.269998437E0,-9.424535185E-2,2.853859663E0,1.056365776E1
8.290000000E0,7.468951494E-2,2.237285614E0,1.172651291E1
8.311998437E0,1.058620214E-1,1.806942344E0,1.280307007E1
8.331998437E0,4.573020935E-1,1.602831841E0,1.215506554E1
8.351998437E0,8.469249010E-1,1.438158751E0,1.034151459E1
8.371998437E0,1.235915661E0,1.105422139E0,8.948012352E0
8.391998437E0,1.436396480E0,7.412831187E-1,8.972519875E0
8.411998437E0,9.604579210E-1,4.254975319E-1,9.650892258E0
8.431998437E0,1.399075836E-1,3.763684928E-1,9.886578560E0
8.452000000E0,-3.004723191E-1,7.465504408E-1,9.655681610E0
8.472000000E0,-2.161102295E-1,1.292763591E0,9.230825424E0
8.493998437E0,3.190992028E-2,1.886161566E0,8.866552353E0
8.513998437E0,1.019738391E-1,2.171023607E0,8.574517250E0
8.533998437E0,4.856398702E-2,2.357694864E0,8.250303268E0
8.553998437E0,1.084573343E-1,2.422070265E0,8.027605057E0
8.573998437E0,3.296336904E-2,2.483716011E0,8.093608856E0
8.593998437E0,-9.337386489E-2,2.397869587E0,8.329083443E0
8.613998437E0,-1.933748722E-1,2.270900488E0,8.604780197E0
8.633998437E0,-3.740700781E-1,2.266561985E0,8.690683365E0
8.653998437E0,-4.319905937E-1,2.368315697E0,8.731854439E0
8.673998437E0,-3.913466334E-1,2.474512577E0,8.863171577E0
8.693998437E0,-4.607018828E-1,2.687079668E0,9.031350136E0
8.713998437E0,-5.032037497E-1,2.960813522E0,9.076361656E0
8.733998437E0,-4.142447710E-1,3.169626236E0,9.217647552E0
8.753998437E0,-3.332728744E-1,3.259054422E0,9.546563148E0
8.773998437E0,-3.120411038E-1,3.311017990E0,9.895915985E0
8.793998437E0,-1.965831220E-1,3.219214916E0,9.999479294E0
8.813998437E0,3.628652170E-2,3.058822393E0,1.012458134E1
8.833998437E0,6.385814399E-2,2.928951502E0,1.065770340E1
8.853998437E0,-2.795087099E-1,2.937465429E0,1.100724602E1
8.873998437E0,-7.652922273E-1,3.290437460E0,1.086164093E1
8.894000000E0,-9.222943783E-1,3.649003029E0,1.052742958E1
8.914000000E0,-5.412045121E-1,3.557735920E0,1.033647728E1
8.935998437E0,-5.148682594E-1,2.989773750E0,1.066832352E1
8.956003125E0,-8.644025922E-1,1.931029081E0,1.147293758E1
8.978000000E0,-1.344574094E0,1.204273939E0,1.205641365E1
8.999998437E0,-1.572099805E0,1.218035817E0,1.087669563E1
9.020000000E0,-9.967349172E-1,1.481714010E0,9.100800514E0
9.041998437E0,1.852441728E-1,1.441022038E0,8.230375290E0
9.061998437E0,6.553504467E-1,1.222268701E0,9.127798080E0
9.081998437E0,3.236577809E-1,8.497788310E-1,9.899985313E0
9.101998437E0,-2.387114912E-1,8.864101171E-1,1.014621449E1
9.121998437E0,-2.791160345E-1,1.081623673E0,9.604062080E0
9.141998437E0,-7.669106871E-2,1.568259478E0,8.896547318E0
9.161998437E0,-8.441955596E-2,2.028118610E0,8.171917915E0
9.181998437E0,-3.535661399E-1,2.402476072E0,7.442232609E0
9.201998437E0,-4.485776424E-1,2.574734211E0,6.913927555E0
9.221998437E0,-3.651444912E-1,2.538993359E0,7.065969467E0
9.241998437E0,-3.678164184E-1,2.339077711E0,7.952139854E0
9.261998437E0,-5.406490564E-1,2.271178007E0,8.759015083E0
9.281998437E0,-4.803439081E-1,2.374684095E0,9.025958061E0
9.302012500E0,-2.481254935E-1,2.661883116E0,8.821349144E0
9.323998437E0,-1.964203082E-2,2.931537151E0,8.570590973E0
9.343998437E0,8.619126165E-4,3.231779575E0,8.645634651E0
9.363998437E0,-2.166273594E-1,3.331742525E0,8.891175270E0
9.383998437E0,-4.244728088E-1,3.398291588E0,8.933418274E0
9.403998437E0,-5.717545152E-1,3.423181534E0,8.731874466E0
9.423998437E0,-6.639312506E-1,3.336999893E0,8.916926384E0
9.443998437E0,-6.638163328E-1,3.231540203E0,9.292375565E0
9.463998437E0,-6.996049285E-1,3.297888517E0,9.765776634E0
9.483998437E0,-7.065576911E-1,3.270441055E0,1.019386959E1
9.503998437E0,-7.237001061E-1,3.324779987E0,1.082932949E1
9.523998437E0,-2.521094382E-1,2.997234106E0,1.138650703E1
9.543998437E0,4.783902168E-1,2.661174297E0,1.161295986E1
9.563998437E0,1.631974101E0,1.991918325E0,1.154085636E1
9.583998437E0,2.671632290E0,1.039935946E0,1.155896664E1
9.603998437E0,2.044025660E0,8.025076985E-1,1.182368851E1
9.623998437E0,1.386003375E0,6.173688173E-1,1.191245651E1
9.643998437E0,1.770387650E0,5.803928375E-1,1.160879517E1
9.663998437E0,2.441788912E0,7.640855312E-1,1.093216419E1
9.683998437E0,2.164166689E0,1.172612906E0,1.025886726E1
9.703998437E0,1.336740255E0,1.502064705E0,9.929414749E0
9.723998437E0,6.855269670E-1,1.707065821E0,9.590233803E0
9.743998437E0,3.953306079E-1,1.851752162E0,9.198964119E0
9.763998437E0,1.619246453E-1,2.005086422E0,8.856122971E0
9.783998437E0,-9.067320824E-2,2.066195965E0,8.694093704E0
9.803998437E0,-2.392286360E-1,2.118284464E0,8.421689987E0
9.823998437E0,-1.994178444E-1,2.236174822E0,8.190698624E0
9.843998437E0,-1.423783898E-1,2.505819321E0,8.200973511E0
9.863998437E0,-1.435275972E-1,2.581217527E0,8.060329437E0
9.883998437E0,-1.953764409E-1,2.582989216E0,7.864080906E0
9.903998437E0,-1.950412393E-1,2.449306726E0,7.988483906E0
9.923998437E0,-3.898047805E-1,2.334088087E0,8.298714638E0
9.943998437E0,-5.296739936E-1,2.268668890E0,8.833665848E0
9.963998437E0,-5.627810955E-1,2.234374285E0,9.231917381E0
9.983998437E0,-6.060586572E-1,2.293013096E0,9.300908089E0
1.000399844E1,-4.454460144E-1,2.367740870E0,9.484927177E0
1.002399844E1,-4.242621064E-1,2.501442909E0,9.911841393E0
1.004399844E1,-9.814790487E-1,2.949953318E0,1.006792450E1
1.006399844E1,-7.842830420E-1,2.959597111E0,9.839097023E0
1.008399844E1,9.480368495E-1,1.810428381E0,1.063037014E1
1.010399844E1,1.036421180E0,1.191852808E0,1.230786324E1
1.012399844E1,-8.756553531E-1,1.437411666E0,1.310823536E1
1.014399844E1,-2.412885904E0,2.210355759E0,1.110898113E1
1.016399844E1,-1.817706704E0,2.719947338E0,8.568129539E0
1.018399844E1,-7.979300022E-1,3.118811607E0,7.287231922E0
1.020399844E1,-3.660829961E-1,2.862890720E0,7.882267475E0
1.022399844E1,-4.428698421E-1,1.710216522E0,9.436487198E0
1.024399844E1,-9.276860952E-1,9.572305679E-1,1.058739948E1
1.026399844E1,-1.036210418E0,5.132210851E-1,1.106946659E1
1.028400000E1,-7.311030030E-1,5.347976089E-1,1.087337208E1
1.030600000E1,-5.334089994E-1,1.075255156E0,1.029578495E1
1.032800000E1,-7.016926408E-1,1.697144270E0,9.306606293E0
1.034999844E1,-7.795999646E-1,2.096095085E0,8.353255272E0
1.036999844E1,-6.293590069E-1,2.266427994E0,7.549894810E0
1.038999844E1,-4.219923913E-1,2.275822639E0,7.237298489E0
1.040999844E1,-4.037581682E-1,2.215833664E0,7.897150040E0
1.042999844E1,-5.048126578E-1,2.046448708E0,8.380204201E0
1.044999844E1,-5.998241305E-1,2.224998713E0,8.593268394E0
1.046999844E1,-4.199238420E-1,2.433332443E0,8.455880165E0
1.048999844E1,-3.606338203E-1,2.642652750E0,8.488728523E0
1.050999844E1,-4.892216027E-1,2.683268070E0,8.816973686E0
1.052999844E1,-6.621595621E-1,2.662409782E0,9.048999786E0
1.054999844E1,-6.005041003E-1,2.516497612E0,9.268864632E0
1.056999844E1,-5.758438110E-1,2.410635471E0,9.491046906E0
1.058999844E1,-6.462237835E-1,2.322624683E0,9.673408508E0
1.060999844E1,-8.101117015E-1,2.463116407E0,1.001061726E1
1.062999844E1,-1.106638312E0,2.917823315E0,1.039933014E1
1.064999844E1,-1.076145768E0,3.096449614E0,1.081282806E1
1.066999844E1,-5.306604505E-1,2.609718323E0,1.117074203E1
1.069000000E1,8.312667720E-3,2.149925947E0,1.177550793E1
1.071000000E1,4.908879697E-1,1.481397986E0,1.251355362E1
1.073199844E1,6.619393229E-1,1.144074082E0,1.261552715E1
1.075199844E1,6.180200577E-1,1.161580443E0,1.180451584E1
1.077199844E1,7.068257928E-1,1.265393019E0,1.037024498E1
1.079200000E1,1.331674218E0,1.167250037E0,9.605441093E0
1.081200000E1,1.686427712E0,1.192810416E0,9.757722855E0
1.083200000E1,1.480574369E0,8.980746269E-1,1.014636803E1
1.085399844E1,6.543927789E-1,8.789880276E-1,1.024253845E1
1.087399844E1,1.687433384E-2,1.198805571E0,9.774194717E0
1.089399844E1,-1.155345961E-1,1.633420110E0,8.948242188E0
1.091399844E1,2.996582724E-2,2.026978970E0,8.339607239E0
1.093399844E1,-4.071100801E-2,2.140004635E0,8.210215569E0
1.095399844E1,-2.242121994E-1,2.216111422E0,8.037919044E0
1.097399844E1,-2.112452090E-1,2.259762526E0,7.858555317E0
1.099399844E1,-1.527979523E-1,2.331425667E0,7.934192657E0
1.101399844E1,-2.070984542E-1,2.429636002E0,8.232213974E0
1.103399844E1,-2.526265979E-1,2.426140308E0,8.535740852E0
1.105399844E1,-1.740297377E-1,2.461392641E0,8.513014793E0
1.107399844E1,-1.015716121E-1,2.557294607E0,8.537359238E0
1.109399844E1,1.158793573E-3,2.663759947E0,8.811054230E0
1.111399844E1,-7.358817756E-2,2.824908972E0,9.025556564E0
1.113399844E1,-1.381262839E-1,3.015219212E0,8.963393211E0
1.115399844E1,-1.564179808E-1,3.236711740E0,8.882986069E0
1.117399844E1,-2.456163615E-1,3.425010920E0,8.997611046E0
1.119399844E1,-2.478669137E-1,3.508348227E0,9.292308807E0
1.121399844E1,-1.527309120E-1,3.364830256E0,9.562815666E0
1.123399844E1,-2.082763910E-1,3.079881907E0,9.956527710E0
1.125399844E1,-2.469092309E-1,2.681850672E0,1.024526787E1
1.127399844E1,-1.096640155E-1,2.459007978E0,1.055311394E1
1.129400000E1,4.069185257E-2,2.401604414E0,1.065050125E1
1.131400000E1,-3.928310275E-1,2.890864611E0,1.049851704E1
1.133599844E1,-6.205005050E-1,3.249736071E0,1.048717785E1
1.135599844E1,-5.591514111E-1,3.281646013E0,1.062456703E1
1.137600000E1,-6.191022396E-1,2.872477055E0,1.119518185E1
1.139800000E1,-5.828348994E-1,2.008026600E0,1.214253902E1
1.141999844E1,-7.354125977E-1,1.599489450E0,1.246322727E1
1.143999844E1,-1.122641206E0,1.558960438E0,1.101299191E1
1.145999844E1,-9.595865011E-1,1.651635289E0,9.109114647E0
1.147999844E1,-4.314542711E-1,1.566995502E0,8.239156723E0
1.149999844E1,9.927317500E-2,1.304504752E0,8.825889587E0
1.151999844E1,1.206964925E-1,9.282799363E-1,9.473052025E0
1.154000000E1,4.307647794E-2,7.163259983E-1,9.631021500E0
1.156200000E1,9.640971571E-2,9.067608118E-1,9.536814690E0
1.158399844E1,6.909666210E-2,1.357675195E0,9.298715591E0
1.160399844E1,1.759259403E-2,1.837453961E0,8.635358810E0
1.162399844E1,-1.712333038E-2,2.235360861E0,7.735818863E0
1.164399844E1,-4.052904621E-2,2.504239321E0,7.201595783E0
1.166399844E1,-9.957963228E-2,2.646636724E0,7.280125618E0
1.168399844E1,-2.717706263E-1,2.680950403E0,7.611760616E0
1.170399844E1,-2.733603716E-1,2.643974304E0,7.872594833E0
1.172399844E1,-2.821040154E-1,2.710762978E0,7.904619694E0
1.174399844E1,-4.018332362E-1,2.952290058E0,7.882133484E0
1.176399844E1,-4.290888309E-1,2.998172522E0,8.177730560E0
1.178400000E1,-5.775101781E-1,3.034468651E0,8.569738388E0
1.180600625E1,-8.618360162E-1,3.039132595E0,9.040208817E0
1.182800000E1,-1.152903914E0,2.941583157E0,9.494876862E0
1.184800000E1,-1.417003512E0,2.822687149E0,9.528319359E0
1.186999844E1,-1.255921602E0,2.641618490E0,9.505124092E0
1.189000000E1,-1.044149637E0,2.480383396E0,9.937000275E0
1.191000000E1,-1.290359735E0,2.528650284E0,1.074969769E1
1.193199844E1,-1.694682956E0,2.958275557E0,1.128252220E1
1.195199844E1,-1.331013322E0,3.048651934E0,1.101672745E1
1.197199844E1,3.057874553E-2,1.983050227E0,1.107863140E1
1.199199844E1,8.159918189E-1,7.326831818E-1,1.252145481E1
1.201199844E1,4.950730205E-1,-7.835742831E-2,1.427942085E1
1.203199844E1,-1.582663059E-1,2.617054284E-1,1.464748669E1
1.205199844E1,3.961637616E-1,4.328333735E-1,1.203310490E1
1.207199844E1,1.810016513E0,8.103702664E-1,9.314085960E0
1.209199844E1,2.904243231E0,1.068905711E0,8.185737610E0
1.211199844E1,2.436397314E0,1.196851850E0,9.355342865E0
1.213199844E1,1.108400464E0,9.776674509E-1,9.924952507E0
1.215200000E1,-4.060565960E-3,1.402628660E0,9.638682365E0
1.217200000E1,6.175125018E-2,1.665176868E0,8.596591949E0
1.219399844E1,4.589110017E-1,2.084219694E0,7.673474312E0
1.221399844E1,3.915573061E-1,2.279270411E0,7.219466209E0
1.223399844E1,6.547663361E-2,2.397773981E0,6.792081833E0
1.225399844E1,-1.725644767E-1,2.547832727E0,6.503724575E0
1.227399844E1,-2.289431393E-1,2.523632288E0,6.551311493E0
1.229399844E1,-6.333717108E-1,2.551950932E0,7.221410275E0
1.231399844E1,-7.898280025E-1,2.256420135E0,7.416518688E0
1.233399844E1,-8.815546036E-1,2.106179237E0,7.432368279E0
1.235399844E1,-9.646334052E-1,2.021424532E0,7.544608593E0
1.237399844E1,-1.036909580E0,1.866375923E0,7.922863960E0
1.239399844E1,-9.694793224E-1,1.787472606E0,8.052150726E0
1.241399844E1,-9.169409275E-1,1.817036271E0,8.090697289E0
1.243399844E1,-7.987822890E-1,1.749270797E0,8.067952156E0
1.245399844E1,-8.011669517E-1,1.768453121E0,8.426316261E0
1.247399844E1,-8.044326305E-1,1.520605326E0,9.360849380E0
1.249399844E1,-6.053308249E-1,1.238865376E0,1.031771660E1
1.251399844E1,-1.087542176E-1,9.846776724E-1,1.110121346E1
1.253404219E1,-1.168274656E-1,8.552471399E-1,1.183912563E1
1.255600000E1,-3.033645153E-1,4.684207737E-1,1.300489140E1
1.257799844E1,-4.453310966E-1,1.578640938E-1,1.409060478E1
1.259799844E1,-5.684218407E-1,2.883002162E-1,1.458949947E1
1.261800000E1,-7.202237844E-1,6.744083166E-1,1.333053207E1
1.263999844E1,-3.824593425E-1,9.166344404E-1,1.142048550E1
1.265999844E1,-1.892377064E-2,1.355970502E0,1.048896885E1
1.267999844E1,4.279779196E-1,1.275659442E0,1.098610020E1
1.269999844E1,4.453885555E-1,9.333555698E-1,1.199562073E1
1.271999844E1,1.853878349E-1,6.364170909E-1,1.222960186E1
1.273999844E1,2.630174160E-1,2.858676612E-1,1.153714085E1
1.275999844E1,7.746008635E-1,1.365461051E-1,1.037782001E1
1.277999844E1,1.095816493E0,2.005000263E-1,9.651276588E0
1.279999844E1,6.578691602E-1,4.336378276E-1,9.237806320E0
1.281999844E1,1.609956920E-1,6.084337234E-1,8.744256973E0
1.283999844E1,1.033050120E-1,6.361393929E-1,7.899850368E0
1.286000000E1,2.824487686E-1,7.217847705E-1,7.266976357E0
1.288199844E1,3.184767067E-1,8.071907163E-1,7.098070621E0
1.290199844E1,1.672493517E-1,8.334599137E-1,6.861667156E0
1.292199844E1,2.208124399E-1,1.005765796E0,6.876444340E0
1.294199844E1,4.314638674E-1,1.107088447E0,7.363884449E0
1.296200000E1,5.789179802E-1,1.143643022E0,7.869511127E0
1.298399844E1,4.510867596E-1,1.231653929E0,8.339254379E0
1.300399844E1,2.238387018E-1,1.300894260E0,8.870383263E0
1.302399844E1,-2.818550169E-1,1.277900338E0,9.686940193E0
1.304399844E1,-8.188169599E-1,8.356626034E-1,1.131720066E1
1.306399844E1,-1.001073122E0,9.213462472E-1,1.318745422E1
1.308399844E1,-7.474984527E-1,9.570103288E-1,1.462201309E1
1.310399844E1,-1.190167189E0,1.279892325E0,1.397977257E1
1.312399844E1,-1.057777524E0,1.359772444E0,1.339023304E1
1.314399844E1,-4.497747123E-1,1.302847862E0,1.367116928E1
1.316399844E1,-3.170114458E-1,6.876434088E-1,1.411583996E1
1.318399844E1,-5.536926985E-1,-7.718906552E-2,1.323366165E1
1.320399844E1,4.830445647E-1,-6.359669566E-1,1.264993763E1
1.322399844E1,1.511402130E0,-8.070375323E-1,1.293146706E1
1.324400000E1,1.264617324E0,-7.309497595E-1,1.253615570E1
1.326400000E1,8.227242827E-1,-6.255378127E-1,1.142110825E1
1.328400000E1,6.570264101E-1,-5.868188739E-1,9.218710899E0
1.330600000E1,3.736295402E-1,-1.242303401E-1,8.457162857E0
1.332600469E1,-1.091756043E-3,1.494077593E-1,7.663265228E0
1.334799844E1,7.178774476E-2,5.049275756E-1,6.290822029E0
1.336799844E1,-8.565495908E-2,1.151907921E0,5.071943760E0
1.338800000E1,-5.355350375E-1,1.934151053E0,4.475203514E0
1.340800000E1,-5.075228810E-1,2.266160011E0,4.868015766E0
1.342800000E1,-5.054925680E-1,2.378601074E0,5.420261860E0
1.344999844E1,-5.099649429E-1,2.266006708E0,4.358711243E0
1.346999844E1,-6.189011335E-1,2.626037121E0,5.019606590E0
1.348999844E1,-9.603525996E-1,2.849722385E0,6.596792221E0
1.351000000E1,-6.551206112E-1,2.925819874E0,7.593440533E0
1.353204062E1,-5.951123834E-1,2.965017557E0,8.540242195E0
1.355400156E1,-9.523847103E-1,3.001419306E0,9.185316086E0
1.357599844E1,-1.313133478E0,2.969997644E0,1.002806664E1
1.359599844E1,-1.158496737E0,2.691561460E0,1.089172173E1
1.361599844E1,-1.548694253E0,2.446021795E0,1.151898384E1
1.363599844E1,-8.526135087E-1,1.016970754E0,1.408945560E1
1.365599844E1,-5.035868287E-1,-6.442892551E-1,1.662702179E1
1.367599844E1,-1.419321060E0,-1.315288186E0,1.623822212E1
1.369599844E1,-2.937771797E0,-7.830572128E-1,1.320822620E1
1.371599844E1,-2.876029968E0,-8.834604919E-2,1.158993721E1
1.373600000E1,-8.702923059E-1,-3.939898312E-2,1.142666340E1
1.375799844E1,-1.748341769E-1,2.155356109E-1,1.096220684E1
1.377800000E1,-1.239832520E0,3.890290558E-1,1.023234844E1
1.379999844E1,-1.689339161E0,5.707681179E-1,9.355936050E0
1.381999844E1,-1.225936651E0,9.022501111E-1,8.250965118E0
1.383999844E1,-5.561251640E-1,1.181251168E0,7.109016895E0
1.386000000E1,-6.464152932E-1,1.453318715E0,7.329504013E0
1.388199844E1,-6.035112143E-1,1.236317873E0,7.768312931E0
1.390199844E1,-5.716491938E-1,1.195970774E0,7.334876537E0
1.392199844E1,-4.324311316E-1,1.986019015E0,6.989306450E0
1.394200000E1,1.934323460E-1,1.564639568E0,6.948892593E0
1.396399844E1,2.929449379E-1,1.654211402E0,7.621768475E0
1.398399844E1,-2.115325034E-1,1.740929484E0,8.186771393E0
1.400399844E1,-4.149726331E-1,1.638170242E0,8.374257088E0
1.402399844E1,-5.585097671E-1,1.649681687E0,8.249701500E0
1.404399844E1,-7.279521823E-1,1.905324817E0,8.510726929E0
1.406399844E1,-3.931758106E-1,1.789704084E0,9.119466782E0
1.408399844E1,-9.099882096E-2,1.557370782E0,1.051916504E1
1.410399844E1,-1.111292616E-1,1.148000598E0,1.182057571E1
1.412399844E1,-5.426123142E-1,1.110947847E0,1.169456482E1
1.414399844E1,-1.033979177E0,1.678249121E0,1.128984833E1
1.416399844E1,-1.100729465E0,2.221819162E0,1.174395180E1
1.418399844E1,2.855612040E-1,1.295090675E0,1.281453323E1
1.420399844E1,1.684004903E0,-2.345359921E-1,1.391824150E1
1.422399844E1,8.607251048E-1,-7.523635030E-1,1.446584415E1
1.424399844E1,-9.094136208E-2,-9.836912751E-1,1.357522869E1
1.426399844E1,9.265560657E-2,-3.194918633E-1,1.165392971E1
1.428399844E1,1.397390127E0,2.414600402E-1,1.022931290E1
1.430399844E1,1.675050497E0,6.781049967E-1,9.686652184E0
1.432400000E1,1.042196035E0,9.421279430E-1,9.440701485E0
1.434400000E1,2.862411737E-1,1.010228634E0,9.137422562E0
1.436600625E1,-9.345047921E-2,1.176711798E0,8.436113358E0
1.438799844E1,-3.467857242E-1,1.364532113E0,8.084462166E0
1.440800000E1,-6.119196415E-1,1.469742894E0,7.835044384E0
1.442999844E1,-6.400371790E-1,1.621813059E0,7.496666908E0
1.444999844E1,-6.282959580E-1,1.800918579E0,7.013038158E0
1.446999844E1,-5.984546542E-1,1.869603395E0,7.062386990E0
1.449000000E1,-6.755288243E-1,1.794655323E0,7.495833397E0
1.451000000E1,-7.000645995E-1,1.907584906E0,7.530750751E0
1.453004219E1,-6.331802011E-1,2.088031292E0,7.728607655E0
1.455199844E1,-4.888193607E-1,2.247398853E0,8.251893997E0
1.457199844E1,-1.581322253E-1,2.258680344E0,8.777009964E0
1.459199844E1,1.527500711E-2,2.275200129E0,9.269505501E0
1.461199844E1,6.144479290E-2,2.288196087E0,9.817903519E0
1.463199844E1,2.123369575E-1,2.357244968E0,1.041363811E1
1.465199844E1,1.884907037E-1,2.244659901E0,1.090743732E1
1.467199844E1,-1.672110520E-2,1.830328822E0,1.124331474E1
1.469199844E1,-1.075216770E0,2.129106283E0,1.085546398E1
1.471199844E1,-5.985791683E-1,1.290350199E0,1.154158497E1
1.473199844E1,2.533639967E-1,2.315097302E-1,1.315087128E1
1.475200000E1,-3.186682463E-1,-3.747212887E-1,1.451142883E1
1.477201406E1,-1.176137209E0,-9.014456868E-1,1.286997318E1
1.479399844E1,-1.580240130E0,-7.072854638E-1,1.038506985E1
1.481399844E1,-9.674394727E-1,-5.996038914E-1,1.021854877E1
1.483399844E1,-5.504652858E-1,-1.622119546E-1,1.112905407E1
1.485399844E1,-9.136752486E-1,3.490746021E-1,1.107358456E1
1.487399844E1,-9.645568132E-1,6.831423044E-1,9.868851662E0
1.489399844E1,-6.766588688E-1,9.981714487E-1,8.579172134E0
1.491399844E1,-2.430402040E-1,1.194831133E0,7.667421341E0
1.493399844E1,4.982812330E-2,1.344784737E0,7.423835278E0
1.495399844E1,2.914605439E-1,1.384672284E0,7.329264164E0
1.497399844E1,6.252122521E-1,1.371140122E0,7.138714314E0
1.499400625E1,8.564251065E-1,1.334853649E0,6.939593792E0
1.501600000E1,1.119480848E0,1.195453644E0,6.758314610E0
1.503799844E1,9.313157201E-1,1.310528517E0,7.295094013E0
1.505799844E1,9.002964497E-1,1.432613611E0,7.744687080E0
1.507800000E1,8.677831888E-1,1.582126856E0,8.258368492E0
1.509999844E1,6.739390492E-1,1.572521210E0,8.840771675E0
1.511999844E1,6.655306220E-1,1.473650217E0,9.369113922E0
1.513999844E1,7.497107387E-1,1.322480321E0,1.037071514E1
1.516000000E1,6.668139100E-1,1.484558225E0,1.164245701E1
1.518199844E1,2.272480428E-1,2.079354525E0,1.224816132E1
1.520199844E1,-4.039496928E-2,2.375019312E0,1.253878880E1
1.522199844E1,-2.341529354E-2,2.242917061E0,1.296578979E1
1.524199844E1,8.248408437E-1,1.392688036E0,1.360850906E1
1.526199844E1,2.458395004E0,6.385814399E-2,1.369468021E1
1.528199844E1,2.948487997E0,-1.022391200E0,1.343490887E1
1.530201094E1,2.404324532E0,-1.567072034E0,1.267278671E1
1.532399844E1,2.106993198E0,-1.104110122E0,1.152684593E1
1.534399844E1,2.591886282E0,-4.616020918E-1,1.045461750E1
1.536399844E1,2.683124304E0,3.954263777E-2,9.788119316E0
1.538399844E1,1.567368865E0,5.287259817E-1,9.761446953E0
1.540399844E1,5.603677034E-1,8.174187541E-1,9.632448196E0
1.542399844E1,-6.184701994E-2,1.098584175E0,8.824959755E0
1.544399844E1,-4.262062013E-1,1.365221739E0,7.667631626E0
1.546399844E1,-8.645461798E-1,1.745315552E0,6.816962242E0
1.548399844E1,-1.069442034E0,1.963695526E0,6.481113911E0
1.550399844E1,-9.759914875E-1,2.101927280E0,6.653955460E0
1.552399844E1,-8.529008031E-1,2.113831043E0,6.853019714E0
1.554399844E1,-9.318999052E-1,2.030254364E0,6.828138828E0
1.556399844E1,-8.603802919E-1,1.930128813E0,6.654894352E0
1.558399844E1,-6.690261364E-1,1.903294563E0,7.004649162E0
1.560399844E1,-5.112865567E-1,1.847500086E0,7.816436291E0
1.562399844E1,-4.254496396E-1,1.970811009E0,8.448371887E0
1.564399844E1,-1.672972441E-1,2.381589174E0,9.159880638E0
1.566399844E1,4.181233793E-2,2.586906195E0,1.012371922E1
1.568400000E1,-5.179136992E-2,2.614563942E0,1.065345955E1
1.570599844E1,1.341423392E-1,2.566153288E0,1.107623863E1
1.572600781E1,6.713437438E-1,2.379941940E0,1.196513748E1
1.574799844E1,6.266966462E-1,2.418660879E0,1.232322502E1
1.576800000E1,-3.010469377E-1,2.623183012E0,1.228052139E1
1.579000000E1,-1.407675624E0,2.321408510E0,1.242773628E1
1.581000156E1,-1.968493581E0,1.730117202E0,1.314938641E1
1.583199844E1,-2.018273592E0,1.122516751E0,1.371513653E1
1.585199844E1,-1.830577850E0,8.670074344E-1,1.262205887E1
1.587199844E1,-1.738621354E0,8.674192429E-1,1.063569546E1
1.589199844E1,-9.802819490E-1,7.328460217E-1,9.982202530E0
1.591199844E1,-1.788947433E-1,3.282546401E-1,1.074214172E1
1.593199844E1,-4.905240610E-2,-3.635355830E-2,1.083817768E1
1.595199844E1,-5.561251938E-2,6.903920323E-2,1.038876629E1
1.597199844E1,1.765963137E-1,2.722015679E-1,9.638241768E0
1.599199844E1,3.280056417E-1,7.288811803E-1,8.575206757E0
1.601200000E1,3.352074027E-1,1.333407640E0,7.448744774E0
1.603200000E1,4.076942503E-1,1.703053117E0,6.613187313E0
1.605399844E1,4.639771283E-1,1.885165691E0,6.189317703E0
1.607399844E1,3.330430388E-1,1.957077861E0,6.085246563E0
1.609399844E1,2.089850754E-1,1.914767623E0,6.264965057E0
1.611399844E1,-5.804502591E-2,1.966932535E0,6.657585621E0
1.613399844E1,-3.599921614E-2,1.996572614E0,7.183984280E0
1.615399844E1,-5.523902178E-2,2.104685307E0,7.873964310E0
1.617399844E1,-4.836287349E-2,2.174682140E0,8.600432396E0
1.619399844E1,-2.592728734E-1,2.339010477E0,9.037374496E0
1.621399844E1,-5.458971262E-1,2.523086309E0,9.337980270E0
1.623399844E1,-6.113067269E-1,2.552832127E0,9.766532898E0
1.625399844E1,-4.840117991E-1,2.486493349E0,1.029869747E1
1.627399844E1,-5.568434596E-1,2.718941689E0,1.093881989E1
1.629399844E1,-7.883531451E-1,3.077880383E0,1.173783207E1
1.631399844E1,-1.127764821E0,3.336999893E0,1.243339539E1
1.633399844E1,-9.880965948E-1,3.532816887E0,1.258346462E1
1.635399844E1,1.333091408E-1,2.899263382E0,1.253792667E1
1.637399844E1,1.667101860E0,1.921078682E0,1.300588799E1
1.639399844E1,2.297514200E0,8.864867091E-1,1.355468655E1
1.641399844E1,1.815724254E0,1.102960780E-1,1.302578831E1
1.643399844E1,1.241652131E0,-5.584236234E-2,1.178964233E1
1.645399844E1,1.667551875E0,1.273811013E-1,1.080193806E1
1.647399844E1,2.633114338E0,2.676717564E-2,1.008210754E1
1.649399844E1,2.020390272E0,3.072718382E-1,1.009781361E1
1.651399844E1,4.071196318E-1,8.144116402E-1,9.878869057E0
1.653399844E1,-2.617437243E-1,1.359676719E0,8.657749176E0
1.655399844E1,-4.007606208E-1,1.851953387E0,7.345113754E0
1.657399844E1,-5.985887647E-1,2.315901518E0,6.351299763E0
1.659399844E1,-7.997208238E-1,2.553952456E0,6.000577927E0
1.661399844E1,-8.549981713E-1,2.736687422E0,5.830599785E0
1.663399844E1,-9.046921730E-1,2.805774689E0,5.953278542E0
1.665399844E1,-9.447615743E-1,2.653503418E0,6.150857449E0
1.667399844E1,-1.045950055E0,2.652248859E0,6.566912174E0
1.669399844E1,-1.110670209E0,2.604805231E0,7.204833031E0
1.671400000E1,-9.695559144E-1,2.591943502E0,7.901833057E0
1.673400000E1,-8.308454752E-1,2.787080526E0,8.703794479E0
1.675599844E1,-5.289557576E-1,3.151516438E0,8.771215439E0
1.677599844E1,-3.883107901E-1,3.681180954E0,9.085737228E0
1.679600938E1,-1.406737268E-1,3.720244646E0,1.009949875E1
1.681799844E1,-1.110909600E-2,3.442871571E0,1.100711250E1
1.683799844E1,-2.211955041E-1,3.150175810E0,1.168809128E1
1.685799844E1,-2.868732512E-1,2.944906473E0,1.221942043E1
1.687800000E1,-6.423643231E-1,3.376178741E0,1.198825550E1
1.689999844E1,-5.418652892E-1,3.179183722E0,1.173998737E1
1.691999844E1,-2.483649105E-1,2.342458248E0,1.263314819E1
1.693999844E1,-8.738549352E-1,1.574618578E0,1.333975506E1
1.695999844E1,-2.157568455E0,1.811692357E0,1.246793938E1
1.697999844E1,-2.201947212E0,1.917583108E0,1.031898022E1
1.699999844E1,-1.210240245E0,1.787357807E0,9.131217003E0
1.701999844E1,-2.631514966E-1,1.522041917E0,9.766025543E0
1.703999844E1,-4.951400757E-1,9.458054304E-1,1.037715054E1
1.705999844E1,-1.193442464E0,7.906802893E-1,1.008696270E1
1.708000000E1,-1.188520074E0,8.233659863E-1,9.237184525E0
1.710000000E1,-7.334493399E-1,1.231395364E0,8.415973663E0
1.712000000E1,-1.340944469E-1,1.541109324E0,7.766330719E0
1.714199844E1,1.001733989E-1,1.880396485E0,7.312170029E0
1.716199844E1,1.873127520E-1,1.951073289E0,6.958182335E0
1.718199844E1,3.254486322E-1,1.973760724E0,6.708112717E0
1.720199844E1,2.008160502E-1,2.124298573E0,6.856151104E0
1.722200000E1,8.643067628E-2,2.369503260E0,7.191118717E0
1.724399844E1,1.441309303E-1,2.557716131E0,7.772976875E0
1.726399844E1,1.354926676E-1,2.578363657E0,8.352383614E0
1.728400000E1,-1.523765773E-1,2.719544888E0,8.553496361E0
1.730600625E1,-6.331706047E-1,3.097962856E0,8.468023300E0
1.732601406E1,-1.001532912E0,3.234949350E0,8.626298904E0
1.734799844E1,-8.559653759E-1,2.960583687E0,9.353810310E0
1.736799844E1,-5.187277198E-1,2.629111052E0,1.071887875E1
1.738799844E1,-5.887821317E-1,2.454056740E0,1.169825077E1
1.740800000E1,-1.157050610E0,2.972746134E0,1.194129181E1
1.743000000E1,-1.405894399E0,3.845528603E0,1.123608398E1
1.745199844E1,3.085838556E-1,2.887024164E0,1.164028358E1
1.747199844E1,1.769142747E0,1.344985843E0,1.359010124E1
1.749199844E1,8.300026655E-1,2.969001830E-1,1.574780464E1
1.751199844E1,-1.805419624E-1,1.305989027E-1,1.574183750E1
1.753199844E1,7.375003099E-1,2.485755980E-1,1.311094570E1
1.755199844E1,2.511536598E0,7.914464474E-1,1.059072304E1
1.757200000E1,3.104944229E0,1.428495646E0,9.282425880E0
1.759399844E1,1.823318720E0,1.688917756E0,9.026743889E0
1.761399844E1,4.706234336E-1,1.565482259E0,8.724797249E0
1.763399844E1,-3.808887601E-1,1.705131292E0,7.874251366E0
1.765399844E1,-4.691102803E-1,1.911865830E0,6.711397648E0
1.767399844E1,-4.039784670E-1,2.236308813E0,6.053193569E0
1.769399844E1,-4.963371456E-1,2.451786995E0,6.078504562E0
1.771399844E1,-6.144766808E-1,2.475547075E0,6.182853699E0
1.773399844E1,-7.266880870E-1,2.568068504E0,6.293369770E0
1.775399844E1,-6.693134904E-1,2.589405775E0,6.422398090E0
1.777399844E1,-8.088666797E-1,2.582108259E0,6.991873741E0
1.779399844E1,-1.065927386E0,2.625606298E0,7.477321625E0
1.781399844E1,-1.148603916E0,2.807364225E0,8.111220360E0
1.783399844E1,-7.656081915E-1,3.121234655E0,8.709272385E0
1.785399844E1,-4.000423551E-1,3.640058041E0,9.120606422E0
1.787399844E1,-2.481254935E-1,3.921913147E0,9.515448570E0
1.789399844E1,-4.980035424E-1,4.175870419E0,1.019979668E1
1.791399844E1,-5.433688164E-1,3.957194090E0,1.109775639E1
1.793399844E1,-4.228830636E-1,3.560867548E0,1.171837234E1
1.795399844E1,-3.795767426E-1,3.177651644E0,1.178563976E1
1.797399844E1,-1.389920235E0,3.611950159E0,1.127427673E1
1.799400000E1,-2.244477749E0,4.071033478E0,1.077483654E1
1.801600000E1,-2.502505779E0,3.691293955E0,1.184447002E1
1.803600000E1,-1.921653271E0,2.897098780E0,1.265371037E1
1.805799844E1,-1.976959348E0,2.403634787E0,1.157722950E1
1.807799844E1,-2.667878151E0,2.191623449E0,9.614702225E0
1.809799844E1,-2.474857569E0,1.878998160E0,8.400813103E0
1.811800000E1,-1.651865125E0,1.384854078E0,9.370407104E0
1.813999844E1,-1.722790837E0,1.173254609E0,1.035280609E1
1.816000000E1,-1.583180308E0,1.178282499E0,9.932221413E0
1.818199844E1,-1.063724637E0,1.335533619E0,8.741661072E0
1.820199844E1,-7.026407719E-1,1.668499947E0,7.836873531E0
1.822200000E1,-4.643123150E-1,1.971088767E0,6.985093117E0
1.824399844E1,-2.119347453E-1,2.257722616E0,6.472762585E0
1.826399844E1,-3.567360714E-2,2.409658670E0,6.281408310E0
1.828400000E1,9.429324418E-2,2.456910610E0,6.144345284E0
1.830600000E1,9.911037236E-2,2.547449589E0,6.540001392E0
1.832799844E1,1.537364870E-1,2.557620287E0,7.098769665E0
1.834799844E1,1.255040467E-1,2.648465872E0,7.569852829E0
1.836799844E1,8.091444522E-2,2.699443340E0,8.108289719E0
1.838799844E1,-1.439777017E-1,2.966980934E0,8.391283989E0
1.840800000E1,-5.385612845E-1,3.209331512E0,8.773206711E0
1.842999844E1,-5.403425694E-1,3.146900415E0,9.123661041E0
1.844999844E1,-3.021482527E-1,3.026280403E0,1.015413475E1
1.846999844E1,-6.944429874E-1,3.236366987E0,1.130035496E1
1.848999844E1,-1.395091772E0,3.526850700E0,1.232885551E1
1.850999844E1,-1.781199813E0,3.872400761E0,1.236931705E1
1.852999844E1,-8.707520366E-1,3.341606379E0,1.196274376E1
1.854999844E1,9.989663363E-1,2.050585985E0,1.191035843E1
1.856999844E1,1.249035835E0,9.990812540E-1,1.358910561E1
1.859000000E1,8.761820197E-2,4.213220477E-1,1.459620285E1
1.861199844E1,-3.818368614E-1,5.229223371E-1,1.338780212E1
1.863199844E1,1.015831113E0,1.222622991E0,1.160360336E1
1.865199844E1,2.562255621E0,1.322719812E0,1.042995739E1
1.867199844E1,2.079048157E0,1.544710159E0,9.982996941E0
1.869200000E1,5.543630123E-1,1.546319127E0,9.509644508E0
1.871399844E1,-3.278811276E-1,1.730509877E0,8.632840157E0
1.873399844E1,-5.136041045E-1,1.919086814E0,7.732964993E0
1.875399844E1,-5.087199807E-1,2.143624544E0,7.030687809E0
1.877400000E1,-6.544790268E-1,2.342697859E0,6.557746887E0
1.879400000E1,-8.451532125E-1,2.473392248E0,6.084097862E0
1.881600000E1,-8.216900229E-1,2.418641567E0,5.924241066E0
1.883799844E1,-6.435709596E-1,2.241978168E0,6.611655235E0
1.885799844E1,-7.092295289E-1,2.153641939E0,7.089164257E0
1.887800000E1,-9.251578450E-1,2.242734909E0,7.740482807E0
1.889999844E1,-9.124781489E-1,2.400799990E0,8.184444427E0
1.891999844E1,-4.535671473E-1,2.830664635E0,8.507077217E0
1.893999844E1,2.444958687E-2,3.329731226E0,9.286783218E0
1.895999844E1,7.920019329E-2,3.451203346E0,1.031815720E1
1.897999844E1,-3.921127617E-1,3.410578728E0,1.103412914E1
1.899999844E1,-6.979289651E-1,3.112337589E0,1.138563538E1
1.901999844E1,-4.587098956E-1,2.731333971E0,1.187277889E1
1.903999844E1,-5.138148069E-1,2.840825796E0,1.211542702E1
1.906000000E1,-6.628395319E-1,3.215135336E0,1.203156281E1
1.908199844E1,-5.229415298E-1,2.740853310E0,1.256720352E1
1.910199844E1,-1.320814133E0,2.020371199E0,1.312588501E1
1.912199844E1,-2.593380213E0,1.584769964E0,1.233245564E1
1.914199844E1,-2.716356039E0,1.373199224E0,1.087961578E1
1.916199844E1,-1.783220530E0,1.195750475E0,1.014284420E1
1.918200000E1,-7.153012753E-1,1.073598385E0,1.067715359E1
1.920399844E1,-8.244864345E-1,8.144403696E-1,1.081029987E1
1.922399844E1,-1.209579468E0,7.584735155E-1,1.039256859E1
1.924399844E1,-1.166225195E0,9.667786360E-1,9.626778603E0
1.926399844E1,-5.247420073E-1,1.308029056E0,8.375788689E0
1.928400000E1,1.714248396E-2,1.614860296E0,7.436141491E0
1.930400000E1,2.416707128E-1,1.752383351E0,7.076637745E0
1.932600625E1,2.130743712E-1,1.728173137E0,6.871512413E0
1.934799844E1,3.615627885E-1,1.656337500E0,6.582321167E0
1.936799844E1,5.241194963E-1,1.743582129E0,6.253223896E0
1.938799844E1,5.675694346E-1,1.893028140E0,6.059446812E0
1.940800000E1,3.438073695E-1,2.001801729E0,6.423039913E0
1.942999844E1,1.786457449E-1,2.182199955E0,7.008355141E0
1.944999844E1,6.076483801E-2,2.395216703E0,7.638470650E0
1.946999844E1,-1.223054007E-1,2.571449280E0,7.980075359E0
1.948999844E1,-2.724314332E-1,2.698016405E0,8.438430786E0
1.950999844E1,-3.781881034E-1,2.608243465E0,9.647483826E0
1.952999844E1,-4.983482957E-1,2.531868458E0,1.080545425E1
1.954999844E1,-7.893396020E-1,3.019701242E0,1.164634514E1
1.956999844E1,-1.102309585E0,3.687156677E0,1.265242672E1
1.959000000E1,-1.263477683E0,4.054896832E0,1.260941792E1
1.961199844E1,-6.882659197E-1,3.676354170E0,1.247398281E1
1.963199844E1,7.418194413E-1,2.611595154E0,1.257971954E1
1.965199844E1,1.965084076E0,1.330802560E0,1.350029945E1
1.967199844E1,1.458978653E0,7.778666019E-1,1.343338680E1
1.969200000E1,9.934021831E-1,4.627321362E-1,1.281826878E1
1.971200000E1,1.785959601E0,4.547642469E-1,1.156986523E1
1.973399844E1,2.523354530E0,5.711224079E-1,1.044603634E1
1.975399844E1,1.368525624E0,9.146041870E-1,9.932968140E0
1.977399844E1,-4.025131837E-2,1.276866078E0,9.620831490E0
1.979399844E1,-6.365320683E-1,1.549699664E0,8.854255676E0
1.981399844E1,-7.179444432E-1,1.766700506E0,7.735311508E0
1.983399844E1,-8.073918223E-1,2.056073427E0,6.881835938E0
1.985399844E1,-1.488781571E0,2.309063911E0,6.910844326E0
1.987399844E1,-1.216666222E0,2.101620674E0,6.324733734E0
1.989399844E1,-1.165765524E0,2.160920143E0,6.645135880E0
1.991399844E1,-9.547885060E-1,2.040712118E0,6.768963814E0
1.993400000E1,-9.931532145E-1,2.050739050E0,7.384493828E0
1.995599844E1,-8.214218616E-1,2.184881449E0,8.258665085E0
1.997601719E1,-5.552345514E-1,2.344028711E0,8.161890984E0
1.999800000E1,-3.782168329E-1,2.384825945E0,8.096558571E0
2.001800312E1,-7.287088037E-1,2.705486298E0,8.718466759E0
2.003999844E1,-6.803842187E-1,2.843554974E0,9.395565033E0
2.005999844E1,-7.404882908E-1,2.972257853E0,1.016259193E1
2.008000000E1,-8.352028728E-1,2.945346832E0,1.096240807E1
2.010199844E1,-5.495171547E-1,2.642030239E0,1.100674915E1
2.012199844E1,-7.920785546E-1,2.994361162E0,1.107813358E1
2.014200156E1,-9.585234523E-1,3.218755245E0,1.146347523E1
2.016399844E1,-4.184011221E-1,2.248040438E0,1.276431274E1
2.018399844E1,-6.580415368E-1,8.413703442E-1,1.434225464E1
2.020399844E1,-1.674610019E0,5.103767514E-1,1.455808735E1
2.022400469E1,-2.675213814E0,9.250333309E-1,1.210186577E1
2.024599844E1,-1.882886410E0,1.376168013E0,9.881598473E0
2.026600469E1,-8.071045280E-1,1.559678674E0,9.798337936E0
2.028601250E1,-4.445841014E-1,1.322394133E0,1.033252239E1
2.030799844E1,-1.194160819E0,9.272742867E-1,9.655345917E0
2.032799844E1,-1.440916777E0,9.179177880E-1,8.716531754E0
2.034800312E1,-1.465462208E0,8.007263541E-1,8.103271484E0
2.036999844E1,-1.425038457E0,1.137025476E0,8.455008507E0
2.039000312E1,-8.391868472E-1,1.225189567E0,8.162523270E0
2.041199844E1,-5.557229519E-1,1.455981135E0,7.279982090E0
2.043199844E1,-4.263977408E-1,1.529406548E0,6.817010880E0
2.045199844E1,-2.508069873E-1,1.508883476E0,7.056995392E0
2.047199844E1,-2.649040520E-1,1.669151187E0,7.349241734E0
2.049199844E1,-3.666672111E-1,1.928299665E0,7.613427162E0
2.051199844E1,-3.534607887E-1,2.174548149E0,7.970689774E0
2.053200313E1,-3.321619630E-1,2.346346378E0,7.985112667E0
2.055399844E1,-6.651666760E-1,2.730050802E0,7.944526196E0
2.057399844E1,-9.013786912E-1,2.882465601E0,8.291580200E0
2.059399844E1,-8.312572837E-1,2.949014902E0,8.710613251E0
2.061399844E1,-1.140607357E0,2.776680231E0,9.684621811E0
2.063399844E1,-1.635076880E0,3.066273212E0,1.106567478E1
2.065399844E1,-1.326569676E0,3.196785927E0,1.149494553E1
2.067399844E1,-2.120515585E0,4.018954754E0,1.209255791E1
2.069399844E1,-1.172861934E0,3.801350594E0,1.162477875E1
2.071399844E1,7.380844653E-2,2.544011831E0,1.233083820E1
2.073399844E1,8.067597747E-1,9.991578460E-1,1.390756321E1
2.075399844E1,1.550197750E-1,-1.968991607E-1,1.439763737E1
2.077400469E1,-7.630320787E-1,-3.748745024E-1,1.388481808E1
2.079599844E1,3.809462190E-1,-9.595960379E-2,1.265276241E1
2.081600000E1,1.891907692E0,3.623768091E-1,1.099650097E1
2.083800156E1,1.871595383E0,9.098827839E-1,9.926963806E0
2.085999844E1,7.306241393E-1,1.248681545E0,9.586565018E0
2.088000625E1,-7.503427565E-2,1.369234324E0,8.886261940E0
2.090199844E1,-2.783403099E-1,1.658530474E0,7.754953384E0
2.092200469E1,-2.536800504E-1,1.869498014E0,7.026953220E0
2.094399844E1,-5.811972618E-1,2.119280338E0,6.668933868E0
2.096399844E1,-5.762843490E-1,2.223610163E0,6.493793488E0
2.098399844E1,-3.997454941E-1,2.256745815E0,6.567860126E0
2.100400469E1,-3.550122380E-1,2.121138096E0,6.599195957E0
2.102600469E1,-1.170180440E0,2.288492918E0,6.981319904E0
2.104800000E1,-1.018847704E0,2.368286848E0,6.133418083E0
2.106999844E1,-9.244779348E-1,2.751024008E0,7.077873230E0
2.108999844E1,-8.123239279E-1,2.798074722E0,8.216718674E0
2.110999844E1,-7.604655027E-1,3.038902760E0,9.203062057E0
2.112999844E1,-7.196969986E-1,3.199630260E0,9.685723305E0
2.114999844E1,-9.524804950E-1,3.277968407E0,9.737390518E0
2.117000469E1,-1.027093410E0,3.251067400E0,1.022778988E1
2.119199844E1,-1.084554195E0,3.176329851E0,1.129553699E1
2.121200625E1,-1.274098396E0,3.170603037E0,1.191474533E1
2.123399844E1,-1.726516366E0,3.403960943E0,1.178739262E1
2.125399844E1,-9.729653001E-1,2.465606451E0,1.245870686E1
2.127399844E1,-1.596673965E0,1.755371213E0,1.344681358E1
2.129399844E1,-2.704068899E0,1.412521482E0,1.255317307E1
2.131399844E1,-2.629915476E0,1.397351980E0,1.107344151E1
2.133399844E1,-1.520567060E0,1.309992194E0,1.029857254E1
2.135399844E1,-4.957433939E-1,1.236614704E0,1.081803703E1
2.137399844E1,-6.894630790E-1,9.666924477E-1,1.069163418E1
2.139399844E1,-1.015821457E0,1.065094113E0,1.006978226E1
2.141399844E1,-7.832199931E-1,1.082150340E0,9.419727325E0
2.143399844E1,-5.658552051E-1,1.370460153E0,8.803277969E0
2.145399844E1,-2.941516042E-1,1.636417747E0,7.771397114E0
2.147399844E1,-2.002510242E-2,1.931574941E0,7.135678768E0
2.149400469E1,9.192776680E-2,2.057107687E0,6.661990643E0
2.151604063E1,1.393521130E-1,2.158066511E0,6.253175735E0
2.153799844E1,1.956158578E-1,2.192246199E0,6.305158615E0
2.155800000E1,4.646666721E-2,2.264177561E0,6.729584217E0
2.158000000E1,-1.333283037E-1,2.325411320E0,7.037066460E0
2.160200000E1,-2.205442786E-1,2.580097198E0,7.515954494E0
2.162399844E1,-4.045913815E-1,2.642729521E0,8.322513580E0
2.164399844E1,-6.757586598E-1,2.577942371E0,9.085650444E0
2.166399844E1,-7.710478306E-1,2.601893902E0,9.546428680E0
2.168399844E1,-3.870083392E-1,2.573556185E0,1.003143692E1
2.170399844E1,-5.593621135E-1,2.983931780E0,1.052195072E1
2.172399844E1,-1.320086241E0,3.726172686E0,1.098561192E1
2.174399844E1,-1.557428241E0,4.108900547E0,1.160077858E1
2.176399844E1,-7.534744143E-1,3.488821030E0,1.196430492E1
2.178400000E1,1.132610559E0,2.024000645E0,1.279621315E1
2.180601406E1,1.684694290E0,4.650688767E-1,1.450090408E1
2.182799844E1,1.018780693E-1,2.717514634E-1,1.524276161E1
2.184799844E1,-1.180054173E-1,3.625012934E-1,1.352070808E1
2.186799844E1,1.223475337E0,1.213927269E0,1.163819504E1
2.188799844E1,2.285964489E0,1.412780166E0,1.000105953E1
2.190800000E1,1.376876712E0,1.720741510E0,9.596065521E0
2.192999844E1,-1.361917704E-1,1.590448976E0,9.276431084E0
2.194999844E1,-7.284023166E-1,1.710293174E0,8.700768471E0
2.196999844E1,-6.099947095E-1,1.731160998E0,7.701802254E0
2.198999844E1,-4.420175254E-1,2.022774696E0,6.427512169E0
2.201000000E1,-4.868944287E-1,2.202416420E0,5.777256489E0
2.203199844E1,-6.027737856E-1,2.231223583E0,5.643765450E0
2.205199844E1,-6.159418821E-1,2.351125240E0,5.323593616E0
2.207199844E1,-5.963286161E-1,2.540228844E0,5.471258163E0
2.209199844E1,-5.684792399E-1,2.398693085E0,6.328957081E0
2.211199844E1,-6.981492043E-1,2.404793739E0,7.295956135E0
2.213199844E1,-7.981885672E-1,2.724582195E0,8.064389229E0
2.215199844E1,-7.106181979E-1,3.247725010E0,8.618005753E0
2.217199844E1,-7.633768320E-1,3.697260141E0,9.574652672E0
2.219199844E1,-8.877987266E-1,3.734006643E0,1.048216915E1
2.221199844E1,-6.787753105E-1,3.515655279E0,1.117551041E1
2.223200000E1,-4.673768878E-1,3.332537174E0,1.194221115E1
2.225399844E1,-4.182191491E-1,2.924067497E0,1.292497349E1
2.227399844E1,-9.527485967E-1,3.181961298E0,1.263199997E1
2.229400000E1,-1.138433337E0,3.389471531E0,1.242236328E1
2.231600000E1,-7.647463083E-1,2.564611435E0,1.330389881E1
2.233800000E1,-1.637356162E0,1.734905601E0,1.312714958E1
2.235999844E1,-2.476887941E0,1.724668026E0,1.148065758E1
2.237999844E1,-1.973291516E0,1.637078524E0,1.004534245E1
2.239999844E1,-1.380094528E0,1.669984341E0,9.769376755E0
2.241999844E1,-1.119950056E0,1.561354756E0,1.031142521E1
2.244000000E1,-1.382929206E0,1.239315391E0,1.011706352E1
2.246000000E1,-1.528161526E0,1.043268561E0,9.781261444E0
2.248000000E1,-1.321082115E0,1.089639544E0,8.891155243E0
2.250000000E1,-1.052452803E0,1.411257505E0,7.747253418E0
2.252199844E1,-5.205377936E-1,1.725817084E0,6.566404819E0
2.254199844E1,-9.097966366E-3,2.001178980E0,5.728836536E0
2.256200000E1,2.295847982E-1,2.130992651E0,5.284328461E0
2.258200000E1,2.054608166E-1,2.288349390E0,5.311613083E0
2.260399844E1,2.480967492E-1,2.350790024E0,5.741487503E0
2.262399844E1,1.470806003E-1,2.488016129E0,6.298455238E0
2.264399844E1,2.280620784E-1,2.585077047E0,6.878282547E0
2.266399844E1,1.760983318E-1,2.753648043E0,7.544253826E0
2.268399844E1,-3.394882083E-1,2.904281378E0,8.405630112E0
2.270399844E1,-9.712510109E-1,2.926030636E0,8.950243950E0
2.272399844E1,-1.169663310E0,3.052645445E0,9.063288689E0
2.274399844E1,-6.413875222E-1,3.072890759E0,9.641440392E0
2.276399844E1,-6.688633561E-1,3.309265614E0,1.099553394E1
2.278399844E1,-1.310949922E0,3.576420069E0,1.242981434E1
2.280399844E1,-1.943737388E0,3.923837900E0,1.272894573E1
2.282399844E1,-1.154426694E0,3.805143118E0,1.248185444E1
2.284399844E1,2.716269791E-1,3.094151258E0,1.271892834E1
2.286399844E1,1.006982088E0,1.802010298E0,1.354987907E1
2.288399844E1,2.425900847E-1,1.096831679E0,1.382219505E1
2.290399844E1,-1.537077501E-2,6.619105935E-1,1.292443752E1
2.292399844E1,1.206064701E0,5.949590802E-1,1.182742405E1
2.294399844E1,1.915964723E0,6.379685402E-1,1.132439137E1
2.296399844E1,1.105517864E0,6.638929844E-1,1.107205296E1
2.298399844E1,2.649711072E-1,1.266752958E0,9.996088982E0
2.300399844E1,7.289864868E-2,1.857354641E0,8.858259201E0
2.302399844E1,-1.910572946E-1,2.056427717E0,7.700787067E0
2.304399844E1,-7.464546561E-1,2.234546900E0,6.849514008E0
2.306399844E1,-1.106590509E0,2.224471807E0,6.297248363E0
2.308399844E1,-1.207817316E0,2.098096371E0,6.065633297E0
2.310399844E1,-1.216187358E0,2.133118868E0,6.166879177E0
2.312399844E1,-1.114548802E0,2.040702581E0,6.228793621E0
2.314399844E1,-1.048449755E0,2.135263920E0,6.433708668E0
2.316399844E1,-1.008303761E0,2.199725628E0,6.848939419E0
2.318399844E1,-1.112786651E0,2.352427721E0,7.473969936E0
2.320399844E1,-1.256773949E0,2.676957130E0,8.309172630E0
2.322399844E1,-1.158601999E0,2.941573620E0,9.310561180E0
2.324399844E1,-1.239928365E0,3.180486441E0,1.050856304E1
2.326399844E1,-1.356085420E0,2.935243368E0,1.111783981E1
2.328400000E1,-1.198604345E0,2.685365438E0,1.165372849E1
2.330600000E1,-4.798938036E-1,2.331684351E0,1.254805851E1
2.332799844E1,-4.878233969E-1,2.693524837E0,1.287322044E1
2.334800000E1,-1.096276283E0,3.282077074E0,1.224106407E1
2.336999844E1,-1.053601980E0,2.609526634E0,1.207836437E1
2.338999844E1,-1.642087102E0,1.808072329E0,1.243116379E1
2.341000000E1,-2.681103706E0,1.491932392E0,1.173179913E1
2.343199844E1,-2.964060068E0,1.422634602E0,1.046963406E1
2.345199844E1,-1.723786831E0,1.127994657E0,1.038014793E1
2.347199844E1,-6.536362171E-1,7.309401631E-1,1.097100735E1
2.349199844E1,-8.295621276E-1,4.651072025E-1,1.139734840E1
2.351204062E1,-1.348088741E0,2.482021004E-1,1.134643745E1
2.353399844E1,-1.268314004E0,4.285525084E-1,9.903117180E0
2.355399844E1,-5.678279996E-1,1.018139005E0,8.368098259E0
2.357399844E1,-4.327759147E-2,1.597430587E0,6.928043842E0
2.359399844E1,-1.391031146E-1,2.226741791E0,6.121341705E0
2.361399844E1,-1.370632648E-1,2.302628279E0,5.823158264E0
2.363399844E1,1.213381346E-2,2.213631153E0,5.673989773E0
2.365399844E1,1.455291659E-1,2.122584343E0,6.225795746E0
2.367399844E1,3.407428041E-2,2.076519728E0,7.030956745E0
2.369399844E1,-8.864292502E-2,2.119069576E0,7.204717636E0
2.371399844E1,-1.731582433E-1,2.173590422E0,7.531517029E0
2.373399844E1,-4.650593400E-1,2.377116680E0,8.806696892E0
2.375399844E1,-7.828561068E-1,2.389202595E0,9.747982025E0
2.377399844E1,-1.121262074E0,2.569706202E0,9.726865768E0
2.379400000E1,-1.137897015E0,2.726727486E0,9.592800140E0
2.381599844E1,-1.031287909E0,2.869287729E0,1.021838570E1
2.383599844E1,-5.059906244E-1,2.881469727E0,1.113177299E1
2.385599844E1,-4.054245353E-1,3.225985527E0,1.154351902E1
2.387600000E1,-1.311543733E-1,3.203939915E0,1.160919666E1
2.389600000E1,1.227995634E0,2.423841715E0,1.148690128E1
2.391600000E1,1.601031423E0,1.506699800E0,1.255934048E1
2.393600000E1,1.719324142E-1,9.058222771E-1,1.379212379E1
2.395600000E1,-1.247666359E0,1.051150322E0,1.347970963E1
2.397799844E1,-4.525328279E-1,1.285600066E0,1.184923935E1
2.399799844E1,1.479453802E0,1.388857245E0,1.049216843E1
2.401799844E1,1.471935987E0,1.832119703E0,1.000517750E1
2.403799844E1,-1.126232445E-1,1.819717765E0,1.017820072E1
2.405799844E1,-1.239181399E0,1.910027146E0,9.988303185E0
2.407799844E1,-1.155432105E0,2.015841246E0,8.647521019E0
2.409799844E1,-5.835818648E-1,2.521180630E0,7.060663700E0
2.411799844E1,-4.278534353E-1,2.735605240E0,6.107378960E0
2.413799844E1,-7.752808332E-1,2.739943504E0,6.012597084E0
2.415799844E1,-9.215856791E-1,2.575308561E0,5.973523617E0
2.417799844E1,-6.543545127E-1,2.384529114E0,5.998136044E0
2.419800000E1,-4.221935570E-1,2.223954916E0,6.048864365E0
2.421999844E1,-7.171783447E-1,2.208057404E0,6.884708881E0
2.423999844E1,-1.071060538E0,2.235887527E0,7.692770958E0
2.425999844E1,-1.163859725E0,2.639070988E0,8.173603058E0
2.427999844E1,-5.064215660E-1,2.945634365E0,9.018134117E0
2.429999844E1,-2.735902071E-1,3.228580952E0,9.992028236E0
2.431999844E1,-5.815132856E-1,3.367751122E0,1.086548996E1
2.433999844E1,-5.062108636E-1,3.158153057E0,1.130233669E1
2.435999844E1,2.378783077E-1,2.878012419E0,1.149473476E1
2.437999844E1,5.973054171E-1,3.162472486E0,1.156476116E1
2.439999844E1,3.184000850E-1,3.635097265E0,1.186274338E1
2.441999844E1,6.579265930E-3,3.699702501E0,1.217418098E1
2.443999844E1,-2.311458141E-1,2.959472656E0,1.255481052E1
2.445999844E1,-1.192800879E0,2.232535601E0,1.254123020E1
2.447999844E1,-2.200788498E0,1.921701193E0,1.152911568E1
2.449999844E1,-1.934083939E0,1.745248556E0,1.059009933E1
2.451999844E1,-9.550087452E-1,1.634224653E0,1.067042065E1
2.453999844E1,-2.861262560E-1,1.436884880E0,1.131375217E1
2.455999844E1,-4.017087519E-1,1.264760971E0,1.112176609E1
2.457999844E1,-4.186884165E-1,1.188998938E0,1.055909920E1
2.459999844E1,-2.850823998E-1,1.302637219E0,9.690646172E0
2.461999844E1,-1.538035125E-1,1.440409184E0,8.806036949E0
2.463999844E1,3.623863682E-2,1.640238881E0,7.682274818E0
2.465999844E1,2.940367162E-1,1.941716671E0,6.776328087E0
2.467999844E1,5.349987149E-1,2.124576092E0,6.213384151E0
2.469999844E1,6.288322806E-1,2.194736004E0,6.058469772E0
2.472000000E1,4.639771283E-1,2.264589071E0,6.375328064E0
2.474199844E1,3.379080594E-1,2.431283236E0,6.768762589E0
2.476199844E1,2.362693995E-1,2.503013372E0,7.324849606E0
2.478199844E1,-1.083519906E-1,2.515587568E0,7.950406075E0
2.480201250E1,-5.685750246E-1,2.629264355E0,8.568771362E0
2.482399844E1,-6.689112782E-1,2.859222651E0,8.921916008E0
2.484399844E1,-4.403607249E-1,2.956906319E0,9.305064201E0
2.486399844E1,7.242938876E-2,3.060278177E0,1.002506828E1
2.488399844E1,3.195397258E-1,3.317894220E0,1.097671604E1
2.490399844E1,-1.338837668E-2,3.993135691E0,1.165803814E1
2.492399844E1,-8.540883660E-1,4.753036022E0,1.118367100E1
2.494399844E1,9.986694157E-2,3.868876696E0,1.073209572E1
2.496399844E1,1.698896885E0,2.320249557E0,1.163170242E1
2.498399844E1,1.106743693E0,1.095500469E0,1.297037697E1
2.500399844E1,-7.750222087E-1,1.523114443E0,1.278227901E1
2.502399844E1,-4.611040950E-1,2.309877872E0,1.129422569E1
2.504399844E1,1.463747978E0,2.562360764E0,9.372494698E0
2.506399844E1,2.167786837E0,2.877859116E0,8.299481392E0
2.508399844E1,1.331453800E0,2.692040205E0,8.834049225E0
2.510399844E1,8.047390729E-2,2.520356894E0,9.149441719E0
2.512399844E1,-5.762172937E-1,2.503779650E0,8.848519325E0
2.514399844E1,-6.317723393E-1,2.594041109E0,7.997236729E0
2.516399844E1,-6.433124542E-1,2.811625957E0,7.581124783E0
2.518399844E1,-9.327139258E-1,2.949330807E0,7.156853199E0
2.520400000E1,-1.138778090E0,2.972707748E0,6.730598927E0
2.522599844E1,-8.968775868E-1,2.909395456E0,6.942294598E0
2.524600781E1,-7.339664698E-1,2.899224997E0,7.410830021E0
2.526800000E1,-7.884106636E-1,2.921395302E0,7.735521793E0
2.529000000E1,-8.077366352E-1,3.028339624E0,7.984633923E0
2.531199844E1,-5.373450518E-1,3.313862562E0,8.235105515E0
2.533199844E1,-2.863561213E-1,3.703839540E0,8.803393364E0
2.535199844E1,-2.020227313E-1,3.922353506E0,9.494924545E0
2.537199844E1,-3.223457336E-1,3.928655148E0,1.019753742E1
2.539199844E1,-4.808035791E-1,3.713924170E0,1.074463177E1
2.541200000E1,-5.780560374E-1,3.483831644E0,1.129711723E1
2.543399844E1,-8.011860847E-1,3.077353477E0,1.172536373E1
2.545399844E1,-1.245406270E0,3.096354008E0,1.151753712E1
2.547399844E1,-1.137581110E0,2.997224569E0,1.195656681E1
2.549400000E1,-3.520050943E-1,2.072899818E0,1.295083141E1
2.551400000E1,-1.030904889E0,1.965342760E0,1.276610374E1
2.553600000E1,-2.088184357E0,2.111618996E0,1.049504948E1
2.555799844E1,-1.882848144E0,2.384299278E0,8.841251373E0
2.557799844E1,-9.493009448E-1,2.346403837E0,9.182022095E0
2.559799844E1,-6.911869049E-1,1.765580058E0,1.004721928E1
2.561799844E1,-1.186212063E0,1.364627957E0,1.004158878E1
2.563799844E1,-1.312673688E0,1.310241222E0,1.008934784E1
2.565799844E1,-9.522027373E-1,1.453060150E0,9.551658630E0
2.567799844E1,-7.409288287E-1,1.935980201E0,8.390843391E0
2.569799844E1,-6.672544479E-1,2.237898588E0,7.453303337E0
2.571799844E1,-6.024290323E-1,2.397888660E0,6.847550869E0
2.573799844E1,-3.174615800E-1,2.460176229E0,6.522964478E0
2.575799844E1,2.383667231E-2,2.542163372E0,6.383755684E0
2.577800000E1,3.847003356E-2,2.713291168E0,6.638517857E0
2.579999844E1,-1.054214835E-1,2.610752344E0,7.151729584E0
2.581999844E1,-4.316266999E-2,2.653091669E0,7.527925968E0
2.583999844E1,4.144842178E-2,2.838192225E0,7.905003071E0
2.585999844E1,-3.103460073E-1,3.039783955E0,8.314881325E0
2.587999844E1,-8.526996970E-1,3.171934128E0,8.379676819E0
2.589999844E1,-8.989940286E-1,3.295666456E0,8.539274216E0
2.591999844E1,-5.836585164E-1,3.170440197E0,9.261394501E0
2.593999844E1,-9.388334751E-1,3.378371716E0,1.053465080E1
2.595999844E1,-1.460443854E0,3.614277363E0,1.175691891E1
2.597999844E1,-1.817984343E0,3.884132624E0,1.163579178E1
2.599999844E1,-9.050369859E-1,3.489683151E0,1.117741680E1
2.602000000E1,8.815354705E-1,2.168840408E0,1.171308613E1
2.604199844E1,1.379481554E0,8.472888470E-1,1.315574646E1
2.606199844E1,1.214339063E-1,7.531105280E-1,1.429451466E1
2.608199844E1,-1.005947813E-1,9.547501802E-1,1.346662807E1
2.610199844E1,9.491573572E-1,1.542450070E0,1.155095005E1
2.612199844E1,2.139085293E0,1.532662630E0,9.981532097E0
2.614199844E1,1.676458359E0,1.677339315E0,9.496064186E0
2.616199844E1,4.967968464E-1,1.570481420E0,9.130451202E0
2.618199844E1,-4.652987421E-1,1.684924245E0,8.650432587E0
2.620199844E1,-8.126016259E-1,1.686485171E0,8.195553780E0
2.622199844E1,-7.311987877E-1,1.679015398E0,7.446704388E0
2.624199844E1,-6.494703293E-1,1.743409753E0,7.078083992E0
2.626199844E1,-7.901152968E-1,1.756635427E0,7.453753471E0
2.628199844E1,-7.173890471E-1,1.851953387E0,7.508006096E0
2.630201094E1,-6.848566532E-1,2.099542379E0,6.984029770E0
2.632399844E1,-7.424228191E-1,2.299678802E0,6.613005161E0
2.634399844E1,-7.300495505E-1,2.311534643E0,6.999870300E0
2.636399844E1,-6.506386995E-1,2.336913347E0,7.566386223E0
2.638399844E1,-6.097936034E-1,2.490774155E0,8.153472900E0
2.640399844E1,-5.213326216E-1,2.671172619E0,8.921647072E0
2.642399844E1,-3.115718365E-1,2.753284216E0,9.780610085E0
2.644399844E1,-3.654892445E-1,3.023809910E0,1.040748882E1
2.646399844E1,-4.173380733E-1,3.102301359E0,1.072987270E1
2.648399844E1,-4.166677296E-1,3.027611732E0,1.154508972E1
2.650399844E1,-3.529915214E-1,2.874784946E0,1.226089859E1
2.652399844E1,-9.310762882E-1,3.328170061E0,1.225613880E1
2.654400000E1,-5.899695754E-1,2.743803024E0,1.271255016E1
2.656400313E1,2.046084702E-1,1.380142331E0,1.371750164E1
2.658599844E1,-4.194258451E-1,6.196672916E-1,1.387236786E1
2.660600625E1,-2.081384659E0,7.068736553E-1,1.171263599E1
2.662800000E1,-2.252934217E0,8.994441032E-1,1.009978676E1
2.665000000E1,-1.024842739E0,8.867452741E-1,9.995026588E0
2.667199844E1,-3.111791611E-1,6.599377394E-1,1.068270779E1
2.669199844E1,-9.706763625E-1,5.401414633E-1,1.040025902E1
2.671199844E1,-1.230466485E0,5.063449144E-1,1.020895290E1
2.673199844E1,-8.779154420E-1,5.524764061E-1,9.655174255E0
2.675199844E1,-3.939706683E-1,8.165472746E-1,8.567056656E0
2.677199844E1,-1.936143041E-1,1.176711798E0,7.455208778E0
2.679199844E1,-1.768070012E-1,1.393253088E0,6.746027470E0
2.681199844E1,-1.939877868E-1,1.547535419E0,6.018228054E0
2.683199844E1,-3.053469062E-1,1.781774521E0,5.418844700E0
2.685199844E1,-2.519083321E-1,1.870877028E0,5.400869370E0
2.687199844E1,-9.205226600E-2,2.118274689E0,6.215041161E0
2.689199844E1,-2.762142718E-1,2.375392914E0,6.908334732E0
2.691199844E1,-4.966340363E-1,2.541512251E0,7.336581230E0
2.693199844E1,-5.487893224E-1,2.505752325E0,7.600882053E0
2.695199844E1,-6.127145290E-1,2.465299845E0,8.281064034E0
2.697200781E1,-6.132795215E-1,2.213104248E0,9.363904953E0
2.699399844E1,-6.883617043E-1,2.144668341E0,1.087580490E1
2.701400000E1,-7.833157182E-1,2.128703833E0,1.213148689E1
2.703400000E1,-1.058888435E0,2.669142246E0,1.308547115E1
2.705400000E1,-1.128243685E0,3.220163107E0,1.314464664E1
2.707599844E1,6.712288260E-1,1.850516796E0,1.365019608E1
2.709600000E1,1.822255611E0,6.987237930E-1,1.502798271E1
2.711600000E1,7.198503017E-1,-3.317405656E-2,1.627951813E1
2.713800000E1,-1.419569999E-1,-2.131414115E-1,1.613788605E1
2.715999844E1,1.161647439E0,-1.442841589E-1,1.347516155E1
2.717999844E1,1.789943457E0,1.556326896E-1,1.079425907E1
2.719999844E1,1.186173677E0,6.155588627E-1,8.788530350E0
2.721999844E1,4.018619657E-1,8.391868472E-1,7.321420670E0
2.723999844E1,-2.340380102E-1,9.721320868E-1,6.245074272E0
2.725999844E1,-5.697050691E-1,1.090577960E0,5.376907825E0
2.727999844E1,-4.818857610E-1,1.116847157E0,5.261028290E0
2.730000000E1,-4.712555110E-1,1.219529748E0,5.923053741E0
2.732199844E1,-4.918552339E-1,1.177621603E0,6.155281544E0
2.734199844E1,-4.844427705E-1,1.421667337E0,5.703763962E0
2.736199844E1,-1.425124705E-1,1.563049793E0,5.238925457E0
2.738199844E1,-1.024718280E-3,1.732109189E0,5.610868931E0
2.740199844E1,-3.518039882E-1,1.761893034E0,6.619862080E0
2.742199844E1,-7.269658446E-1,1.758924246E0,7.558906555E0
2.744199844E1,-6.963871121E-1,1.877666950E0,8.866246223E0
2.746199844E1,-6.598994732E-1,2.074575663E0,9.618341446E0
2.748199844E1,-8.052370548E-1,2.319215298E0,1.053334808E1
2.750199844E1,-1.043967605E0,2.688468218E0,1.152360821E1
2.752199844E1,-9.132538438E-1,2.740613937E0,1.262724972E1
2.754199844E1,-8.403168917E-1,2.636782169E0,1.375248623E1
2.756200938E1,-6.452661157E-1,2.454353571E0,1.402652645E1
2.758399844E1,-4.314638674E-1,2.411468744E0,1.386288738E1
2.760399844E1,-2.978769839E-1,1.816107273E0,1.457670403E1
2.762399844E1,-1.405769944E0,1.657965541E0,1.508590317E1
2.764399844E1,-2.250741243E0,1.333168149E0,1.355107594E1
2.766399844E1,-1.628890395E0,9.307219982E-1,1.168703747E1
2.768399844E1,-3.006446958E-1,1.996285468E-1,1.127487946E1
2.770399844E1,4.139383137E-1,-1.898506135E-1,1.263156796E1
2.772399844E1,3.874967694E-1,-5.256038904E-1,1.284385777E1
2.774399844E1,2.862794697E-1,-4.609891772E-1,1.141771793E1
2.776399844E1,3.268564045E-1,-2.872850597E-1,9.505669594E0
2.778400000E1,2.526744604E-1,1.130063161E-1,8.614376068E0
2.780601250E1,-2.766547799E-1,4.206133485E-1,8.398016930E0
2.782799844E1,-3.988165259E-1,4.718875587E-1,7.382530689E0
2.784800000E1,-2.367386594E-2,5.591035485E-1,6.271266460E0
2.786999844E1,5.663340688E-1,4.040167630E-1,6.103863716E0
2.788999844E1,2.605465949E-1,7.023917437E-1,7.020124912E0
2.790999844E1,1.628057216E-4,9.457096457E-1,7.434206963E0
2.792999844E1,6.451894343E-2,1.475891232E0,6.837677479E0
2.794999844E1,3.750948012E-1,2.303949833E0,6.425185204E0
2.796999844E1,7.968094945E-1,2.573086977E0,6.892466545E0
2.798999844E1,6.920871139E-1,2.429645538E0,8.279302597E0
2.801000000E1,3.145310581E-1,2.025714874E0,9.967435837E0
2.803199844E1,7.123899460E-1,1.640411258E0,1.118479061E1
2.805199844E1,1.110430837E0,1.975302577E0,1.071560478E1
2.807199844E1,2.244324684E-1,3.430814505E0,9.352307320E0
2.809199844E1,2.237525135E-1,3.210375547E0,9.774500847E0
2.811199844E1,1.578410983E0,1.312261939E0,1.208450317E1
2.813199844E1,1.802067757E-1,6.311402917E-1,1.497407532E1
2.815199844E1,-1.547525764E0,7.916092277E-1,1.702470970E1
2.817199844E1,-5.097925663E-1,4.587290287E-1,1.493910027E1
2.819199844E1,1.925608516E0,5.358319283E-1,1.198219395E1
2.821199844E1,2.419829369E0,1.061694384E0,1.091092300E1
2.823200000E1,9.766905904E-1,1.490131974E0,1.072895432E1
2.825200000E1,4.413854480E-1,1.739425778E0,9.385519981E0
2.827399844E1,4.514028132E-1,1.883633375E0,7.782582283E0
2.829399844E1,1.647115052E-1,2.047032833E0,7.272301197E0
2.831399844E1,-1.514284611E-1,1.914595246E0,6.926434994E0
2.833399844E1,-3.852366209E-1,2.116589069E0,6.149976730E0
2.835399844E1,-2.801216245E-1,2.122593880E0,5.678788185E0
2.837399844E1,-2.475317270E-1,1.985923171E0,5.866445541E0
2.839399844E1,-4.110461175E-1,1.923032403E0,6.378555775E0
2.841399844E1,-6.169570088E-1,1.984831572E0,6.874844551E0
2.843399844E1,-7.445775867E-1,2.123273849E0,6.900146961E0
2.845399844E1,-1.048736930E0,2.412933826E0,7.106900215E0
2.847399844E1,-8.461204767E-1,2.493245125E0,7.640405178E0
2.849399844E1,-5.283524394E-1,2.803073883E0,8.344837189E0
2.851399844E1,-3.605955243E-1,2.966779709E0,9.390978813E0
2.853399844E1,-3.676057458E-1,2.872132301E0,1.070199490E1
2.855399844E1,-3.640527427E-1,2.506049395E0,1.132186413E1
2.857399844E1,-3.000509441E-1,2.392410994E0,1.180991745E1
2.859399844E1,-8.500182033E-1,2.901159525E0,1.234994316E1
2.861399844E1,-1.282928228E0,3.197063684E0,1.222279167E1
2.863399844E1,-1.425957799E0,3.360147238E0,1.196662235E1
2.865399844E1,-1.764756441E0,3.129556894E0,1.164214039E1
2.867399844E1,-2.121320009E0,2.535641670E0,1.096973419E1
2.869399844E1,-1.840786695E0,1.837664723E0,1.025824451E1
2.871399844E1,-1.487163186E0,1.258248806E0,1.056219292E1
2.873399844E1,-9.715287685E-1,8.906334639E-1,1.151835155E1
2.875399844E1,-1.017200589E0,9.315838814E-1,1.207066536E1
2.877399844E1,-1.214214563E0,9.015414715E-1,1.132105923E1
2.879399844E1,-9.275137186E-1,1.154445767E0,9.634152412E0
2.881399844E1,-4.149534702E-1,1.459620237E0,8.383192062E0
2.883399844E1,-2.509985268E-1,1.721842766E0,7.216583729E0
2.885399844E1,1.239238866E-2,1.984113336E0,6.219532490E0
2.887399844E1,2.481159121E-1,2.135101080E0,6.063526154E0
2.889399844E1,4.638813734E-1,2.123714447E0,6.104180336E0
2.891399844E1,4.243578911E-1,2.164119005E0,6.471622944E0
2.893399844E1,2.295656502E-1,2.266878128E0,6.981482506E0
2.895399844E1,1.122880653E-1,2.294229507E0,7.188715458E0
2.897399844E1,-8.406520635E-2,2.458940983E0,7.454845428E0
2.899399844E1,-3.801609278E-1,2.600811720E0,7.862864971E0
2.901400000E1,-5.443744659E-1,2.725549459E0,8.520140648E0
2.903600000E1,-3.223266006E-1,2.766701221E0,9.199241638E0
2.905799844E1,-2.824487686E-1,2.752240181E0,9.922433853E0
2.907800000E1,-9.240565300E-1,3.174328327E0,1.046493053E1
2.909999844E1,-1.800525904E0,3.854511499E0,1.108183098E1
2.911999844E1,-1.758952975E0,4.359324455E0,1.132860565E1
2.913999844E1,-2.970629632E-1,3.619448662E0,1.177355385E1
2.915999844E1,1.183645368E0,2.025063753E0,1.278414631E1
2.917999844E1,1.211456537E0,9.758095741E-1,1.366906261E1
2.919999844E1,1.427997649E-1,7.314285636E-1,1.373115826E1
2.921999844E1,4.099065065E-1,7.718044519E-1,1.274759197E1
2.923999844E1,1.940969706E0,1.065323949E0,1.159237957E1
2.925999844E1,2.056456566E0,1.188864708E0,1.029137993E1
2.927999844E1,1.152894258E0,1.436607122E0,9.270971298E0
2.929999844E1,8.556206822E-1,1.659440279E0,8.684315681E0
2.931999844E1,4.956476390E-1,1.950805187E0,7.947150230E0
2.933999844E1,1.094628964E-2,2.061618328E0,7.328220367E0
2.935999844E1,-3.231597543E-1,2.127947330E0,7.063230038E0
2.937999844E1,-4.771931171E-1,2.157099009E0,7.023572922E0
2.939999844E1,-7.119781375E-1,2.104330778E0,7.401425838E0
2.941999844E1,-9.662423730E-1,1.888622880E0,7.841594696E0
2.943999844E1,-1.385610700E0,1.836764574E0,7.625474930E0
2.945999844E1,-1.405377150E0,1.877753258E0,7.347853184E0
2.947999844E1,-1.153478503E0,1.974708915E0,7.793854713E0
2.950004219E1,-9.884510040E-1,2.260787010E0,8.601218224E0
2.952199844E1,-8.390814662E-1,2.595726490E0,9.329839706E0
2.954199844E1,-7.303464413E-1,2.967143774E0,9.913393974E0
2.956199844E1,-6.913592815E-1,3.195090771E0,1.046028614E1
2.958199844E1,-5.715342164E-1,3.192294359E0,1.101434231E1
2.960199844E1,3.294421360E-3,2.918847799E0,1.139134407E1
2.962199844E1,1.174499616E-1,2.772926092E0,1.190643120E1
2.964199844E1,-5.058565140E-1,2.868090868E0,1.204222202E1
2.966199844E1,-6.971340775E-1,2.423075676E0,1.229985619E1
2.968199844E1,-6.250973344E-1,1.343348265E0,1.324168777E1
2.970199844E1,-1.664564013E0,1.172909737E0,1.375213146E1
2.972199844E1,-2.518326759E0,1.167479753E0,1.186312580E1
2.974199844E1,-2.172307014E0,1.324405432E0,1.017388248E1
2.976199844E1,-8.291024566E-1,1.277095914E0,9.942544937E0
2.978199844E1,-5.285630822E-1,1.153373122E0,1.060200405E1
2.980201250E1,-1.159100056E0,9.437847137E-1,1.041733360E1
2.982399844E1,-1.251659870E0,9.654666185E-1,9.854773521E0
2.984399844E1,-8.036569357E-1,1.135952830E0,9.035371780E0
2.986399844E1,-3.986345828E-1,1.435898542E0,8.154775620E0
2.988399844E1,-2.381560355E-1,1.740613461E0,7.596399784E0
2.990399844E1,-1.655829996E-1,1.942913771E0,7.019751549E0
2.992399844E1,-3.598963842E-2,1.951552153E0,6.604654312E0
2.994399844E1,1.660139412E-1,1.889571071E0,6.174703598E0
2.996399844E1,7.591534406E-2,2.071386814E0,6.111333847E0
2.998399844E1,-8.437166363E-2,2.215201616E0,6.282212734E0
3.000399844E1,-1.173063070E-1,2.243481874E0,6.868179321E0
3.002399844E1,1.540908217E-2,2.159100533E0,7.728301048E0
3.004399844E1,-9.745357931E-2,2.329376221E0,8.164381027E0
3.006399844E1,-5.507333875E-1,2.591234922E0,8.739094734E0
3.008399844E1,-6.912060380E-1,2.610273600E0,9.476374626E0
3.010399844E1,-4.463749751E-2,2.617178440E0,1.016472626E1
3.012399844E1,5.637770295E-1,2.906340599E0,1.079493809E1
3.014399844E1,6.498821080E-2,3.348836899E0,1.156348610E1
3.016399844E1,-4.778060317E-1,3.672159433E0,1.226450920E1
3.018399844E1,1.638016999E-1,2.804912567E0,1.219852448E1
3.020399844E1,8.390910625E-1,1.928902984E0,1.213030910E1
3.022399844E1,8.503246307E-1,1.377403498E0,1.330813217E1
3.024399844E1,-1.167412754E-2,1.381655574E0,1.331259441E1
3.026399844E1,3.203537464E-1,1.637375355E0,1.184804153E1
3.028400000E1,2.215507984E0,1.401259303E0,1.052577209E1
3.030599844E1,2.920533419E0,1.468497872E0,1.011825085E1
3.032600000E1,1.802671075E0,1.443780303E0,1.076414871E1
3.034800000E1,4.249420762E-1,1.571946621E0,1.072289181E1
3.036999844E1,3.035273254E-1,1.634425759E0,8.992602348E0
3.038999844E1,3.835894167E-1,1.966712117E0,7.752616882E0
3.040999844E1,2.050298601E-1,2.122737646E0,6.910278797E0
3.042999844E1,-3.150099218E-1,2.294842243E0,6.334559441E0
3.044999844E1,-7.728099823E-1,2.296298027E0,5.780138969E0
3.046999844E1,-9.773993492E-1,2.372787952E0,5.681124687E0
3.048999844E1,-9.274467230E-1,2.324626207E0,6.221199036E0
3.051000000E1,-1.103066206E0,2.167106867E0,7.241330147E0
3.053199844E1,-1.089246869E0,2.184096098E0,8.138370514E0
3.055199844E1,-1.215086102E0,2.406718493E0,8.657365799E0
3.057201563E1,-1.131384730E0,2.792395830E0,9.427561760E0
3.059399844E1,-6.120824814E-1,2.911205530E0,1.004086018E1
3.061399844E1,-5.765237659E-2,3.165632486E0,1.045974064E1
3.063399844E1,2.043977827E-1,3.405656338E0,1.087166786E1
3.065399844E1,1.069920883E-1,3.538859844E0,1.142032337E1
3.067399844E1,-1.461612284E-1,3.469485521E0,1.179223824E1
3.069400000E1,-5.776825547E-1,3.692117691E0,1.208323956E1
3.071400000E1,-1.250922531E-1,2.817487001E0,1.264826107E1
3.073600000E1,-3.713598251E-1,1.521170378E0,1.366665936E1
3.075799844E1,-2.192475796E0,1.234756827E0,1.302130699E1
3.077800000E1,-2.818032980E0,1.168322563E0,1.149819279E1
3.080000000E1,-1.737136960E0,1.156370759E0,1.037139416E1
3.082199844E1,-5.113057420E-2,1.111493826E0,1.092580605E1
3.084199844E1,-1.637633890E-3,1.062987328E0,1.065991497E1
3.086199844E1,-8.986875415E-1,1.216723800E0,9.666464806E0
3.088199844E1,-9.864973426E-1,1.442774653E0,8.471364975E0
3.090199844E1,-7.599100471E-1,1.636398554E0,7.379360199E0
3.092199844E1,-4.230362773E-1,1.768797874E0,6.612200737E0
3.094199844E1,-6.054457277E-2,1.891352296E0,6.651399136E0
3.096199844E1,1.685039252E-1,1.870187640E0,6.784315586E0
3.098199844E1,3.487489820E-1,1.824831843E0,6.653189659E0
3.100199844E1,4.955518842E-1,1.879352570E0,6.448801041E0
3.102199844E1,4.883213937E-1,2.088126898E0,6.407391071E0
3.104199844E1,4.244057536E-1,2.322624683E0,6.710258007E0
3.106199844E1,4.523796141E-1,2.319943190E0,7.449491501E0
3.108200000E1,2.531916201E-1,2.392946959E0,8.104458809E0
3.110200000E1,-2.494854033E-1,2.538112402E0,8.222703934E0
3.112399844E1,-3.759854436E-1,2.743870020E0,8.605354309E0
3.114399844E1,-2.049628198E-1,2.638917685E0,9.948166847E0
3.116399844E1,-6.825677752E-1,2.805745840E0,1.113814259E1
3.118399844E1,-1.385725617E0,3.547249317E0,1.146973896E1
3.120399844E1,-1.584252834E0,4.095990658E0,1.150503922E1
3.122399844E1,-1.281443834E0,4.019261360E0,1.183244133E1
3.124399844E1,5.553686023E-1,2.501174450E0,1.256061459E1
3.126399844E1,1.739368439E0,9.956335425E-1,1.422431660E1
3.128400000E1,2.027505785E-1,6.092764139E-1,1.552491379E1
3.130599844E1,-4.379377961E-1,8.055914044E-1,1.462820816E1
3.132599844E1,1.719276190E0,1.100394249E0,1.280257225E1
3.134599844E1,2.985253334E0,1.222469807E0,1.110586834E1
3.136599844E1,1.950259328E0,1.414063334E0,1.035216427E1
3.138600000E1,5.234395266E-1,1.420259595E0,9.607433319E0
3.140600000E1,-1.470518708E-1,1.697278261E0,8.377205849E0
3.142600312E1,-4.403224289E-1,1.883920670E0,7.303675175E0
3.144799844E1,-6.526689529E-1,2.094505072E0,6.365876198E0
3.146800000E1,-7.798681259E-1,2.207731724E0,5.747827053E0
3.148800000E1,-8.954793215E-1,2.251535892E0,5.364419460E0
3.150800000E1,-8.860844970E-1,2.229011536E0,5.622983932E0
3.152800000E1,-8.123813272E-1,2.105499268E0,6.037726402E0
3.154999844E1,-6.257868409E-1,2.080360174E0,6.708409786E0
3.156999844E1,-6.834775209E-1,2.099906445E0,7.529908180E0
3.158999844E1,-6.648314595E-1,2.106926203E0,8.287002563E0
3.160999844E1,-4.819336534E-1,2.388446093E0,8.727382660E0
3.162999844E1,-3.749703169E-1,2.990855932E0,8.845445633E0
3.164999844E1,-1.445044428E-1,3.385583162E0,9.089088440E0
3.166999844E1,-5.278735608E-2,3.573930264E0,1.018005943E1
3.168999844E1,-1.505665630E-1,3.253423452E0,1.130353451E1
3.171000000E1,-4.471794069E-1,2.877849579E0,1.217236996E1
3.173199844E1,-1.069911242E0,3.122479439E0,1.312971592E1
3.175199844E1,-1.351478994E-1,2.385084391E0,1.326422310E1
3.177199844E1,4.121282995E-1,1.833862782E0,1.370774269E1
3.179199844E1,-1.195472836E0,1.865772724E0,1.337126160E1
3.181199844E1,-2.380171537E0,1.724984050E0,1.192453194E1
3.183199844E1,-1.675414443E0,1.321723819E0,1.096564484E1
3.185199844E1,-3.754299879E-1,1.247723818E0,1.097814274E1
3.187199844E1,-7.123228908E-2,1.051715374E0,1.103575706E1
3.189199844E1,-4.306498468E-1,1.143260002E0,1.067152214E1
3.191200000E1,-5.256708860E-1,1.346317053E0,9.782986641E0
3.193399844E1,-2.868157923E-1,1.520710707E0,8.552721024E0
3.195399844E1,-1.592527181E-1,1.663031578E0,7.547903061E0
3.197399844E1,-1.391031146E-1,1.825732112E0,6.781212330E0
3.199399844E1,1.314129531E-1,1.950651884E0,6.388649464E0
3.201399844E1,5.079538226E-1,2.041440010E0,6.009398460E0
3.203399844E1,7.560793161E-1,2.070754528E0,5.708935738E0
3.205399844E1,5.564412475E-1,2.177727461E0,5.842819214E0
3.207399844E1,2.941229045E-1,2.190005064E0,6.203299999E0
3.209399844E1,3.628364801E-1,2.122431040E0,6.733922482E0
3.211399844E1,4.774516821E-1,2.352715015E0,7.445670605E0
3.213399844E1,6.980534643E-2,3.111073494E0,8.845617294E0
3.215399844E1,9.806649759E-3,3.496281385E0,1.022059727E1
3.217399844E1,2.930502892E-1,3.234126091E0,1.099641514E1
3.219399844E1,4.706904888E-1,3.061934948E0,1.168880844E1
3.221399844E1,8.791508526E-2,3.173255920E0,1.216425896E1
3.223399844E1,-1.504133344E0,3.748754978E0,1.198383236E1
3.225399844E1,-1.984697342E0,3.806933880E0,1.156157112E1
3.227399844E1,-3.440755010E-1,2.181079388E0,1.155591106E1
3.229400000E1,9.683588147E-1,-1.886630990E-2,1.388634109E1
3.231400000E1,-1.719611287E-1,-9.261537790E-1,1.629253387E1
3.233600781E1,-3.227384090E-1,-8.221305609E-1,1.535769367E1
3.235799844E1,1.696885586E0,4.817229509E-1,1.196258068E1
3.237800000E1,3.034181356E0,1.315403223E0,9.289704323E0
3.239999844E1,1.906981707E0,2.079392910E0,8.626787186E0
3.241999844E1,1.045021117E-1,2.168620110E0,8.945906639E0
3.243999844E1,-8.768811822E-1,2.222795963E0,8.243734360E0
3.245999844E1,-8.025555611E-1,2.269176483E0,6.969769955E0
3.247999844E1,-5.133839250E-1,2.559248209E0,5.923159122E0
3.249999844E1,-4.863485396E-1,2.617580891E0,5.614010334E0
3.251999844E1,-5.269733667E-1,2.470998049E0,5.969386578E0
3.253999844E1,-3.891631067E-1,2.297935486E0,6.336063385E0
3.255999844E1,-1.487469673E-1,2.436521769E0,6.683462143E0
3.258000000E1,-2.224021852E-1,2.709508657E0,7.410696030E0
3.260199844E1,-6.529467106E-1,2.985741854E0,7.669758320E0
3.262199844E1,-7.041251063E-1,3.261563540E0,7.716569424E0
3.264199844E1,-4.542949796E-1,3.267568111E0,8.741163254E0
3.266199844E1,-1.468794793E-1,3.200319767E0,9.718831062E0
3.268199844E1,-1.666172743E-1,3.412503719E0,1.042169094E1
3.270199844E1,-1.847174466E-1,3.350110531E0,1.084331989E1
3.272199844E1,1.958457083E-1,3.035752058E0,1.097266483E1
3.274199844E1,3.435392082E-1,2.749290466E0,1.119404221E1
3.276199844E1,-3.595516384E-1,3.181874990E0,1.134423542E1
3.278199844E1,-1.182639837E0,2.979009628E0,1.128380585E1
3.280201094E1,-2.413623571E0,3.243300438E0,1.051995945E1
3.282399844E1,-3.013993502E0,3.107683420E0,1.010245895E1
3.284399844E1,-2.236471653E0,2.277268887E0,1.001849937E1
3.286399844E1,-6.460801363E-1,1.179096460E0,1.185296440E1
3.288399844E1,-2.203144431E-1,5.757001638E-1,1.411120415E1
3.290399844E1,-8.830773830E-2,5.513176322E-1,1.451124668E1
3.292399844E1,-2.463346273E-1,1.017277122E0,1.189067841E1
3.294399844E1,-1.276588291E-1,1.732291102E0,9.085114479E0
3.296399844E1,2.451758236E-1,1.989399672E0,7.279723644E0
3.298399844E1,2.942186594E-1,2.337650537E0,6.170844078E0
3.300399844E1,1.940835714E-1,2.400905609E0,6.536792755E0
3.302399844E1,2.486905158E-1,1.981115699E0,6.725245476E0
3.304399844E1,4.182000160E-1,1.713568449E0,6.584677219E0
3.306399844E1,8.495298028E-1,1.587968588E0,6.518032074E0
3.308399844E1,8.098434806E-1,1.672732949E0,6.947216988E0
3.310399844E1,5.459163189E-1,1.744128108E0,7.359048367E0
3.312399844E1,1.532863826E-1,1.906866670E0,7.634467602E0
3.314399844E1,-2.647508383E-1,2.140023708E0,7.954773426E0
3.316399844E1,-1.491013020E-1,2.376302719E0,8.283698082E0
3.318400000E1,5.364256501E-1,2.443053007E0,9.100131035E0
3.320600000E1,7.250313163E-1,2.551778555E0,1.012047291E1
3.322799844E1,-2.395829707E-1,3.268152237E0,1.050740433E1
3.324800000E1,-1.339335561E0,4.360693932E0,1.072521019E1
3.326800000E1,-1.445561528E0,4.847597599E0,1.133568382E1
3.328999844E1,6.200695038E-1,2.969844580E0,1.275444889E1
3.331000000E1,9.026045203E-1,1.224260569E0,1.485827255E1
3.333199844E1,-9.809619188E-1,4.832456708E-1,1.541230011E1
3.335199844E1,-1.197962761E0,5.440583825E-1,1.438984203E1
3.337199844E1,1.207932234E0,6.024864912E-1,1.310804367E1
3.339200000E1,2.768329382E0,8.497596383E-1,1.157304382E1
3.341200000E1,2.239957809E0,1.361639977E0,9.804275513E0
3.343399844E1,9.465236664E-1,1.496155739E0,8.224666595E0
3.345399844E1,4.086231887E-1,1.606404066E0,7.241330147E0
3.347399844E1,2.589568496E-2,1.942971349E0,6.472398758E0
3.349399844E1,9.040505625E-3,2.159541368E0,5.953660965E0
3.351399844E1,7.912357897E-2,2.551998854E0,5.513051987E0
3.353399844E1,1.516870409E-1,2.854089499E0,5.142170429E0
3.355399844E1,9.343133122E-2,2.964816570E0,5.036557674E0
3.357399844E1,-2.758120373E-2,2.639243364E0,5.999179840E0
3.359399844E1,4.330632091E-2,2.203872204E0,7.068775177E0
3.361399844E1,-9.334513545E-2,2.111733913E0,7.879739285E0
3.363399844E1,-2.677483559E-1,2.098814726E0,8.315273285E0
3.365399844E1,-6.511366367E-1,2.306085348E0,7.973802567E0
3.367399844E1,-9.689621329E-1,2.639090300E0,8.208980560E0
3.369399844E1,-8.561186790E-1,2.791256189E0,9.373864174E0
3.371399844E1,-8.609836698E-1,2.826690197E0,1.102910995E1
3.373399844E1,-7.515877485E-1,2.655150652E0,1.198197365E1
3.375399844E1,-7.576978207E-1,2.449220419E0,1.255896664E1
3.377399844E1,-9.276478291E-1,2.510598183E0,1.253790760E1
3.379399844E1,-7.277032733E-1,2.250338793E0,1.273819733E1
3.381399844E1,-1.771996617E-1,1.339517593E0,1.389646339E1
3.383399844E1,-6.999018192E-1,6.652911901E-1,1.460710144E1
3.385400000E1,-1.973550081E0,6.310732365E-1,1.410239315E1
3.387400000E1,-1.873347878E0,6.058096290E-1,1.255873775E1
3.389400000E1,-3.470634818E-1,5.806992650E-1,1.172350597E1
3.391599844E1,3.954263628E-1,2.582098842E-1,1.213659191E1
3.393599844E1,-5.710649863E-2,-6.186617538E-3,1.248181629E1
3.395600000E1,-2.597613335E-1,-8.567410707E-2,1.209128284E1
3.397799844E1,-1.277833283E-1,1.996381134E-1,1.022217846E1
3.399799844E1,2.409332991E-1,6.207398772E-1,8.342710495E0
3.401799844E1,5.133551359E-1,9.474717975E-1,6.638221264E0
3.403799844E1,7.964838743E-1,1.080771327E0,5.184327602E0
3.405799844E1,8.887563944E-1,1.204848528E0,4.313039780E0
3.407799844E1,6.313318610E-1,1.310902119E0,4.783815861E0
3.409799844E1,3.471783996E-1,1.230973959E0,5.282614708E0
3.411799844E1,4.635174572E-2,1.313305736E0,5.709950447E0
3.413799844E1,-1.531235725E-1,1.594643712E0,6.100205421E0
3.415799844E1,-3.362512589E-1,1.886056304E0,7.216899395E0
3.417799844E1,-4.904282689E-1,1.949014306E0,8.906038284E0
3.419799844E1,-7.361595631E-1,2.062643051E0,1.002159214E1
3.421799844E1,-9.323500395E-1,2.284681320E0,9.807310104E0
3.423799844E1,-6.916273832E-1,2.264369011E0,1.002843952E1
3.425799844E1,-4.427166283E-1,2.516698837E0,1.151170540E1
3.427800000E1,-1.489825606E0,3.027525425E0,1.230686760E1
3.430000000E1,-1.235503793E0,2.629101515E0,1.236444378E1
3.432199844E1,-5.546599030E-1,2.705371380E0,1.246656990E1
3.434199844E1,6.382846236E-1,2.273438215E0,1.292933083E1
3.436199844E1,1.597564578E0,8.505545259E-1,1.414488602E1
3.438199844E1,8.184051514E-1,-2.691657543E-1,1.510998917E1
3.440199844E1,2.816634476E-1,-4.398340285E-1,1.450621891E1
3.442200000E1,1.703800201E0,-5.007616282E-1,1.218269444E1
3.444399844E1,3.635719776E0,-2.093394101E-1,9.403141022E0
3.446399844E1,3.465252638E0,4.340687692E-1,8.742609024E0
3.448399844E1,1.718222737E0,6.879690289E-1,9.311941147E0
3.450399844E1,4.694742262E-1,7.695443034E-1,9.184895515E0
3.452399844E1,-2.127200365E-1,1.099264145E0,8.225356102E0
3.454399844E1,-5.620436668E-1,1.430889845E0,6.864272118E0
3.456399844E1,-8.451340199E-1,1.717667341E0,5.800557137E0
3.458399844E1,-9.956718683E-1,1.706309199E0,5.445611954E0
3.460399844E1,-1.047472835E0,1.722168446E0,5.262148857E0
3.462399844E1,-8.538968563E-1,1.806635857E0,5.313289165E0
3.464399844E1,-5.106065869E-1,1.842568040E0,5.656023979E0
3.466399844E1,1.666843295E-1,1.557466507E0,6.445411205E0
3.468399844E1,4.254304767E-1,1.468737483E0,7.397135258E0
3.470399844E1,3.878606716E-3,1.297255158E0,8.404691696E0
3.472399844E1,-4.243482947E-1,1.658214450E0,9.409615517E0
3.474399844E1,-1.099417359E-2,1.681534052E0,1.101554012E1
3.476399844E1,4.397861362E-1,1.682980061E0,1.217966843E1
3.478399844E1,5.472857952E-1,1.699002147E0,1.278376389E1
3.480399844E1,4.143597186E-1,1.762228251E0,1.304220295E1
3.482399844E1,2.329941243E-1,1.694663763E0,1.338201618E1
3.484399844E1,-8.423759788E-2,1.763645649E0,1.352116776E1
3.486399844E1,-2.306095064E-1,1.601883769E0,1.376122952E1
3.488399844E1,-2.538524270E-1,1.050518155E0,1.455153656E1
3.490399844E1,-8.863717914E-1,5.692070723E-1,1.457096767E1
3.492399844E1,-1.504966378E0,3.291931450E-1,1.300131035E1
3.494399844E1,-1.276416063E0,4.716672897E-1,1.102450371E1
3.496399844E1,-4.433678687E-1,5.626661181E-1,9.294894218E0
3.498399844E1,2.784552276E-1,5.838787556E-1,8.868717194E0
3.500399844E1,2.277460545E-1,4.790031314E-1,9.542291641E0
3.502399844E1,-1.661001444E-1,2.075102478E-1,1.001255131E1
3.504399844E1,-1.597219855E-1,2.545706928E-1,1.049281883E1
3.506399844E1,-1.939399093E-1,3.676727712E-1,1.044356537E1
3.508399844E1,-3.098001182E-1,5.943461657E-1,9.361568451E0
3.510399844E1,4.981854931E-2,7.672267556E-1,8.058461189E0
3.512399844E1,4.583268166E-1,1.001456261E0,7.010251522E0
3.514400000E1,8.200045228E-1,1.140061378E0,6.139135361E0
3.516601406E1,7.533594966E-1,1.493503094E0,5.928196907E0
3.518799844E1,6.191980243E-1,1.882809758E0,6.137602806E0
3.520800000E1,4.774229825E-1,2.127219439E0,6.325825691E0
3.522999844E1,2.577693164E-1,2.227182150E0,6.460236549E0
3.524999844E1,2.651147544E-1,2.304332972E0,7.396972179E0
3.526999844E1,2.404927611E-1,2.143404245E0,9.152056694E0
3.528999844E1,1.497046500E-1,2.003736019E0,1.097448444E1
3.530999844E1,4.622533023E-1,1.630719423E0,1.135548782E1
3.532999844E1,5.619957447E-1,1.788851738E0,1.089149094E1
3.534999844E1,-3.498407453E-2,2.340964079E0,1.022893906E1
3.537000000E1,-1.131681681E0,3.456183434E0,1.018812275E1
3.539199844E1,-1.160450459E0,3.651962042E0,1.095480347E1
3.541199844E1,2.735519111E-1,2.034161568E0,1.309906101E1
3.543199844E1,3.640240133E-1,4.946516454E-1,1.550832653E1
3.545199844E1,-1.190770626E0,3.505877256E-1,1.480806065E1
3.547199844E1,-1.215813994E0,4.188799560E-1,1.271650600E1
3.549200000E1,6.214294434E-1,3.477338552E-1,1.116274548E1
3.551200000E1,2.276512146E0,4.947187006E-1,1.105722713E1
3.553399844E1,1.935328960E0,9.178602695E-1,9.965672493E0
3.555399844E1,1.315632939E0,1.312463045E0,8.267858505E0
3.557400000E1,1.335457087E0,1.513537765E0,6.897177696E0
3.559600000E1,1.016836643E0,1.803925633E0,6.679363251E0
3.561600000E1,3.458472192E-1,1.991477728E0,7.725418568E0
3.563799844E1,-2.212433964E-1,2.070697308E0,7.188897133E0
3.565799844E1,-3.023876548E-1,2.359782696E0,6.455188751E0
3.567799844E1,2.238770127E-1,2.360855341E0,6.394999027E0
3.569800000E1,1.210891455E-1,2.562945127E0,6.842523098E0
3.571999844E1,-1.045883074E-1,2.559401512E0,7.231504440E0
3.573999844E1,-2.094639093E-1,2.629934788E0,7.595921040E0
3.575999844E1,-4.032793269E-2,2.516727209E0,8.555986404E0
3.577999844E1,-1.629972607E-1,2.472923040E0,9.592436790E0
3.580000000E1,-7.026503235E-2,2.537010908E0,1.035659885E1
3.582199844E1,-1.274098307E-1,2.773988962E0,1.045610142E1
3.584199844E1,-1.536119878E-1,2.877093077E0,1.058807945E1
3.586199844E1,-7.498639822E-2,3.010928869E0,1.115408802E1
3.588199844E1,-4.759768546E-1,3.166436911E0,1.162090874E1
3.590199844E1,-9.729269147E-1,3.358940363E0,1.169525433E1
3.592199844E1,6.846267581E-1,1.796781421E0,1.239497375E1
3.594199844E1,5.103576183E-1,1.105000734E0,1.341726017E1
3.596199844E1,-1.772944689E0,1.253019810E0,1.335051823E1
3.598199844E1,-2.680040836E0,1.645027280E0,1.076480007E1
3.600199844E1,-1.592297316E0,1.781822443E0,9.257612228E0
3.602199844E1,1.038413197E-1,1.800803542E0,1.010396194E1
3.604199844E1,-1.202463806E-1,1.440466642E0,1.076257801E1
3.606199844E1,-9.084175825E-1,1.328839302E0,1.065520287E1
3.608199844E1,-7.117099762E-1,1.248375177E0,1.016180611E1
3.610199844E1,-2.733125091E-1,1.531226039E0,8.885658264E0
3.612199844E1,9.698431939E-2,1.827599525E0,7.784650803E0
3.614199844E1,1.276013702E-1,2.081863880E0,6.742282867E0
3.616199844E1,5.429091677E-2,2.168696642E0,6.370750427E0
3.618199844E1,-4.727111757E-2,2.134622335E0,6.218029499E0
3.620199844E1,2.591483854E-2,2.159129381E0,6.387098312E0
3.622199844E1,2.028272003E-1,2.124978542E0,7.201499939E0
3.624199844E1,1.608712077E-1,2.099609613E0,7.600259304E0
3.626199844E1,7.460332476E-3,2.206141949E0,7.649531841E0
3.628199844E1,-1.471955236E-2,2.356919289E0,8.317552567E0
3.630201250E1,-1.129775941E-1,2.388292789E0,8.920134544E0
3.632399844E1,-2.252081931E-1,2.564123154E0,9.168566704E0
3.634399844E1,-1.089649051E-1,2.468307018E0,9.536306381E0
3.636399844E1,-2.137926370E-1,2.610532284E0,1.009496975E1
3.638399844E1,-4.355244339E-1,3.221369743E0,1.103408146E1
3.640399844E1,-7.966083288E-1,3.795958996E0,1.184203815E1
3.642399844E1,-8.634927869E-1,3.964778900E0,1.184138680E1
3.644399844E1,2.479722649E-1,2.948086023E0,1.165849781E1
3.646399844E1,1.068618417E0,2.373496532E0,1.210643482E1
3.648399844E1,4.500045776E-1,1.442324638E0,1.269209385E1
3.650399844E1,4.399106205E-1,9.226869941E-1,1.315783310E1
3.652400000E1,1.763377428E0,5.832179785E-1,1.343193150E1
3.654600000E1,2.317012787E0,9.560047388E-1,1.210218143E1
3.656800000E1,1.692805886E0,1.632922173E0,1.030947113E1
3.658999844E1,1.349448681E0,2.132525206E0,8.914369583E0
3.661000000E1,9.927892685E-1,2.411200523E0,7.930084705E0
3.663199844E1,3.002807796E-1,2.427165031E0,7.556579590E0
3.665199844E1,-7.737102360E-2,2.316619873E0,6.903336048E0
3.667199844E1,-2.106322944E-1,2.441425085E0,5.867240429E0
3.669199844E1,-2.855803967E-1,2.460013390E0,5.394394875E0
3.671199844E1,-4.140915573E-1,2.429425240E0,5.606502056E0
3.673199844E1,-3.313192129E-1,2.315451622E0,6.139566422E0
3.675199844E1,-4.785626233E-1,2.262252331E0,6.535806656E0
3.677199844E1,-7.806916833E-1,2.253441811E0,7.327042580E0
3.679199844E1,-8.914666176E-1,2.326742649E0,8.261030197E0
3.681199844E1,-7.225987911E-1,2.411229134E0,8.797398567E0
3.683199844E1,-2.808494270E-1,2.148202181E0,9.529755592E0
3.685199844E1,-4.928224906E-2,1.816557527E0,1.010410500E1
3.687199844E1,-1.012067437E0,4.725637436E0,1.063356972E1
3.689199844E1,-3.373047113E-1,3.919097424E0,1.102204323E1
3.691199844E1,5.738709569E-1,2.129469872E0,1.087740421E1
3.693200156E1,-9.354050159E-1,4.751302719E0,9.636201859E0
3.695399844E1,-1.137236238E0,3.444174051E0,9.848194122E0
3.697399844E1,-2.101381302E0,2.795450687E0,1.223525238E1
3.699400000E1,-2.440275669E0,8.782889247E-1,1.507430553E1
3.701400000E1,-2.155030489E0,2.838278115E-1,1.535575867E1
3.703600000E1,-1.567445517E0,1.187342048E0,1.285070515E1
3.705799844E1,-1.070552945E0,1.256620765E0,1.122907448E1
3.707799844E1,-7.866772413E-1,8.902311921E-1,1.091421795E1
3.709799844E1,-5.567189455E-1,3.720972538E-1,1.063329124E1
3.711799844E1,-1.461688876E0,5.142170191E-1,1.076382351E1
3.713800000E1,-1.074852943E0,5.622255802E-1,1.082512379E1
3.715999844E1,-4.333122075E-1,9.959783554E-1,9.733828545E0
3.717999844E1,-1.168466210E-1,1.511727691E0,8.761256218E0
3.719999844E1,-3.758226335E-1,1.250778794E0,6.927785873E0
3.721999844E1,-8.121898174E-1,1.760025501E0,5.901831627E0
3.724000000E1,-2.582673430E-1,2.110805035E0,5.488965988E0
3.726199844E1,7.470866442E-1,1.805429220E0,5.423499107E0
3.728199844E1,7.609347701E-1,1.724620104E0,5.548438072E0
3.730201250E1,5.083081722E-1,1.737836003E0,6.768446445E0
3.732399844E1,-1.939312935E0,1.515970230E0,5.238062859E0
3.734399844E1,-1.767045379E0,2.303595543E0,8.035170555E0
3.736400000E1,-9.083696604E-1,2.452993631E0,8.734813690E0
3.738599844E1,-3.592068851E-1,2.344086170E0,1.121106911E1
3.740599844E1,-1.026087761E0,2.753638506E0,1.170890999E1
3.742599844E1,-1.306649923E0,1.998564720E0,1.194123459E1
3.744600000E1,-2.680461884E0,2.630605221E0,1.089839649E1
3.746600000E1,-3.077966452E0,4.498427391E0,1.138024426E1
3.748602031E1,-1.527529478E0,3.101094484E0,1.137308979E1
3.750800000E1,4.013352394E-1,1.858791113E0,1.182060432E1
3.752999844E1,3.993241191E-1,1.533754349E0,1.201852798E1
3.754999844E1,2.217796892E-1,1.582663059E0,1.121890354E1
3.757000000E1,-1.156035542E0,1.974364042E0,7.888693333E0
3.759000000E1,8.724758029E-1,3.104130328E-1,1.263096619E1
3.761199844E1,9.341791868E-1,5.685366988E-1,1.279029465E1
3.763199844E1,2.556911707E-1,3.331962526E-1,1.242577267E1
3.765199844E1,-8.363137841E-1,1.292581677E0,1.065357494E1
3.767199844E1,-1.272489548E0,1.527414560E0,8.731069565E0
3.769199844E1,-1.019997001E0,2.378610611E0,7.282050610E0
3.771199844E1,-7.437635660E-1,2.547181606E0,6.381026268E0
3.773199844E1,-5.405245423E-1,2.303586006E0,6.475635529E0
3.775199844E1,-4.722323641E-2,1.266858220E0,8.107254982E0
3.777199844E1,-1.472568154E0,7.499980330E-1,4.886890888E0
3.779199844E1,-1.832263470E0,2.270067215E0,8.859992027E0
3.781199844E1,-9.476633072E-1,2.271005630E0,8.452594757E0
3.783199844E1,5.150406808E-2,1.913149118E0,9.015941620E0
3.785199844E1,4.060565960E-3,2.494068623E0,9.669031143E0
3.787199844E1,4.349498153E-1,1.521735430E0,9.942516327E0
3.789199844E1,-1.047951698E0,2.377231598E0,8.808267593E0
3.791199844E1,-9.269104004E-1,2.855870962E0,8.877364159E0
3.793199844E1,6.231915355E-1,2.149495125E0,9.883245468E0
3.795199844E1,5.885905623E-1,2.126098871E0,1.098167706E1
3.797199844E1,-9.058126807E-1,2.755917788E0,1.107656384E1
3.799199844E1,-6.737858057E-1,2.499757290E0,1.131766891E1
3.801199844E1,-1.464389563E-1,1.694261551E0,1.190786839E1
3.803199844E1,-1.272307515E0,1.563930869E0,1.232055283E1
3.805199844E1,-1.886314988E0,1.629244685E0,1.112329769E1
3.807199844E1,-1.020906687E0,1.816088080E0,1.044878387E1
3.809199844E1,1.523669995E-2,1.327680707E0,1.023100758E1
3.811199844E1,-4.266754687E-1,9.839881659E-1,1.023002148E1
3.813200000E1,-7.479677796E-1,7.520091534E-1,1.017270374E1
3.815399844E1,-5.133839250E-1,5.580884218E-1,9.800061226E0
3.817399844E1,-2.401384264E-1,5.402085185E-1,9.296618462E0
3.819399844E1,-1.211944893E-1,8.827804327E-1,8.704168320E0
3.821399844E1,-1.461899579E-1,1.162538171E0,8.127836227E0
3.823399844E1,-2.224692255E-1,1.363382936E0,7.698689461E0
3.825399844E1,-1.802355051E-2,1.391941071E0,7.197477818E0
3.827399844E1,-4.003105219E-3,1.579972029E0,6.865957737E0
3.829399844E1,5.564124510E-2,1.847222447E0,6.842963696E0
3.831399844E1,3.002903461E-1,1.885366797E0,7.038426399E0
3.833399844E1,2.232353687E-1,2.078463793E0,7.206662178E0
3.835399844E1,-5.631162226E-2,2.279624701E0,7.662652493E0
3.837399844E1,-5.295304060E-1,2.437144041E0,8.186493874E0
3.839399844E1,-9.970988035E-1,2.612955093E0,9.092239380E0
3.841399844E1,-1.014451981E0,2.318276882E0,1.031516933E1
3.843399844E1,-9.534477592E-1,2.384241581E0,1.134539318E1
3.845399844E1,-1.715455055E0,2.913159132E0,1.209395504E1
3.847399844E1,-2.262999535E0,3.225621939E0,1.185863400E1
3.849399844E1,-1.743697166E0,3.386828184E0,1.220418453E1
3.851399844E1,5.921818018E-1,1.818855882E0,1.337157822E1
3.853399844E1,2.029823303E0,-6.195715070E-1,1.530842972E1
3.855399844E1,1.252847433E0,-1.676094413E0,1.679461670E1
3.857399844E1,5.894428492E-1,-1.313832521E0,1.520683861E1
3.859399844E1,1.613126993E0,-4.559038877E-1,1.231132984E1
3.861399844E1,2.960267544E0,6.195236370E-2,9.590022087E0
3.863399844E1,1.937656164E0,4.050989449E-1,8.160741806E0
3.865399844E1,3.055480421E-1,8.663083315E-1,8.230949402E0
3.867399844E1,-4.167826176E-1,8.985918164E-1,8.379590988E0
3.869399844E1,-3.936642110E-1,9.115204215E-1,8.340507507E0
3.871399844E1,-4.247792661E-1,9.584755301E-1,7.862998962E0
3.873399844E1,-7.867730260E-1,1.520748973E0,6.848556519E0
3.875399844E1,-8.325309157E-1,1.845297456E0,6.237508297E0
3.877399844E1,-7.498639822E-1,2.103622198E0,6.072681904E0
3.879399844E1,-5.386092067E-1,2.191020250E0,6.399653435E0
3.881399844E1,-6.215156317E-1,2.152540445E0,6.988684654E0
3.883399844E1,-6.296942234E-1,2.100806713E0,7.656149387E0
3.885399844E1,-5.386571288E-1,1.985224128E0,8.725955009E0
3.887399844E1,-2.057098150E-1,1.922582269E0,9.423012733E0
3.889399844E1,-9.079770744E-2,1.943938613E0,9.889853477E0
3.891399844E1,-1.265383512E-1,2.185561180E0,1.021512985E1
3.893399844E1,-2.584492862E-1,2.401786566E0,1.077588940E1
3.895399844E1,-3.968245685E-1,2.167738914E0,1.187014580E1
3.897399844E1,-6.311690211E-1,1.938431859E0,1.219818974E1
3.899399844E1,-5.231713653E-1,1.950651884E0,1.219705963E1
3.901399844E1,4.492767453E-1,9.291130304E-1,1.368273830E1
3.903399844E1,-4.361948371E-1,6.429580450E-1,1.432389545E1
3.905399844E1,-1.431167603E0,6.273670793E-1,1.188937569E1
3.907399844E1,-1.033892989E0,1.066645622E0,1.029369831E1
3.909399844E1,1.516008526E-1,9.566272497E-1,9.962540627E0
3.911399844E1,3.007979095E-1,6.483498216E-1,1.059865189E1
3.913400156E1,-7.544895411E-1,3.947368264E-1,1.063738060E1
3.915599844E1,-1.101169944E0,5.308424234E-1,9.934825897E0
3.917600000E1,-7.299442291E-1,8.620850444E-1,8.629306793E0
3.919800000E1,-5.460982919E-1,1.009299636E0,7.186292171E0
3.921999844E1,-8.649293184E-1,1.232104182E0,6.415081501E0
3.923999844E1,-6.203184724E-1,1.259110689E0,6.332624912E0
3.925999844E1,6.636727136E-3,1.280993700E0,6.596265316E0
3.927999844E1,3.847290576E-1,1.447572589E0,6.352966309E0
3.929999844E1,5.236310363E-1,1.575968862E0,6.166697502E0
3.931999844E1,4.654806852E-1,1.973406315E0,6.555238247E0
3.933999844E1,4.477827549E-1,2.050595522E0,7.720438480E0
3.935999844E1,3.824689388E-1,1.945279241E0,8.436477661E0
3.937999844E1,1.476935148E-1,1.994887233E0,8.728522301E0
3.939999844E1,-2.717514634E-1,2.113304377E0,8.618762016E0
3.941999844E1,-5.913199186E-1,2.369943619E0,9.156701088E0
3.943999844E1,-6.463770270E-1,2.551586866E0,1.058206558E1
3.945999844E1,-9.067224860E-1,2.577434778E0,1.241475964E1
3.948004219E1,-9.794966578E-1,2.168830872E0,1.355376720E1
3.950199844E1,-1.443627000E0,2.278877735E0,1.203145695E1
3.952199844E1,-5.614785552E-1,1.656452417E0,1.185924721E1
3.954200156E1,8.594513535E-1,3.730836511E-1,1.343837643E1
3.956399844E1,-5.433305502E-1,-5.331217051E-1,1.453809071E1
3.958399844E1,-1.606835008E0,-6.914071441E-1,1.452145576E1
3.960399844E1,-2.575107813E-1,-4.993825853E-1,1.331431866E1
3.962399844E1,1.492487907E0,-1.945528239E-1,1.161512470E1
3.964399844E1,1.664247870E0,1.536311358E-1,9.942765236E0
3.966399844E1,7.842638493E-1,5.769738555E-1,9.402538300E0
3.968399844E1,2.234652042E-1,6.982162595E-1,9.038073540E0
3.970399844E1,-3.011235297E-1,8.834508657E-1,7.894573689E0
3.972399844E1,-5.429857969E-1,1.098440528E0,6.604529858E0
3.974399844E1,-6.666511297E-1,1.379816771E0,5.947340965E0
3.976399844E1,-1.002959847E0,1.614573002E0,5.712775707E0
3.978399844E1,-1.086373806E0,1.659957528E0,5.776768208E0
3.980399844E1,-7.375769019E-1,1.582940817E0,6.483593941E0
3.982399844E1,-4.978790283E-1,1.507130861E0,7.690176010E0
3.984399844E1,-5.524955392E-1,1.354696751E0,8.658390999E0
3.986399844E1,-7.760373950E-1,1.308823824E0,9.515026093E0
3.988399844E1,-4.512495697E-1,1.312961102E0,1.005200768E1
3.990399844E1,1.190397143E-1,1.444508076E0,1.055909920E1
3.992399844E1,1.231481582E-1,1.687548399E0,1.105179787E1
3.994401406E1,-2.820082307E-1,2.013150215E0,1.125555325E1
3.996599844E1,-4.541321844E-2,1.842309475E0,1.160664940E1
3.998599844E1,3.191375136E-1,1.490131974E0,1.233368301E1
4.000600625E1,-1.629014686E-2,1.479070783E0,1.269349194E1
4.002799844E1,1.615798771E-1,4.936652184E-1,1.350781727E1
4.004799844E1,-1.035405993E0,2.670588493E-1,1.351534462E1
4.006799844E1,-1.894407392E0,3.759662807E-1,1.124644661E1
4.008799844E1,-1.089859724E0,3.766941130E-1,9.761630058E0
4.010799844E1,5.404862761E-1,3.541694582E-1,9.927797318E0
4.012800000E1,8.839871287E-1,1.742021143E-1,1.113638020E1
4.014999844E1,-3.976290226E-1,2.463825047E-1,1.102892876E1
4.016999844E1,-9.223518968E-1,3.015832305E-1,1.015907574E1
4.018999844E1,-6.278171539E-1,7.141137719E-1,9.097823143E0
4.021000312E1,-2.662543952E-1,8.285757303E-1,7.914397240E0
4.023199844E1,-3.426102698E-1,1.228646874E0,6.845912933E0
4.025199844E1,-2.126817256E-1,1.492679477E0,6.455188751E0
4.027199844E1,1.521179974E-1,1.738966227E0,6.278305531E0
4.029199844E1,2.546951771E-1,1.763396621E0,6.202141285E0
4.031199844E1,1.515146643E-1,1.755888462E0,6.601331234E0
4.033199844E1,-1.353681684E-1,1.633525491E0,7.438325405E0
4.035200000E1,-1.020696089E-1,1.655973554E0,7.988790035E0
4.037399844E1,-2.431168258E-1,1.640612364E0,8.432665825E0
4.039399844E1,-8.373481035E-1,1.619332671E0,8.527122498E0
4.041399844E1,-1.412128925E0,1.631983638E0,8.717796326E0
4.043399844E1,-1.276329756E0,1.602362514E0,9.577189445E0
4.045399844E1,-1.009414554E0,1.752364159E0,1.111763859E1
4.047399844E1,-8.933724165E-1,1.814488888E0,1.270620155E1
4.049399844E1,-1.063695908E0,2.007719994E0,1.295262241E1
4.051399844E1,-3.404554725E-1,1.391462207E0,1.281529999E1
4.053400469E1,2.085311174E0,-7.578701973E-1,1.498885155E1
4.055599844E1,3.133722842E-1,-1.094839692E0,1.698112488E1
4.057599844E1,-6.829507947E-1,-2.125141382E0,1.586507225E1
4.059600469E1,-3.627119660E-1,-2.523297071E-1,1.277229977E1
4.061799844E1,1.792308927E0,2.042924464E-1,1.005766773E1
4.063800000E1,1.417147040E0,9.527677894E-1,8.206298828E0
4.065999844E1,1.442267094E-2,1.442851305E0,7.016284466E0
4.067999844E1,-7.923466563E-1,1.143202662E0,7.311576366E0
4.069999844E1,-1.264885545E0,8.734143972E-1,7.791642189E0
4.071999844E1,-1.413776159E0,7.182988524E-1,7.571777821E0
4.073999844E1,-1.470710158E0,9.866696596E-1,7.006411076E0
4.075999844E1,-1.576581836E0,1.313114285E0,6.601695538E0
4.077999844E1,-1.488743424E0,1.430755734E0,6.488890171E0
4.080000000E1,-1.207654595E0,1.594078660E0,6.417466164E0
4.082199844E1,-9.605728984E-1,1.737079501E0,6.833357811E0
4.084199844E1,-8.202726245E-1,1.654335976E0,8.363147736E0
4.086199844E1,-7.871656418E-1,1.621583223E0,9.653248787E0
4.088199844E1,-8.714702725E-1,1.706970096E0,1.006550217E1
4.090199844E1,-9.112235904E-1,1.803475618E0,9.966610909E0
4.092199844E1,-9.479506016E-1,2.020246506E0,1.015243912E1
4.094199844E1,-1.130723953E0,2.184306860E0,1.098127460E1
4.096199844E1,-1.181998134E0,2.197302580E0,1.174751472E1
4.098199844E1,-8.775610924E-1,1.980320811E0,1.231074619E1
4.100199844E1,-1.076231956E0,2.100854397E0,1.261367035E1
4.102199844E1,-1.171147704E0,2.313105106E0,1.260566330E1
4.104199844E1,-1.499794960E0,1.925876737E0,1.258851147E1
4.106199844E1,-2.731659651E0,1.543896079E0,1.190477562E1
4.108199844E1,-3.004904985E0,1.229633331E0,1.158713150E1
4.110199844E1,-1.830980062E0,6.899897456E-1,1.137902737E1
4.112199844E1,-6.460897326E-1,4.719163179E-1,1.164938068E1
4.114199844E1,-3.440180719E-1,-5.793968216E-3,1.198141861E1
4.116199844E1,-6.039900780E-1,6.859866530E-2,1.153144264E1
4.118199844E1,-8.105425835E-1,2.193567604E-1,9.875229836E0
4.120199844E1,-6.424313188E-1,6.665648818E-1,8.260053635E0
4.122200000E1,-4.350551665E-1,9.516856074E-1,7.309976578E0
4.124399844E1,-1.136862710E-1,1.020025730E0,6.606751442E0
4.126399844E1,-7.946834713E-2,1.271732926E0,6.408502579E0
4.128400000E1,-2.134670317E-2,1.450531840E0,6.020641804E0
4.130599844E1,6.125325710E-2,1.738745809E0,5.529495239E0
4.132601094E1,-1.517923828E-2,2.053008795E0,5.685156345E0
4.134800000E1,-3.736870363E-2,2.086728811E0,6.740510941E0
4.137000000E1,-3.829956651E-1,2.220593214E0,7.661991119E0
4.139000000E1,-6.178764105E-1,2.456805229E0,8.236704826E0
4.141000000E1,-8.824070096E-1,2.727512836E0,8.646985054E0
4.143199844E1,-7.344070077E-1,2.772475958E0,8.696392059E0
4.145199844E1,-2.722303271E-1,2.802403450E0,9.546878815E0
4.147200000E1,-5.833520293E-1,2.871777773E0,1.072029686E1
4.149399844E1,-1.431464434E0,3.471123219E0,1.127341461E1
4.151399844E1,-1.553903937E0,4.084115505E0,1.145853424E1
4.153399844E1,1.914691031E-1,3.174232721E0,1.249960041E1
4.155399844E1,2.106523991E0,1.930013895E0,1.400003719E1
4.157400000E1,1.892549396E0,8.980458975E-1,1.485836792E1
4.159599844E1,9.477304220E-1,1.430966556E-1,1.524647713E1
4.161600000E1,1.193040252E0,6.378440261E-1,1.283911705E1
4.163600000E1,2.401853561E0,1.224078774E0,1.061930943E1
4.165799844E1,2.741265059E0,9.914772511E-1,8.874913216E0
4.167800000E1,1.032245755E0,1.185359716E0,8.579525948E0
4.169800000E1,-4.224616587E-1,1.281568289E0,8.892629623E0
4.171800000E1,-1.038748264E0,1.249323130E0,8.141425133E0
4.173999844E1,-1.405109167E0,1.496107936E0,7.189031124E0
4.175999844E1,-1.071261644E0,1.493206143E0,6.471172810E0
4.177999844E1,-1.084678769E0,1.992627025E0,5.692204952E0
4.179999844E1,-1.734005332E0,2.491004229E0,5.360790253E0
4.181999844E1,-1.576237082E0,2.369723320E0,6.246146679E0
4.183999844E1,-1.010650039E0,2.035885572E0,7.115318298E0
4.185999844E1,-1.391845226E0,2.188012838E0,9.109879494E0
4.187999844E1,-1.372327685E0,2.231204271E0,8.903653145E0
4.189999844E1,-1.527012229E0,2.587155342E0,9.166114807E0
4.191999844E1,-1.611058354E0,2.798524857E0,9.699092865E0
4.193999844E1,-1.596108913E0,2.875005484E0,1.006283855E1
4.195999844E1,-1.648264170E0,2.886258125E0,1.074744701E1
4.197999844E1,-1.270765662E0,2.713511467E0,1.133397865E1
4.199999844E1,-9.025757313E-1,2.772006750E0,1.150747204E1
4.201999844E1,-9.298313260E-1,2.614449263E0,1.230604362E1
4.203999844E1,-5.715534091E-1,1.532394409E0,1.405086136E1
4.205999844E1,-1.111206412E0,1.252809048E0,1.477108479E1
4.207999844E1,-1.995117068E0,1.062786102E0,1.209761429E1
4.209999844E1,-1.957250357E0,1.633295655E0,1.021567535E1
4.211999844E1,-6.066236496E-1,1.495906711E0,9.771866798E0
4.213999844E1,-2.742701769E-1,1.312434316E0,1.034616852E1
