"Time (s)","Gyroscope x (rad/s)","Gyroscope y (rad/s)","Gyroscope z (rad/s)"
1.548494370E-1,-1.374813318E0,-1.821739793E0,-2.370820284E0
1.748510000E-1,-1.775174439E-1,-2.044094801E0,-1.234576106E0
1.968494370E-1,4.341332018E-1,-2.050569773E0,-1.443212777E-1
2.168541250E-1,3.892084211E-2,-1.055749655E0,4.487066865E-1
2.388494370E-1,-8.668527007E-1,3.780383170E-1,7.891855240E-1
2.588494370E-1,-1.298437715E0,1.346975327E0,1.187155485E0
2.788494370E-1,-7.353421450E-1,9.427744746E-1,1.647817731E0
2.988494370E-1,3.991568089E-1,1.045068264E0,2.089857340E0
3.188494370E-1,1.398113489E0,1.526517272E0,2.378203154E0
3.388494370E-1,1.819627881E0,1.722011685E0,2.630612612E0
3.588494370E-1,1.051648140E0,-5.338962004E-2,1.999309540E0
3.788510000E-1,1.230457146E-2,-9.871581942E-2,1.064807892E0
3.988572500E-1,-5.296376348E-1,-3.082425892E-1,5.197066665E-1
4.208494370E-1,-6.751108170E-1,-1.811302751E-1,8.009316027E-2
4.408494370E-1,-5.689249635E-1,2.917667031E-1,2.422342449E-1
4.608494370E-1,-2.256187052E-1,6.595250368E-1,7.904770970E-1
4.808541250E-1,-2.851868048E-2,4.606622159E-1,1.174030662E0
5.028494370E-1,-1.271646917E-1,-2.174680233E-1,9.996896982E-1
5.228541250E-1,-1.910786480E-1,-8.350876570E-1,6.311110258E-1
5.448494370E-1,-4.469788074E-2,-1.199477553E0,5.383642316E-1
5.648494370E-1,8.969247341E-2,-1.157781601E0,5.797634721E-1
5.848494370E-1,2.101899981E-1,-1.019953012E0,5.970771313E-1
6.048494370E-1,2.406459898E-1,-8.660672903E-1,5.591336489E-1
6.248494370E-1,3.349112272E-1,-7.085512877E-1,6.106383204E-1
6.448494370E-1,3.979176283E-1,-1.589645892E-1,5.621705651E-1
6.648494370E-1,4.561243355E-1,1.036027446E-1,5.948082209E-1
6.848494370E-1,3.005282283E-1,1.581966430E-1,4.774348140E-1
7.048494370E-1,1.381777227E-1,1.771683693E-1,2.887996435E-1
7.248494370E-1,2.453932911E-2,2.623229921E-1,9.175195545E-2
7.448494370E-1,-5.012585595E-2,2.596875429E-1,-4.281292483E-2
7.648494370E-1,-4.852015153E-2,1.782504767E-1,-8.239699155E-2
7.848494370E-1,-5.796238407E-2,1.882162988E-1,-1.459444314E-1
8.048494370E-1,-1.097637564E-1,3.135658503E-1,-1.929810494E-1
8.248494370E-1,-3.091501594E-1,4.731762111E-1,-2.272593230E-1
8.448494370E-1,-5.868320465E-1,5.829923153E-1,-2.775596976E-1
8.648494370E-1,-5.570916533E-1,5.799729228E-1,-3.056769669E-1
8.848494370E-1,-2.617295682E-1,7.413809299E-1,-2.593035698E-1
9.048494370E-1,-1.118930578E-1,7.522892356E-1,-2.020742148E-1
9.248494370E-1,-1.411971357E-2,4.669453800E-1,-1.520530879E-1
9.448494370E-1,1.306378990E-1,-6.236061454E-2,-1.126260981E-1
9.648494370E-1,3.562217057E-1,-6.647086143E-1,-8.147197217E-2
9.848494370E-1,3.539004028E-1,-6.684785485E-1,-5.801474303E-2
1.004849437E0,3.980397880E-1,-2.938087285E-1,-4.033455998E-2
1.024849437E0,6.974859238E-1,3.563962504E-2,4.932300374E-2
1.044849437E0,9.835453629E-1,1.240929067E-1,1.858426630E-1
1.064849437E0,8.354018331E-1,2.425309569E-1,3.265685439E-1
1.084849437E0,2.316401005E-1,2.177298218E-1,2.269975245E-1
1.104849437E0,-3.059911132E-1,2.791828513E-1,-9.199630469E-2
1.124849437E0,-3.061307371E-1,1.125562862E-1,-2.957809567E-1
1.144849437E0,7.792895287E-2,-6.677629799E-2,-3.846356571E-1
1.164849437E0,2.048667520E-1,-1.207244247E-1,-2.846108377E-1
1.184849437E0,1.249481216E-1,-2.092649788E-1,-6.630505621E-2
1.204849437E0,1.384744197E-1,-6.023131311E-2,-1.145808622E-1
1.224849437E0,4.750960767E-1,8.591383100E-1,-2.791305184E-1
1.244849437E0,5.337914824E-1,6.154205203E-1,-4.159992337E-1
1.264849437E0,3.564834893E-1,-1.192234382E-1,-4.406781793E-1
1.284851000E0,2.491282970E-1,-2.404016554E-1,-4.280943573E-1
1.306857250E0,5.923647434E-2,-2.933898382E-2,-4.133637846E-1
1.328851000E0,-1.311614960E-1,8.070402592E-2,-3.131295145E-1
1.350851000E0,-3.134611249E-2,-1.512327790E-1,-1.164483652E-1
1.372849437E0,8.728391677E-2,-3.808831871E-1,8.517206460E-2
1.392849437E0,6.677629799E-2,-5.734104514E-1,1.229235381E-1
1.412849437E0,1.243372560E-1,-5.750510693E-1,7.038912922E-2
1.432849437E0,2.885727286E-1,-2.599318922E-1,1.582664549E-1
1.452849437E0,3.142290711E-1,-2.199289352E-1,2.926044464E-1
1.472851000E0,1.325926632E-1,-4.562465250E-1,2.034355700E-1
1.492851000E0,1.256811619E-1,-4.491255879E-1,8.695230633E-2
1.512851000E0,3.389778435E-1,-6.014404446E-2,2.173982114E-1
1.534849437E0,3.074397445E-1,1.500808597E-1,5.506688356E-1
1.554849437E0,-8.761553094E-3,4.586725309E-2,5.973215103E-1
1.574849437E0,-2.122145891E-1,-1.644449234E-1,4.041833580E-1
1.594849437E0,-8.854055405E-2,-1.840798706E-1,2.493900955E-1
1.614849437E0,2.864085324E-2,-2.685014606E-1,2.216393650E-1
1.634849437E0,-1.920036674E-1,-5.572138429E-1,2.544341087E-1
1.654849437E0,-4.185473919E-1,-5.344721675E-1,1.975189149E-1
1.674851000E0,-4.161039591E-1,-2.993414104E-1,5.518731102E-2
1.694851000E0,-3.476521373E-1,1.183333248E-2,-2.562143281E-2
1.714851000E0,-3.185923994E-1,1.777268797E-1,-4.661774263E-2
1.736851000E0,-1.410226077E-1,2.016553432E-1,3.431317210E-2
1.758849437E0,9.950122237E-2,1.561546028E-1,1.346870512E-1
1.778849437E0,1.411273181E-1,1.154360771E-1,1.314232945E-1
1.798849437E0,5.672320258E-3,8.145451546E-2,6.286676228E-2
1.818849437E0,-1.043183282E-1,9.948377265E-4,-2.387610450E-2
1.838849437E0,-1.021890268E-1,-1.535889804E-1,-1.012465507E-1
1.858851000E0,-4.824090004E-2,-2.942450643E-1,-1.118756011E-1
1.878851000E0,-3.398156166E-2,-4.053876102E-1,-1.113520041E-1
1.900849437E0,2.904227935E-2,-5.150466561E-1,-1.363800317E-1
1.920851000E0,1.444434524E-1,-4.556182027E-1,-1.740093231E-1
1.942849437E0,1.736427993E-1,-2.233497798E-1,-2.403143793E-1
1.962849437E0,8.456119895E-2,-2.567379363E-2,-3.571816385E-1
1.982849437E0,2.246238664E-2,2.001892589E-2,-4.131717980E-1
2.002849437E0,6.667157635E-3,-5.600761622E-2,-4.221078753E-1
2.022849437E0,5.078908056E-3,-1.152440906E-1,-4.211654067E-1
2.042851000E0,7.073819637E-2,-1.489289403E-1,-4.579394758E-1
2.064849437E0,2.511528730E-1,-1.816364080E-1,-4.728097022E-1
2.084849437E0,3.867300451E-1,-2.214648277E-1,-4.301887453E-1
2.104849437E0,3.346843421E-1,-1.399055868E-1,-3.601486981E-1
2.124849437E0,1.923527420E-1,1.446877979E-2,-3.152937293E-1
2.144849437E0,9.580112249E-2,1.029744223E-1,-3.276332021E-1
2.164849437E0,1.045277715E-1,1.389805675E-1,-3.321885169E-1
2.184849437E0,2.257757932E-1,1.719149351E-1,-2.799158990E-1
2.204849437E0,3.915820718E-1,1.737300754E-1,-2.069785893E-1
2.224849437E0,4.857774973E-1,2.541373968E-1,-1.694889218E-1
2.244849437E0,5.243667364E-1,4.125783741E-1,-1.233424172E-1
2.264849437E0,4.275358617E-1,2.165604532E-1,-6.965608895E-2
2.284851000E0,8.293804526E-2,-3.373721540E-1,-1.075471863E-1
2.306849437E0,-8.134979755E-2,-3.748792708E-1,-1.901187152E-1
2.326849437E0,1.308124214E-1,2.234021435E-3,-2.453234792E-1
2.346849437E0,3.059736788E-1,3.055024445E-1,-1.667836607E-1
2.366852562E0,1.646718085E-1,3.973765671E-1,2.349213138E-2
2.388849437E0,-2.232276052E-1,4.324925691E-2,1.477944851E-1
2.408851000E0,-4.969126880E-1,-4.264712036E-1,4.101523664E-3
2.430851000E0,-4.799131751E-1,-5.435130000E-1,-2.276607454E-1
2.452849437E0,-3.058864176E-1,-2.920110226E-1,-2.944021225E-1
2.472849437E0,-2.711019814E-1,3.972369432E-2,-1.902583390E-1
2.492849437E0,-4.015828073E-1,2.252870947E-1,-1.492780149E-1
2.512849437E0,-5.255709887E-1,1.169196069E-1,-1.949881762E-1
2.532849437E0,-5.414884090E-1,-1.708502769E-1,-2.512575984E-1
2.552849437E0,-4.403640330E-1,-3.178942800E-1,-2.072753012E-1
2.572851000E0,-2.588323355E-1,-3.392920196E-1,-7.173303515E-2
2.594849437E0,-1.535540670E-1,-2.710845470E-1,5.105087906E-2
2.614849437E0,-1.644274741E-1,-1.363276690E-1,1.051386371E-1
2.634849437E0,-1.490162164E-1,-5.401793867E-2,8.716174215E-2
2.654849437E0,-5.714207888E-2,-3.864159063E-2,1.726479679E-1
2.674851000E0,1.441816539E-1,9.283406287E-2,2.702816725E-1
2.694851000E0,3.242996335E-1,2.346246094E-1,3.313856721E-1
2.714851000E0,3.784920871E-1,2.692344785E-1,3.180513382E-1
2.734851000E0,3.796789348E-1,1.633802652E-1,2.380978167E-1
2.756849437E0,3.079808056E-1,4.539601505E-2,1.375494003E-1
2.776849437E0,1.268854290E-1,-7.204718888E-2,3.988077492E-2
2.796851000E0,4.310963303E-2,-4.869468510E-2,-4.984660447E-2
2.818849437E0,1.452462971E-1,1.234296858E-1,-6.359979510E-2
2.838849437E0,3.327295780E-1,4.481481910E-1,8.726646006E-2
2.858851000E0,1.764353365E-1,9.615018964E-2,2.079210728E-1
2.880849437E0,-2.917492390E-1,-7.503519654E-1,-9.000662714E-2
2.900849437E0,-6.855653226E-2,-6.128723621E-1,-4.383394420E-1
2.920849437E0,4.918163419E-1,-1.947787404E-2,-3.438996673E-1
2.940849437E0,6.236236095E-1,3.280346394E-1,-5.344198272E-2
2.960849437E0,3.047170341E-1,4.120198786E-1,-3.506366536E-2
2.980849437E0,-6.307619810E-2,2.232276052E-1,-3.140894473E-1
3.000849437E0,-2.877000868E-1,-7.538077235E-2,-5.943195224E-1
3.020849437E0,-3.796963692E-1,-1.924923658E-1,-6.797010303E-1
3.040849437E0,-4.199960232E-1,-1.644274741E-1,-6.623524427E-1
3.060849437E0,-3.933448493E-1,-1.401324868E-1,-5.578770638E-1
3.080851000E0,-2.245016992E-1,-1.563291401E-1,-3.659082651E-1
3.102849437E0,-1.253146399E-2,-2.294584364E-1,-1.718451232E-1
3.122849437E0,7.621853054E-2,-3.530102968E-1,-1.214923710E-1
3.142849437E0,8.548622578E-2,-3.485248089E-1,-2.005383372E-1
3.162849437E0,3.127630055E-2,-2.355496287E-1,-3.465525806E-1
3.182849437E0,1.288053021E-2,-1.950405389E-1,-4.595975578E-1
3.202849437E0,6.035348400E-2,-2.318495363E-1,-5.040161610E-1
3.222849437E0,8.319984376E-2,-3.074397445E-1,-5.551543236E-1
3.242849437E0,1.808161102E-2,-3.874805570E-1,-6.338163018E-1
3.262849437E0,-6.866125017E-2,-4.130496085E-1,-6.875375509E-1
3.282849437E0,-1.364847422E-1,-4.001516402E-1,-7.024251819E-1
3.302861937E0,-2.110277563E-1,-2.879793346E-1,-6.857922077E-1
3.324849437E0,-2.748369873E-1,-1.484926194E-1,-6.272014976E-1
3.344851000E0,-1.855459511E-1,-7.803367078E-2,-5.554859638E-1
3.366858812E0,-2.755874954E-2,-1.119803265E-1,-4.354247451E-1
3.388849437E0,1.444434524E-1,-6.668902934E-2,-2.732312977E-1
3.408851000E0,3.003188074E-1,4.775220901E-2,-1.309520602E-1
3.430849437E0,3.015230894E-1,7.550293952E-2,-1.626646891E-2
3.450849437E0,2.095616758E-1,-7.122688740E-2,2.244493365E-2
3.470849437E0,2.448173314E-1,-2.163684666E-1,1.815142483E-2
3.490851000E0,4.531223774E-1,-1.111600175E-1,2.947861142E-2
3.510851000E0,6.090675592E-1,4.804891348E-2,8.227481693E-2
3.532849437E0,5.721712708E-1,2.162812054E-1,8.009316027E-2
3.552894750E0,5.057440400E-1,4.057715833E-1,8.644615859E-2
3.574849437E0,4.882034957E-1,5.042430758E-1,7.674212754E-2
3.594849437E0,3.385240734E-1,4.988674521E-1,4.890412465E-2
3.614849437E0,1.518785506E-1,3.823143840E-1,-2.902482450E-2
3.634849437E0,1.128355339E-1,1.654397547E-1,-1.035329327E-1
3.654849437E0,3.676012456E-1,1.676214188E-1,-5.859070271E-2
3.674849437E0,7.051479220E-1,4.233470559E-1,1.483529806E-1
3.694849437E0,7.158991694E-1,6.653195024E-1,4.223871231E-1
3.714849437E0,7.632324845E-2,2.663896084E-1,3.465351164E-1
3.734849437E0,-8.283332586E-1,-3.271968663E-1,8.866272867E-3
3.754849437E0,-9.877865314E-1,-3.521201611E-1,-1.419476271E-1
3.774849437E0,-3.807435632E-1,-1.510058790E-1,5.742133129E-3
3.794849437E0,2.162812054E-1,1.248259470E-1,2.430021912E-1
3.814849437E0,3.738320768E-1,2.533519864E-1,3.035651147E-1
3.834851000E0,2.065422684E-1,3.012612760E-1,1.430122852E-1
3.854851000E0,-1.224522963E-1,2.531425655E-1,-1.110029370E-1
3.876851000E0,-3.495545387E-1,1.185427606E-1,-3.382098973E-1
3.898849437E0,-3.398505151E-1,2.104867063E-2,-4.031535983E-1
3.918849437E0,-2.615026832E-1,-5.382595211E-2,-3.324154019E-1
3.938849437E0,-1.111076623E-1,-4.886921868E-2,-1.693841964E-1
3.958849437E0,1.085071191E-1,6.037093699E-2,4.604178667E-2
3.978851000E0,2.176949233E-1,1.285434961E-1,1.924749166E-1
4.000849437E0,2.058441341E-1,1.013338193E-1,2.267531753E-1
4.020849437E0,1.550026834E-1,7.937757671E-2,2.025803626E-1
4.040851000E0,1.709899008E-1,8.021533489E-2,2.260375917E-1
4.060851000E0,2.291617244E-1,6.688101590E-2,2.859896421E-1
4.082849437E0,2.193355262E-1,3.281218931E-2,3.228510022E-1
4.102849437E0,5.405284837E-2,1.111774705E-2,2.773153782E-1
4.122849437E0,-9.066985548E-2,-5.420992523E-2,1.888271719E-1
4.142851000E0,-9.477137588E-3,-1.234471351E-1,1.502379477E-1
4.164849437E0,2.133839577E-1,-1.715484113E-1,2.920110226E-1
4.184849437E0,3.132517040E-1,-2.135584801E-1,4.594753683E-1
4.204849437E0,1.821251065E-1,-3.411769569E-1,4.109203219E-1
4.224849437E0,7.595673203E-2,-1.973792911E-1,1.497666985E-1
4.244849437E0,2.067517042E-1,4.398229718E-2,-4.267330095E-2
4.264849437E0,2.756572962E-1,-5.539675057E-2,-4.794419557E-2
4.284849437E0,1.105142459E-1,-2.598620653E-1,6.468190253E-2
4.304849437E0,-5.567600206E-2,-1.776221544E-1,1.768193096E-1
4.324849437E0,-9.599310905E-2,5.661848187E-2,2.509957850E-1
4.344849437E0,-1.215447262E-1,1.614604145E-1,2.674368024E-1
4.364849437E0,-2.309245169E-1,-2.338741207E-3,1.312138587E-1
4.384849437E0,-3.246486783E-1,-1.723512560E-1,-6.691592187E-2
4.404849437E0,-3.021514118E-1,-9.796532989E-2,-1.252622753E-1
4.424849437E0,-2.790083289E-1,1.302015595E-2,-7.419394702E-2
4.444849437E0,-2.841745019E-1,7.506661117E-2,-5.340707488E-3
4.464849437E0,-2.206096202E-1,1.164658219E-1,4.687954485E-2
4.484849437E0,-1.123992056E-1,1.011767387E-1,5.091125518E-2
4.504849437E0,-6.567674130E-2,3.525565146E-3,-1.745329238E-3
4.526855687E0,-3.412118554E-2,-3.537782282E-2,-8.316493779E-2
4.548849437E0,8.379326016E-2,2.600540640E-3,-9.639453143E-2
4.568849437E0,2.562666833E-1,3.213151172E-2,-1.647590846E-2
4.588849437E0,3.254166245E-1,1.532399096E-2,2.059488557E-3
4.608849437E0,2.396162450E-1,-3.611086309E-2,-9.852383286E-2
4.628849437E0,1.929112375E-1,-5.204571784E-2,-2.211506665E-1
4.648849437E0,2.499835044E-1,1.807986498E-1,-2.854835093E-1
4.668849437E0,3.276506662E-1,3.789633512E-1,-3.267256320E-1
4.688849437E0,1.725083441E-1,2.748020887E-1,-3.670252860E-1
4.708849437E0,3.288200125E-2,1.911135465E-1,-3.881961405E-1
4.728849437E0,1.747772694E-1,1.892809570E-1,-3.791204095E-1
4.748849437E0,1.314058453E-1,-4.288274050E-2,-3.123266697E-1
4.768849437E0,-5.385911465E-1,-4.915719926E-1,-4.712389112E-1
4.788849437E0,-1.095543146E0,-4.952371716E-1,-6.298544407E-1
4.808849437E0,-8.934689760E-1,-2.683618367E-1,-5.346292257E-1
4.828849437E0,-2.682047486E-1,9.014625847E-2,-1.413716674E-1
4.848849437E0,4.869468510E-3,1.660680771E-1,8.243189752E-2
4.868849437E0,-2.545562685E-1,-8.918632753E-3,-4.047418386E-2
4.888849437E0,-5.973563790E-1,-1.521752626E-1,-3.261671364E-1
4.908849437E0,-6.472902298E-1,-2.487966865E-1,-5.320636034E-1
4.928849437E0,-4.846779406E-1,-2.374171317E-1,-5.371076465E-1
4.948849437E0,-2.600715160E-1,-1.501157731E-1,-4.192106426E-1
4.968849437E0,-1.096415818E-1,-6.204645336E-2,-2.704562247E-1
4.988849437E0,-6.305874884E-2,-3.275983036E-2,-1.435533315E-1
5.008849437E0,1.267109066E-2,-3.080506064E-2,-3.836233541E-2
5.028849437E0,9.602801502E-2,-7.756242901E-2,6.307619810E-2
5.048851000E0,1.191710830E-1,-6.613052636E-2,8.628907800E-2
5.070851000E0,5.112069473E-2,-3.190461919E-2,2.007128671E-2
5.092849437E0,6.260495633E-2,-2.192133479E-2,1.778490469E-2
5.112849437E0,2.262295783E-1,-3.659955412E-2,5.902703479E-2
5.132849437E0,3.382273614E-1,2.446951531E-2,3.237585723E-2
5.152849437E0,2.389879376E-1,2.083748579E-1,-7.777187228E-2
5.172851000E0,1.203928143E-1,4.800004363E-1,-1.015956178E-1
5.194849437E0,8.499753661E-3,4.166449904E-1,4.703662172E-2
5.214849437E0,-2.156354338E-1,-3.143338114E-2,2.094395086E-2
5.234849437E0,-1.070759520E-1,-9.625490755E-2,-2.572615258E-2
5.254849437E0,4.433659911E-1,8.824384958E-2,1.810429990E-1
5.274849437E0,6.192602515E-1,1.359611470E-2,4.578871131E-1
5.294849437E0,2.817136049E-1,-1.166403517E-1,5.496914387E-1
5.314849437E0,-7.340855151E-2,-1.847605556E-1,3.391349316E-1
5.334849437E0,-1.997005790E-1,-1.009498462E-1,1.023461074E-1
5.354849437E0,-1.809557378E-1,2.652900480E-2,1.031489596E-1
5.374849437E0,-9.302604944E-2,9.859365225E-2,2.425309569E-1
5.394849437E0,-5.410520826E-3,1.569400132E-1,3.434458971E-1
5.414849437E0,5.373868719E-2,1.846907437E-1,3.466049433E-1
5.434849437E0,9.592329711E-2,1.553343087E-1,3.017674387E-1
5.454849437E0,1.217716187E-1,1.413716674E-1,2.407856286E-1
5.474849437E0,9.054768085E-2,1.428028345E-1,1.941504180E-1
5.494851000E0,1.722639985E-2,1.177399084E-1,1.281071603E-1
5.516851000E0,-2.478367463E-2,7.728318125E-2,5.729915947E-2
5.538849437E0,-2.570869960E-2,9.546951391E-3,-1.345648803E-2
5.558849437E0,-5.157447979E-2,-1.312487572E-2,-7.592181861E-2
5.578849437E0,-8.145451546E-2,-1.185078546E-2,-1.118581519E-1
5.598849437E0,-5.817182362E-2,-5.279621109E-2,-1.317549050E-1
5.618851000E0,-1.940806210E-2,-1.584933549E-1,-1.494525373E-1
5.640849437E0,-3.063052893E-2,-2.591290474E-1,-2.073276639E-1
5.660849437E0,8.604473434E-3,-2.639112473E-1,-2.058790326E-1
5.680849437E0,1.178271770E-1,-2.252347320E-1,-2.038544565E-1
5.700849437E0,2.896722853E-1,-1.502553970E-1,-2.378534675E-1
5.720849437E0,5.073497295E-1,-5.483824387E-2,-3.091676235E-1
5.740849437E0,5.966058969E-1,-9.129817039E-2,-4.569621086E-1
5.760849437E0,2.941927016E-1,-4.295953512E-1,-7.068234086E-1
5.780849437E0,-2.968979478E-1,-6.639232635E-1,-1.000527501E0
5.800849437E0,-5.210157037E-1,-3.827157915E-1,-1.072085977E0
5.820849437E0,-2.649060786E-1,-1.901361644E-1,-8.521220684E-1
5.840849437E0,1.140747219E-1,-2.024756521E-1,-5.806884766E-1
5.860851000E0,2.021963894E-1,-3.268827200E-1,-5.251870155E-1
5.882849437E0,6.672393531E-2,-3.340036571E-1,-7.036992908E-1
5.902849437E0,1.792453043E-2,-2.251649201E-1,-8.749684691E-1
5.922849437E0,3.712315485E-2,-9.356710315E-2,-9.591631293E-1
5.942852562E0,3.385938704E-3,-2.963569015E-2,-1.016549587E0
5.964849437E0,-3.471459821E-2,-4.501204193E-2,-1.065017343E0
5.984849437E0,-5.529202893E-2,-9.128072113E-2,-1.071946263E0
6.004849437E0,-2.317797206E-2,-1.537286043E-1,-9.975778461E-1
6.024849437E0,5.642649531E-2,-2.002939880E-1,-8.435699940E-1
6.044849437E0,1.208989546E-1,-2.025279999E-1,-7.098079324E-1
6.064849437E0,1.794547588E-1,-2.232625186E-1,-6.514616013E-1
6.084849437E0,2.030865103E-1,-2.446951568E-1,-6.198536754E-1
6.104851000E0,1.626123190E-1,-2.957983911E-1,-6.285454035E-1
6.124851000E0,6.239552051E-2,-3.051184714E-1,-6.846228242E-1
6.146849437E0,-8.340928704E-2,-1.840973347E-1,-7.433880568E-1
6.166857250E0,-1.292939931E-1,-5.740387738E-2,-7.072597742E-1
6.188851000E0,-2.804744057E-2,1.741838641E-2,-6.071825624E-1
6.210851000E0,8.796459436E-2,1.101302728E-2,-5.423261523E-1
6.232849437E0,1.328195482E-1,3.979350626E-2,-5.445950627E-1
6.252849437E0,9.819222242E-2,8.883725852E-2,-5.417501926E-1
6.272849437E0,1.455604564E-2,5.239478499E-2,-5.170887113E-1
6.292849437E0,2.949606394E-3,2.155481577E-1,-4.338015914E-1
6.312849437E0,2.565634064E-2,4.311835766E-1,-3.390127420E-1
6.332849437E0,-5.094616115E-2,3.723485470E-1,-3.391174674E-1
6.352849437E0,-2.050063759E-1,1.961400956E-1,-4.329638183E-1
6.372849437E0,-3.504970074E-1,-9.508553892E-2,-5.367585421E-1
6.392849437E0,-2.857802212E-1,-8.794713765E-2,-4.517086744E-1
6.412849437E0,1.098510250E-1,2.056172341E-1,-1.421396136E-1
6.432849437E0,5.422214270E-1,4.462981522E-1,2.263866514E-1
6.452849437E0,6.108826995E-1,3.601661325E-1,3.685262799E-1
6.472849437E0,3.743382096E-1,7.874925435E-2,1.928414255E-1
6.492849437E0,9.943141043E-2,-1.770461947E-1,-6.665412337E-2
6.512849437E0,-9.056513757E-2,-2.307150662E-1,-2.024058253E-1
6.532851000E0,-2.155481577E-1,-9.957103431E-2,-2.087937444E-1
6.554849437E0,-2.334726900E-1,6.609562039E-2,-1.892460436E-1
6.574849437E0,-1.316152811E-1,8.766788989E-2,-1.964368075E-1
6.594849437E0,3.333578818E-3,6.883578748E-2,-1.773952693E-1
6.614849437E0,7.436847687E-2,9.192649275E-2,-1.597674340E-1
6.634849437E0,2.431243658E-2,1.122595742E-1,-1.554215699E-1
6.654849437E0,-3.387684003E-2,7.939502597E-2,-1.803972274E-1
6.674849437E0,-4.843288660E-2,1.633628085E-2,-2.107135952E-1
6.694849437E0,-5.038765445E-2,-4.598942399E-2,-2.479763776E-1
6.714849437E0,-4.024729133E-2,-7.853981853E-2,-2.557605505E-1
6.734849437E0,-2.939134464E-2,-9.801769257E-2,-2.908416688E-1
6.754849437E0,-2.727949619E-2,-7.777187228E-2,-3.211056888E-1
6.774849437E0,-1.764527895E-2,-1.965240762E-2,-3.642153144E-1
6.794849437E0,-1.818633080E-2,6.003932562E-3,-3.640407622E-1
6.814849437E0,1.647590846E-2,-3.061307408E-2,-3.286280334E-1
6.834849437E0,7.782422751E-2,-1.181064323E-1,-3.352079391E-1
6.854849437E0,1.209164113E-1,-1.625948697E-1,-3.423812389E-1
6.874849437E0,1.831374019E-1,-1.246339604E-1,-3.107035160E-1
6.894849437E0,1.945169419E-1,-9.925687313E-2,-2.216219008E-1
6.914849437E0,1.598547101E-1,-1.126435474E-1,-1.422617882E-1
6.934849437E0,2.116386294E-1,-1.081755087E-1,-1.062556431E-1
6.954849437E0,3.689276874E-1,-1.361356825E-1,-8.452629298E-2
6.974849437E0,3.211929500E-1,-2.770361006E-1,-1.325752139E-1
6.994849437E0,3.570943698E-2,-4.351454973E-1,-3.275284767E-1
7.014849437E0,-1.780235791E-3,-3.266558349E-1,-4.615697861E-1
7.034849437E0,3.827332556E-1,-6.839945167E-2,-3.007551432E-1
7.054849437E0,7.277499437E-1,1.614429615E-2,-8.901178837E-3
7.074849437E0,6.280741692E-1,-7.808603346E-2,3.970624134E-2
7.094849437E0,3.115238249E-1,-1.075297371E-1,-1.443910897E-1
7.114849437E0,1.564687639E-1,-5.544910952E-2,-3.137229383E-1
7.134849437E0,1.866106093E-1,-7.347836159E-3,-3.253293633E-1
7.154849437E0,2.025105506E-1,4.181808978E-2,-2.523222566E-1
7.174849437E0,1.195725054E-1,5.998696759E-2,-2.504198253E-1
7.194849437E0,1.270599663E-2,3.984586522E-2,-2.714685202E-1
7.214849437E0,4.234168679E-2,-6.038838997E-3,-2.276432961E-1
7.234849437E0,1.219286993E-1,-2.865830623E-2,-9.496336430E-2
7.254849437E0,9.697049111E-2,-6.073745899E-3,3.347541392E-2
7.274849437E0,1.446877979E-2,3.764675185E-2,1.117534339E-1
7.294849437E0,-3.061307408E-2,-3.455751808E-3,1.067792401E-1
7.314849437E0,-4.070107639E-2,-5.099852011E-2,4.033455998E-2
7.334849437E0,-5.640904233E-2,-9.461429715E-2,-3.792600334E-2
7.354849437E0,-9.902998060E-2,-6.756169349E-2,-1.051560864E-1
7.374849437E0,-1.345125288E-1,1.806415804E-2,-1.640260369E-1
7.394849437E0,-1.079137102E-1,5.352924764E-2,-1.562418789E-1
7.414849437E0,-5.127777159E-2,3.846705705E-2,-9.443976730E-2
7.434849437E0,-2.066469751E-2,-1.247910410E-2,-5.902703479E-2
7.454849437E0,-1.029744279E-3,-6.276203692E-2,-1.741838641E-2
7.474849437E0,2.110103145E-2,-6.663667411E-2,-3.954916075E-2
7.494849437E0,4.796164855E-2,-7.515387982E-2,-1.017876044E-1
7.514849437E0,4.497713596E-2,-1.274788529E-1,-1.325403005E-1
7.534849437E0,3.612831468E-3,-1.215098202E-1,-1.938886195E-1
7.554851000E0,-7.986626774E-2,-8.133234084E-2,-2.462659627E-1
7.576851000E0,-1.413193047E-1,-5.258677155E-2,-2.190039158E-1
7.596851000E0,-1.570098251E-1,-5.085889250E-2,-1.576381326E-1
7.618849437E0,-1.438151300E-1,-1.056273282E-1,-1.378460974E-1
7.638849437E0,1.342158206E-2,-9.763371944E-2,-1.140572652E-1
7.658849437E0,2.719397545E-1,7.190756500E-3,2.977531776E-2
7.678849437E0,3.737098873E-1,8.606218547E-2,1.971174777E-1
7.698851000E0,1.705535799E-1,-6.407103688E-2,1.376541108E-1
7.720851000E0,-1.854586899E-1,-3.215245605E-1,-1.274788529E-1
7.742851000E0,-2.774375379E-1,-3.536735177E-1,-2.970550358E-1
7.764849437E0,-1.673247218E-1,-2.566332221E-1,-2.609441876E-1
7.784849437E0,-1.554913819E-1,-1.258905977E-1,-1.864884347E-1
7.804849437E0,-2.392148226E-1,3.485422581E-2,-2.225120217E-1
7.824849437E0,-2.331759930E-1,1.290670931E-1,-2.947511971E-1
7.844849437E0,-1.356818974E-1,1.259429604E-1,-2.713288963E-1
7.864849437E0,-1.179144457E-1,3.733259439E-2,-2.306278050E-1
7.884849437E0,-1.755452156E-1,1.008800324E-2,-2.654820383E-1
7.904849437E0,-2.408030778E-1,-1.244419720E-2,-3.005805910E-1
7.924849437E0,-2.158972323E-1,-6.426302344E-2,-3.101100922E-1
7.944851000E0,-1.621585339E-1,-1.225046590E-1,-2.946814001E-1
7.966863500E0,-1.334304214E-1,-9.810495377E-2,-2.491981089E-1
7.988849437E0,-8.571311831E-2,-4.468042776E-2,-2.094046026E-1
8.008849437E0,-6.000442058E-2,-3.164282069E-2,-1.973792911E-1
8.028851000E0,-4.595451802E-2,-4.703662172E-2,-2.351656556E-1
8.048851000E0,-1.129228063E-2,-6.380923837E-2,-2.477843910E-1
8.070849437E0,2.478367416E-3,-1.171814054E-1,-2.398955077E-1
8.090849437E0,-6.009168550E-2,-1.682322919E-1,-2.585007250E-1
8.110849437E0,-1.134987622E-1,-1.981995851E-1,-2.990446985E-1
8.130849437E0,-1.228188202E-1,-2.282716185E-1,-3.534815311E-1
8.150849437E0,-9.517280012E-2,-2.209586799E-1,-3.761533499E-1
8.170849437E0,-7.059856504E-2,-1.695238352E-1,-3.351206779E-1
8.190849437E0,-9.279915690E-2,-1.465902030E-1,-2.508037984E-1
8.210849437E0,-8.019787818E-2,-1.492256522E-1,-1.983741224E-1
8.230849437E0,-1.126260981E-1,-1.832944751E-1,-2.028770745E-1
8.250849437E0,-2.540675700E-1,-2.439272106E-1,-2.423738688E-1
8.270849437E0,-4.842241406E-1,-2.932851315E-1,-3.104417026E-1
8.290851000E0,-5.278224945E-1,-3.146654069E-1,-3.378608227E-1
8.312849437E0,-1.641482115E-1,-3.529753983E-1,-2.589370608E-1
8.332849437E0,3.556457460E-1,-2.408728898E-1,-1.971174777E-1
8.352849437E0,5.901307464E-1,-5.391322076E-2,-2.233323306E-1
8.372849437E0,3.477393985E-1,-5.249950290E-2,-4.032757878E-1
8.392849437E0,-3.417354822E-2,-9.032078832E-2,-6.318091750E-1
8.412849437E0,-1.748819947E-1,6.457717973E-4,-7.989419103E-1
8.432849437E0,-1.276882887E-1,4.080579802E-2,-7.708595395E-1
8.452851000E0,-1.764527895E-2,4.494222626E-2,-5.835508108E-1
8.472851000E0,4.312708601E-2,6.859143730E-3,-4.392819107E-1
8.494849437E0,4.185299575E-2,-7.817329466E-2,-4.329987466E-1
8.514849437E0,6.140068173E-2,-1.079311594E-1,-4.696506560E-1
8.534849437E0,8.131489158E-2,-1.166229025E-1,-4.767017663E-1
8.554849437E0,4.188790172E-2,-1.222777665E-1,-4.923399389E-1
8.574849437E0,-5.794493016E-3,-9.988519549E-2,-5.047666430E-1
8.594849437E0,-3.450515866E-2,-1.089259982E-1,-5.187816620E-1
8.614849437E0,-3.541272879E-2,-1.402721107E-1,-4.983438551E-1
8.634849437E0,-1.469567232E-2,-1.370432526E-1,-4.528082311E-1
8.654849437E0,-3.536036983E-2,-1.043881401E-1,-3.964864314E-1
8.674849437E0,-5.623450875E-2,-8.079128712E-2,-3.713537157E-1
8.694849437E0,-3.719296679E-2,-5.621705577E-2,-3.360806108E-1
8.714849437E0,-2.286381274E-2,-4.220206290E-2,-2.854486108E-1
8.734849437E0,-3.888593614E-2,-4.050909355E-2,-2.574186027E-1
8.754849437E0,-2.330014482E-2,-3.570943698E-2,-2.334203273E-1
8.774849437E0,3.092723340E-2,-1.370083448E-2,-1.994911283E-1
8.794849437E0,6.675884128E-2,-1.680752076E-2,-1.772032827E-1
8.814849437E0,1.398008689E-2,-3.080506064E-2,-1.835911870E-1
8.834849437E0,-2.509783395E-2,-4.934045672E-2,-2.051634490E-1
8.854849437E0,2.574360557E-2,-1.047197497E-3,-1.591565758E-1
8.874849437E0,1.248084977E-1,1.038645431E-1,-1.530653704E-2
8.894851000E0,1.568876505E-1,1.133067757E-1,1.114916354E-1
8.914851000E0,5.653121322E-2,-4.754276946E-2,1.031489596E-1
8.936849437E0,-1.216843575E-1,-2.089159042E-1,-4.441862926E-2
8.956854125E0,-1.607448310E-1,-3.157649636E-1,-9.592329711E-2
8.978851000E0,1.115265414E-1,-2.648362517E-1,4.954989627E-2
9.000849437E0,6.105685234E-1,-3.077015467E-2,3.175103068E-1
9.020851000E0,6.898239255E-1,-6.579891313E-3,4.094716907E-1
9.042849437E0,2.741737664E-1,-2.329316437E-1,1.937664598E-1
9.062849437E0,-5.290092900E-2,-3.953694403E-1,-1.253495514E-1
9.082849437E0,-1.139350906E-1,-2.840523422E-1,-3.033033311E-1
9.102849437E0,-1.624901593E-2,-8.559094369E-2,-2.602460384E-1
9.122849437E0,1.179842576E-1,8.077383786E-2,-1.311789453E-1
9.142849437E0,1.882162988E-1,1.917767823E-1,-7.939502597E-2
9.162849437E0,2.415186614E-1,2.089333683E-1,-1.374795884E-1
9.182849437E0,2.329840064E-1,1.581268311E-1,-1.765051484E-1
9.202849437E0,1.111425683E-1,7.655014098E-2,-2.033134103E-1
9.222849437E0,-6.045820564E-2,-1.282817032E-2,-2.454805523E-1
9.242849437E0,-1.713738739E-1,-9.342747182E-2,-2.654471397E-1
9.262849437E0,-1.431344450E-1,-1.352804750E-1,-2.089682668E-1
9.282849437E0,-3.192207217E-2,-9.299114347E-2,-1.086991057E-1
9.302863500E0,5.071926862E-2,2.740166849E-3,-3.817034885E-2
9.324849437E0,5.440191180E-2,-1.438151300E-2,-6.506587565E-2
9.344849437E0,9.477137588E-3,-6.709045917E-2,-1.653001308E-1
9.364849437E0,2.572615258E-2,-1.036725566E-1,-2.227738202E-1
9.384849437E0,9.203121066E-2,-1.166403517E-1,-2.449569553E-1
9.404849437E0,6.674139202E-2,-1.139001846E-1,-2.401747555E-1
9.424849437E0,-1.862266287E-2,-1.073028445E-1,-2.348340452E-1
9.444849437E0,-1.023635566E-1,-1.625774205E-1,-2.246238738E-1
9.464849437E0,-1.618618369E-1,-2.444682717E-1,-2.160368562E-1
9.484849437E0,-2.039591819E-1,-2.659183741E-1,-2.100329250E-1
9.504849437E0,-1.953547001E-1,-2.488315850E-1,-1.502379477E-1
9.524849437E0,-7.478735596E-2,-3.120997846E-1,-8.157669008E-2
9.544849437E0,2.698278986E-2,-4.584107399E-1,-5.476843193E-2
9.564849437E0,2.816961333E-2,-4.921130240E-1,-1.383697093E-1
9.584849437E0,-1.352630109E-1,-4.534539878E-1,-3.282440603E-1
9.604849437E0,-1.757895648E-1,-1.007753089E-1,-4.600164294E-1
9.624849437E0,-4.153883550E-3,6.021386012E-2,-3.958057761E-1
9.644849437E0,1.266585439E-1,-1.931555867E-1,-3.384018838E-1
9.664849437E0,1.462585926E-1,-3.575132489E-1,-4.787787199E-1
9.684849437E0,3.722787276E-2,-2.222502232E-1,-6.990916133E-1
9.704849437E0,-5.592034757E-2,2.286381321E-3,-8.238652349E-1
9.724849437E0,-5.984733999E-2,1.193979755E-1,-8.271638751E-1
9.744849437E0,-4.879940674E-2,7.408922911E-2,-8.177042007E-1
9.764849437E0,-3.569198400E-2,-8.517206647E-3,-8.051378131E-1
9.784849437E0,7.749261800E-3,-6.820746511E-2,-7.342948914E-1
9.804849437E0,4.016002640E-2,-1.159771308E-1,-6.077236533E-1
9.824849437E0,3.658210114E-2,-1.221904978E-1,-4.665614069E-1
9.844849437E0,4.719370231E-2,-8.765043318E-2,-3.654021323E-1
9.864849437E0,7.485716790E-2,-9.564404190E-2,-3.212802112E-1
9.884849437E0,5.726425350E-2,-1.387885809E-1,-3.013311028E-1
9.904849437E0,1.071632188E-2,-1.291369051E-1,-3.071779609E-1
9.924849437E0,-3.080506064E-2,-5.037020147E-2,-2.868448496E-1
9.944849437E0,-1.743583940E-2,1.310742274E-2,-2.245715111E-1
9.964849437E0,7.298967242E-2,1.085943878E-1,-1.674643457E-1
9.984849437E0,1.633802652E-1,1.941155195E-1,-9.238027781E-2
1.000484944E1,1.738871485E-1,2.040289938E-1,-5.900958180E-2
1.002484944E1,1.542347521E-1,2.283414304E-1,-4.426154867E-2
1.004484944E1,1.905201375E-1,3.356617093E-1,1.816887781E-2
1.006484944E1,6.417575479E-2,2.184977680E-1,1.071283072E-1
1.008484944E1,-4.339935780E-1,-2.642253935E-1,-1.722639985E-2
1.010484944E1,-6.114411950E-1,-1.808161139E-1,-1.867327690E-1
1.012484944E1,-5.777039751E-2,3.003188074E-1,-8.894197643E-2
1.014484944E1,5.830097795E-1,5.477715731E-1,4.071678519E-1
1.016484944E1,7.312754989E-1,5.611931682E-1,7.780503035E-1
1.018484944E1,3.484724462E-1,2.710321844E-1,6.612877846E-1
1.020484944E1,-2.115513533E-1,-2.173982114E-1,2.079036236E-1
1.022484944E1,-4.426853061E-1,-4.892855883E-1,-1.507091820E-1
1.024484944E1,-3.989822567E-1,-5.180137157E-1,-1.851794273E-1
1.026484944E1,-2.439446747E-1,-3.941127956E-1,-1.500983164E-2
1.028485100E1,-1.026428118E-1,-1.084024012E-1,1.847780049E-1
1.030685100E1,-2.967059845E-4,2.142217159E-1,2.578549385E-1
1.032885100E1,6.611306965E-2,3.941476941E-1,2.583261728E-1
1.035084944E1,1.416160166E-1,4.409225285E-1,2.741214037E-1
1.037084944E1,1.148601174E-1,3.449119627E-1,2.454980165E-1
1.039084944E1,-5.599016324E-2,1.435358822E-1,1.543045640E-1
1.041084944E1,-1.887748092E-1,1.092576142E-2,6.154030934E-2
1.043084944E1,-1.533620805E-1,2.659881860E-2,6.124360487E-2
1.045084944E1,-8.150687814E-2,5.326744914E-2,1.290670931E-1
1.047084944E1,-6.702063978E-2,7.216936350E-2,1.312313080E-1
1.049084944E1,-1.277406514E-1,5.133013427E-2,6.824237108E-2
1.051084944E1,-1.539904028E-1,2.551671304E-2,1.204277202E-2
1.053084944E1,-1.240056455E-1,-1.766273193E-2,4.520402756E-3
1.055084944E1,-1.094495952E-1,-9.642943740E-2,9.302604944E-3
1.057084944E1,-1.237089336E-1,-1.239881888E-1,9.529497474E-3
1.059084944E1,-1.732064784E-1,-1.252797395E-1,1.755801216E-2
1.061084944E1,-2.303311080E-1,-1.688605994E-1,2.696533687E-2
1.063084944E1,-2.390403003E-1,-1.907644868E-1,7.712610066E-2
1.065084944E1,-2.137155682E-1,-1.683195531E-1,1.338492930E-1
1.067084944E1,-2.848726511E-1,-2.406634539E-1,1.236565784E-1
1.069085100E1,-3.474601507E-1,-2.911732793E-1,7.853981853E-2
1.071085100E1,-2.664419711E-1,-3.274412155E-1,4.707153141E-2
1.073284944E1,-1.743583940E-2,-2.667037547E-1,8.644615859E-2
1.075284944E1,3.118205369E-1,-1.457349956E-2,1.510931551E-1
1.077284944E1,4.413065016E-1,8.543386310E-2,1.736427993E-1
1.079285100E1,2.907544076E-1,-2.096140385E-2,7.571238279E-2
1.081285100E1,6.632251292E-2,-1.225221157E-1,-1.415462047E-1
1.083285100E1,-3.504621238E-2,-9.047786891E-2,-3.271445036E-1
1.085484944E1,-2.977531776E-2,2.677335031E-2,-3.410373330E-1
1.087484944E1,7.674212754E-2,1.588424146E-1,-2.271895111E-1
1.089484944E1,1.358913332E-1,1.777792424E-1,-1.279151738E-1
1.091484944E1,9.541714936E-2,6.588617712E-2,-1.563815027E-1
1.093484944E1,8.354891092E-2,-9.337511845E-3,-2.007477731E-1
1.095484944E1,8.468337357E-2,-1.361356815E-3,-1.611287892E-1
1.097484944E1,3.291691095E-2,6.082472578E-2,-9.423032403E-2
1.099484944E1,-3.621558100E-2,7.009242475E-2,-6.279694289E-2
1.101484944E1,-5.248204991E-2,-1.745329238E-2,-5.293583497E-2
1.103484944E1,-9.808750823E-3,-1.371654272E-1,-2.933898382E-2
1.105484944E1,9.232792072E-3,-1.635722518E-1,1.017526910E-2
1.107484944E1,-4.043927789E-2,-1.259953231E-1,4.035201296E-2
1.109484944E1,-9.318313003E-2,-5.496041849E-2,5.747369304E-2
1.111484944E1,-9.450957924E-2,6.335545331E-3,4.466297477E-2
1.113484944E1,-6.920230389E-2,6.712536514E-2,4.633849114E-2
1.115484944E1,-7.438593358E-2,8.424704522E-2,3.120648675E-2
1.117484944E1,-6.743951887E-2,1.134987622E-1,1.481784508E-2
1.119484944E1,-2.577851340E-2,1.442340016E-1,1.602212340E-2
1.121484944E1,-1.818633080E-2,1.459967941E-1,-9.145525284E-3
1.123484944E1,-1.427679323E-2,1.841671467E-1,-3.522074595E-2
1.125484944E1,6.265731994E-3,2.012015581E-1,-2.724459022E-2
1.127484944E1,1.710422710E-2,2.087762803E-1,2.443460934E-2
1.129485100E1,1.052433532E-2,2.891312540E-1,3.042108938E-2
1.131485100E1,-4.326671362E-2,4.462283254E-1,5.400048569E-2
1.133684944E1,-1.257509738E-1,4.515515864E-1,7.674212754E-2
1.135684944E1,-2.153561711E-1,3.042109013E-1,7.487462368E-3
1.137685100E1,-3.046646714E-1,7.314674556E-2,-8.595746756E-2
1.139885100E1,-2.312212139E-1,-7.120943069E-2,-3.347541392E-2
1.142084944E1,1.679181308E-1,9.279915690E-2,1.301666498E-1
1.144084944E1,6.392966509E-1,3.598694503E-1,3.112969100E-1
1.146084944E1,6.994930506E-1,3.152064681E-1,3.966435194E-1
1.148084944E1,3.662922382E-1,4.820599407E-2,3.396585286E-1
1.150084944E1,7.850491256E-2,-1.814444214E-1,1.555088311E-1
1.152084944E1,-5.811946467E-3,-2.359685153E-1,1.502728462E-2
1.154085100E1,-1.843067631E-2,-1.755626649E-1,2.363175713E-2
1.156285100E1,1.303760987E-2,-1.256637042E-3,7.981390506E-2
1.158484944E1,6.768386811E-2,1.291369051E-1,8.948303014E-2
1.160484944E1,1.384220570E-1,1.935221106E-1,7.958701253E-2
1.162484944E1,1.281595230E-1,2.395638973E-1,3.337069601E-2
1.164484944E1,2.530727349E-2,2.523396909E-1,-2.787290886E-2
1.166484944E1,-7.459536940E-2,2.329141945E-1,-9.615018964E-2
1.168484944E1,-9.820967913E-2,1.628915817E-1,-1.354899108E-1
1.170484944E1,-7.010987401E-2,6.489133835E-2,-1.458397061E-1
1.172484944E1,-4.372049868E-2,9.320057929E-3,-1.733810008E-1
1.174484944E1,-1.062905490E-1,-2.494075522E-2,-2.064026296E-1
1.176484944E1,-1.876752526E-1,-5.944591388E-2,-2.634050846E-1
1.178485100E1,-2.265088260E-1,-9.159488231E-2,-3.150319159E-1
1.180685725E1,-1.892111450E-1,-8.037241548E-2,-3.280171752E-1
1.182885100E1,-7.084291428E-2,2.146754880E-3,-2.946290374E-1
1.184885100E1,3.911282867E-2,2.668608353E-2,-2.180265337E-1
1.187084944E1,2.115339041E-2,-3.986331820E-2,-1.741140485E-1
1.189085100E1,-8.655087650E-2,-1.402022988E-1,-1.883035749E-1
1.191085100E1,-1.397485137E-1,-2.055474222E-1,-1.897521913E-1
1.193284944E1,-4.975933582E-2,-1.073377505E-1,-8.388052136E-2
1.195284944E1,-6.958627701E-2,-5.864306353E-3,-1.363102160E-2
1.197284944E1,-3.794694841E-1,-1.667138487E-1,-1.568701863E-1
1.199284944E1,-7.360227704E-1,-4.388106763E-1,-3.947236538E-1
1.201284944E1,-5.526410341E-1,-4.530700147E-1,-3.957883120E-1
1.203284944E1,2.592686713E-1,-2.140297294E-1,-7.635815442E-2
1.205284944E1,9.914168119E-1,6.459463388E-2,2.441366613E-1
1.207284944E1,8.442332149E-1,-4.197516665E-2,2.283239663E-1
1.209284944E1,1.985311955E-1,-1.335176826E-1,-1.782155633E-1
1.211284944E1,-2.003986984E-1,-1.042834222E-1,-6.071651578E-1
1.213284944E1,-1.638689637E-1,-3.085742146E-2,-7.406479120E-1
1.215285100E1,4.501204193E-2,3.291691095E-2,-5.699546933E-1
1.217285100E1,1.746201962E-1,8.274605870E-2,-3.754203320E-1
1.219484944E1,1.657190174E-1,9.997245669E-2,-3.254166245E-1
1.221484944E1,1.177922711E-1,9.272934496E-2,-3.624176085E-1
1.223484944E1,8.567821234E-2,7.967428118E-2,-4.029092491E-1
1.225484944E1,-1.712168008E-2,5.099852011E-2,-4.131543338E-1
1.227484944E1,-1.570098251E-1,3.982841223E-2,-4.372049868E-1
1.229484944E1,-2.416757345E-1,-4.897394031E-2,-4.471707940E-1
1.231484944E1,-2.205223441E-1,-1.201310083E-1,-4.014257193E-1
1.233484944E1,-2.395464331E-1,-1.027126238E-1,-3.153460920E-1
1.235484944E1,-2.866354287E-1,-2.726204321E-2,-2.333505154E-1
1.237484944E1,-2.732487321E-1,6.108652451E-4,-1.305157244E-1
1.239484944E1,-2.588672340E-1,2.757620299E-3,-2.345722541E-2
1.241484944E1,-2.796191871E-1,7.470009383E-3,9.939649701E-2
1.243484944E1,-3.396585286E-1,3.078760765E-2,1.898220032E-1
1.245484944E1,-4.871737659E-1,-8.290314116E-3,2.472607940E-1
1.247484944E1,-6.433283687E-1,-1.381078959E-1,2.926393449E-1
1.249484944E1,-7.498458028E-1,-3.283836842E-1,3.338116705E-1
1.251484944E1,-9.090722203E-1,-4.663170576E-1,3.059736788E-1
1.253489319E1,-1.123625517E0,-3.828903437E-1,2.510830760E-1
1.255685100E1,-1.299310327E0,-2.728822231E-1,2.787639797E-1
1.257884944E1,-1.247474074E0,-2.585181594E-1,3.627492189E-1
1.259884944E1,-8.550542593E-1,-1.472010612E-1,5.857150555E-1
1.261885100E1,-2.418153733E-1,1.743932962E-1,8.891754150E-1
1.264084944E1,4.982915148E-2,3.060958385E-1,1.098946571E0
1.266084944E1,-1.504299343E-1,1.919164062E-1,1.071195841E0
1.268084944E1,-3.971322179E-1,-5.569345504E-2,8.548448086E-1
1.270084944E1,-3.553664982E-1,-3.397981524E-1,5.957332253E-1
1.272084944E1,-5.405284837E-2,-4.706978500E-1,5.047666430E-1
1.274084944E1,2.747671902E-1,-4.519529939E-1,5.050808191E-1
1.276084944E1,3.465874791E-1,-3.661700785E-1,4.757243991E-1
1.278084944E1,2.188119292E-1,-1.476723105E-1,3.143163323E-1
1.280084944E1,1.675690562E-1,1.361007690E-1,1.567829251E-1
1.282084944E1,2.352878302E-1,3.716853261E-1,1.139176413E-1
1.284084944E1,3.234967887E-1,4.762305319E-1,1.134289503E-1
1.286085100E1,3.046995699E-1,3.655242920E-1,4.522148147E-2
1.288284944E1,2.764950693E-1,2.080083340E-1,-8.695230633E-2
1.290284944E1,2.593210340E-1,1.840275228E-1,-1.675167084E-1
1.292284944E1,1.530653685E-1,2.140995413E-1,-1.832944751E-1
1.294284944E1,5.579817668E-2,1.788613349E-1,-2.429323792E-1
1.296285100E1,-4.118977115E-3,9.365436435E-2,-3.823841810E-1
1.298484944E1,-4.483750835E-2,8.719664812E-2,-5.664291382E-1
1.300484944E1,-1.495921761E-1,2.670353837E-2,-7.490429282E-1
1.302484944E1,-3.680201173E-1,-5.384340882E-2,-8.738514185E-1
1.304484944E1,-6.284058094E-1,-2.633352876E-1,-8.378278613E-1
1.306484944E1,-6.219480634E-1,-1.960528344E-1,-6.114411950E-1
1.308484944E1,-3.027448058E-1,1.080358773E-1,-4.610112607E-1
1.310484944E1,4.132939503E-2,4.137826562E-1,-3.203202784E-1
1.312484944E1,1.090132669E-1,2.922204733E-1,-1.826487035E-1
1.314484944E1,1.576381326E-1,-5.742133129E-3,-2.629862130E-1
1.316484944E1,5.441762209E-1,-1.336398572E-1,-3.444058299E-1
1.318484944E1,9.066461921E-1,-2.816786766E-1,-2.371378839E-1
1.320484944E1,8.525235057E-1,-5.546307564E-1,-1.344601661E-1
1.322484944E1,7.845429778E-1,-5.821895003E-1,-2.285508662E-1
1.324485100E1,8.747415543E-1,-4.671897292E-1,-3.333404362E-1
1.326485100E1,9.966353774E-1,-3.430095613E-1,-3.249628544E-1
1.328485100E1,9.652892351E-1,1.408131570E-1,-1.125911921E-1
1.330685100E1,8.588067293E-1,5.418723822E-1,-1.976236254E-1
1.332685569E1,8.455596566E-1,5.635493398E-1,-2.392846346E-1
1.334884944E1,8.703957200E-1,4.182507098E-1,-2.474004179E-1
1.336884944E1,8.424180746E-1,2.235068679E-1,-2.403318435E-1
1.338885100E1,6.093817353E-1,-4.867723212E-2,-3.342480063E-1
1.340885100E1,3.492752910E-1,-3.585080802E-1,-4.676435292E-1
1.342885100E1,2.364223003E-1,-5.704783201E-1,-5.699372888E-1
1.345084944E1,4.646066576E-2,-3.208438754E-1,-5.442285538E-1
1.347084944E1,-1.653524935E-1,3.705334067E-1,-4.177096486E-1
1.349084944E1,-3.325899541E-1,5.164080262E-1,-3.448072374E-1
1.351085100E1,-3.601486981E-1,5.235115290E-1,-2.621833682E-1
1.353289163E1,-2.464579493E-1,5.076988339E-1,-2.093696892E-1
1.355485256E1,-2.007128596E-1,3.926641643E-1,-1.426108479E-1
1.357684944E1,-1.974665523E-1,2.455329150E-1,1.987930015E-2
1.359684944E1,-3.306002617E-1,1.945169419E-1,5.969025940E-2
1.361684944E1,-4.851491749E-1,2.000147253E-1,1.019272301E-2
1.363684944E1,-9.079377055E-1,-6.186494231E-1,-1.773254573E-1
1.365684944E1,-9.441882372E-1,-1.520687938E0,-4.266457260E-1
1.367684944E1,-2.700198889E-1,-1.210089087E0,-3.416831195E-1
1.369684944E1,2.976309955E-1,-4.490732029E-2,2.281319797E-1
1.371684944E1,1.561197042E-1,3.287851214E-1,7.776489258E-1
1.373685100E1,-1.198168546E-1,3.848451003E-2,8.081398010E-1
1.375884944E1,-2.262121290E-1,-1.995260417E-1,3.470412791E-1
1.377885100E1,-2.131919712E-1,-1.917767823E-1,1.485973299E-1
1.380084944E1,-1.137605608E-1,-4.520402849E-2,3.471285403E-1
1.382084944E1,-8.681267500E-2,1.827359758E-2,4.738917947E-1
1.384084944E1,-2.020567656E-1,5.886995420E-2,4.207290709E-1
1.386085100E1,-3.224670291E-1,1.181587856E-2,3.115936220E-1
1.388284944E1,-1.608669907E-1,-1.071108580E-1,2.703340352E-1
1.390284944E1,5.857324973E-2,-1.410575062E-1,3.041236103E-1
1.392284944E1,7.538077235E-2,-4.838052765E-2,4.148124158E-1
1.394285100E1,-1.954768784E-2,-9.721484035E-2,3.151366413E-1
1.396484944E1,-6.223843992E-2,-1.000946313E-1,7.791149616E-2
1.398484944E1,7.853982039E-3,-1.470789015E-1,-4.595451802E-2
1.400484944E1,1.133067757E-1,-1.350361258E-1,-7.155849785E-2
1.402484944E1,1.430646330E-1,-2.905973233E-2,-4.314453900E-2
1.404484944E1,8.360127360E-2,8.325220644E-2,-1.204277202E-2
1.406484944E1,-4.897394031E-2,2.525491454E-2,-1.963495463E-2
1.408484944E1,-1.733111888E-1,-2.776993215E-1,-1.337969452E-1
1.410484944E1,-9.066985548E-2,-5.252917409E-1,-2.473655194E-1
1.412484944E1,2.799508162E-2,-4.313057661E-1,-1.874483675E-1
1.414484944E1,-3.452261165E-2,-4.897394031E-2,1.303760987E-2
1.416484944E1,-1.812000871E-1,7.639306039E-2,1.805892140E-1
1.418484944E1,-3.152239025E-1,-3.082600534E-1,8.930850029E-2
1.420484944E1,-3.960850239E-1,-7.001039386E-1,-2.086715698E-1
1.422484944E1,-9.899507463E-2,-5.734628439E-1,-3.066194355E-1
1.424484944E1,4.740139842E-1,-2.316401005E-1,-2.464404888E-2
1.426484944E1,6.393489838E-1,-6.845181435E-2,3.679677546E-1
1.428484944E1,4.362450540E-1,3.270747140E-2,3.544589281E-1
1.430484944E1,1.601165086E-1,1.087689176E-1,4.850269854E-2
1.432485100E1,-2.897246508E-3,8.222246170E-2,-2.063153684E-1
1.434485100E1,-2.994984947E-2,5.886995420E-2,-2.938436270E-1
1.436685725E1,-4.986405745E-2,1.176875532E-1,-2.691297829E-1
1.438884944E1,-9.974556416E-2,1.796990931E-1,-2.480461895E-1
1.440885100E1,-5.537929758E-2,1.969953179E-1,-1.822647303E-1
1.443084944E1,3.951425478E-2,1.791056842E-1,-6.297148019E-2
1.445084944E1,3.591887653E-2,7.689920813E-2,2.103121765E-2
1.447084944E1,-6.990043819E-2,-7.045894116E-2,6.222098693E-2
1.449085100E1,-9.281660616E-2,-1.030442417E-1,1.492954642E-1
1.451085100E1,-5.967280641E-2,-7.246606797E-2,2.714685202E-1
1.453089319E1,-6.291911751E-2,-5.028293654E-2,3.587175310E-1
1.455284944E1,-3.729768470E-2,-2.178170905E-2,4.127703607E-1
1.457284944E1,3.663446009E-2,9.058258496E-3,3.999945521E-1
1.459284944E1,1.317374557E-1,8.836601675E-2,3.679852188E-1
1.461284944E1,2.364048511E-1,1.411622316E-1,3.184353113E-1
1.463284944E1,3.063401878E-1,1.280722618E-1,2.670702934E-1
1.465284944E1,2.917667031E-1,1.647241712E-1,2.009222955E-1
1.467284944E1,2.964092791E-1,3.800803423E-1,2.000147253E-1
1.469284944E1,2.307150662E-1,6.381621957E-1,3.264463842E-1
1.471284944E1,-7.394959778E-2,2.497915179E-1,4.140444696E-1
1.473284944E1,-2.474353313E-1,-4.786914587E-1,2.284112424E-1
1.475285100E1,9.923942387E-2,-7.599861622E-1,1.093797833E-1
1.477286506E1,5.549100041E-1,-5.748416185E-1,1.971523911E-1
1.479484944E1,2.662150562E-1,-1.679181308E-1,5.053251982E-1
1.481484944E1,-3.067416251E-1,2.199463844E-1,6.796137691E-1
1.483484944E1,-4.644844830E-1,4.433834553E-1,6.459114552E-1
1.485484944E1,-2.970375717E-1,4.115137160E-1,6.260845065E-1
1.487484944E1,-8.309512585E-2,3.044028878E-1,6.844483018E-1
1.489484944E1,-1.314232964E-2,2.585879862E-1,7.246083617E-1
1.491484944E1,-9.135053307E-2,3.044377863E-1,7.087432742E-1
1.493484944E1,-1.322785020E-1,3.749490678E-1,6.629109383E-1
1.495484944E1,-7.833037525E-2,3.155729771E-1,6.265557408E-1
1.497484944E1,-3.263765713E-3,1.276010275E-1,5.544911027E-1
1.499485725E1,2.047271281E-2,-7.988371700E-2,4.388805032E-1
1.501685100E1,-5.635667965E-2,-1.557008177E-1,3.107907772E-1
1.503884944E1,-1.463109553E-1,-1.025206372E-1,2.213077545E-1
1.505884944E1,-1.349314004E-1,-3.553490341E-2,1.756324768E-1
1.507885100E1,-8.258897811E-2,-1.949532703E-2,9.471901506E-2
1.510084944E1,-4.974188283E-3,-7.588691264E-2,-2.336995862E-2
1.512084944E1,-2.480112948E-2,-1.673596203E-1,-9.700539708E-2
1.514084944E1,-1.192408949E-1,-2.514670491E-1,-1.790009737E-1
1.516085100E1,-1.236391217E-1,-1.898045540E-1,-2.058790326E-1
1.518284944E1,-3.981095925E-2,6.832963973E-2,-1.810429990E-1
1.520284944E1,3.377212211E-2,3.100577295E-1,-1.480911821E-1
1.522284944E1,1.283166111E-1,3.648959994E-1,-1.162389293E-1
1.524284944E1,2.189690024E-1,3.677408770E-2,-1.722116321E-1
1.526284944E1,2.988178134E-1,-3.260624111E-1,-3.616496623E-1
1.528284944E1,3.640058637E-1,-3.711268008E-1,-5.720840096E-1
1.530286194E1,4.621282816E-1,-2.527236640E-1,-5.645442009E-1
1.532484944E1,4.925842583E-1,-1.753008664E-1,-3.812322617E-1
1.534484944E1,2.817834020E-1,-1.975014508E-1,-4.075169265E-1
1.536484944E1,-6.155776232E-2,-9.702285379E-2,-6.655812860E-1
1.538484944E1,-2.787290812E-1,2.055997774E-2,-8.776038885E-1
1.540484944E1,-2.519731820E-1,6.166248396E-2,-9.046390653E-1
1.542484944E1,-1.384569705E-1,1.186300293E-1,-8.474271894E-1
1.544484944E1,-9.367182106E-2,2.360383272E-1,-7.725350857E-1
1.546484944E1,-1.206546128E-1,3.340211213E-1,-6.602405906E-1
1.548484944E1,-1.645845473E-1,2.918365002E-1,-5.262342095E-1
1.550484944E1,-1.285609454E-1,1.069363207E-1,-4.167148173E-1
1.552484944E1,-2.893755957E-2,-3.916518763E-2,-3.472507000E-1
1.554484944E1,8.707447350E-2,-6.927211583E-2,-2.755002081E-1
1.556484944E1,9.731955826E-2,-6.412339956E-2,-1.848652810E-1
1.558484944E1,2.125811018E-2,6.702064537E-3,-1.149648353E-1
1.560484944E1,1.027998887E-2,9.496336430E-2,-5.625196174E-2
1.562484944E1,7.438593358E-2,1.144412383E-1,8.098327555E-3
1.564484944E1,1.361356825E-1,1.264141947E-1,3.190461919E-2
1.566484944E1,2.065248042E-1,1.165705398E-1,-3.242821619E-2
1.568485100E1,2.652376890E-1,2.007477731E-1,-8.133234084E-2
1.570684944E1,1.704837680E-1,3.084869385E-1,-7.686430216E-2
1.572685881E1,4.729842395E-2,3.455053866E-1,-1.385791451E-1
1.574884944E1,1.647590846E-2,4.151265621E-1,-2.809980214E-1
1.576885100E1,-1.027824357E-1,4.384092391E-1,-3.548603356E-1
1.579085100E1,-2.894279361E-1,3.184353113E-1,-3.056071401E-1
1.581085256E1,-2.933898568E-1,7.492698729E-2,-1.358389705E-1
1.583284944E1,-5.235987715E-3,-1.516865641E-1,1.483006328E-1
1.585284944E1,4.871737659E-1,2.637192421E-2,4.213922918E-1
1.587284944E1,5.617516637E-1,9.503317624E-2,5.546307564E-1
1.589284944E1,2.323905826E-1,-1.666614860E-1,5.573359728E-1
1.591284944E1,3.731513768E-2,-4.584456384E-1,3.653148711E-1
1.593284944E1,4.241149873E-3,-4.917465150E-1,2.484825253E-1
1.595284944E1,7.435102481E-3,-2.993763387E-1,2.727251351E-1
1.597284944E1,5.948081985E-2,-6.538003683E-2,3.295705318E-1
1.599284944E1,1.207593307E-1,1.225744709E-1,3.667809367E-1
1.601285100E1,1.571319848E-1,2.353751063E-1,3.553315699E-1
1.603285100E1,1.653175801E-1,2.267008126E-1,3.076317310E-1
1.605484944E1,1.326450258E-1,1.417381912E-1,1.911310107E-1
1.607484944E1,1.056447774E-1,3.487167880E-2,8.454374969E-2
1.609484944E1,6.365215778E-2,-7.534586638E-2,-1.031489577E-2
1.611484944E1,2.605776489E-2,-1.508313566E-1,-6.766641140E-2
1.613484944E1,-3.275983036E-2,-2.110975683E-1,-1.125911921E-1
1.615484944E1,-9.700539708E-2,-2.210634053E-1,-1.604481190E-1
1.617484944E1,-9.817477316E-2,-1.132195070E-1,-1.870818436E-1
1.619484944E1,-2.179916203E-2,2.914699912E-2,-1.840798706E-1
1.621484944E1,2.026327327E-2,3.049090132E-2,-1.831723005E-1
1.623484944E1,1.637118869E-2,-4.858996719E-2,-1.859473735E-1
1.625484944E1,-1.167625282E-2,-1.296081543E-1,-1.841671467E-1
1.627484944E1,-8.094836771E-2,-1.409353316E-1,-1.765051484E-1
1.629484944E1,-9.026842564E-2,-6.560692936E-2,-1.437802166E-1
1.631484944E1,1.066396199E-2,-1.759291813E-2,-6.232570857E-2
1.633484944E1,1.443910897E-1,2.883283980E-2,4.914847016E-2
1.635484944E1,1.363625675E-1,-1.589296758E-1,1.577777602E-2
1.637484944E1,8.222246170E-2,-3.878470659E-1,-1.691747606E-1
1.639484944E1,1.676563323E-1,-4.782202244E-1,-4.395088255E-1
1.641484944E1,3.923151195E-1,-3.162885606E-1,-5.206142664E-1
1.643484944E1,5.688726306E-1,-6.632251292E-2,-3.391174674E-1
1.645484944E1,4.655840397E-1,-1.354724616E-1,-2.376091182E-1
1.647484944E1,1.894903928E-1,-2.577676773E-1,-4.199436605E-1
1.649484944E1,-3.244566917E-2,-1.836086363E-1,-6.790552735E-1
1.651484944E1,2.199114766E-3,1.235693134E-2,-6.311634183E-1
1.653484944E1,1.470963508E-1,1.934522986E-1,-4.479213059E-1
1.655484944E1,1.986010075E-1,3.007551432E-1,-3.657512069E-1
1.657484944E1,1.296256036E-1,3.014008999E-1,-3.567802012E-1
1.659484944E1,7.646287233E-2,2.444857210E-1,-3.601835966E-1
1.661484944E1,7.853981853E-2,1.557182819E-1,-3.484724462E-1
1.663484944E1,6.810274720E-2,5.441936478E-2,-3.518060148E-1
1.665484944E1,3.724532574E-2,3.755948693E-2,-3.143686950E-1
1.667484944E1,-2.001892589E-2,8.173377067E-2,-2.433163524E-1
1.669484944E1,-5.618214980E-2,7.354817539E-2,-1.636595279E-1
1.671485100E1,-3.178244457E-2,1.993165910E-2,-6.817255914E-2
1.673485100E1,6.363470107E-2,-9.484118968E-2,1.956514083E-2
1.675684944E1,1.234122291E-1,-1.224697530E-1,9.510298818E-2
1.677684944E1,1.494001877E-2,3.214896470E-2,1.102175415E-1
1.679686038E1,-7.445574552E-2,1.741140485E-1,6.719517708E-2
1.681884944E1,-6.579891592E-2,2.298947722E-1,-4.525638744E-2
1.683884944E1,-7.960446924E-2,2.044304162E-1,-8.098327368E-2
1.685884944E1,-6.354743987E-2,2.446777076E-1,-2.305579931E-2
1.687885100E1,-3.680899367E-2,4.907167852E-1,9.302604944E-2
1.690084944E1,-2.332283407E-1,4.573635161E-1,1.224173903E-1
1.692084944E1,-4.024205506E-1,1.220159680E-1,-5.131267942E-3
1.694084944E1,-1.741838604E-1,-4.857251421E-2,-1.972222002E-3
1.696084944E1,3.388033211E-1,7.098253816E-2,2.365444750E-1
1.698084944E1,5.112069249E-1,1.282991469E-1,4.906294942E-1
1.700084944E1,1.544092745E-1,-6.859143823E-2,5.167919993E-1
1.702084944E1,-1.964542568E-1,-2.562666833E-1,2.936342061E-1
1.704084944E1,-2.362128645E-1,-2.177821845E-1,1.095717698E-1
1.706084944E1,-1.536762416E-1,-6.494370103E-2,1.870992929E-1
1.708085100E1,-5.948081985E-2,9.613273293E-2,3.871838450E-1
1.710085100E1,-2.935643867E-2,1.140747219E-1,5.026024580E-1
1.712085100E1,-3.202679008E-2,1.121897623E-1,4.953942597E-1
1.714284944E1,-2.080432512E-2,1.289449185E-1,4.265061021E-1
1.716284944E1,1.658062800E-3,9.911724925E-2,3.722612858E-1
1.718284944E1,-2.391101094E-3,4.221951589E-2,3.061656654E-1
1.720284944E1,-3.068288788E-2,-4.321435094E-2,2.403318435E-1
1.722285100E1,-4.356341809E-2,-9.407324344E-2,1.949881762E-1
1.724484944E1,-7.775441557E-2,-1.594532728E-1,1.009498462E-1
1.726484944E1,-5.429719388E-2,-1.365894675E-1,-1.466076588E-3
1.728485100E1,1.745329238E-3,2.103121765E-2,-4.386012256E-2
1.730685725E1,9.896016680E-3,2.220931500E-1,-4.201007634E-2
1.732686506E1,-1.392772701E-2,2.054077983E-1,-5.743878707E-2
1.734884944E1,-6.435029209E-2,-3.209660575E-2,-1.017352417E-1
1.736884944E1,-1.268330812E-1,-3.709522784E-1,-1.771509200E-1
1.738884944E1,-1.294510663E-1,-4.688477814E-1,-1.819156706E-1
1.740885100E1,-2.871066518E-2,-1.614778638E-1,5.829399452E-3
1.743085100E1,-3.722787276E-2,2.125112861E-1,2.644697428E-1
1.745284944E1,-4.808033109E-1,5.356415361E-2,1.547757983E-1
1.747284944E1,-7.605795860E-1,-3.500257730E-1,-2.802475095E-1
1.749284944E1,-3.395014405E-1,-5.063374639E-1,-4.451113045E-1
1.751284944E1,6.045471430E-1,-4.616395831E-1,-1.424537748E-1
1.753284944E1,1.124393463E0,-2.959205806E-1,2.495820820E-1
1.755284944E1,9.210451245E-1,-1.296954155E-1,1.882686615E-1
1.757285100E1,4.467344880E-1,1.964891702E-1,-2.465452105E-1
1.759484944E1,9.826203436E-2,3.768514991E-1,-6.847974062E-1
1.761484944E1,8.969247341E-2,3.503923118E-1,-7.626041770E-1
1.763484944E1,2.186024934E-1,3.156428039E-1,-6.448467970E-1
1.765484944E1,2.612234354E-1,2.507340014E-1,-5.045572519E-1
1.767484944E1,1.653001308E-1,2.124938369E-1,-4.437848628E-1
1.769484944E1,6.625270098E-2,1.722989082E-1,-4.009719491E-1
1.771484944E1,6.101670861E-2,1.207244247E-1,-3.547905385E-1
1.773484944E1,5.895722285E-2,3.609341010E-2,-2.984338403E-1
1.775484944E1,-5.427973811E-3,2.656391077E-2,-2.479763776E-1
1.777484944E1,-1.083325893E-1,3.567453101E-2,-2.079385221E-1
1.779484944E1,-1.369734406E-1,4.405210912E-2,-1.114218161E-1
1.781484944E1,-1.119279638E-1,6.038838997E-3,3.953170776E-2
1.783484944E1,-2.122320421E-2,-1.305506285E-2,1.541300267E-1
1.785484944E1,7.482226193E-2,7.531096041E-2,1.804845035E-1
1.787484944E1,1.017876044E-1,1.441991031E-1,1.290845573E-1
1.789484944E1,1.027126238E-1,1.850572526E-1,5.085889250E-2
1.791484944E1,1.505695581E-1,1.414414793E-1,-1.021017600E-2
1.793484944E1,1.947962046E-1,6.796312332E-2,-5.710717291E-2
1.795484944E1,2.122494876E-1,1.803274155E-1,-1.108109504E-1
1.797484944E1,1.762433499E-1,4.833689332E-1,-8.101818711E-2
1.799485100E1,3.693116829E-2,6.182479858E-1,9.136798233E-2
1.801685100E1,-8.635888994E-2,4.107457995E-1,3.401472270E-1
1.803685100E1,1.388234943E-1,1.433613449E-1,4.550247788E-1
1.805884944E1,5.784544945E-1,9.176941216E-2,4.457919896E-1
1.807884944E1,5.454851985E-1,5.344198272E-2,4.509581625E-1
1.809884944E1,1.638864167E-2,-1.872912794E-1,4.597371817E-1
1.811885100E1,-3.946189284E-1,-3.442836404E-1,3.747047484E-1
1.814084944E1,-4.196993113E-1,-4.663170576E-1,2.958158553E-1
1.816085100E1,-2.656216621E-1,-4.198215008E-1,3.716329634E-1
1.818284944E1,-1.370607018E-1,-1.958957613E-1,5.117305517E-1
1.820284944E1,-9.581857920E-2,-3.181735054E-2,5.434082747E-1
1.822285100E1,-7.677703351E-2,7.171557844E-2,5.153782964E-1
1.824484944E1,-8.635888994E-2,8.065166324E-2,4.866152406E-1
1.826484944E1,-7.972663641E-2,4.000294581E-2,4.099603891E-1
1.828485100E1,-8.950048685E-2,-6.555456668E-2,3.105987906E-1
1.830685100E1,-1.672723591E-1,-2.690250576E-1,1.943947673E-1
1.832884944E1,-2.183406949E-1,-4.111123085E-1,8.019787818E-2
1.834884944E1,-2.515368462E-1,-4.196818769E-1,1.199041214E-2
1.836884944E1,-2.404889166E-1,-3.317521811E-1,-1.645845547E-2
1.838884944E1,-1.793325841E-1,-7.726572454E-2,1.691224054E-2
1.840885100E1,-1.502030343E-1,8.539895713E-2,4.057890549E-2
1.843084944E1,-2.334726900E-1,6.946410239E-2,3.073524870E-2
1.845084944E1,-3.792425990E-1,-5.810201168E-2,-4.796164855E-2
1.847084944E1,-3.991218805E-1,-8.876744658E-2,-1.141968891E-1
1.849084944E1,-2.910860181E-1,-9.587093443E-2,-6.103416532E-2
1.851084944E1,-9.791296721E-2,2.321287990E-2,1.285609454E-1
1.853084944E1,-1.185602173E-1,1.032711342E-1,2.411172390E-1
1.855084944E1,-4.908738434E-1,5.283111706E-2,6.473426521E-2
1.857084944E1,-6.670823097E-1,2.876302600E-2,-2.272418737E-1
1.859085100E1,-1.814444214E-1,1.078613475E-2,-2.078338116E-1
1.861284944E1,4.017922580E-1,-2.494250089E-1,1.282642484E-1
1.863284944E1,4.494746327E-1,-4.108854234E-1,2.975437343E-1
1.865284944E1,1.907470375E-1,-2.362652272E-1,1.994911395E-2
1.867284944E1,-4.956734926E-2,6.585127115E-2,-3.829252422E-1
1.869285100E1,-1.186474785E-1,1.876054406E-1,-5.022534132E-1
1.871484944E1,-1.790707745E-2,2.473131567E-1,-4.039215446E-1
1.873484944E1,4.288274050E-2,1.671676338E-1,-3.048915565E-1
1.875484944E1,5.564109609E-2,1.144936010E-1,-2.473131567E-1
1.877485100E1,6.986553222E-2,1.252448261E-1,-2.290919125E-1
1.879485100E1,4.942772537E-2,1.451764852E-1,-2.116560787E-1
1.881685100E1,-5.480333790E-2,4.532619938E-2,-1.729795784E-1
1.883884944E1,-1.179493517E-1,-8.463101834E-2,-1.569923609E-1
1.885884944E1,-1.423141509E-1,-1.402546614E-1,-1.429250091E-1
1.887885100E1,-1.279500872E-1,-1.554390192E-1,-7.244861871E-2
1.890084944E1,-3.916518763E-2,-7.021459192E-2,1.032885835E-1
1.892084944E1,-2.864085324E-2,2.696533687E-2,2.488664985E-1
1.894084944E1,-8.007570356E-2,8.344419301E-2,2.018822283E-1
1.896084944E1,-4.070107639E-2,1.127482727E-1,6.550220400E-2
1.898084944E1,7.323401421E-2,1.923527420E-1,-2.827433404E-3
1.900084944E1,1.668883860E-1,2.843839526E-1,5.455899239E-2
1.902084944E1,1.734508276E-1,2.988003790E-1,1.284213215E-1
1.904084944E1,1.887049973E-1,3.674616218E-1,1.894554943E-1
1.906085100E1,1.352106631E-1,4.513944983E-1,2.315702885E-1
1.908284944E1,-6.522295624E-2,2.746624649E-1,9.220574051E-2
1.910284944E1,3.518583626E-2,1.901361644E-1,1.000073645E-2
1.912284944E1,3.933273852E-1,2.434385270E-1,1.934173852E-1
1.914284944E1,4.774173498E-1,7.476990670E-2,4.236961305E-1
1.916284944E1,1.925796270E-1,-2.350609452E-1,4.994957745E-1
1.918285100E1,-5.988224596E-2,-2.691821158E-1,3.643723726E-1
1.920484944E1,-1.669058353E-1,-1.063778177E-1,2.143787891E-1
1.922484944E1,-1.856681257E-1,9.258971363E-2,2.798111737E-1
1.924484944E1,-1.020319462E-1,1.857379377E-1,4.233819544E-1
1.926484944E1,-3.658210114E-2,1.453859210E-1,4.878893495E-1
1.928485100E1,-4.818854108E-2,7.506661117E-2,4.241150022E-1
1.930485100E1,-7.737044245E-2,1.037423685E-1,3.329913616E-1
1.932685725E1,-2.131047100E-2,1.474628747E-1,2.826386094E-1
1.934884944E1,5.989969894E-2,6.920230389E-2,2.479065657E-1
1.936884944E1,9.620254487E-2,-3.197443113E-2,1.794722080E-1
1.938884944E1,3.024655581E-2,-9.175195545E-2,6.602580845E-2
1.940885100E1,-5.433209985E-2,-1.350710243E-1,-7.312929723E-3
1.943084944E1,-7.276277989E-2,-2.148500234E-1,-6.450736523E-2
1.945084944E1,-6.766641140E-2,-2.820626497E-1,-1.328544617E-1
1.947084944E1,-4.436627030E-2,-1.925970763E-1,-1.713564247E-1
1.949084944E1,-1.207418740E-1,-1.030965969E-1,-2.246762365E-1
1.951084944E1,-2.257408798E-1,-1.710771769E-1,-2.816437781E-1
1.953084944E1,-2.872986495E-1,-2.456900030E-1,-3.029367924E-1
1.955084944E1,-3.266034722E-1,-1.805717647E-1,-2.309070528E-1
1.957084944E1,-2.065771669E-1,-1.677261479E-2,-1.574810594E-1
1.959085100E1,5.658357590E-2,1.354724616E-1,-1.102349982E-1
1.961284944E1,8.206538111E-2,-3.673918173E-2,-1.119454205E-1
1.963284944E1,-9.206611663E-2,-3.540749550E-1,-2.159670442E-1
1.965284944E1,-1.044754088E-1,-4.721290171E-1,-4.165053666E-1
1.967284944E1,1.266410947E-1,-2.528632879E-1,-4.886747301E-1
1.969285100E1,3.434633315E-1,-1.627170444E-1,-3.426779509E-1
1.971285100E1,3.084171414E-1,-3.154857159E-1,-2.783102095E-1
1.973484944E1,7.330382708E-3,-2.460041642E-1,-5.326744914E-1
1.975484944E1,-2.338566631E-1,-5.944591388E-2,-7.751531005E-1
1.977484944E1,-2.403492928E-1,5.433209985E-2,-7.882255912E-1
1.979484944E1,-1.087863743E-1,1.737824380E-1,-6.817604899E-1
1.981484944E1,-3.782128543E-2,2.418502718E-1,-5.887868404E-1
1.983484944E1,-6.806784123E-2,1.621759981E-1,-5.610361099E-1
1.985484944E1,-1.103571653E-1,1.139350906E-1,-5.089205503E-1
1.987484944E1,-1.113520041E-1,7.798130810E-2,-3.848276436E-1
1.989484944E1,-9.628981352E-2,7.749261707E-2,-3.176499307E-1
1.991484944E1,-1.959830225E-1,1.652652323E-1,-2.476971298E-1
1.993485100E1,-2.151990980E-1,1.788962483E-1,-1.262745708E-1
1.995684944E1,-5.272639543E-2,3.560471581E-3,-4.207988828E-2
1.997686819E1,6.829473376E-2,-1.118930578E-1,-8.412486874E-3
1.999885100E1,4.850269854E-2,3.677408770E-2,-2.330014482E-2
2.001885412E1,-4.164355621E-2,2.013935447E-1,4.548327997E-2
2.004084944E1,-5.153957382E-2,4.118104279E-1,1.188569218E-1
2.006084944E1,-4.363323096E-4,6.291038990E-1,1.652477682E-1
2.008085100E1,9.656906873E-2,5.421341658E-1,1.191012710E-1
2.010284944E1,9.822712839E-2,2.749591768E-1,5.736897141E-2
2.012284944E1,-3.639011458E-2,2.454456538E-1,2.373647690E-2
2.014285256E1,-2.831622064E-1,2.821324766E-1,1.247910410E-2
2.016484944E1,-5.854008794E-1,5.689773243E-3,-1.326973885E-1
2.018484944E1,-5.468640327E-1,-2.559350729E-1,-2.302089334E-1
2.020484944E1,-4.523893446E-2,-2.131570578E-1,-5.979498103E-2
2.022485569E1,4.685859978E-1,1.688431501E-1,3.445978165E-1
2.024684944E1,3.366914690E-1,2.087762803E-1,6.188064814E-1
2.026685569E1,-2.865830623E-2,-7.016223390E-3,5.151164532E-1
2.028686350E1,-1.631533802E-1,-1.574985087E-1,2.270673364E-1
2.030884944E1,-1.027300805E-1,-3.345796093E-2,1.300619394E-1
2.032884944E1,-1.384918690E-1,1.710597128E-1,2.199114859E-1
2.034885413E1,-1.550201476E-1,3.064798117E-1,3.026051819E-1
2.037084944E1,-8.557349443E-2,-1.064825356E-1,4.062079191E-1
2.039085412E1,1.171464995E-1,-2.449395061E-1,4.014955461E-1
2.041284944E1,1.964542568E-1,-8.922123164E-2,4.028394520E-1
2.043284944E1,1.174781099E-1,2.261946723E-2,3.690673113E-1
2.045284944E1,4.667010531E-2,-4.508185387E-2,2.763030827E-1
2.047284944E1,5.743878707E-2,-1.553517580E-1,1.754928529E-1
2.049284944E1,9.124581516E-2,-2.015331686E-1,1.159596741E-1
2.051284944E1,1.485798806E-1,-2.253569067E-1,5.932373926E-2
2.053285412E1,1.735031754E-1,-1.050688177E-1,1.542871073E-2
2.055484944E1,1.154535264E-1,9.742427617E-2,-8.447393775E-3
2.057484944E1,5.722934753E-2,3.010343909E-1,1.946042106E-2
2.059484944E1,-4.258603323E-3,5.097408891E-1,4.230678082E-2
2.061484944E1,-1.112647429E-1,4.391946495E-1,-5.827654526E-2
2.063484944E1,-1.319468915E-1,-1.447576135E-1,-1.285260469E-1
2.065484944E1,-2.794272080E-2,-5.184674859E-1,-1.473057866E-1
2.067484944E1,1.972221956E-2,-4.069409668E-1,-9.569640458E-2
2.069484944E1,-1.283515096E-1,-3.239330947E-1,-6.709045917E-2
2.071484944E1,-3.813544512E-1,-3.952123523E-1,-2.567379177E-1
2.073484944E1,-4.778711498E-1,-5.681221485E-1,-4.963541925E-1
2.075484944E1,-1.381777227E-1,-4.514643252E-1,-5.632700920E-1
2.077485569E1,3.377910256E-1,-2.948559225E-1,-1.938711703E-1
2.079684944E1,5.196368694E-1,-3.054151535E-1,2.121273130E-1
2.081685100E1,3.859272003E-1,-1.585631669E-1,1.032711342E-1
2.083885256E1,8.887216449E-2,9.965830296E-2,-2.256536186E-1
2.086084944E1,-3.284709528E-2,2.375742197E-1,-4.072376788E-1
2.088085725E1,2.661627159E-2,2.528807521E-1,-4.029616117E-1
2.090284944E1,8.356636763E-2,2.001543641E-1,-3.295356035E-1
2.092285569E1,8.806931227E-2,2.137504667E-1,-3.007376790E-1
2.094484944E1,1.217018068E-1,2.450093180E-1,-2.526713014E-1
2.096484944E1,1.674119830E-1,2.560397983E-1,-1.634500772E-1
2.098484944E1,1.568178385E-1,2.152339965E-1,-1.301143020E-1
2.100485569E1,1.928588748E-1,1.653001308E-1,-1.818283945E-1
2.102685569E1,3.571641743E-1,-3.298672289E-2,-1.244943365E-1
2.104885100E1,2.778040469E-1,-3.626793995E-2,3.101450019E-2
2.107084944E1,4.249876738E-2,-7.552039623E-2,3.920009360E-2
2.109084944E1,-2.804744057E-2,-3.220132366E-2,2.912954427E-2
2.111084944E1,1.137954649E-2,5.832890421E-2,6.990043819E-2
2.113084944E1,1.096939445E-1,1.500634104E-1,3.961897269E-2
2.115084944E1,7.627088577E-2,2.260026783E-1,3.576179594E-2
2.117085569E1,-7.742280513E-2,1.909739226E-1,2.347467840E-2
2.119284944E1,-1.836958975E-1,1.326450240E-2,-4.625122529E-3
2.121285725E1,-1.030791476E-1,1.401150376E-1,2.647664398E-2
2.123484944E1,-1.153139025E-1,3.068463206E-1,1.575334221E-1
2.125484944E1,-3.596774638E-1,5.031784251E-2,1.275137514E-1
2.127484944E1,-2.223723978E-1,-4.319689795E-2,8.206538111E-2
2.129484944E1,2.713986933E-1,1.745329201E-1,3.119077981E-1
2.131484944E1,3.539178669E-1,7.447320223E-2,5.718920231E-1
2.133484944E1,6.382668763E-2,-2.275211215E-1,6.146351695E-1
2.135484944E1,-1.753881425E-1,-3.513522446E-1,3.863111734E-1
2.137484944E1,-1.923352778E-1,-1.655619293E-1,2.385516018E-1
2.139484944E1,-1.782679260E-1,5.124286562E-2,3.118205369E-1
2.141484944E1,-1.226966456E-1,7.197737694E-2,3.614053130E-1
2.143484944E1,-3.422590718E-2,-3.626793995E-2,3.608642817E-1
2.145484944E1,1.445132587E-2,-1.163785532E-1,3.472855985E-1
2.147484944E1,4.499458894E-2,-5.492551252E-2,3.324503005E-1
2.149485569E1,7.878416032E-2,4.190535471E-2,2.926568091E-1
2.151689163E1,8.319984376E-2,8.340928704E-2,2.416408360E-1
2.153884944E1,4.673991725E-2,-5.759586580E-3,1.469043642E-1
2.155885100E1,5.780530348E-2,-1.716531366E-1,5.002113804E-2
2.158085100E1,9.159488231E-2,-2.516066730E-1,-2.879793290E-3
2.160285100E1,7.635815442E-2,-2.273465842E-1,-4.846779257E-2
2.162484944E1,6.065019220E-2,-1.626995951E-1,-1.122246683E-1
2.164484944E1,1.438849419E-1,-1.581093818E-1,-1.230282560E-1
2.166484944E1,1.759990007E-1,-2.557780147E-1,-1.036376506E-1
2.168484944E1,9.075712413E-2,-3.094468713E-1,-1.122421250E-1
2.170484944E1,-4.082325101E-2,-1.453335732E-1,-1.482482702E-1
2.172484944E1,-1.174257547E-1,1.718276590E-1,-8.810421824E-2
2.174484944E1,-1.574636102E-1,2.786592543E-1,2.274163999E-2
2.176484944E1,-3.113667369E-1,4.148647562E-2,-1.645845547E-2
2.178485100E1,-6.364517808E-1,-3.907966614E-1,-2.356194556E-1
2.180686506E1,-6.827204227E-1,-5.668131113E-1,-4.959003925E-1
2.182884944E1,-3.871140257E-2,-3.066194355E-1,-3.099530339E-1
2.184884944E1,5.541420579E-1,-1.668709219E-1,1.222603172E-1
2.186884944E1,5.202302933E-1,-2.114989907E-1,2.442937344E-1
2.188884944E1,1.566083878E-1,-6.887069345E-2,-1.069886833E-1
2.190885100E1,-1.778665036E-1,1.490860283E-1,-5.329362750E-1
2.193084944E1,-2.459867001E-1,3.297625184E-1,-6.262066960E-1
2.195084944E1,-8.236208558E-2,3.728023171E-1,-5.187118649E-1
2.197084944E1,1.308298856E-1,3.216118217E-1,-4.228932858E-1
2.199084944E1,2.310990393E-1,2.544864714E-1,-3.950029016E-1
2.201085100E1,2.129127085E-1,2.025803626E-1,-3.881263137E-1
2.203284944E1,2.413790375E-1,1.822472811E-1,-3.323456049E-1
2.205284944E1,2.402969301E-1,1.672025472E-1,-2.583611012E-1
2.207284944E1,1.168847010E-1,6.363470107E-2,-2.398605943E-1
2.209284944E1,1.380555425E-2,-5.101597309E-2,-2.262295783E-1
2.211284944E1,-1.256637089E-2,-1.108109504E-1,-1.685639024E-1
2.213284944E1,2.431243658E-2,-6.368706375E-2,-3.377212211E-2
2.215284944E1,3.326597437E-2,7.105235010E-2,8.306021988E-2
2.217284944E1,-6.475171540E-3,8.644615859E-2,1.023286507E-1
2.219284944E1,5.215043947E-2,1.172163114E-1,1.136558428E-1
2.221284944E1,9.660397470E-2,8.733627200E-2,1.232202426E-1
2.223285100E1,5.511749908E-2,8.983209729E-2,8.923868090E-2
2.225484944E1,9.007643908E-2,1.804845035E-1,7.461282611E-2
2.227484944E1,1.468694508E-1,4.081277847E-1,1.415985674E-1
2.229485100E1,6.126105785E-3,4.790928662E-1,2.454282045E-1
2.231685100E1,-1.147903055E-1,1.488765776E-1,1.262571216E-1
2.233885100E1,2.203827202E-1,8.929104358E-2,1.868724078E-1
2.236084944E1,5.583308339E-1,1.089609042E-1,4.641877711E-1
2.238084944E1,4.158072472E-1,-4.982915148E-2,5.507560968E-1
2.240084944E1,7.145377994E-2,-2.559525371E-1,4.514643252E-1
2.242084944E1,-1.390154809E-1,-2.916096151E-1,2.543817461E-1
2.244085100E1,-2.106612474E-1,-8.314748853E-2,1.769414842E-1
2.246085100E1,-2.226167470E-1,8.049458265E-2,2.180963457E-1
2.248085100E1,-1.466425657E-1,1.957386732E-1,3.133913279E-1
2.250085100E1,-6.773623079E-2,2.635272741E-1,3.924372792E-1
2.252284944E1,1.797689125E-3,2.220233381E-1,4.369257092E-1
2.254284944E1,4.321435094E-2,1.555088311E-1,4.220031500E-1
2.256285100E1,1.684242673E-2,4.010766745E-2,3.422416151E-1
2.258285100E1,-3.628539667E-2,-7.627088577E-2,2.783974707E-1
2.260484944E1,-6.777113676E-2,-1.623505205E-1,2.048318386E-1
2.262484944E1,-1.038645431E-1,-2.019171417E-1,1.484402567E-1
2.264484944E1,-1.561546028E-1,-2.329665422E-1,8.094836771E-2
2.266484944E1,-2.183057815E-1,-2.059139460E-1,-1.902408898E-2
2.268484944E1,-1.779014170E-1,-1.030442417E-1,-8.133234084E-2
2.270484944E1,-2.202605456E-2,-4.836307466E-2,-6.572909653E-2
2.272484944E1,-2.551671304E-2,-1.325577497E-1,-6.422811653E-3
2.274484944E1,-2.040289938E-1,-1.997529268E-1,-2.832669392E-2
2.276484944E1,-3.756472170E-1,-2.240653634E-1,-1.469218135E-1
2.278484944E1,-3.155031800E-1,-1.418254524E-1,-1.817236841E-1
2.280484944E1,-1.053306237E-1,-4.551818594E-2,-5.213298276E-2
2.282484944E1,-7.761479169E-2,-9.997245669E-2,5.841616914E-2
2.284484944E1,-2.313084900E-1,-1.948136538E-1,-5.038765445E-2
2.286484944E1,-2.698802650E-1,-1.705535799E-1,-2.559874356E-1
2.288484944E1,7.487462368E-3,-6.188937649E-2,-2.867226899E-1
2.290484944E1,2.575582266E-1,-1.563465893E-1,-1.220159680E-1
2.292484944E1,2.109579444E-1,-3.052580953E-1,-5.712462589E-2
2.294484944E1,-3.839724232E-4,-2.117084414E-1,-2.748893499E-1
2.296484944E1,-6.569419056E-2,-4.333652556E-2,-4.342379272E-1
2.298484944E1,-2.001892589E-2,8.805186301E-2,-3.740589619E-1
2.300484944E1,-4.412192479E-2,1.810604632E-1,-3.957883120E-1
2.302484944E1,-8.518952131E-2,2.608045638E-1,-4.805589616E-1
2.304484944E1,-1.070061326E-1,2.311688513E-1,-5.358858705E-1
2.306484944E1,-9.742427617E-2,1.415112913E-1,-5.232671499E-1
2.308484944E1,-7.703883201E-2,6.049311161E-2,-4.399451315E-1
2.310484944E1,-2.218313515E-2,2.656391077E-2,-3.436553180E-1
2.312484944E1,1.551597659E-2,-1.729621366E-2,-2.562841475E-1
2.314484944E1,2.652900480E-2,-4.845033959E-2,-1.670978218E-1
2.316484944E1,3.839724232E-4,-8.189085126E-2,-1.102699041E-1
2.318484944E1,-7.084291428E-2,-9.564404190E-2,-3.726277873E-2
2.320484944E1,-1.791580468E-1,-5.127777159E-2,3.881612420E-2
2.322484944E1,-1.832595766E-1,5.918411538E-2,8.660323918E-2
2.324484944E1,-9.318313003E-2,1.462411433E-1,6.958627701E-2
2.326484944E1,5.740387738E-2,2.060012072E-1,6.944665313E-2
2.328485100E1,5.982988700E-2,8.848819137E-2,1.133940443E-1
2.330685100E1,1.902408898E-2,-4.366813600E-2,1.396263391E-1
2.332884944E1,8.182103187E-2,1.242325380E-1,1.277581006E-1
2.334885100E1,5.440191180E-2,4.329289198E-1,1.891762316E-1
2.337084944E1,-1.717753112E-1,4.021762311E-1,1.610415280E-1
2.339084944E1,-9.267698228E-2,2.302263826E-1,9.344492853E-2
2.341085100E1,2.738421559E-1,1.696634591E-1,2.399827689E-1
2.343284944E1,2.486221492E-1,-1.881988496E-1,4.080230594E-1
2.345284944E1,-1.077391729E-1,-4.128052592E-1,4.579918385E-1
2.347284944E1,-3.495545387E-1,-3.262543976E-1,2.626197040E-1
2.349284944E1,-4.379903674E-1,-1.268505305E-1,1.155931577E-1
2.351289162E1,-2.440493852E-1,2.426007576E-2,2.057743222E-1
2.353484944E1,3.796090931E-2,3.384193406E-2,4.543266594E-1
2.355484944E1,1.629264802E-1,3.457497060E-2,5.905845165E-1
2.357484944E1,1.907470375E-1,1.355422735E-1,5.782625079E-1
2.359484944E1,1.712866127E-1,2.476796806E-1,5.200557709E-1
2.361484944E1,1.865058839E-1,1.663298756E-1,4.487765133E-1
2.363484944E1,2.309943289E-1,-3.272492439E-2,3.543891013E-1
2.365484944E1,2.344326228E-1,-2.344500721E-1,2.289872020E-1
2.367484944E1,2.748369873E-1,-3.184702396E-1,1.312313080E-1
2.369484944E1,2.826909721E-1,-1.731890142E-1,5.907939374E-2
2.371484944E1,1.370607018E-1,-3.768165782E-2,-1.043706853E-2
2.373484944E1,5.328490213E-2,1.322959550E-2,-7.553785294E-2
2.375484944E1,1.909215599E-1,2.974040993E-2,-8.820894361E-2
2.377484944E1,2.847853601E-1,2.584832534E-2,-3.378957510E-2
2.379485100E1,1.829803139E-1,2.328269184E-2,1.293289009E-2
2.381684944E1,3.724532574E-2,-2.340486459E-2,3.176499158E-2
2.383684944E1,4.197516665E-2,-1.026253626E-1,2.057743259E-2
2.385684944E1,9.150761366E-2,-8.025024086E-2,1.609193534E-2
2.387685100E1,7.906341553E-2,2.513274085E-3,-3.543018363E-3
2.389685100E1,-1.154011711E-1,-1.747074537E-2,-1.644274741E-1
2.391685100E1,-3.798883557E-1,-1.291543692E-1,-5.520476699E-1
2.393685100E1,-1.778315902E-1,-4.907865822E-2,-6.801548004E-1
2.395685100E1,2.390228361E-1,-3.457497060E-2,-3.553839326E-1
2.397884944E1,3.708126545E-1,-2.328443676E-1,1.279326342E-2
2.399884944E1,1.016130671E-1,-3.007376790E-1,-9.571385384E-2
2.401884944E1,-3.085741997E-1,-1.977283508E-1,-4.968079627E-1
2.403884944E1,-4.664741457E-1,-8.304276317E-2,-6.355616450E-1
2.405884944E1,-2.694439292E-1,9.005898610E-3,-4.601735175E-1
2.407884944E1,6.614797749E-3,9.836675972E-2,-1.972222030E-1
2.409884944E1,9.667378664E-2,1.557706296E-1,-1.089958102E-1
2.411884944E1,3.916518763E-2,1.549677849E-1,-1.632755548E-1
2.413884944E1,3.523819894E-2,4.436627030E-2,-1.879894137E-1
2.415884944E1,1.015432552E-1,-8.492772281E-2,-1.335700452E-1
2.417884944E1,1.515993029E-1,-1.579522938E-1,-8.201301843E-2
2.419885100E1,8.765043318E-2,-1.613382399E-1,-1.054527909E-1
2.422084944E1,1.431170013E-2,-6.951646507E-2,-9.339256585E-2
2.424084944E1,5.283111706E-2,-9.128072299E-3,2.158972248E-2
2.426084944E1,1.190838143E-1,1.518436428E-2,1.995958537E-1
2.428084944E1,1.289623827E-1,-1.963495463E-2,2.421818823E-1
2.430084944E1,1.364672929E-1,1.612684131E-2,1.755277663E-1
2.432084944E1,1.976759881E-1,8.072147518E-2,1.412494928E-1
2.434084944E1,2.440493852E-1,4.853760451E-2,1.439896673E-1
2.436084944E1,2.017775178E-1,8.482299745E-3,1.389980167E-1
2.438084944E1,1.151219159E-1,1.285434961E-1,7.464773208E-2
2.440084944E1,-1.581268385E-2,2.490933836E-1,1.549852360E-2
2.442084944E1,-1.296605170E-1,2.513099611E-1,-1.382300723E-2
2.444084944E1,-1.455430090E-1,1.368861794E-1,-7.923794538E-2
2.446084944E1,2.068215236E-2,1.217367128E-1,-1.504473854E-2
2.448084944E1,2.923077345E-1,8.393288404E-2,1.867502332E-1
2.450084944E1,2.399478704E-1,-1.808684766E-1,3.160442114E-1
2.452084944E1,2.300344035E-2,-3.995407820E-1,3.097784817E-1
2.454084944E1,-9.042550623E-2,-3.643025756E-1,1.714436859E-1
2.456084944E1,-1.376192123E-1,-1.239532828E-1,1.393994540E-1
2.458084944E1,-1.244594306E-1,1.105491519E-1,1.839926094E-1
2.460084944E1,-8.166395873E-2,1.676912308E-1,2.143089771E-1
2.462084944E1,7.470009383E-3,1.625425071E-1,2.337170392E-1
2.464084944E1,1.190140024E-1,1.734333634E-1,2.502802014E-1
2.466084944E1,1.616349369E-1,1.786868125E-1,2.541722953E-1
2.468084944E1,1.406037211E-1,1.740267724E-1,1.846034676E-1
2.470084944E1,7.860963047E-2,1.447401494E-1,1.024682820E-1
2.472085100E1,4.729842395E-2,1.026428118E-1,3.078760765E-2
2.474284944E1,6.866125017E-2,3.253293782E-2,-2.083923109E-2
2.476284944E1,7.487462461E-2,-3.071779385E-3,-1.059065759E-1
2.478284944E1,1.390154809E-1,8.133234456E-3,-1.452113986E-1
2.480286350E1,2.449918687E-1,-8.227481693E-2,-1.269028932E-1
2.482484944E1,3.161664009E-1,-2.040115297E-1,-7.489208132E-2
2.484484944E1,2.542770207E-1,-2.913652658E-1,-8.009316027E-2
2.486484944E1,1.073028445E-1,-3.089581728E-1,-1.071632132E-1
2.488484944E1,-1.319468953E-2,-2.505071163E-1,-1.659284532E-1
2.490484944E1,5.827654526E-2,-8.789478242E-2,-2.212204784E-1
2.492484944E1,1.780584902E-1,5.841616914E-2,-1.782853752E-1
2.494484944E1,-7.098253816E-2,-1.975189149E-1,-2.068913281E-1
2.496484944E1,-5.213124156E-1,-4.423885942E-1,-4.707152843E-1
2.498484944E1,-3.949505687E-1,-5.321509019E-2,-5.983337760E-1
2.500484944E1,1.347568780E-1,2.846457362E-1,-2.028770745E-1
2.502484944E1,4.592484832E-1,5.799729005E-2,1.522450745E-1
2.504484944E1,3.591538668E-1,-2.532647252E-1,4.365068302E-2
2.506484944E1,-7.131415606E-2,-3.372325301E-1,-4.022634923E-1
2.508484944E1,-4.246211648E-1,-2.524618804E-1,-7.489731312E-1
2.510484944E1,-4.363323152E-1,-5.647885427E-2,-7.684335709E-1
2.512484944E1,-2.707005739E-1,7.749261707E-2,-6.287897825E-1
2.514484944E1,-1.361007690E-1,1.471661627E-1,-4.927413464E-1
2.516484944E1,-5.309291556E-2,9.698794782E-2,-4.422489703E-1
2.518484944E1,4.726351425E-2,6.377433240E-2,-4.202578366E-1
2.520485100E1,4.886921868E-2,2.850122750E-2,-3.179815412E-1
2.522684944E1,1.043706853E-2,-2.897246508E-3,-2.155307084E-1
2.524685881E1,1.014036313E-2,-3.843215108E-2,-1.684766263E-1
2.526885100E1,4.684463516E-2,-3.090978041E-2,-9.965830296E-2
2.529085100E1,6.946410239E-2,2.644173801E-2,1.984439418E-2
2.531284944E1,4.096287861E-2,1.336747706E-1,1.183856800E-1
2.533284944E1,9.180432186E-3,2.190388143E-1,1.282642484E-1
2.535284944E1,2.710496262E-2,2.605602145E-1,2.986258268E-2
2.537284944E1,5.583308265E-2,2.004161626E-1,-7.026695460E-2
2.539284944E1,6.918485463E-2,1.262047589E-1,-1.382649839E-1
2.541285100E1,5.407030135E-2,3.778637946E-2,-1.554390192E-1
2.543484944E1,4.789183289E-2,6.145304441E-2,-1.146157682E-1
2.545484944E1,-7.281513512E-2,1.530479193E-1,7.714355364E-3
2.547484944E1,-3.207915127E-1,1.119977757E-1,1.051909924E-1
2.549485100E1,-3.170041442E-1,1.932079531E-2,1.244419739E-1
2.551485100E1,5.216789246E-2,1.514945775E-1,1.683195531E-1
2.553685100E1,4.154581726E-1,2.288126647E-1,3.490134776E-1
2.555884944E1,2.132617831E-1,-8.005825430E-2,4.306599796E-1
2.557884944E1,-1.483878940E-1,-3.238109350E-1,3.017499745E-1
2.559884944E1,-2.885378301E-1,-2.988876402E-1,5.609488115E-2
2.561884944E1,-3.407231867E-1,-1.161691174E-1,3.975860029E-2
2.563884944E1,-2.822022736E-1,3.108431399E-2,1.774825305E-1
2.565884944E1,-8.145451546E-2,1.345997900E-1,3.169168830E-1
2.567884944E1,5.513495207E-2,1.381777227E-1,3.506017327E-1
2.569884944E1,8.695230633E-2,1.036027446E-1,3.492054641E-1
2.571884944E1,1.034456640E-1,1.311265826E-1,3.746523857E-1
2.573884944E1,1.092925146E-1,5.780530348E-2,3.804468811E-1
2.575884944E1,8.271115273E-2,-7.564257085E-2,3.024480939E-1
2.577885100E1,7.330382708E-3,-1.840275228E-1,1.791754961E-1
2.580084944E1,-3.597123548E-2,-2.412394136E-1,1.027300805E-1
2.582084944E1,-7.747516781E-2,-2.541548312E-1,7.380997390E-2
2.584084944E1,-1.156455129E-1,-1.982519478E-1,2.443460980E-4
2.586084944E1,-7.227408141E-2,-5.379104614E-2,-6.531021744E-2
2.588084944E1,-2.525491454E-2,-3.417354822E-2,-5.895722285E-2
2.590084944E1,-9.086184204E-2,-1.309171468E-1,-6.108652428E-2
2.592084944E1,-2.401049435E-1,-2.286555916E-1,-1.352455616E-1
2.594084944E1,-3.476346731E-1,-2.087762803E-1,-1.727701426E-1
2.596084944E1,-2.953620553E-1,-1.307251602E-1,-1.111251116E-1
2.598084944E1,-1.686860770E-1,-1.525417715E-2,3.385938704E-2
2.600084944E1,-2.936516404E-1,-8.585274220E-2,1.145110503E-1
2.602085100E1,-6.039013863E-1,-1.997005790E-1,-5.986479111E-3
2.604284944E1,-7.198435664E-1,-1.376715750E-1,-2.494075447E-1
2.606284944E1,-3.290818334E-1,-2.813470736E-2,-1.733111888E-1
2.608284944E1,2.852915227E-1,-8.464846760E-3,1.263269335E-1
2.610284944E1,3.811973631E-1,-1.474105120E-1,1.717054844E-1
2.612284944E1,1.072679386E-1,-8.127998561E-2,-9.838420898E-2
2.614284944E1,-2.170142382E-1,7.937757671E-2,-4.284259677E-1
2.616284944E1,-3.568674624E-1,1.722465456E-1,-5.623800159E-1
2.618284944E1,-3.294483423E-1,1.916196942E-1,-4.871214032E-1
2.620284944E1,-2.060012072E-1,1.129228026E-1,-3.785270154E-1
2.622284944E1,-1.373399645E-1,6.003932655E-2,-2.889043391E-1
2.624284944E1,-1.645147353E-1,5.953317881E-2,-2.458994389E-1
2.626284944E1,-1.298699528E-1,-1.308996929E-3,-1.764353365E-1
2.628284944E1,1.361356815E-3,-5.714207888E-2,-7.740534842E-2
2.630286194E1,8.103563637E-2,-3.785619140E-2,-1.075122785E-2
2.632484944E1,2.003637888E-2,-5.689773243E-3,3.410373256E-2
2.634484944E1,-5.171410739E-2,-3.270747140E-2,6.682865322E-2
2.636484944E1,-5.740387738E-2,-4.537856206E-2,1.107760444E-1
2.638484944E1,-6.346017122E-2,-6.777113676E-2,1.483529806E-1
2.640484944E1,-5.398303270E-2,-1.008974835E-1,1.839053482E-1
2.642484944E1,-2.485348843E-2,-9.566149861E-2,1.966287941E-1
2.644484944E1,-1.745329246E-5,3.546509147E-2,1.729446799E-1
2.646484944E1,-5.698499829E-2,2.043431550E-1,1.372003257E-1
2.648484944E1,-1.648114473E-1,2.408205271E-1,1.372177899E-1
2.650484944E1,-1.404640973E-1,2.116560787E-1,1.143365204E-1
2.652484944E1,-1.621759981E-1,2.310117781E-1,1.585806161E-1
2.654485100E1,-3.903254271E-1,8.691739291E-2,1.795245707E-1
2.656485412E1,-5.018694401E-1,-1.343554407E-1,1.091528907E-1
2.658684944E1,-7.585200667E-2,9.730210900E-2,9.241518378E-2
2.660685725E1,3.030066192E-1,3.402693868E-1,3.041759729E-1
2.662885100E1,2.493726462E-1,2.207492441E-1,6.088581085E-1
2.665085100E1,-9.213592857E-2,-2.779262364E-1,5.732010603E-1
2.667284944E1,-2.034879327E-1,-4.087212086E-1,2.386039644E-1
2.669284944E1,-1.868200451E-1,-2.251474708E-1,1.706582904E-1
2.671284944E1,-1.469392627E-1,-1.257858723E-1,2.579247653E-1
2.673284944E1,-2.008873969E-2,-7.478735596E-2,3.408802450E-1
2.675284944E1,7.850491256E-2,3.092723340E-2,3.728546798E-1
2.677284944E1,1.083151326E-1,1.784599125E-1,3.498163521E-1
2.679284944E1,1.287878454E-1,2.962172925E-1,3.358362615E-1
2.681284944E1,1.652303189E-1,3.476521373E-1,3.321186900E-1
2.683284944E1,1.439722031E-1,2.860769033E-1,3.300941288E-1
2.685284944E1,6.073745713E-2,1.198517606E-1,3.007551432E-1
2.687284944E1,4.712388851E-3,-1.146332249E-1,1.865931451E-1
2.689284944E1,4.668755829E-2,-2.815565169E-1,6.644468755E-2
2.691284944E1,1.139176413E-1,-2.880491316E-1,2.981022373E-2
2.693284944E1,1.084547564E-1,-2.419375330E-1,5.061454605E-3
2.695284944E1,-3.277728334E-2,-1.695761830E-1,-9.634217247E-3
2.697285881E1,-1.853888780E-1,-2.028421611E-1,-2.492330223E-2
2.699484944E1,-3.225193918E-1,-3.117158115E-1,-2.816961333E-2
2.701485100E1,-3.600788713E-1,-3.820002079E-1,2.707005665E-2
2.703485100E1,-3.102671802E-1,-3.044901490E-1,1.566781998E-1
2.705485100E1,-2.560921609E-1,-6.787585467E-2,3.204948008E-1
2.707684944E1,-4.774522781E-1,-2.027548999E-1,2.393544465E-1
2.709685100E1,-7.015874386E-1,-2.807362080E-1,-6.586872786E-2
2.711685100E1,-3.417354524E-1,-2.391101047E-2,-1.442514658E-1
2.713885100E1,4.044975042E-1,-6.452482194E-2,1.925272644E-1
2.716084944E1,7.734077573E-1,-1.036376506E-1,4.552516937E-1
2.718084944E1,6.898763180E-1,1.105142459E-1,3.361504078E-1
2.720084944E1,3.664842248E-1,4.608018398E-1,1.701870561E-1
2.722084944E1,5.810201168E-2,8.520174026E-1,1.327148378E-1
2.724084944E1,-1.719847471E-1,1.076152563E0,1.705884784E-1
2.726084944E1,-3.260275126E-1,1.092384100E0,2.178170830E-1
2.728084944E1,-4.536285102E-1,8.734325767E-1,2.327920198E-1
2.730085100E1,-4.266108274E-1,5.414884090E-1,1.697856337E-1
2.732284944E1,-1.253844500E-1,1.933824867E-1,1.472708881E-1
2.734284944E1,9.482374042E-2,-1.553343050E-2,1.794722080E-1
2.736284944E1,5.860815570E-2,-9.990264475E-2,1.662077010E-1
2.738284944E1,-1.183856800E-1,-9.740682691E-2,6.222098693E-2
2.740284944E1,-2.364397496E-1,-1.169545129E-1,-3.932226822E-2
2.742284944E1,-2.785021961E-1,-1.832421124E-1,-1.712168008E-2
2.744284944E1,-3.144385219E-1,-3.966260850E-1,3.296926990E-2
2.746284944E1,-3.372499645E-1,-3.963119090E-1,8.337438107E-2
2.748284944E1,-4.612556100E-1,-2.949257493E-1,1.141794398E-1
2.750284944E1,-5.499532223E-1,-1.085245758E-1,2.383770645E-1
2.752284944E1,-5.132838488E-1,6.651449949E-2,3.803421557E-1
2.754284944E1,-3.980048895E-1,2.794272080E-2,4.510454237E-1
2.756286038E1,-2.531076372E-1,1.937315450E-3,5.083271265E-1
2.758484944E1,-3.322059810E-1,8.874998987E-2,5.057091713E-1
2.760484944E1,-4.116708040E-1,1.220159680E-1,4.413588643E-1
2.762484944E1,2.909463830E-2,2.805965841E-1,5.322555900E-1
2.764484944E1,6.128898263E-1,2.137679309E-1,7.901454568E-1
2.766484944E1,7.329335809E-1,-2.169793248E-1,8.888961673E-1
2.768484944E1,3.750188947E-1,-7.648207545E-1,6.909933090E-1
2.770484944E1,1.753532290E-1,-9.768432975E-1,4.051607251E-1
2.772484944E1,2.970725000E-1,-8.805884123E-1,1.780934036E-1
2.774484944E1,4.358959794E-1,-4.872086644E-1,1.561895162E-1
2.776484944E1,3.106511533E-1,5.375613924E-3,1.452113986E-1
2.778485100E1,1.130100712E-1,3.524866998E-1,5.750859901E-2
2.780686350E1,1.933650225E-1,4.315152168E-1,-9.773843922E-4
2.782884944E1,4.772951901E-1,2.855184078E-1,9.389871731E-3
2.784885100E1,5.416629314E-1,1.251401007E-1,-2.164208330E-3
2.787084944E1,3.465700150E-1,4.328416660E-2,-1.072504818E-1
2.789084944E1,2.876826227E-1,3.071779385E-2,-1.710946262E-1
2.791084944E1,5.038067698E-1,5.829399824E-2,-8.522442728E-2
2.793084944E1,7.129146457E-1,9.564404376E-3,6.332054734E-2
2.795084944E1,5.690296888E-1,-6.490879506E-2,8.449138701E-2
2.797084944E1,2.615026832E-1,-1.433089823E-1,-7.915068418E-2
2.799084944E1,1.215098202E-1,-2.461786866E-1,-3.089931011E-1
2.801085100E1,2.195798755E-1,-5.875301957E-1,-4.003785253E-1
2.803284944E1,4.813618064E-1,-1.047407031E0,-4.240102768E-1
2.805284944E1,5.633922815E-1,-9.148317575E-1,-4.314628541E-1
2.807284944E1,3.148573935E-1,-1.591740251E-1,-3.662224412E-1
2.809284944E1,-3.090977967E-1,1.103746220E-1,-4.391771853E-1
2.811284944E1,-1.011313558E0,-2.254092693E-1,-9.003280997E-1
2.813284944E1,-9.870709777E-1,-2.516764775E-2,-1.022536039E0
2.815284944E1,-8.714429289E-2,-4.221951589E-2,-6.345144510E-1
2.817284944E1,7.186742425E-1,-3.314380348E-1,-1.269203424E-1
2.819284944E1,5.062851310E-1,-3.432364464E-1,-8.428195119E-2
2.821284944E1,5.242969096E-2,2.449045926E-1,-3.640233278E-1
2.823285100E1,-7.382742595E-3,5.552765131E-1,-4.754276872E-1
2.825285100E1,1.196597740E-1,5.647361875E-1,-4.032059610E-1
2.827484944E1,6.630505621E-2,3.991393447E-1,-4.287575781E-1
2.829484944E1,-5.037020147E-2,3.091152608E-1,-4.927413464E-1
2.831484944E1,5.087634921E-2,3.032335043E-1,-4.504171312E-1
2.833484944E1,1.556135565E-1,2.569648325E-1,-3.611609936E-1
2.835484944E1,1.149822921E-1,1.702917814E-1,-3.216467202E-1
2.837484944E1,2.762856148E-2,1.496096253E-1,-3.120125234E-1
2.839484944E1,-3.735004691E-3,1.033234894E-1,-2.749242485E-1
2.841484944E1,8.276351541E-2,9.135053307E-2,-2.042907923E-1
2.843484944E1,1.714785993E-1,1.884082854E-1,-8.339183033E-2
2.845484944E1,1.819854826E-1,2.925520837E-1,6.024876609E-2
2.847484944E1,1.709899008E-1,2.578200400E-1,1.490162164E-1
2.849484944E1,1.024857312E-1,1.942376941E-1,1.552819461E-1
2.851484944E1,7.232644409E-2,1.234645918E-1,8.162904531E-2
2.853484944E1,1.020668522E-1,3.883357719E-2,-2.459168993E-2
2.855484944E1,9.622000158E-2,-1.692969352E-2,-9.124581516E-2
2.857484944E1,-2.954842336E-2,1.169894189E-1,-7.689920813E-2
2.859484944E1,-9.791296907E-3,5.006477237E-1,4.192280769E-2
2.861484944E1,9.316567332E-2,7.667754889E-1,2.411521375E-1
2.863484944E1,1.429599226E-1,6.729815006E-1,3.577924967E-1
2.865484944E1,2.605951130E-1,4.756720364E-1,3.560122550E-1
2.867484944E1,2.663721442E-1,-1.647590846E-2,3.231128156E-1
2.869484944E1,2.249729447E-2,-3.908839524E-1,2.689377964E-1
2.871484944E1,-3.507588208E-1,-4.066268206E-1,2.405587286E-1
2.873484944E1,-6.061528325E-1,-3.453482985E-1,2.127032727E-1
2.875484944E1,-5.582086444E-1,-8.286823332E-2,2.379930913E-1
2.877484944E1,-3.003537059E-1,1.126784533E-1,3.408802450E-1
2.879484944E1,-1.319119781E-1,1.499586850E-1,4.619013965E-1
2.881484944E1,7.278022822E-3,1.749518067E-1,4.968603253E-1
2.883484944E1,1.183158681E-1,1.414240301E-1,4.883954823E-1
2.885484944E1,1.217716187E-1,7.239625603E-2,4.505916536E-1
2.887484944E1,9.124581516E-2,6.770132482E-2,3.760311902E-1
2.889484944E1,9.955357760E-2,2.829178795E-2,2.676811516E-1
2.891484944E1,9.121090919E-2,-6.267477572E-2,1.502030343E-1
2.893484944E1,1.487893164E-1,-1.434486061E-1,5.695009232E-2
2.895484944E1,2.032784969E-1,-2.083923072E-1,-8.534659632E-3
2.897484944E1,2.147103995E-1,-1.676388681E-1,-5.916666240E-2
2.899484944E1,2.050587386E-1,-9.220574051E-2,-7.827802002E-2
2.901485100E1,1.517738253E-1,-1.302713752E-1,-9.983283281E-2
2.903685100E1,1.417207345E-2,-2.291268259E-1,-1.757197529E-1
2.905884944E1,-1.457349956E-1,-1.803797781E-1,-2.827433348E-1
2.907885100E1,-2.784847319E-1,-2.263692021E-2,-2.994984984E-1
2.910084944E1,-3.324154019E-1,1.384220570E-1,-1.717229486E-1
2.912084944E1,-3.281219006E-1,9.695304185E-2,-1.630137488E-2
2.914084944E1,-4.819203019E-1,-3.160616755E-1,-1.232551485E-1
2.916084944E1,-6.468888521E-1,-5.573883653E-1,-3.081378639E-1
2.918084944E1,-5.107182264E-1,-3.414038420E-1,-3.867824078E-1
2.920084944E1,-8.513715863E-2,-6.606071442E-2,-1.671850830E-1
2.922084944E1,1.973618269E-1,-2.258456051E-1,9.946631640E-2
2.924084944E1,1.404990107E-1,-4.338190258E-1,3.246312495E-3
2.926084944E1,2.799508162E-2,-1.827883273E-1,-2.620611787E-1
2.928084944E1,-1.229235381E-1,-2.754129469E-2,-3.805690408E-1
2.930084944E1,-2.256187052E-1,6.663667411E-2,-4.120373428E-1
2.932084944E1,-2.906147838E-1,2.263692021E-1,-4.798433781E-1
2.934084944E1,-3.621558249E-1,4.094018936E-1,-4.950451851E-1
2.936084944E1,-3.714235127E-1,5.106833577E-1,-4.616744816E-1
2.938084944E1,-3.207915127E-1,4.408527017E-1,-4.584805369E-1
2.940084944E1,-2.156179696E-1,1.556135565E-1,-4.965810776E-1
2.942084944E1,-3.176499158E-3,-1.510233432E-1,-4.812047184E-1
2.944084944E1,1.451241225E-1,-2.157750577E-1,-3.584557176E-1
2.946084944E1,1.007578596E-1,-1.058018580E-1,-1.562942266E-1
2.948084944E1,-1.417207345E-2,1.867502346E-3,-8.918632753E-3
2.950089319E1,-1.497492474E-2,8.780751377E-2,9.262461960E-2
2.952284944E1,8.712683618E-2,1.001644433E-1,1.627519578E-1
2.954284944E1,1.955990493E-1,4.562290758E-2,1.847431064E-1
2.956284944E1,2.663547099E-1,-3.089232743E-2,1.688605994E-1
2.958284944E1,2.877175212E-1,-4.714134336E-2,1.405339092E-1
2.960284944E1,2.401747555E-1,-2.286381321E-3,6.213372201E-2
2.962284944E1,1.232202426E-1,2.860594541E-2,-6.805038452E-2
2.964284944E1,9.093165398E-3,1.832770258E-1,-1.048070192E-1
2.966284944E1,-2.282192558E-1,2.245889604E-1,-1.111600175E-1
2.968284944E1,-3.011216521E-1,1.255240738E-1,-1.049990058E-1
2.970284944E1,1.266759932E-1,1.801703423E-1,1.134464052E-2
2.972284944E1,5.681744814E-1,1.035678387E-1,2.750464380E-1
2.974284944E1,4.404512942E-1,-2.669132054E-1,4.391946495E-1
2.976284944E1,6.433283538E-2,-4.561766982E-1,3.993836939E-1
2.978284944E1,-1.027475297E-1,-3.036000133E-1,1.835562736E-1
2.980286350E1,-1.284213215E-1,-9.478883445E-2,1.640260369E-1
2.982484944E1,-7.956956327E-2,-3.979350906E-3,3.062878251E-1
2.984484944E1,5.550147034E-3,-2.261946723E-2,3.622430861E-1
2.986484944E1,4.253367335E-2,-6.239552051E-2,3.549999595E-1
2.988484944E1,9.793042392E-2,-6.155776232E-2,3.237760365E-1
2.990484944E1,1.802576035E-1,-1.495747175E-2,2.913652658E-1
2.992484944E1,2.438050359E-1,-2.150245570E-2,2.668084800E-1
2.994484944E1,2.421644330E-1,-7.948229462E-2,2.132443339E-1
2.996484944E1,1.863662601E-1,-1.214574650E-1,1.285784096E-1
2.998484944E1,1.377413869E-1,-1.552470326E-1,6.230825558E-2
3.000484944E1,7.780677825E-2,-2.574709654E-1,6.457717973E-4
3.002484944E1,8.077383786E-2,-3.104766309E-1,-6.257005036E-2
3.004484944E1,1.034107581E-1,-2.192657143E-1,-1.103048101E-1
3.006484944E1,1.126086414E-1,-1.514945775E-1,-1.158374995E-1
3.008484944E1,1.366941929E-1,-2.626022398E-1,-8.091346174E-2
3.010484944E1,1.111600175E-1,-4.164355695E-1,-1.108458638E-1
3.012484944E1,-8.936085738E-3,-3.477045000E-1,-2.453758419E-1
3.014484944E1,-1.593136489E-1,-1.702568680E-1,-3.706730306E-1
3.016484944E1,-1.546187252E-1,4.310963210E-3,-2.231927067E-1
3.018484944E1,-1.623505205E-1,-1.534144394E-2,-1.144237816E-1
3.020484944E1,-4.287401438E-1,-1.455080956E-1,-1.203055456E-1
3.022484944E1,-3.510555327E-1,1.825614460E-2,-1.041263416E-1
3.024484944E1,8.143706620E-2,6.187192351E-2,6.201154739E-2
3.026484944E1,3.180164397E-1,-1.686337143E-1,2.504896522E-1
3.028485100E1,1.503775716E-1,-3.816860616E-1,1.506917328E-1
3.030684944E1,-3.332880735E-1,-3.248581290E-1,-2.826735377E-1
3.032685100E1,-4.694412053E-1,-5.461135134E-2,-5.524665117E-1
3.034885100E1,-2.630909383E-1,1.647765338E-1,-5.156575441E-1
3.037084944E1,-3.492403775E-2,2.750289738E-1,-3.819653094E-1
3.039084944E1,-1.883210242E-2,3.109304011E-1,-3.926467299E-1
3.041084944E1,-2.522000670E-2,3.735004663E-1,-4.425805807E-1
3.043084944E1,3.075270168E-2,4.181634486E-1,-4.470660985E-1
3.045084944E1,5.789257213E-2,3.282964230E-1,-3.850894570E-1
3.047084944E1,-2.628465928E-2,1.843242198E-1,-3.007202148E-1
3.049084944E1,-7.983136177E-2,9.681341052E-2,-2.266135514E-1
3.051085100E1,-8.281587064E-2,-4.958480224E-2,-1.691573113E-1
3.053284944E1,-6.311110407E-2,-1.919338554E-1,-2.450442314E-2
3.055284944E1,-1.884955564E-3,-1.074424684E-1,1.545838118E-1
3.057286663E1,5.867796764E-2,3.691371530E-2,3.561693430E-1
3.059484944E1,2.100329250E-1,1.770287454E-1,4.566828609E-1
3.061484944E1,2.868274152E-1,1.769763827E-1,4.211654067E-1
3.063484944E1,2.860420048E-1,1.869771183E-1,2.559176385E-1
3.065484944E1,2.522524297E-1,2.691297829E-1,9.972811490E-2
3.067484944E1,1.465727538E-1,3.919136822E-1,3.255039081E-2
3.069485100E1,9.546951391E-3,6.057339907E-1,7.141887397E-2
3.071485100E1,-1.895253062E-1,5.745449066E-1,2.584832534E-2
3.073685100E1,-1.514422148E-1,4.344997108E-1,-6.625270098E-2
3.075884944E1,3.473030627E-1,4.140793681E-1,1.195725054E-1
3.077885100E1,5.320461392E-1,6.688101590E-2,4.152487218E-1
3.080085100E1,2.219884247E-1,-4.768588543E-1,6.177243590E-1
3.082284944E1,-7.410667837E-2,-5.571614504E-1,4.759687483E-1
3.084284944E1,-1.478468478E-1,-2.042907923E-1,2.863910794E-1
3.086284944E1,-1.669756472E-1,1.305680871E-1,3.156253397E-1
3.088284944E1,-1.646543592E-1,2.010095716E-1,4.002912641E-1
3.090284944E1,-1.252622753E-1,1.929985136E-1,4.242197275E-1
3.092284944E1,-1.275486648E-1,7.641051710E-2,3.841644228E-1
3.094284944E1,-1.190140024E-1,-7.785914093E-2,3.141941726E-1
3.096284944E1,8.272860199E-3,-1.403244734E-1,2.604729235E-1
3.098284944E1,1.461189687E-1,-1.869422197E-1,2.213775665E-1
3.100284944E1,1.994213164E-1,-2.150420099E-1,1.530130208E-1
3.102284944E1,1.403244734E-1,-1.545488983E-1,6.967354566E-2
3.104284944E1,3.529055789E-2,-1.149473861E-1,-1.914626174E-2
3.106284944E1,-1.602212340E-2,-1.640958488E-1,-1.402546614E-1
3.108285100E1,5.750859901E-2,-2.495646328E-1,-2.682920098E-1
3.110285100E1,1.360833198E-1,-2.324429452E-1,-2.915048897E-1
3.112484944E1,-5.141739920E-2,-2.845759392E-1,-3.114714622E-1
3.114484944E1,-2.728647888E-1,-3.176848292E-1,-3.833964765E-1
3.116484944E1,-2.890265286E-1,-2.193704396E-1,-3.904650509E-1
3.118484944E1,-2.709972858E-1,-5.251695588E-2,-2.616423070E-1
3.120484944E1,-2.844712138E-1,1.040739864E-1,-1.134987622E-1
3.122484944E1,-3.715457022E-1,6.766641140E-2,-1.359611470E-2
3.124484944E1,-6.912900209E-1,-2.205048949E-1,-1.133416817E-1
3.126484944E1,-7.989593744E-1,-2.139773667E-1,-3.689451516E-1
3.128485100E1,-2.918190360E-1,-1.162563786E-1,-3.458893597E-1
3.130684944E1,3.814242482E-1,-3.357140720E-1,3.570943698E-2
3.132684944E1,4.686732590E-1,-6.375513077E-1,1.543045640E-1
3.134684944E1,1.917418689E-1,-4.327892959E-1,-2.182534188E-1
3.136684944E1,-7.585200667E-2,2.499311417E-2,-5.442809463E-1
3.138685100E1,-1.031489596E-1,3.137753010E-1,-5.357113481E-1
3.140685100E1,-6.265731994E-3,5.104041100E-1,-4.125958383E-1
3.142685413E1,9.571385384E-2,4.698251784E-1,-3.596251011E-1
3.144884944E1,1.759291887E-1,3.221179545E-1,-3.394141793E-1
3.146885100E1,2.129650712E-1,1.856332123E-1,-3.042457998E-1
3.148885100E1,1.640085876E-1,1.013687253E-1,-2.681872845E-1
3.150885100E1,8.072147518E-2,6.244787946E-2,-2.164033800E-1
3.152885100E1,3.837978840E-2,5.448918045E-2,-1.589820385E-1
3.155084944E1,-1.120501384E-2,-7.574729156E-3,-1.323832273E-1
3.157084944E1,-4.028219730E-2,-7.464773208E-2,-9.843657166E-2
3.159084944E1,6.562437862E-3,-7.702138275E-2,9.058258496E-3
3.161084944E1,9.414306283E-2,5.984733999E-2,1.782330275E-1
3.163084944E1,1.227315515E-1,2.745577395E-1,2.959031165E-1
3.165084944E1,2.565633971E-3,3.697828948E-1,2.901609838E-1
3.167084944E1,-4.550073296E-2,3.479313850E-1,2.099456489E-1
3.169084944E1,-8.487536013E-2,1.519832760E-1,5.344198272E-2
3.171085100E1,-1.569400132E-1,1.843067631E-2,2.478367416E-3
3.173284944E1,-8.916886896E-2,1.753357798E-1,1.445132643E-1
3.175284944E1,-1.487020552E-1,1.507091820E-1,2.692519426E-1
3.177284944E1,-1.993864179E-1,9.253735840E-2,2.081828713E-1
3.179284944E1,2.084272206E-1,3.621558249E-1,1.732588410E-1
3.181284944E1,3.791378736E-1,4.434881732E-2,3.446501791E-1
3.183284944E1,2.036973834E-1,-4.335746765E-1,4.538379610E-1
3.185284944E1,-4.012512043E-2,-4.906993210E-1,3.388033211E-1
3.187284944E1,-2.419026345E-1,-2.771408260E-1,1.828406900E-1
3.189284944E1,-2.875429988E-1,6.972590089E-2,1.884955615E-1
3.191285100E1,-2.357765287E-1,2.221978605E-1,2.456201911E-1
3.193484944E1,-1.400277615E-1,1.584235430E-1,2.507340014E-1
3.195484944E1,-3.457497060E-2,8.393288404E-2,2.294933498E-1
3.197484944E1,3.782128543E-2,6.401867419E-2,2.498787940E-1
3.199484944E1,1.336573064E-1,8.611454815E-2,2.805442214E-1
3.201484944E1,2.240828276E-1,4.968952388E-2,2.397558838E-1
3.203484944E1,2.414662987E-1,-5.201081187E-2,1.321388781E-1
3.205484944E1,2.058790326E-1,-1.613906026E-1,-2.391101094E-3
3.207484944E1,2.030690610E-1,-2.218488008E-1,-7.368779927E-2
3.209484944E1,1.585108042E-1,-2.712590694E-1,-1.115788966E-1
3.211484944E1,5.386086181E-2,-2.616772056E-1,-1.729097664E-1
3.213484944E1,-5.407030135E-2,-2.415361106E-1,-2.283239663E-1
3.215484944E1,-7.016223390E-3,-1.829105020E-1,-2.931280434E-1
3.217484944E1,7.946483791E-2,-2.103819847E-1,-4.230678082E-1
3.219484944E1,1.815142459E-3,-3.209311366E-1,-5.427625179E-1
3.221484944E1,-3.593632951E-2,-9.023351967E-2,-5.900085568E-1
3.223484944E1,4.377285764E-2,2.308197916E-1,-4.673293531E-1
3.225484944E1,-1.588249579E-2,2.683269083E-1,-2.487792373E-1
3.227484944E1,-4.901582599E-1,-3.691022396E-1,-4.227710962E-1
3.229485100E1,-8.524711728E-1,-7.238404155E-1,-6.456322074E-1
3.231485100E1,-3.571118116E-1,-5.306673646E-1,-4.827057123E-1
3.233685881E1,6.022433043E-1,-3.285756707E-1,1.879021525E-1
3.235884944E1,7.601956129E-1,-1.130798832E-1,4.715181589E-1
3.237885100E1,2.931280434E-1,2.072578520E-1,1.024857312E-1
3.240084944E1,-2.193355262E-1,4.936140180E-1,-4.198040366E-1
3.242084944E1,-2.324604094E-1,4.213050306E-1,-5.328140855E-1
3.244084944E1,2.555162087E-2,2.514844835E-1,-3.986681104E-1
3.246084944E1,2.142566144E-1,1.000422761E-1,-2.434734255E-1
3.248084944E1,2.366491854E-1,4.420918971E-2,-1.845685691E-1
3.250084944E1,1.865756959E-1,6.586872786E-2,-1.468345523E-1
3.252084944E1,2.134537697E-1,5.510004610E-2,-8.592256159E-2
3.254084944E1,2.241351753E-1,-4.693190381E-2,-9.250245057E-4
3.256084944E1,2.161764801E-1,-6.475171447E-2,4.724606127E-2
3.258085100E1,2.329316437E-1,-9.735446423E-2,4.885176569E-2
3.260284944E1,2.988701761E-1,-1.275661141E-1,9.813986719E-2
3.262284944E1,2.258106917E-1,-8.902924508E-2,1.935919225E-1
3.264284944E1,1.386489570E-1,-5.520476401E-2,2.485174239E-1
3.266284944E1,1.605877429E-1,1.411971357E-2,2.591988444E-1
3.268284944E1,1.896998286E-1,1.444783509E-1,2.461612374E-1
3.270284944E1,2.744355798E-1,2.498438805E-1,2.590417564E-1
3.272284944E1,2.242922634E-1,1.506742686E-1,2.356019914E-1
3.274284944E1,9.281660616E-2,1.365720183E-1,1.510582417E-1
3.276284944E1,4.895648360E-2,4.978551567E-1,1.855808645E-1
3.278284944E1,1.437627673E-1,7.361100912E-1,2.746799290E-1
3.280286194E1,2.503849268E-1,7.080451846E-1,4.447622597E-1
3.282484944E1,2.305579931E-1,2.859023809E-1,5.593256354E-1
3.284484944E1,-8.522442728E-2,-4.799131751E-1,5.065818429E-1
3.286484944E1,-5.962393880E-1,-1.047913074E0,3.279124498E-1
3.288484944E1,-7.597592473E-1,-9.963037372E-1,1.864011586E-1
3.290484944E1,-3.844785690E-1,-3.932575881E-1,2.650457025E-1
3.292484944E1,-3.649483621E-2,4.383918047E-1,4.920083284E-1
3.294484944E1,-1.017003357E-1,7.946134806E-1,5.826258063E-1
3.296484944E1,-2.354449183E-1,9.362818599E-1,5.379628539E-1
3.298484944E1,-3.465176821E-1,7.500203252E-1,4.132590592E-1
3.300484944E1,-3.247883320E-1,2.518335581E-1,2.262470275E-1
3.302484944E1,-3.164282069E-2,-1.438151300E-1,1.354375482E-1
3.304484944E1,1.510233432E-1,-3.146305084E-1,1.186649352E-1
3.306484944E1,1.064301804E-1,-2.838428915E-1,5.866051465E-2
3.308484944E1,4.473278672E-2,-1.250528395E-1,-2.542944625E-2
3.310484944E1,9.571385384E-2,-1.675516134E-3,-9.457939118E-2
3.312484944E1,1.690525860E-1,-4.094542563E-2,-1.393645406E-1
3.314484944E1,2.463183105E-1,-1.753357798E-1,-1.276184767E-1
3.316484944E1,2.238384783E-1,-2.948384583E-1,-7.513642311E-2
3.318485100E1,8.539895713E-2,-4.574158788E-1,-1.425235868E-1
3.320685100E1,-8.590510488E-2,-4.408003688E-1,-3.067765236E-1
3.322884944E1,-2.146755010E-1,-1.226791963E-1,-3.599567115E-1
3.324885100E1,-3.319790661E-1,1.641133130E-1,-2.415361106E-1
3.326885100E1,-4.955862463E-1,2.266310006E-1,-1.621585339E-1
3.329084944E1,-9.279915690E-1,-2.119527906E-1,-4.005530477E-1
3.331085100E1,-8.692786694E-1,-1.702568680E-1,-6.300638318E-1
3.333284944E1,-1.276533753E-1,9.019861370E-2,-3.449643254E-1
3.335284944E1,3.613704145E-1,-2.378883809E-1,1.704837680E-1
3.337284944E1,4.346393347E-1,-6.543937325E-1,3.856130540E-1
3.339285100E1,3.956137896E-1,-4.248305857E-1,1.772381812E-1
3.341285100E1,2.364921123E-1,-2.789036185E-2,-1.480911821E-1
3.343484944E1,4.391248524E-2,2.964267135E-1,-2.452362180E-1
3.345484944E1,-3.274237737E-2,4.387408793E-1,-2.564412355E-1
3.347484944E1,-5.625196174E-2,4.099080265E-1,-2.416233867E-1
3.349484944E1,-2.544690110E-2,2.534916103E-1,-2.440144867E-1
3.351484944E1,8.203047328E-3,1.024333760E-1,-2.722888291E-1
3.353484944E1,-1.651081443E-2,4.785692692E-2,-3.401297629E-1
3.355484944E1,-1.343030781E-1,-3.804817796E-3,-4.291066527E-1
3.357484944E1,-2.775771618E-1,-1.645670980E-1,-4.996004999E-1
3.359484944E1,-3.313682079E-1,-3.146828711E-1,-5.046270490E-1
3.361484944E1,-2.847330272E-1,-3.617543876E-1,-4.728794992E-1
3.363484944E1,-1.592787504E-1,-3.360980451E-1,-3.881612122E-1
3.365484944E1,-1.387362182E-1,-1.379857361E-1,-2.014109939E-1
3.367484944E1,-3.348239660E-1,1.377937496E-1,1.453859266E-2
3.369484944E1,-4.153185487E-1,3.528183103E-1,1.483180821E-1
3.371484944E1,-3.212627470E-1,1.956863105E-1,1.627344936E-1
3.373484944E1,-1.961226463E-1,-7.208209950E-3,1.449496001E-1
3.375484944E1,-1.189092845E-1,4.869468510E-3,1.450019479E-1
3.377484944E1,-1.467821896E-1,2.010095716E-1,2.061408311E-1
3.379484944E1,-3.460813463E-1,3.293785453E-1,2.731789351E-1
3.381484944E1,-5.309291482E-1,1.853888780E-1,1.933650225E-1
3.383484944E1,-3.590840399E-1,7.602654397E-2,1.287005842E-1
3.385485100E1,8.196066320E-2,-6.754423957E-3,2.971597612E-1
3.387485100E1,2.338741124E-1,-2.246238738E-1,5.184849501E-1
3.389485100E1,-1.769763790E-2,-4.507487416E-1,4.925144613E-1
3.391684944E1,-3.245963454E-1,-4.582710862E-1,1.882162988E-1
3.393684944E1,-3.701843321E-1,-2.910161912E-1,5.913175642E-2
3.395685100E1,-1.437627673E-1,-6.604325771E-2,1.140572652E-1
3.397884944E1,1.690525860E-1,2.589370608E-1,2.807013094E-1
3.399884944E1,3.227462769E-1,3.684215546E-1,3.399726748E-1
3.401884944E1,4.410097897E-1,3.349112272E-1,3.014707267E-1
3.403884944E1,4.487241507E-1,2.590941191E-1,2.119178772E-1
3.405884944E1,3.006155193E-1,1.904852390E-1,8.763298392E-2
3.407884944E1,1.685464382E-1,2.270673402E-2,-3.237585723E-2
3.409884944E1,1.925272644E-1,-5.988224596E-2,-9.642943740E-2
3.411884944E1,1.825265288E-1,-1.671676338E-1,-1.309520602E-1
3.413884944E1,5.569345504E-2,-2.299820334E-1,-1.566781998E-1
3.415884944E1,-9.939649701E-2,-2.651678622E-1,-1.889144331E-1
3.417884944E1,-1.707455665E-1,-2.812772691E-1,-2.182359695E-1
3.419884944E1,2.642428502E-2,-2.164557278E-1,-1.536413282E-1
3.421884944E1,8.794713765E-2,-1.603608578E-1,-8.637634665E-2
3.423884944E1,-1.998576522E-1,-1.679006666E-1,-4.324925691E-2
3.425884944E1,-3.747920096E-1,2.015855350E-2,-8.009316027E-2
3.427885100E1,-3.070383072E-1,1.539729387E-1,-4.825835302E-2
3.430085100E1,-3.000046313E-1,5.684537441E-2,1.221730486E-1
3.432284944E1,-3.803421557E-1,1.759117395E-1,3.203028142E-1
3.434284944E1,-5.637937188E-1,1.776047051E-1,2.956064045E-1
3.436284944E1,-6.153507233E-1,-3.471459821E-2,-5.900958180E-2
3.438284944E1,-1.648637950E-1,-2.845933735E-1,-1.826312542E-1
3.440284944E1,5.325174332E-1,-5.620134473E-1,3.448770568E-2
3.442285100E1,9.293703437E-1,-6.962990761E-1,2.256187052E-1
3.444484944E1,5.159716606E-1,-5.839522481E-1,-4.263839498E-2
3.446484944E1,-1.387187690E-1,-6.159266829E-2,-4.595975578E-1
3.448484944E1,-4.424409568E-1,3.477045000E-1,-6.652147770E-1
3.450484944E1,-3.619114757E-1,4.440117478E-1,-6.472204328E-1
3.452484944E1,-1.559800804E-1,3.533768058E-1,-5.692566037E-1
3.454484944E1,-5.129522830E-2,2.752558887E-1,-4.835085571E-1
3.456484944E1,-3.071779385E-2,2.515194118E-1,-4.069235027E-1
3.458484944E1,-4.354596511E-2,1.671850830E-1,-3.356093466E-1
3.460484944E1,-8.047713339E-2,4.832816496E-2,-2.226691097E-1
3.462484944E1,-1.317723542E-1,-3.399901465E-2,-9.234537184E-2
3.464484944E1,-2.472433448E-1,-7.778932154E-2,-3.211405827E-3
3.466484944E1,-3.740065992E-1,-1.850747168E-1,1.930334233E-2
3.468484944E1,-4.352851212E-1,-2.364746630E-1,-4.506440088E-2
3.470484944E1,-4.230852723E-1,-3.206344247E-1,-8.709193207E-3
3.472484944E1,-3.414911330E-1,-3.908315897E-1,1.635548025E-1
3.474484944E1,-2.269277126E-1,-4.298047721E-1,3.070906699E-1
3.476484944E1,-6.195918843E-2,-3.459766209E-1,3.354871869E-1
3.478484944E1,4.124213010E-2,-1.215098202E-1,3.308795094E-1
3.480484944E1,4.459316283E-2,1.466076523E-1,3.106336892E-1
3.482484944E1,-1.867502346E-3,3.095166981E-1,2.771582901E-1
3.484484944E1,-2.169444226E-2,4.552167654E-1,2.657961845E-1
3.486484944E1,-1.063952744E-1,4.341855645E-1,2.419549972E-1
3.488484944E1,-1.079660654E-1,2.712765336E-1,1.994387656E-1
3.490484944E1,2.516939342E-1,3.114016354E-1,2.829353213E-1
3.492484944E1,7.457792163E-1,3.348065019E-1,5.426577926E-1
3.494484944E1,9.087929130E-1,2.169444263E-1,7.330557108E-1
3.496484944E1,6.431363821E-1,2.549926005E-2,7.128797174E-1
3.498484944E1,1.786693484E-1,-1.486322433E-1,4.851317108E-1
3.500484944E1,-1.829279512E-1,-2.242573500E-1,2.144835144E-1
3.502484944E1,-3.630982935E-1,-2.825338840E-1,1.127482727E-1
3.504484944E1,-3.659955561E-1,-2.814866900E-1,1.183333248E-1
3.506484944E1,-1.100255549E-1,-1.349663138E-1,1.624726951E-1
3.508484944E1,1.819680333E-1,1.040216256E-2,2.855184078E-1
3.510484944E1,3.409849703E-1,1.418603659E-1,3.960675597E-1
3.512484944E1,4.036597610E-1,2.380978167E-1,4.077961743E-1
3.514485100E1,3.918787837E-1,2.379058301E-1,3.236189485E-1
3.516686506E1,3.526088595E-1,1.007054970E-1,2.042035162E-1
3.518884944E1,3.494498134E-1,-5.927138031E-2,8.735372871E-2
3.520885100E1,3.466573060E-1,-8.127998561E-2,-1.668534800E-2
3.523084944E1,1.944471300E-1,-5.920156837E-2,-1.026602685E-1
3.525084944E1,-4.016002640E-2,-6.415830553E-2,-1.666614860E-1
3.527084944E1,-6.063273922E-2,-1.677959561E-1,-2.575058639E-1
3.529084944E1,1.188918278E-1,-4.268028140E-1,-3.048217595E-1
3.531084944E1,3.670951128E-1,-5.207887888E-1,-2.940530777E-1
3.533084944E1,3.726801574E-1,-3.054675162E-1,-2.626371384E-1
3.535084944E1,1.818982214E-1,1.806241274E-1,-2.266135514E-1
3.537085100E1,-1.021890268E-1,6.038489938E-1,-1.130624264E-1
3.539284944E1,-5.271941423E-1,5.945115089E-1,-9.068730474E-2
3.541284944E1,-8.777260780E-1,1.619840115E-1,-3.434807956E-1
3.543284944E1,-5.619785786E-1,3.815289587E-2,-4.536983371E-1
3.545284944E1,3.615449667E-1,2.136457562E-1,-1.680577546E-1
3.547284944E1,7.653268576E-1,-7.126179338E-2,2.065597177E-1
3.549285100E1,5.407379270E-1,-4.465425014E-1,3.806563020E-1
3.551285100E1,4.153709114E-1,-3.532371819E-1,2.297551483E-1
3.553484944E1,4.510279894E-1,-7.021459192E-2,-2.738421597E-2
3.555484944E1,3.359758854E-1,1.587726027E-1,-5.480333790E-2
3.557485100E1,6.801547855E-2,3.811973631E-1,-1.143714264E-1
3.559685100E1,-2.467022836E-1,3.126931787E-1,-2.563539743E-1
3.561685100E1,-2.070833147E-1,1.079137102E-1,-3.369881809E-1
3.563884944E1,1.051735431E-1,9.196139872E-2,-2.427229434E-1
3.565884944E1,1.398532391E-1,4.689699784E-2,-9.988519549E-2
3.567884944E1,7.042403519E-2,1.102873534E-1,-6.164502725E-2
3.569885100E1,1.216494478E-2,1.854063272E-1,-7.983136177E-2
3.572084944E1,2.087413706E-2,1.788438857E-1,-5.981243402E-2
3.574084944E1,3.892084118E-3,1.170068756E-1,-1.839577034E-2
3.576084944E1,3.525565146E-3,5.235987483E-4,-6.283185212E-4
3.578084944E1,1.354026496E-1,-7.695156336E-2,4.061381146E-2
3.580085100E1,3.182433248E-1,-7.271041721E-2,1.289623827E-1
3.582284944E1,3.798185587E-1,9.288642555E-2,2.117433399E-1
3.584284944E1,3.155380785E-1,1.565036774E-1,2.626022398E-1
3.586284944E1,2.020393163E-1,1.717403978E-1,2.821673751E-1
3.588284944E1,1.319468915E-1,2.331236303E-1,2.713114321E-1
3.590284944E1,2.356194519E-2,2.037846446E-1,3.156428039E-1
3.592284944E1,-3.904476166E-1,-4.146902263E-1,1.872389168E-1
3.594284944E1,-4.145680666E-1,-4.068362415E-1,-7.033676840E-3
3.596284944E1,1.523323357E-1,1.043881401E-1,1.134987622E-1
3.598284944E1,4.017922580E-1,2.904576957E-1,4.860916436E-1
3.600284944E1,2.771582827E-2,-3.539527580E-2,6.748490334E-1
3.602284944E1,-3.395363390E-1,-3.130946159E-1,4.100127518E-1
3.604284944E1,-3.659257293E-1,-2.718699276E-1,5.499532446E-2
3.606284944E1,-2.642952204E-1,-5.770058557E-2,1.150521040E-1
3.608284944E1,-7.719591260E-2,6.836454570E-2,2.696882784E-1
3.610284944E1,9.536478668E-2,7.684684545E-2,3.183306158E-1
3.612284944E1,2.086715698E-1,4.839798063E-2,2.708052993E-1
3.614284944E1,2.349736691E-1,9.873327613E-2,1.824218184E-1
3.616284944E1,1.880592257E-1,1.376890242E-1,1.197121367E-1
3.618284944E1,1.367989033E-1,1.310393214E-1,8.850564808E-2
3.620284944E1,5.166174471E-2,-1.087340154E-2,5.195845291E-2
3.622284944E1,4.405210912E-2,-1.496270746E-1,-3.036872856E-2
3.624284944E1,1.133242249E-1,-1.477595717E-1,-9.868091345E-2
3.626284944E1,8.803440630E-2,-1.155407950E-1,-1.104618907E-1
3.628284944E1,3.839724511E-2,-1.002866179E-1,-1.031838655E-1
3.630286350E1,1.118756011E-1,-9.738937020E-2,-1.282816976E-1
3.632484944E1,2.033308595E-1,-1.189965457E-1,-1.319818050E-1
3.634484944E1,1.689129621E-1,-1.951278150E-1,-1.557706296E-1
3.636484944E1,2.047271281E-2,-2.136806548E-1,-1.264491081E-1
3.638484944E1,-5.696754530E-2,-7.738789916E-2,-6.049311161E-2
3.640484944E1,3.612831607E-2,1.164483652E-1,-3.385938704E-3
3.642484944E1,1.883210242E-1,1.624901593E-1,7.480481267E-2
3.644484944E1,7.368779927E-2,-1.049466506E-1,4.194026068E-2
3.646484944E1,-1.736427993E-1,-1.666091233E-1,-1.262920201E-1
3.648484944E1,-1.884781122E-1,2.576106042E-2,-1.650732458E-1
3.650484944E1,-1.734857261E-1,-1.699078083E-1,2.876302600E-2
3.652485100E1,-1.012465507E-1,-4.491953850E-1,1.199390292E-1
3.654685100E1,-2.457423508E-2,-3.020117581E-1,-6.108652335E-3
3.656885100E1,-1.384918690E-1,1.382649839E-1,-9.431759268E-2
3.659084944E1,-2.608918250E-1,4.211130440E-1,-1.288751066E-1
3.661085100E1,-2.825338840E-1,4.280245304E-1,-2.490410358E-1
3.663284944E1,-1.542870998E-1,2.711543441E-1,-3.499036133E-1
3.665284944E1,5.852089077E-2,1.017876044E-1,-3.378259242E-1
3.667284944E1,1.420523524E-1,7.990117371E-2,-2.779611349E-1
3.669284944E1,1.000771821E-1,1.222079545E-1,-2.269800752E-1
3.671284944E1,2.911209129E-2,1.445307136E-1,-1.839402467E-1
3.673284944E1,-6.195918657E-3,6.682865322E-2,-1.551772207E-1
3.675284944E1,-5.869542435E-2,1.680752076E-2,-1.262222081E-1
3.677284944E1,-2.151990868E-2,4.363323003E-2,-5.523966998E-2
3.679284944E1,2.464404888E-2,2.914699726E-3,6.660176069E-2
3.681284944E1,7.281513512E-2,-2.874557301E-2,1.208815053E-1
3.683284944E1,1.462062299E-1,-1.343903504E-2,1.294510663E-1
3.685284944E1,2.550798655E-1,-2.981022373E-2,-1.961750165E-2
3.687284944E1,2.471909821E-1,-2.804744057E-2,-2.099631168E-2
3.689284944E1,-1.811651699E-2,-1.304109991E-1,1.612509638E-1
3.691284944E1,-2.224073112E-1,2.530378401E-1,-7.998844236E-2
3.693285256E1,-4.201007485E-1,9.869313240E-1,1.292416304E-1
3.695484944E1,-1.132090330E0,1.159561872E0,2.427753061E-2
3.697484944E1,-1.565385818E0,9.518851042E-1,-3.209660575E-2
3.699485100E1,-1.112682343E0,8.504291177E-1,2.536137998E-1
3.701485100E1,-1.575159580E-1,5.361127853E-1,5.406157374E-1
3.703685100E1,2.811900079E-1,-2.879793197E-2,6.437472105E-1
3.705884944E1,4.925319180E-2,-2.935818434E-1,5.726599693E-1
3.707884944E1,-1.939235330E-1,-2.682571113E-2,5.309466124E-1
3.709884944E1,-3.262892962E-1,4.399974942E-1,5.008222461E-1
3.711884944E1,-3.430619240E-1,7.847000360E-1,5.355717540E-1
3.713885100E1,-3.495894372E-2,5.185024142E-1,6.310063601E-1
3.716084944E1,4.564559460E-1,1.999100149E-1,4.404861927E-1
3.718084944E1,7.528826594E-1,1.347394194E-2,2.392671853E-1
3.720084944E1,8.570089936E-1,-1.372003257E-1,1.050164625E-1
3.722084944E1,7.313976884E-1,-3.588222265E-1,1.888271719E-1
3.724085100E1,4.784645736E-1,-4.779235125E-1,2.953097224E-1
3.726284944E1,2.145707756E-1,-3.410373330E-1,1.471661627E-1
3.728284944E1,-6.613052636E-2,-6.532767415E-2,-1.127308160E-1
3.730286350E1,-3.193254471E-1,1.572890729E-1,-2.689552307E-1
3.732484944E1,-1.831723005E-1,6.066066623E-1,-2.236988544E-1
3.734484944E1,-2.852391601E-1,6.539748907E-1,1.129402518E-1
3.736485100E1,-5.388355255E-1,1.192059834E-2,1.585457027E-1
3.738684944E1,-3.242996335E-1,-1.565036774E-1,-1.752136052E-1
3.740684944E1,3.422590718E-2,-1.499412358E-1,-3.776718080E-1
3.742684944E1,2.372076958E-1,1.059938446E-1,-3.610737026E-1
3.744685100E1,4.167322516E-1,1.892460436E-1,-1.900314540E-1
3.746685100E1,4.051258266E-1,-2.663721442E-1,2.158797681E-1
3.748687131E1,4.121071398E-1,-5.912477374E-1,2.748544514E-1
3.750885100E1,4.608541727E-1,-3.904126883E-1,-6.401867419E-2
3.753084944E1,3.537782431E-1,-1.480039209E-1,-2.215171903E-1
3.755084944E1,4.073598608E-2,-2.049540132E-1,-1.961051971E-1
3.757085100E1,-5.485395193E-1,-6.476917118E-2,-1.138827354E-1
3.759085100E1,-1.056604862E0,-4.059286714E-1,-1.951103508E-1
3.761284944E1,-7.024775743E-1,-1.144761443E-1,-4.927413464E-1
3.763284944E1,-3.089232743E-1,-1.823345423E-1,-6.089453697E-1
3.765284944E1,3.207915276E-2,-3.627841473E-1,-5.003858805E-1
3.767284944E1,1.208116934E-1,-5.866400599E-1,-3.263591230E-1
3.769284944E1,-8.517206647E-3,-7.277848125E-1,-2.488839477E-1
3.771284944E1,-2.001892626E-1,-4.179365337E-1,-2.236115783E-1
3.773284944E1,-4.118627906E-1,-2.762856148E-2,-1.528035700E-1
3.775284944E1,-3.925943673E-1,7.241371274E-2,-1.473407000E-1
3.777284944E1,-6.827727705E-2,5.785940886E-1,-1.332035214E-1
3.779284944E1,3.588397056E-2,6.996501088E-1,3.192032576E-1
3.781284944E1,1.164832711E-1,2.146929502E-1,4.813443422E-1
3.783284944E1,2.995159626E-1,1.859822869E-1,2.331759930E-1
3.785284944E1,4.105712473E-1,-8.147197217E-2,1.294336170E-1
3.787284944E1,6.374815106E-1,-2.549926043E-1,-8.052948862E-2
3.789284944E1,7.215714455E-1,2.335250564E-2,-4.862487316E-2
3.791284944E1,4.188615680E-1,9.756390937E-3,3.363074958E-1
3.793284944E1,5.668829381E-2,1.444434524E-1,3.140021861E-1
3.795284944E1,-3.906046972E-2,3.549650609E-1,1.022413895E-1
3.797284944E1,-1.413716655E-2,4.440641105E-1,1.129228026E-1
3.799284944E1,-2.397209704E-1,-8.679522574E-2,1.787217110E-1
3.801284944E1,-3.130771518E-1,-2.408379763E-1,6.937684119E-2
3.803284944E1,-4.761258140E-2,4.127703607E-2,6.564183533E-2
3.805284944E1,9.534733742E-2,-8.852309734E-2,2.388657629E-1
3.807284944E1,-7.705628872E-2,-4.151614606E-1,2.543642819E-1
3.809284944E1,-3.714409769E-1,-4.537506998E-1,-2.537708730E-2
3.811284944E1,-6.231697798E-1,-1.652477682E-1,-2.041511685E-1
3.813285100E1,-6.952170134E-1,1.046324894E-1,-1.566607505E-1
3.815484944E1,-5.546481609E-1,1.961226463E-1,-5.515240505E-2
3.817484944E1,-3.780906796E-1,2.972295694E-2,-4.415683076E-2
3.819484944E1,-2.780658603E-1,-8.571311831E-2,-5.174901336E-2
3.821484944E1,-1.515818387E-1,5.009094998E-2,-7.504915819E-3
3.823484944E1,1.333431527E-2,2.494075522E-2,5.965535343E-2
3.825484944E1,1.450019479E-1,-7.342600077E-2,8.311257511E-2
3.827484944E1,2.011841089E-1,-1.008102149E-1,6.640977412E-2
3.829484944E1,1.926668882E-1,-1.648812592E-1,1.246165112E-2
3.831484944E1,1.438849419E-1,-2.443984598E-1,-1.165530905E-1
3.833484944E1,9.075712413E-2,-1.216319948E-1,-2.335250527E-1
3.835484944E1,4.057890549E-2,4.918337986E-2,-2.970201373E-1
3.837484944E1,-3.316125646E-2,8.630653471E-2,-3.707777560E-1
3.839484944E1,-1.244943365E-1,-9.553932399E-2,-4.258079827E-1
3.841484944E1,-1.887224466E-1,-3.842342198E-1,-4.480085671E-1
3.843484944E1,-2.178869098E-1,-4.730191231E-1,-4.626867771E-1
3.845484944E1,-1.559626162E-1,-2.800729871E-1,-4.064522684E-1
3.847484944E1,-1.425585002E-1,-9.145525098E-2,-1.898918152E-1
3.849484944E1,-2.520953417E-1,-1.568876505E-1,1.239183731E-2
3.851484944E1,-6.879913211E-1,-6.846054196E-1,-6.908012927E-2
3.853484944E1,-8.562236428E-1,-7.892553210E-1,-3.106336892E-1
3.855484944E1,-1.657888293E-1,-3.091152608E-1,-3.051010072E-1
3.857484944E1,6.492450237E-1,-6.073745899E-3,9.047786891E-2
3.859484944E1,8.049807549E-1,-9.119345248E-2,2.946115732E-1
3.861484944E1,4.724780917E-1,6.373942643E-2,-3.260274976E-2
3.863484944E1,8.848818950E-3,4.065220952E-1,-5.333900452E-1
3.865484944E1,-3.049962819E-1,5.532693863E-1,-6.032207012E-1
3.867484944E1,-3.173357546E-1,5.194623470E-1,-4.742757678E-1
3.869484944E1,-1.353677362E-1,2.981022298E-1,-3.813544512E-1
3.871484944E1,1.072504818E-1,1.659459025E-1,-3.314554691E-1
3.873484944E1,2.517113984E-1,2.087588310E-1,-2.133141458E-1
3.875484944E1,2.795493901E-1,2.634399831E-1,-9.684831649E-2
3.877484944E1,2.473480552E-1,2.351482064E-1,-1.453859266E-2
3.879484944E1,1.627170444E-1,1.165705398E-1,-2.970550396E-2
3.881484944E1,8.632398397E-2,-2.850122750E-2,-9.018116444E-2
3.883484944E1,7.321656495E-2,-9.372418374E-2,-3.642502055E-2
3.885484944E1,8.466592431E-2,-2.220233381E-1,4.120722413E-2
3.887484944E1,1.706757396E-1,-2.961300015E-1,9.737192094E-2
3.889484944E1,2.299296707E-1,-1.642354876E-1,1.579173952E-1
3.891484944E1,1.954245120E-1,1.609193534E-2,2.180788964E-1
3.893484944E1,9.728465229E-2,1.161691174E-1,1.949707270E-1
3.895484944E1,3.916518763E-2,8.353145421E-2,1.733286530E-1
3.897484944E1,6.729989499E-2,6.154030934E-2,2.040813416E-1
3.899484944E1,-1.509884298E-1,-2.181661502E-2,2.737723589E-1
3.901484944E1,-3.016627133E-1,-2.943323255E-1,2.156703323E-1
3.903484944E1,1.332035214E-1,-2.149896622E-1,2.105041593E-1
3.905484944E1,5.307895541E-1,2.535963431E-2,4.601211548E-1
3.907484944E1,3.396759629E-1,-9.981537610E-2,5.875825286E-1
3.909484944E1,-7.752752304E-2,-3.728372455E-1,3.276855648E-1
3.911484944E1,-3.185923994E-1,-3.732910156E-1,-1.137256548E-1
3.913485256E1,-3.069161475E-1,-7.211700082E-2,-2.190388143E-1
3.915684944E1,-9.923942387E-2,2.766870558E-1,6.702064537E-3
3.917685100E1,3.354522958E-2,4.934394956E-1,7.271041721E-2
3.919885100E1,4.888667166E-2,5.734279156E-1,-5.148721393E-3
3.922084944E1,2.673844434E-2,4.834038317E-1,2.317797206E-2
3.924084944E1,4.485496134E-2,2.350085825E-1,1.052608043E-1
3.926084944E1,1.419650763E-1,-3.665191308E-2,9.965830296E-2
3.928084944E1,2.398605943E-1,-1.408131570E-1,6.707300246E-2
3.930084944E1,1.540253013E-1,-1.914102584E-1,1.230457146E-2
3.932084944E1,-4.771730304E-2,-1.770461947E-1,-6.778858602E-2
3.934084944E1,-1.576904953E-1,-2.330014557E-1,-1.754754037E-1
3.936084944E1,-1.420698017E-1,-3.203900754E-1,-2.690948546E-1
3.938084944E1,-8.134979755E-2,-3.049962819E-1,-3.198141456E-1
3.940084944E1,-7.223917544E-2,-1.498365104E-1,-3.119950593E-1
3.942084944E1,-2.385166883E-1,-2.069785893E-1,-3.012089133E-1
3.944084944E1,-4.162261188E-1,-4.011639357E-1,-3.394316435E-1
3.946084944E1,-4.374144077E-1,-6.060307026E-1,-3.626095951E-1
3.948089319E1,-1.444085389E-1,-4.999844730E-1,-3.179117143E-1
3.950284944E1,4.300491139E-2,1.706931926E-2,-1.118057892E-1
3.952284944E1,-3.578972220E-1,1.123992074E-2,4.468042869E-3
3.954285256E1,-8.088902831E-1,-8.082620054E-2,-3.349810541E-1
3.956484944E1,-4.880464077E-1,2.690948546E-1,-4.243418872E-1
3.958484944E1,-3.104940802E-2,7.696902007E-2,-2.773328125E-2
3.960484944E1,2.373996824E-1,-2.879967690E-1,3.275110424E-1
3.962484944E1,1.634151787E-1,-2.290395498E-1,1.836260855E-1
3.964484944E1,-1.362404078E-1,1.726828814E-1,-5.998696759E-2
3.966484944E1,-3.495894372E-1,4.719021320E-1,-1.441816539E-1
3.968484944E1,-2.503849268E-1,4.955338836E-1,-1.449844986E-1
3.970484944E1,-4.724606127E-2,4.196644127E-1,-8.625417203E-2
3.972484944E1,2.584832534E-2,3.270398080E-1,-1.087340154E-2
3.974484944E1,3.368485486E-3,2.846806645E-1,5.780530348E-2
3.976484944E1,-1.792453043E-2,2.780483961E-1,1.155757010E-1
3.978484944E1,-4.031710699E-2,2.095965892E-1,1.950056404E-1
3.980484944E1,-9.468410909E-2,3.558726236E-2,2.170840502E-1
3.982484944E1,-6.969099492E-2,-8.445648104E-2,1.901361644E-1
3.984484944E1,-2.302089334E-2,-1.287180334E-1,1.990198940E-1
3.986484944E1,4.923573881E-2,-1.053655297E-1,3.142465353E-1
3.988484944E1,1.663996875E-1,4.080579802E-2,4.858123958E-1
3.990484944E1,2.251823843E-1,2.031563222E-1,5.350655913E-1
3.992484944E1,2.824117243E-1,2.926219106E-1,4.923224747E-1
3.994486506E1,2.684316337E-1,2.589893937E-1,4.826882482E-1
3.996684944E1,1.159422249E-1,1.610240787E-1,4.769810438E-1
3.998684944E1,1.302015595E-2,5.752605200E-2,3.740589619E-1
4.000685725E1,-9.320057929E-2,6.682865322E-2,3.082076907E-1
4.002884944E1,-1.599594206E-1,-4.249876738E-2,2.489013970E-1
4.004884944E1,2.124240249E-1,6.370452046E-2,2.920459509E-1
4.006884944E1,5.162683725E-1,2.961125672E-1,5.900434852E-1
4.008884944E1,3.206693530E-1,6.445501000E-2,7.492349148E-1
4.010884944E1,-1.231678873E-1,-4.053527117E-1,5.234242678E-1
4.012885100E1,-2.993588746E-1,-5.597794652E-1,6.939429045E-2
4.015084944E1,-2.213601023E-1,-2.233672440E-1,-4.312708601E-2
4.017084944E1,-9.103637189E-2,1.761735380E-1,1.718625724E-1
4.019084944E1,-3.741985932E-2,3.792949617E-1,2.686236203E-1
4.021085413E1,4.094542563E-2,4.440815747E-1,1.930683255E-1
4.023284944E1,4.612905160E-2,3.681772053E-1,1.305680871E-1
4.025284944E1,5.112069473E-2,2.442588210E-1,1.003564298E-1
4.027284944E1,7.909832150E-2,1.645147353E-1,3.113667294E-2
4.029284944E1,3.867649660E-2,1.096764877E-1,-9.129817039E-2
