"Time (s)","Linear Acceleration x (m/s^2)","Linear Acceleration y (m/s^2)","Linear Acceleration z (m/s^2)"
1.400000000E-2,6.283000112E-1,1.036999971E-1,-1.934999973E-1
3.400000000E-2,1.041899920E0,-4.380000010E-2,-1.702999920E-1
6.400000000E-2,1.432500005E0,-5.514000058E-1,-7.149999589E-2
8.400000000E-2,2.000499964E0,-9.679999948E-1,-1.340699911E0
1.139984370E-1,2.712699890E0,-1.763599992E0,-1.283999920E0
1.339984370E-1,1.974900007E0,-1.673699975E0,4.237999916E-1
1.539984370E-1,4.537999928E-1,-2.418999970E-1,2.467299938E0
1.740000000E-1,-1.469299912E0,2.751999855E0,3.291699886E0
2.039984370E-1,-4.609999806E-2,-5.579999685E-1,-1.548200011E0
2.240062500E-1,8.988999724E-1,-2.174599886E0,-4.227999687E0
2.539984370E-1,3.382000029E-1,-1.938299894E0,-3.322399855E0
2.740031250E-1,-7.518999577E-1,-6.850999594E-1,5.166000128E-1
3.039984370E-1,-1.293399930E0,-9.702000022E-1,-1.024799943E0
3.239984370E-1,-1.048499942E0,-9.196999669E-1,-2.444599867E0
3.440000000E-1,-3.292299986E0,-2.585299969E0,6.750000119E-1
3.640031250E-1,-3.176699877E0,-1.098199964E0,-2.349999905E0
3.939984370E-1,1.849900007E0,-8.326999545E-1,3.739999831E-1
4.140031250E-1,1.089200020E0,-6.646999717E-1,1.893700004E0
4.439984370E-1,-1.797999978E0,-8.835999966E-1,2.448799849E0
4.639984370E-1,-1.959999919E0,-5.331000090E-1,1.925499916E0
4.839984370E-1,-7.990999818E-1,-3.570000082E-2,9.980999827E-1
5.039984370E-1,3.610000014E-1,1.442999989E-1,6.757999659E-1
5.240000000E-1,2.529000044E-1,-1.172999963E-1,1.232299924E0
5.540062500E-1,-6.599999964E-3,-6.944999695E-1,1.203899980E0
5.839984370E-1,4.578000009E-1,-7.875999808E-1,8.463999629E-1
6.039984370E-1,4.716999829E-1,-6.428999901E-1,4.914999902E-1
6.239984370E-1,3.637000024E-1,-3.084999919E-1,2.344999909E-1
6.439984370E-1,5.227000117E-1,-2.224999964E-1,-8.764999509E-1
6.639984370E-1,3.564999998E-1,4.518999755E-1,-1.370599985E0
6.839984370E-1,4.336999953E-1,7.412999868E-1,-2.361099958E0
7.039984370E-1,5.383999944E-1,7.773999572E-1,-2.265499830E0
7.239984370E-1,4.004999995E-1,6.649000049E-1,-2.103399992E0
7.439984370E-1,6.499999668E-3,5.546999574E-1,-1.706999898E0
7.639984370E-1,-2.672999799E-1,5.924999714E-1,-1.389799953E0
7.839984370E-1,-1.180000007E-1,6.768000126E-1,-1.201300025E0
8.039984370E-1,-2.732999921E-1,7.525999546E-1,-1.090399981E0
8.239984370E-1,-1.486999989E-1,4.828999937E-1,-7.130999565E-1
8.439984370E-1,2.488999963E-1,1.599999964E-1,2.611999810E-1
8.639984370E-1,-2.444999963E-1,1.764999926E-1,1.988999963E0
8.839984370E-1,-4.124999940E-1,-1.909999996E-1,1.948599935E0
9.039984370E-1,-5.242999792E-1,-7.119999826E-2,1.487499952E0
9.239984370E-1,-4.818999767E-1,2.570999861E-1,1.774299979E0
9.439984370E-1,-7.556999922E-1,4.402999878E-1,2.020400047E0
9.639984370E-1,-1.265999973E-1,-9.149999917E-2,3.162899971E0
9.839984370E-1,8.854999542E-1,-1.314499974E0,2.755699873E0
1.003998437E0,1.005699992E0,-1.984599948E0,3.077299833E0
1.023998437E0,5.108999610E-1,-1.819399953E0,2.775300026E0
1.043998437E0,4.583999813E-1,-1.422599912E0,1.410099983E0
1.063998437E0,5.325999856E-1,-1.008299947E0,-6.712999940E-1
1.083998437E0,1.953499913E0,-2.225100040E0,-1.206699967E0
1.103998437E0,2.034699917E0,-1.503700018E0,-4.558999836E-1
1.123998437E0,1.004500031E0,-8.777999878E-1,1.046999931E0
1.143998437E0,5.324000120E-1,-1.359899998E0,6.660000086E-1
1.163998437E0,-9.396999478E-1,-1.395799994E0,-8.576999903E-1
1.183998437E0,-1.173999980E-1,-1.222999930E0,-8.115999699E-1
1.203998437E0,-6.199999712E-3,-9.316999912E-1,-1.494699955E0
1.223998437E0,5.159000158E-1,-4.890999794E-1,-1.810899973E0
1.243998437E0,1.019400001E0,-4.257999957E-1,-6.692999601E-1
1.263998437E0,1.029999971E0,-1.301999986E-1,-1.628600001E0
1.284000000E0,6.430999637E-1,5.099999718E-3,-2.687099934E0
1.313998437E0,2.725999951E-1,3.243999779E-1,-2.836599827E0
1.333998437E0,2.791999876E-1,5.591999888E-1,-2.181499958E0
1.353998437E0,3.102000058E-1,6.079999804E-1,-1.852499962E0
1.373998437E0,2.983999848E-1,7.511999607E-1,-2.262799978E0
1.393998437E0,1.858000010E-1,9.265999794E-1,-2.029599905E0
1.413998437E0,-4.745999873E-1,1.642799973E0,-1.211399913E0
1.434000000E0,-1.008700013E0,1.747900009E0,-8.449999690E-1
1.463998437E0,1.212999970E-1,3.143999875E-1,4.649999738E-2
1.483998437E0,7.096999884E-1,-4.438999891E-1,1.190599918E0
1.504000000E0,4.659999907E-2,-3.353999853E-1,1.685199976E0
1.533998437E0,-5.137000084E-1,-2.655999959E-1,1.467099905E0
1.553998437E0,5.968999863E-1,-7.947999835E-1,1.557699919E0
1.573998437E0,1.062699914E0,-1.635800004E0,2.280299902E0
1.593998437E0,5.805999637E-1,-2.345700026E0,2.346400023E0
1.613998437E0,4.199999943E-2,-2.714699984E0,1.858500004E0
1.633998437E0,1.196999997E-1,-2.745100021E0,1.623999953E0
1.653998437E0,5.956999660E-1,-2.881299973E0,2.190999985E0
1.674000000E0,5.126999617E-1,-2.588500023E0,2.597499847E0
1.694000000E0,2.879999876E-1,-2.239599943E0,2.087699890E0
1.714000000E0,-1.428000033E-1,-1.743199944E0,1.642699957E0
1.743998437E0,-5.708000064E-1,-1.064199924E0,7.770000100E-1
1.763998437E0,-1.688999981E-1,-8.341999650E-1,-3.901000023E-1
1.783998437E0,3.136999905E-1,-6.929000020E-1,-1.563099980E0
1.803998437E0,6.589999795E-1,-6.121000051E-1,-2.052999973E0
1.823998437E0,8.708999753E-1,-6.245999932E-1,-1.801599979E0
1.843998437E0,8.919999599E-1,-7.437999845E-1,-1.592599988E0
1.864000000E0,1.034899950E0,-8.061999679E-1,-1.638499975E0
1.884000000E0,1.340399981E0,-7.560999990E-1,-1.400799990E0
1.904000000E0,1.490099907E0,-4.772999883E-1,-1.064000010E0
1.924000000E0,1.478699923E0,-2.793999910E-1,-1.145900011E0
1.944021875E0,1.285499930E0,-5.549999699E-2,-1.605999947E0
1.974000000E0,3.628999889E-1,4.394999743E-1,-1.730799913E0
2.003998437E0,-1.572999954E-1,6.581999660E-1,-1.632900000E0
2.023998437E0,-1.863999963E-1,8.386999965E-1,-1.486599922E0
2.044000000E0,-1.349000037E-1,8.963999748E-1,-1.016199946E0
2.073998437E0,-6.588999629E-1,8.798999786E-1,-8.435999751E-1
2.093998437E0,-9.152999520E-1,8.973999619E-1,-1.500299931E0
2.113998437E0,-8.098999858E-1,8.948999643E-1,-1.783599973E0
2.133998437E0,-5.489999652E-1,7.883999944E-1,-1.324499965E0
2.153998437E0,-3.840999901E-1,7.039999962E-1,-6.821999550E-1
2.173998437E0,-4.249999821E-1,7.204999924E-1,7.750000060E-2
2.193998437E0,-5.967000127E-1,7.867999673E-1,5.467999578E-1
2.213998437E0,-5.036999583E-1,8.624999523E-1,3.355000019E-1
2.233998437E0,-5.282999873E-1,1.148999929E0,2.600000007E-3
2.253998437E0,-4.791999757E-1,9.364999533E-1,1.937000006E-1
2.273998437E0,3.549999744E-2,1.253999919E-1,1.040799975E0
2.293998437E0,6.543999910E-1,-3.755999804E-1,2.234799862E0
2.313998437E0,1.266199946E0,-1.402799964E0,3.601599932E0
2.333998437E0,5.916000009E-1,-1.810599923E0,3.602099895E0
2.353998437E0,-3.499999940E-1,-1.719399929E0,1.947399974E0
2.373998437E0,-6.473000050E-1,-1.328799963E0,7.836999893E-1
2.393998437E0,1.664000005E-1,-1.225999951E0,9.001999497E-1
2.414000000E0,1.145499945E0,-1.263599992E0,1.761999965E0
2.443998437E0,6.492999792E-1,-7.272999883E-1,2.044299841E0
2.463998437E0,-2.649999969E-2,-1.818999946E-1,6.862999797E-1
2.483998437E0,-1.014999971E-1,2.502000034E-1,-6.487999558E-1
2.503998437E0,9.860000014E-2,4.953999817E-1,-1.073799968E0
2.523998437E0,2.017000020E-1,6.485999823E-1,-1.092399955E0
2.543998437E0,1.343999952E-1,5.604999661E-1,-1.079699993E0
2.563998437E0,1.534999907E-1,4.150999784E-1,-1.234200001E0
2.583998437E0,2.951999903E-1,1.465999931E-1,-1.763700008E0
2.603998437E0,5.507999659E-1,2.159999870E-2,-2.298899889E0
2.623998437E0,7.810999751E-1,-1.366999894E-1,-2.391599894E0
2.643998437E0,5.694999695E-1,2.360999882E-1,-2.258499861E0
2.664000000E0,5.433999896E-1,4.481000006E-1,-2.407899857E0
2.684000000E0,6.437999606E-1,4.580999911E-1,-2.660300016E0
2.704000000E0,7.336999774E-1,6.984999776E-1,-3.268999815E0
2.734000000E0,8.183999658E-1,8.916999698E-1,-3.399099827E0
2.764000000E0,1.238499999E0,5.547999740E-1,-3.047799826E0
2.793998437E0,1.548200011E0,1.314999908E-1,-1.382599950E0
2.813998437E0,1.165699959E0,6.059999764E-2,-3.021000028E-1
2.833998437E0,-4.657999873E-1,1.115199924E0,3.317999840E-1
2.853998437E0,-6.269999743E-1,8.032000065E-1,1.590899944E0
2.873998437E0,6.333000064E-1,-8.549999446E-2,4.196300030E0
2.893998437E0,7.766000032E-1,-7.944999933E-1,6.518899918E0
2.913998437E0,-5.726999640E-1,-1.096300006E0,6.935499668E0
2.933998437E0,-1.526299953E0,-9.639999866E-1,4.795000076E0
2.953998437E0,-9.125999808E-1,-5.787999630E-1,2.814999819E0
2.973998437E0,-2.029999904E-2,-3.877999783E-1,2.358299971E0
2.994000000E0,1.042999998E-1,-5.031999946E-1,2.582499981E0
3.014000000E0,2.789999917E-2,-8.483999968E-1,2.385099888E0
3.043998437E0,-3.333999813E-1,-1.032099962E0,1.653800011E0
3.063998437E0,-5.852999687E-1,-1.021899939E0,1.453199983E0
3.083998437E0,-5.600000024E-1,-7.878999710E-1,8.709999919E-1
3.103998437E0,-1.709000021E-1,-4.377000034E-1,4.239999875E-2
3.123998437E0,5.687999725E-1,-7.629999518E-2,-7.818999887E-1
3.144000000E0,1.020499945E0,1.547999978E-1,-1.564799905E0
3.173998437E0,8.086000085E-1,2.811999917E-1,-1.955500007E0
3.193998437E0,5.178999901E-1,1.331000030E-1,-1.974900007E0
3.213998437E0,2.999999821E-1,-2.329999954E-2,-2.012399912E0
3.233998437E0,3.849999979E-2,-1.935999990E-1,-1.960799932E0
3.254000000E0,-2.894999981E-1,-4.157999754E-1,-1.782499909E0
3.284000000E0,-9.021999836E-1,-6.304000020E-1,-1.185799956E0
3.313998437E0,-1.794199944E0,-3.190000057E-1,-3.288999796E-1
3.333998437E0,-1.926499963E0,-3.576000035E-1,3.597999811E-1
3.353998437E0,-2.061300039E0,-2.558999956E-1,6.079999804E-1
3.373998437E0,-1.983599901E0,-3.590000048E-2,5.471000075E-1
3.393998437E0,-1.880199909E0,2.926999927E-1,4.316999912E-1
3.413998437E0,-1.546599984E0,5.126999617E-1,-1.303000003E-1
3.433998437E0,-1.188499928E0,6.825000048E-1,-6.402999759E-1
3.453998437E0,-7.156999707E-1,8.011999726E-1,-2.990999818E-1
3.473998437E0,-3.289999962E-1,8.589999676E-1,2.085999995E-1
3.494000000E0,-3.366000056E-1,1.062199950E0,7.539999485E-2
3.514000000E0,-2.313999981E-1,1.105499983E0,-6.031000018E-1
3.543998437E0,-2.507999837E-1,1.203799963E0,-1.165400028E0
3.563998437E0,-2.118999958E-1,1.205600023E0,-1.026700020E0
3.583998437E0,-3.465999961E-1,1.386299968E0,-1.046000004E0
3.603998437E0,-1.916999966E-1,1.368699908E0,-7.048999667E-1
3.624000000E0,2.436999977E-1,5.625999570E-1,5.309999585E-1
3.653998437E0,3.819999844E-2,-4.113000035E-1,1.954299927E0
3.673998437E0,-6.922000051E-1,-5.005999804E-1,1.242299914E0
3.693998437E0,-1.069000006E0,1.711999923E-1,-5.120999813E-1
3.713998437E0,2.347999960E-1,-4.212999940E-1,-1.513799906E0
3.733998437E0,1.348599911E0,-1.071599960E0,-2.660000026E-1
3.753998437E0,1.133800030E0,-1.332999945E0,2.844799995E0
3.773998437E0,2.311999947E-1,-5.212999582E-1,4.050600052E0
3.793998437E0,-4.699999932E-3,3.592999876E-1,2.430199862E0
3.813998437E0,2.775999904E-1,1.072999954E0,3.445999920E-1
3.834000000E0,7.750999928E-1,1.427599907E0,-1.333799958E0
3.854000000E0,8.262000084E-1,1.575500011E0,-1.923099995E0
3.884000000E0,3.404999971E-1,1.186299920E0,-1.085600019E0
3.913998437E0,-2.212999910E-1,4.803999960E-1,-5.983999968E-1
3.933998437E0,-5.410999656E-1,3.474999964E-1,-4.418999851E-1
3.954000000E0,-4.544999897E-1,1.995999962E-1,-6.818000078E-1
3.983998437E0,-1.409999933E-2,1.904999912E-1,-1.875699997E0
4.003998437E0,2.133999914E-1,2.621999979E-1,-2.471999884E0
4.024000000E0,8.179999888E-2,2.858999968E-1,-2.531599998E0
4.053998437E0,-3.517999947E-1,3.368999958E-1,-2.369799852E0
4.073998437E0,-2.157999873E-1,3.814999759E-1,-2.407599926E0
4.093998437E0,1.771000028E-1,3.333999813E-1,-2.287499905E0
4.113998437E0,5.378999710E-1,1.779999882E-1,-1.567399979E0
4.133998437E0,5.788999796E-1,6.179999933E-2,-4.630999863E-1
4.153998437E0,9.839999676E-2,3.411999941E-1,1.422999948E-1
4.173998437E0,-5.026999712E-1,1.241699934E0,3.450999856E-1
4.193998437E0,2.139999904E-2,1.469299912E0,4.590999782E-1
4.213998437E0,8.495000005E-1,1.144099951E0,7.430999875E-1
4.233998437E0,1.579999924E-1,1.028299928E0,1.296000004E0
4.253998437E0,-1.020200014E0,3.123999834E-1,1.412199974E0
4.273998437E0,-1.448099971E0,-5.327000022E-1,1.132900000E0
4.293998437E0,-1.263800025E0,-8.294999599E-1,1.131899953E0
4.313998437E0,-7.635999918E-1,-4.924999774E-1,1.601099968E0
4.333998437E0,-3.585000038E-1,1.340000033E-1,1.624899983E0
4.353998437E0,3.504000008E-1,4.958999753E-1,1.187999964E0
4.373998437E0,6.958000064E-1,6.595000029E-1,8.538999557E-1
4.393998437E0,3.164999783E-1,7.476999760E-1,6.212999821E-1
4.413998437E0,-2.705000043E-1,8.170999885E-1,1.633999944E-1
4.433998437E0,-6.405999660E-1,8.704999685E-1,-2.531000078E-1
4.453998437E0,-6.766999960E-1,9.833999872E-1,-4.046999812E-1
4.473998437E0,-6.365999579E-1,1.199899912E0,-6.724999547E-1
4.493998437E0,-4.435999990E-1,1.233099937E0,-1.247099996E0
4.513998437E0,-2.612999976E-1,1.110000014E0,-1.544899940E0
4.533998437E0,-2.940999866E-1,8.540999889E-1,-1.547099948E0
4.553998437E0,-4.100999832E-1,4.782999754E-1,-1.399199963E0
4.573998437E0,-3.136999905E-1,3.217999935E-1,-1.614799976E0
4.593998437E0,2.390999943E-1,3.303000033E-1,-1.856699944E0
4.623998437E0,6.784999967E-1,1.727000028E-1,-1.100199938E0
4.643998437E0,3.896999955E-1,4.301999807E-1,-6.977999806E-1
4.673998437E0,5.069999769E-2,4.247999787E-1,-2.638999820E-1
4.693998437E0,5.799999926E-3,2.184999883E-1,3.895999789E-1
4.713998437E0,-1.773999929E-1,1.388999969E-1,2.012799978E0
4.733998437E0,-3.100999892E-1,-2.395000011E-1,2.657299995E0
4.753998437E0,1.047099948E0,-1.313399911E0,2.119699955E0
4.773998437E0,2.281399965E0,-2.046299934E0,2.452199936E0
4.793998437E0,1.729999900E0,-2.123999834E0,4.628099918E0
4.813998437E0,5.959999561E-1,-1.388000011E0,5.494499683E0
4.833998437E0,-2.199999988E-2,-2.750000060E-1,3.476199865E0
4.853998437E0,3.134000003E-1,7.981999516E-1,5.809000134E-1
4.873998437E0,6.800000072E-1,1.402899981E0,-1.285599947E0
4.893998437E0,5.234000087E-1,1.380999923E0,-9.842999578E-1
4.913998437E0,2.699999837E-3,9.465999603E-1,-4.411000013E-1
4.933998437E0,-4.052000046E-1,4.927999973E-1,-1.809999943E-1
4.953998437E0,-6.317999959E-1,2.333000004E-1,-5.979999900E-1
4.973998437E0,-8.050999641E-1,1.401999891E-1,-1.350000024E0
4.994000000E0,-6.584999561E-1,1.562999934E-1,-1.598199964E0
5.023998437E0,-2.236000001E-1,2.270999998E-1,-1.686999917E0
5.043998437E0,8.159999549E-2,3.738999963E-1,-1.732800007E0
5.063998437E0,2.540999949E-1,4.417999983E-1,-1.454599977E0
5.083998437E0,5.959999934E-2,5.382999778E-1,-5.307999849E-1
5.103998437E0,-1.706999987E-1,6.930999756E-1,6.872999668E-1
5.123998437E0,-7.180000097E-2,8.197000027E-1,1.204800010E0
5.144000000E0,4.485999942E-1,4.682999849E-1,1.039700031E0
5.173998437E0,-6.693999767E-1,8.407999873E-1,1.457799911E0
5.193998437E0,-8.327999711E-1,6.083999872E-1,1.758399963E0
5.213998437E0,3.154999912E-1,-3.946000040E-1,2.239899874E0
5.233998437E0,-1.695999950E-1,-7.339999676E-1,3.142299891E0
5.253998437E0,-1.846699953E0,-3.414999843E-1,2.818199873E0
5.273998437E0,-2.124699831E0,-3.039999902E-1,9.174999595E-1
5.293998437E0,-1.324000001E0,-2.199999988E-1,-2.644999921E-1
5.313998437E0,-2.805999815E-1,-5.381999612E-1,1.946000010E-1
5.333998437E0,-2.131000012E-1,-1.039999962E0,7.677999735E-1
5.353998437E0,-7.001999617E-1,-1.364399910E0,9.153999686E-1
5.373998437E0,-7.368999720E-1,-1.480099916E0,6.337999701E-1
5.393998437E0,-2.073999941E-1,-1.329699993E0,-6.199999712E-3
5.413998437E0,1.622999907E-1,-9.603999853E-1,-6.227999926E-1
5.433998437E0,3.093000054E-1,-6.017999649E-1,-1.158399940E0
5.453998437E0,3.868999779E-1,-4.592999816E-1,-1.622999907E0
5.473998437E0,4.118999839E-1,-3.043999970E-1,-1.960799932E0
5.494000000E0,5.090000033E-1,-3.592000008E-1,-1.927099943E0
5.523998437E0,5.819999576E-1,-4.865999818E-1,-1.543699980E0
5.544018750E0,6.261999607E-1,-4.619999826E-1,-1.387799978E0
5.573998437E0,5.979999900E-1,-4.688999951E-1,-1.106199980E0
5.593998437E0,5.422999859E-1,-4.220999777E-1,-7.080000043E-1
5.613998437E0,6.254000068E-1,-4.409999847E-1,-3.379999995E-1
5.633998437E0,7.088999748E-1,-2.885999978E-1,3.240000084E-2
5.653998437E0,5.421000123E-1,4.169999808E-2,6.374999881E-1
5.673998437E0,5.586999655E-1,3.261999786E-1,1.116599917E0
5.693998437E0,8.175999522E-1,5.918999910E-1,1.502299905E0
5.713998437E0,9.253000021E-1,9.325000048E-1,1.582399964E0
5.733998437E0,1.113399982E0,8.115999699E-1,9.102999568E-1
5.753998437E0,1.841399908E0,-1.305000037E-1,7.209999859E-2
5.773998437E0,2.566900015E0,-1.397199988E0,2.142999917E-1
5.793998437E0,2.246799946E0,-2.039399862E0,1.633399963E0
5.813998437E0,1.218400002E0,-2.087599993E0,3.138000011E0
5.833998437E0,8.576999903E-1,-1.715999961E0,2.927899837E0
5.853998437E0,1.230000019E0,-1.081799984E0,1.459900022E0
5.873998437E0,1.514899969E0,-4.958999753E-1,2.831999958E-1
5.893998437E0,1.258700013E0,-1.680999994E-1,-1.149999946E-1
5.913998437E0,7.111999989E-1,-1.129999980E-1,-5.455999970E-1
5.933998437E0,3.902999759E-1,-9.059999883E-2,-1.083199978E0
5.953998437E0,2.642999887E-1,-2.296999991E-1,-1.209999919E0
5.973998437E0,2.485999912E-1,-4.384000003E-1,-1.240800023E0
5.993998437E0,3.909999877E-2,-5.044999719E-1,-9.294999838E-1
6.013998437E0,-6.480000168E-2,-5.422999859E-1,-6.180999875E-1
6.033998437E0,1.747999936E-1,-4.686999917E-1,-5.971999764E-1
6.053998437E0,4.549999833E-1,-3.174999952E-1,-5.443999767E-1
6.073998437E0,5.239999890E-1,-9.189999849E-2,-7.039999962E-1
6.093998437E0,5.181999803E-1,2.444999963E-1,-8.715999722E-1
6.113998437E0,4.946999848E-1,4.476999938E-1,-1.030399919E0
6.133998437E0,3.316999972E-1,6.072999835E-1,-9.674999714E-1
6.153998437E0,-7.800000161E-2,7.051999569E-1,-6.856999993E-1
6.173998437E0,-3.475999832E-1,7.964999676E-1,-1.030000001E-1
6.193998437E0,-3.956999779E-1,8.534999490E-1,1.967999935E-1
6.213998437E0,-3.071999848E-1,8.687999845E-1,1.100999936E-1
6.233998437E0,-3.957999945E-1,8.205999732E-1,3.700000048E-2
6.253998437E0,-4.653999805E-1,6.215999722E-1,-2.489999868E-2
6.273998437E0,-1.599999964E-1,3.746999800E-1,1.850000024E-1
6.293998437E0,-3.115999997E-1,6.708999872E-1,3.427999914E-1
6.313998437E0,-5.442000031E-1,1.141799927E0,3.355999887E-1
6.333998437E0,-4.068999887E-1,1.094200015E0,3.005000055E-1
6.353998437E0,-3.084000051E-1,6.064999700E-1,6.031000018E-1
6.373998437E0,-1.974999905E-1,-4.179999828E-1,1.543099999E0
6.393998437E0,-6.552999616E-1,-1.099900007E0,2.329200029E0
6.413998437E0,-1.405300021E0,-8.835999966E-1,2.281399965E0
6.433998437E0,-1.280099988E0,-5.823999643E-1,8.985999823E-1
6.453998437E0,-1.486999989E-1,-5.511999726E-1,-5.504999757E-1
6.473998437E0,6.890999675E-1,-7.276999950E-1,-1.127099991E0
6.493998437E0,9.167999625E-1,-1.126699924E0,-7.594000101E-1
6.513998437E0,9.034999609E-1,-1.631999969E0,-1.819999963E-1
6.533998437E0,8.274999857E-1,-1.682199955E0,2.982999980E-1
6.553998437E0,7.227999568E-1,-1.487299919E0,8.150999546E-1
6.573998437E0,5.139999986E-1,-1.135399938E0,7.846999764E-1
6.593998437E0,2.717999816E-1,-6.642999649E-1,2.615000010E-1
6.613998437E0,1.271999925E-1,-2.439000010E-1,-6.383999586E-1
6.633998437E0,2.326999903E-1,2.089999989E-2,-1.221899986E0
6.653998437E0,3.783999979E-1,1.492999941E-1,-1.278499961E0
6.673998437E0,5.171999931E-1,2.777000070E-1,-1.210799932E0
6.693998437E0,5.284999609E-1,3.596999943E-1,-9.975000024E-1
6.713998437E0,6.376000047E-1,3.651999831E-1,-8.738999963E-1
6.733998437E0,6.441999674E-1,4.449999928E-1,-8.574999571E-1
6.753998437E0,3.369999826E-1,5.927999616E-1,-6.545000076E-1
6.773998437E0,4.629999772E-2,5.744000077E-1,-5.490999818E-1
6.793998437E0,-2.226999998E-1,4.764999747E-1,-4.324999750E-1
6.813998437E0,-3.422999978E-1,5.048999786E-1,-3.099999949E-2
6.833998437E0,-3.255999982E-1,4.759999812E-1,3.125999868E-1
6.853998437E0,-2.964999974E-1,3.270999789E-1,4.420999885E-1
6.873998437E0,-5.342000127E-1,2.903999984E-1,4.354999959E-1
6.893998437E0,-7.960000038E-1,3.967999816E-1,3.937999904E-1
6.913998437E0,-4.714999795E-1,4.526999891E-1,5.092999935E-1
6.933998437E0,-2.791000009E-1,7.087999582E-1,1.074499965E0
6.953998437E0,-1.099999994E-2,9.099999666E-1,1.231999993E0
6.973998437E0,8.955000043E-1,4.087999761E-1,7.389999628E-1
6.993998437E0,1.583099961E0,-2.471999973E-1,8.849999905E-1
7.013998437E0,1.106799960E0,-8.113999963E-1,1.977699995E0
7.033998437E0,-4.769999906E-2,-1.006699920E0,2.331300020E0
7.053998437E0,-1.891999990E-1,-1.264400005E0,1.247099996E0
7.073998437E0,5.063999891E-1,-1.371500015E0,-9.429999441E-2
7.093998437E0,1.096400023E0,-1.515799999E0,-3.761000037E-1
7.113998437E0,6.103000045E-1,-1.422899961E0,2.949000001E-1
7.133998437E0,-6.309999526E-2,-1.303499937E0,5.206999779E-1
7.153998437E0,-2.502000034E-1,-1.048599958E0,2.671999931E-1
7.173998437E0,2.869999968E-2,-9.535999894E-1,-1.317999959E-1
7.193998437E0,1.433999985E-1,-8.104999661E-1,-1.053999960E-1
7.213998437E0,-6.939999759E-2,-6.028999686E-1,4.289999977E-2
7.233998437E0,-1.767999977E-1,-3.563999832E-1,-2.866999805E-1
7.253998437E0,-2.060000040E-2,-5.389999971E-2,-7.893999815E-1
7.273998437E0,2.509000003E-1,2.723000050E-1,-1.028999925E0
7.293998437E0,6.324999928E-1,4.069999754E-1,-9.300999641E-1
7.313998437E0,8.292999864E-1,5.593999624E-1,-9.522999525E-1
7.333998437E0,9.633999467E-1,4.296000004E-1,-9.756000042E-1
7.353998437E0,9.984999895E-1,3.432999849E-1,-1.000399947E0
7.373998437E0,9.472999573E-1,2.080999911E-1,-8.314999938E-1
7.393998437E0,7.570999861E-1,9.829999506E-2,-4.668999910E-1
7.413998437E0,6.893000007E-1,7.109999657E-2,-1.978999972E-1
7.433998437E0,8.263999820E-1,5.020000041E-2,1.559999958E-2
7.453998437E0,1.079399943E0,4.360000044E-2,2.399999946E-1
7.473998437E0,1.333199978E0,1.116999984E-1,4.549999833E-1
7.493998437E0,1.274799943E0,1.657999903E-1,5.342000127E-1
7.513998437E0,1.206399918E0,1.286000013E-1,5.360000134E-1
7.533998437E0,9.849999547E-1,1.040999964E-1,5.756999850E-1
7.554000000E0,3.680000007E-1,5.179999769E-2,6.511999965E-1
7.583998437E0,-6.383000016E-1,-3.869999945E-2,8.353999853E-1
7.603998437E0,-7.253999710E-1,-1.252000034E-1,8.840000033E-1
7.624000000E0,-6.157000065E-1,-5.169999599E-1,1.010999918E0
7.653998437E0,-1.122799993E0,-9.114999771E-1,6.836000085E-1
7.673998437E0,-9.265999794E-1,-8.262000084E-1,-3.289999962E-1
7.693998437E0,-8.989999443E-2,-9.025999904E-1,-1.323199987E0
7.714003125E0,5.845000148E-1,-1.094399929E0,-1.129999995E0
7.744000000E0,4.494999945E-1,-1.537099957E0,3.357000053E-1
7.773998437E0,2.133999914E-1,-1.440299988E0,2.410999984E-1
7.793998437E0,5.374000072E-1,-1.057899952E0,-3.675999939E-1
7.813998437E0,4.199999869E-1,-4.075999856E-1,-5.569999814E-1
7.833998437E0,-1.669999957E-1,3.849999979E-2,-7.087999582E-1
7.853998437E0,-3.745999932E-1,2.161999941E-1,-1.019799948E0
7.873998437E0,-1.041999981E-1,2.212999910E-1,-1.094300032E0
7.893998437E0,5.900000036E-2,1.264999956E-1,-8.481000066E-1
7.913998437E0,6.459999830E-2,1.599999890E-2,-3.899999857E-1
7.933998437E0,-7.400000095E-2,6.390000135E-2,-1.386999935E-1
7.953998437E0,-4.939999804E-2,1.200999990E-1,-1.494999975E-1
7.973998437E0,-8.200000040E-3,2.129999995E-1,-1.303000003E-1
7.993998437E0,5.999999866E-2,4.195999801E-1,-2.340999991E-1
8.013998437E0,2.116999924E-1,6.017000079E-1,-4.244000018E-1
8.033998437E0,1.762999892E-1,7.619000077E-1,-5.159999728E-1
8.053998437E0,2.209999971E-2,8.881999850E-1,-6.750999689E-1
8.073998437E0,8.599999361E-3,8.608999848E-1,-8.033999801E-1
8.093998437E0,3.130000085E-2,9.278999567E-1,-6.694999933E-1
8.113998437E0,1.679999977E-1,7.915999889E-1,-3.136999905E-1
8.133998437E0,7.809999585E-2,6.882999539E-1,4.109999910E-2
8.153998437E0,-1.819999963E-1,5.476999879E-1,3.463000059E-1
8.173998437E0,-4.969999790E-1,5.185999870E-1,4.082999825E-1
8.193998437E0,-5.805999637E-1,6.161000133E-1,6.083999872E-1
8.213998437E0,-3.526999950E-1,7.534999847E-1,7.100999951E-1
8.233998437E0,-6.949999928E-2,8.210999966E-1,6.649000049E-1
8.253998437E0,1.913999915E-1,7.198999524E-1,5.363000035E-1
8.273998437E0,4.611999989E-1,3.604999781E-1,1.244699955E0
8.293998437E0,4.666999876E-1,-9.449999779E-2,2.453399897E0
8.313998437E0,4.754999876E-1,-3.851999938E-1,3.256299973E0
8.333998437E0,8.032000065E-1,-5.695999861E-1,2.420399904E0
8.353998437E0,1.153399944E0,-8.364999890E-1,6.261999607E-1
8.373998437E0,1.559599996E0,-1.282599926E0,-6.530999541E-1
8.393998437E0,1.726300001E0,-1.672899961E0,-4.767999947E-1
8.414000000E0,1.195099950E0,-1.955799937E0,1.656000018E-1
8.443998437E0,2.131000012E-1,-1.744899988E0,2.529999912E-1
8.463998437E0,1.313000023E-1,-1.243700027E0,-1.206999943E-1
8.483998437E0,3.799999952E-1,-6.586999893E-1,-5.306999683E-1
8.503998437E0,5.245999694E-1,-2.709999979E-1,-7.841999531E-1
8.523998437E0,5.256000161E-1,-3.189999983E-2,-1.096499920E0
8.543998437E0,5.259000063E-1,5.559999868E-2,-1.437199950E0
8.563998437E0,5.248999596E-1,1.290999949E-1,-1.514499903E0
8.583998437E0,4.599999785E-1,1.136000007E-1,-1.328999996E0
8.603998437E0,3.261999786E-1,3.590000048E-2,-1.066599965E0
8.623998437E0,1.963000000E-1,-7.129999995E-2,-8.632999659E-1
8.643998437E0,5.249999836E-2,5.499999970E-3,-8.066999912E-1
8.663998437E0,4.999999702E-2,1.115999967E-1,-7.597000003E-1
8.683998437E0,5.069999769E-2,2.829000056E-1,-5.669999719E-1
8.703998437E0,-3.449999914E-2,5.674999952E-1,-4.809999764E-1
8.723998437E0,9.699999355E-3,8.202999830E-1,-4.334999919E-1
8.743998437E0,1.116999984E-1,9.763999581E-1,-1.411999911E-1
8.763998437E0,1.536999941E-1,1.072399974E0,2.099999934E-1
8.783998437E0,2.187999934E-1,1.030900002E0,4.363999963E-1
8.803998437E0,3.897999823E-1,9.231999516E-1,4.878999889E-1
8.824000000E0,5.784999728E-1,7.225999832E-1,7.930999994E-1
8.853998437E0,2.062999904E-1,6.805999875E-1,1.468099952E0
8.873998437E0,-2.647999823E-1,1.026000023E0,1.323300004E0
8.894000000E0,-4.007000029E-1,1.372099996E0,9.972999692E-1
8.914000000E0,-7.899999619E-3,1.245899916E0,8.084999919E-1
8.943998437E0,-1.231999993E-1,3.000999987E-1,1.423099995E0
8.963998437E0,-5.886999965E-1,-7.231000066E-1,2.225899935E0
8.983998437E0,-1.092199922E0,-1.090700030E0,2.418599844E0
9.003998437E0,-1.190799952E0,-1.074599981E0,9.657999873E-1
9.024000000E0,-4.442999959E-1,-9.750999808E-1,-7.066000104E-1
9.054000000E0,8.305999637E-1,-1.260399938E0,-8.237999678E-1
9.083998437E0,3.975999951E-1,-1.752999902E0,4.733999968E-1
9.103998437E0,-1.254999936E-1,-1.687500000E0,6.548999548E-1
9.123998437E0,-9.779999405E-2,-1.449699998E0,3.920000046E-2
9.143998437E0,1.282999963E-1,-9.878999591E-1,-6.290000081E-1
9.163998437E0,1.223999932E-1,-5.762999654E-1,-1.342899919E0
9.183998437E0,-1.081999987E-1,-2.689999938E-1,-2.064399958E0
9.203998437E0,-1.328999996E-1,-1.474999934E-1,-2.533699989E0
9.223998437E0,-3.539999947E-2,-2.231999934E-1,-2.305500031E0
9.243998437E0,-4.979999736E-2,-3.968999982E-1,-1.380199909E0
9.263998437E0,-2.245000005E-1,-3.856999874E-1,-6.438999772E-1
9.284000000E0,-1.419999897E-1,-2.748000026E-1,-4.350999892E-1
9.313998437E0,1.367999911E-1,1.614999920E-1,-7.574999928E-1
9.333998437E0,3.262999952E-1,4.235000014E-1,-9.106999636E-1
9.353998437E0,2.353999913E-1,6.075999737E-1,-6.747999787E-1
9.373998437E0,-5.639999732E-2,7.035999894E-1,-4.782999754E-1
9.393998437E0,-2.017000020E-1,6.913999915E-1,-6.123999953E-1
9.413998437E0,-3.479000032E-1,7.155999541E-1,-6.574000120E-1
9.433998437E0,-3.941999972E-1,5.783999562E-1,-3.633999825E-1
9.453998437E0,-4.576999843E-1,5.842999816E-1,1.218999997E-1
9.473998437E0,-4.591999948E-1,5.934000015E-1,5.248999596E-1
9.493998437E0,-5.558999777E-1,6.990999579E-1,1.004099965E0
9.513998437E0,-4.025999904E-1,6.250000000E-1,1.658299923E0
9.533998437E0,1.712999940E-1,2.513999939E-1,2.103800058E0
9.553998437E0,1.016299963E0,-1.598999947E-1,2.103199959E0
9.573998437E0,2.262599945E0,-1.128199935E0,2.066200018E0
9.593998437E0,2.301699877E0,-1.663800001E0,2.220399857E0
9.613998437E0,1.409799933E0,-1.816199899E0,2.417599916E0
9.633998437E0,1.293399930E0,-1.925499916E0,2.277600050E0
9.653998437E0,2.035500050E0,-1.927299976E0,1.861599922E0
9.673998437E0,2.242199898E0,-1.620199919E0,1.104399920E0
9.694000000E0,1.574899912E0,-1.205799937E0,5.995000005E-1
9.714000000E0,7.917999625E-1,-9.754999876E-1,3.425999880E-1
9.743998437E0,3.141999841E-1,-7.066999674E-1,-2.800000012E-1
9.763998437E0,1.243999973E-1,-5.411999822E-1,-6.258000135E-1
9.783998437E0,-6.449999660E-2,-4.872999787E-1,-7.938999534E-1
9.803998437E0,-1.929999888E-1,-4.308999777E-1,-1.057999969E0
9.823998437E0,-1.489000022E-1,-3.204999864E-1,-1.291299939E0
9.843998437E0,-8.999999613E-2,-6.189999729E-2,-1.279899955E0
9.863998437E0,-8.839999884E-2,6.099999882E-3,-1.414399981E0
9.883998437E0,-1.517999917E-1,-8.100000210E-3,-1.606599927E0
9.903998437E0,-1.631999910E-1,-1.430999935E-1,-1.477100015E0
9.923998437E0,-3.640999794E-1,-2.601000071E-1,-1.173300028E0
9.943998437E0,-4.949999750E-1,-3.231000006E-1,-6.354999542E-1
9.963998437E0,-5.051000118E-1,-3.531000018E-1,-2.430000007E-1
9.983998437E0,-5.241999626E-1,-3.116999865E-1,-1.595999897E-1
1.000399844E1,-3.114999831E-1,-2.692999840E-1,2.730000019E-2
1.002399844E1,-2.543999851E-1,-1.700000018E-1,4.573999941E-1
1.004399844E1,-7.597999573E-1,2.476999909E-1,6.347000003E-1
1.006399844E1,-5.076000094E-1,2.265999913E-1,4.095999897E-1
1.008399844E1,1.213799953E0,-9.131999612E-1,1.202199936E0
1.010399844E1,1.264999986E0,-1.439899921E0,2.852099895E0
1.012399844E1,-6.263999939E-1,-1.090999961E0,3.618199825E0
1.014399844E1,-2.093499899E0,-3.565999866E-1,1.627900004E0
1.016399844E1,-1.419399977E0,3.379999846E-2,-8.634999990E-1
1.018399844E1,-3.576000035E-1,2.962000072E-1,-2.108000040E0
1.020399844E1,6.480000168E-2,5.099999718E-3,-1.499300003E0
1.022399844E1,-6.689999998E-2,-1.097800016E0,3.109999932E-2
1.024399844E1,-6.340000033E-1,-1.767899990E0,1.160499930E0
1.026399844E1,-8.287999630E-1,-2.147399902E0,1.611699939E0
1.028400000E1,-5.985000134E-1,-2.083799839E0,1.411899924E0
1.031399844E1,-4.129999876E-1,-1.297500014E0,4.769999981E-1
1.033399844E1,-5.606999993E-1,-7.655999660E-1,-3.829999864E-1
1.035399844E1,-5.076999664E-1,-4.944999814E-1,-1.257599950E0
1.037399844E1,-2.936999798E-1,-3.718999922E-1,-2.033699989E0
1.039399844E1,-4.030000046E-2,-3.910000026E-1,-2.137599945E0
1.041399844E1,-5.240000039E-2,-4.756999910E-1,-1.418099999E0
1.043399844E1,-2.010999918E-1,-5.392999649E-1,-1.006099939E0
1.045399844E1,-2.078000009E-1,-3.300999999E-1,-8.847000003E-1
1.047400000E1,-2.689999901E-2,-9.239999950E-2,-1.025200009E0
1.049400000E1,-1.040000003E-2,1.221999973E-1,-9.317999482E-1
1.052399844E1,-2.494999915E-1,1.447999924E-1,-4.917999804E-1
1.054399844E1,-2.534999847E-1,7.999999821E-2,-2.626999915E-1
1.056399844E1,-2.029999942E-1,-1.719999872E-2,-7.259999961E-2
1.058399844E1,-2.935999930E-1,-1.136000007E-1,1.270000041E-1
1.060399844E1,-4.396999776E-1,-2.869999968E-2,3.522999883E-1
1.062399844E1,-7.540999651E-1,3.923999965E-1,7.536000013E-1
1.064399844E1,-9.262999892E-1,8.047999740E-1,1.181599975E0
1.066399844E1,-5.300999880E-1,4.690999985E-1,1.495499969E0
1.068399844E1,-1.709999889E-2,8.669999987E-2,1.961299896E0
1.070399844E1,3.946000040E-1,-4.557999969E-1,2.740000010E0
1.072399844E1,6.926000118E-1,-9.548999667E-1,3.120899916E0
1.074399844E1,5.611000061E-1,-9.143999815E-1,2.677299976E0
1.076399844E1,5.442999601E-1,-9.314999580E-1,1.277699947E0
1.078399844E1,9.747999907E-1,-1.012899995E0,2.395000011E-1
1.080399844E1,1.538199902E0,-1.133000016E0,5.559999868E-2
1.082399844E1,1.561399937E0,-1.267799973E0,4.618999958E-1
1.084399844E1,9.788999557E-1,-1.498099923E0,6.959999800E-1
1.086399844E1,2.397999913E-1,-1.285399914E0,5.569999814E-1
1.088399844E1,-1.451999992E-1,-8.837999701E-1,-1.564999968E-1
1.090399844E1,1.420000009E-2,-5.256999731E-1,-9.644999504E-1
1.092399844E1,4.839999974E-2,-2.316999882E-1,-1.243999958E0
1.094400000E1,-9.009999782E-2,-2.061999887E-1,-1.407299995E0
1.097399844E1,-1.472000033E-1,-1.397999972E-1,-1.666499972E0
1.099399844E1,-6.149999797E-2,-6.459999830E-2,-1.587099910E0
1.101399844E1,-1.070000008E-1,4.179999977E-2,-1.294899940E0
1.103399844E1,-1.645999998E-1,5.049999803E-2,-9.833999872E-1
1.105399844E1,-1.149000004E-1,8.009999990E-2,-1.013000011E0
1.107399844E1,-6.419999897E-2,1.783999950E-1,-9.837999940E-1
1.109399844E1,8.999999845E-4,2.962999940E-1,-7.116999626E-1
1.111399844E1,-6.819999963E-2,4.715999961E-1,-5.102999806E-1
1.113399844E1,-1.348000020E-1,6.750000119E-1,-5.733000040E-1
1.115399844E1,-1.423999965E-1,9.141999483E-1,-6.550999880E-1
1.117399844E1,-2.151999921E-1,1.115000010E0,-5.507000089E-1
1.119399844E1,-1.902999878E-1,1.215999961E0,-2.496999949E-1
1.121399844E1,-6.819999963E-2,1.072799921E0,1.420000009E-2
1.123399844E1,-9.759999812E-2,7.922999859E-1,4.057999849E-1
1.125399844E1,-9.879999608E-2,4.023999870E-1,6.900999546E-1
1.127399844E1,7.750000060E-2,1.753000021E-1,1.004899979E0
1.129400000E1,2.450999916E-1,1.130999997E-1,1.104599953E0
1.131400000E1,-1.158000007E-1,5.928999782E-1,9.591999650E-1
1.134399844E1,-1.453000009E-1,1.015599966E0,9.588999748E-1
1.136399844E1,-1.002999991E-1,9.560999870E-1,1.217999935E0
1.138399844E1,-4.099999741E-2,3.465999961E-1,2.022599936E0
1.140399844E1,-9.519999474E-2,-2.894999981E-1,2.812999964E0
1.142399844E1,-2.682999969E-1,-5.345000029E-1,2.731999874E0
1.144399844E1,-6.396999955E-1,-6.315999627E-1,1.116099954E0
1.146399844E1,-2.732000053E-1,-7.037000060E-1,-6.908999681E-1
1.148400000E1,3.062999845E-1,-9.038999677E-1,-1.220499992E0
1.150400000E1,6.990999579E-1,-1.248399973E0,-4.957999885E-1
1.153399844E1,5.374000072E-1,-1.742599964E0,1.485999972E-1
1.155399844E1,5.708000064E-1,-1.720199943E0,1.165999994E-1
1.157400000E1,5.702999830E-1,-1.329199910E0,-5.020000041E-2
1.160399844E1,5.031999946E-1,-6.855999827E-1,-8.465999961E-1
1.162399844E1,5.349999666E-1,-3.078999817E-1,-1.730799913E0
1.164399844E1,5.546000004E-1,-6.499999762E-2,-2.261399984E0
1.166399844E1,5.408999920E-1,8.419999480E-2,-2.170799971E0
1.168399844E1,4.152999818E-1,1.334999949E-1,-1.848999977E0
1.170399844E1,4.443999827E-1,1.211999953E-1,-1.586699963E0
1.172399844E1,4.531999826E-1,2.045999914E-1,-1.559700012E0
1.174399844E1,3.438999951E-1,4.519999921E-1,-1.581900001E0
1.176399844E1,3.296999931E-1,5.309999585E-1,-1.295099974E0
1.178400000E1,1.728999913E-1,6.071000099E-1,-9.147999883E-1
1.181399844E1,-1.828999966E-1,6.661999822E-1,-2.827000022E-1
1.183399844E1,-4.891999960E-1,5.497999787E-1,1.429999992E-2
1.185399844E1,-6.292999983E-1,4.575999975E-1,-1.519999932E-2
1.187400000E1,-4.143999815E-1,2.457999885E-1,3.590000048E-2
1.189400000E1,-2.847999930E-1,1.357000023E-1,6.021999717E-1
1.191400000E1,-6.419999599E-1,2.778999805E-1,1.418200016E0
1.194399844E1,-9.113000035E-1,8.455999494E-1,1.526499987E0
1.196399844E1,1.648999900E-1,2.701999843E-1,1.474200010E0
1.198399844E1,1.234699965E0,-9.455999732E-1,2.243599892E0
1.200399844E1,1.402599931E0,-2.000400066E0,4.039299965E0
1.202399844E1,4.842999876E-1,-1.806800008E0,5.170700073E0
1.204399844E1,6.306999922E-1,-1.671399951E0,3.485599995E0
1.206399844E1,1.648699999E0,-1.419299960E0,7.637999654E-1
1.208399844E1,3.153100014E0,-1.362800002E0,-1.213400006E0
1.210399844E1,3.242799997E0,-1.128099918E0,-7.706999779E-1
1.212399844E1,2.199300051E0,-1.345899940E0,3.088999987E-1
1.214399844E1,8.032999635E-1,-1.060599923E0,2.908000052E-1
1.216399844E1,5.022999644E-1,-7.349999547E-1,-5.119999647E-1
1.218399844E1,8.283999562E-1,-3.887999952E-1,-1.454999924E0
1.220399844E1,1.087199926E0,-1.821999997E-1,-2.142299891E0
1.222399844E1,8.378999829E-1,4.329999909E-2,-2.488199949E0
1.224399844E1,6.068999767E-1,7.989999652E-2,-2.924199820E0
1.226399844E1,5.557000041E-1,1.419999897E-1,-3.011299849E0
1.228400000E1,2.621999979E-1,2.928999960E-1,-2.605299950E0
1.231399844E1,-4.589999840E-2,-3.199999919E-3,-2.112599850E0
1.233399844E1,-1.393000036E-1,-1.167999953E-1,-2.103499889E0
1.235399844E1,-2.212999910E-1,-1.335999966E-1,-2.007799864E0
1.237399844E1,-2.937999964E-1,-2.423999906E-1,-1.637699962E0
1.239399844E1,-2.201000005E-1,-2.678999901E-1,-1.521299958E0
1.241399844E1,-1.609999985E-1,-1.885000020E-1,-1.492599964E0
1.243399844E1,-5.549999699E-2,-2.038999945E-1,-1.523299932E0
1.245399844E1,-5.859999731E-2,-1.099999994E-1,-1.185299993E0
1.247399844E1,-7.229999453E-2,-2.675999999E-1,-2.615000010E-1
1.249399844E1,7.930000126E-2,-4.277999997E-1,6.642999649E-1
1.251399844E1,4.985999763E-1,-5.365999937E-1,1.419600010E0
1.253404219E1,3.910000026E-1,-4.825999737E-1,2.132799864E0
1.256399844E1,2.339999937E-2,-5.891000032E-1,3.623499870E0
1.258399844E1,-1.143999994E-1,-6.092000008E-1,4.563399792E0
1.260399844E1,-2.958000004E-1,-9.619999677E-2,4.586599827E0
1.262399844E1,-4.447000027E-1,3.400000036E-1,3.023399830E0
1.264399844E1,2.659999952E-2,5.465999842E-1,1.279299974E0
1.266399844E1,4.235999882E-1,9.549999833E-1,6.730999947E-1
1.268399844E1,8.610000014E-1,8.290999532E-1,1.396999955E0
1.270399844E1,7.166999578E-1,5.722000003E-1,2.295500040E0
1.272399844E1,4.163999856E-1,2.951999903E-1,2.350199938E0
1.274399844E1,4.687999785E-1,-5.680000037E-2,1.505499959E0
1.276399844E1,9.326999784E-1,-2.182999998E-1,3.985999823E-1
1.278400000E1,1.064599991E0,-1.666999906E-1,-2.466999888E-1
1.281399844E1,3.111999929E-1,9.799999744E-2,-9.309999943E-1
1.283399844E1,1.340000033E-1,1.315999925E-1,-1.654099941E0
1.285399844E1,4.301999807E-1,1.189999953E-1,-2.375200033E0
1.287399844E1,5.791000128E-1,1.799999923E-1,-2.634099960E0
1.289400000E1,5.123000145E-1,1.115999967E-1,-2.825799942E0
1.292399844E1,5.860999823E-1,2.545999885E-1,-2.867300034E0
1.294399844E1,8.459999561E-1,3.421999812E-1,-2.363800049E0
1.296399844E1,1.026199937E0,3.585999906E-1,-1.852199912E0
1.298399844E1,9.095999599E-1,4.640999734E-1,-1.439899921E0
1.300399844E1,7.092999816E-1,5.442000031E-1,-9.009000063E-1
1.302399844E1,2.321999967E-1,5.652999878E-1,-8.929999918E-2
1.304399844E1,-3.195999861E-1,2.300999910E-1,1.530799985E0
1.306399844E1,-5.363000035E-1,4.403999746E-1,3.395299911E0
1.308399844E1,-3.116999865E-1,5.940999985E-1,4.821000099E0
1.310399844E1,-7.084000111E-1,9.581999779E-1,4.174399853E0
1.312399844E1,-4.885999858E-1,1.023100019E0,3.600699902E0
1.314399844E1,1.689999998E-1,9.552999735E-1,3.878199816E0
1.316399844E1,2.796999812E-1,2.953000069E-1,4.320699692E0
1.318399844E1,2.369999886E-2,-5.785999894E-1,3.442099810E0
1.320399844E1,9.634999633E-1,-1.314700007E0,2.870599985E0
1.322399844E1,1.882699966E0,-1.649899960E0,3.162499905E0
1.324400000E1,1.534299970E0,-1.726300001E0,2.781399965E0
1.326400000E1,1.023499966E0,-1.776600003E0,1.679199934E0
1.328400000E1,8.062999845E-1,-1.947499990E0,-5.008000135E-1
1.331400000E1,4.872999787E-1,-1.519099951E0,-1.460600019E0
1.334399844E1,5.037999749E-1,-1.477699995E0,-3.107100010E0
1.336399844E1,5.011000037E-1,-1.031599998E0,-4.320699692E0
1.338400000E1,1.235999987E-1,-3.567000031E-1,-5.032700062E0
1.341400000E1,1.101999953E-1,-2.219999954E-2,-4.469399929E0
1.343400000E1,-1.284999996E-1,1.410000026E-1,-4.038700104E0
1.346399844E1,-4.829999804E-2,1.600999981E-1,-4.606100082E0
1.348399844E1,-4.986999929E-1,3.826999962E-1,-3.335999966E0
1.350399844E1,-1.388999969E-1,5.959999561E-1,-2.364799976E0
1.352399844E1,1.481999904E-1,7.461000085E-1,-1.216899991E0
1.354399844E1,1.369999945E-1,8.281999826E-1,-6.808999777E-1
1.356399844E1,-3.055999875E-1,8.986999989E-1,1.413999945E-1
1.358399844E1,-2.845999897E-1,8.341999650E-1,7.469999790E-1
1.360399844E1,-2.732999921E-1,5.198999643E-1,1.582000017E0
1.362399844E1,-3.067999780E-1,-1.539999992E-2,2.639400005E0
1.364399844E1,4.065999985E-1,-1.414299965E0,5.681600094E0
1.366399844E1,1.338000000E-1,-2.746700048E0,7.444299698E0
1.368399844E1,-1.597299933E0,-2.668999910E0,5.395799637E0
1.370399844E1,-2.777499914E0,-1.972199917E0,2.592299938E0
1.372399844E1,-1.650599957E0,-1.580599904E0,1.789799929E0
1.374399844E1,1.939999908E-1,-1.599799991E0,1.662199974E0
1.376399844E1,-1.889999956E-2,-1.278399944E0,1.085299969E0
1.378400000E1,-1.061100006E0,-1.113899946E0,2.912999988E-1
1.381399844E1,-1.102200031E0,-6.984999776E-1,-1.068199992E0
1.383399844E1,-3.680000007E-1,-3.607999980E-1,-2.325899839E0
1.385399844E1,-1.937000006E-1,-7.710000128E-2,-2.567100048E0
1.387399844E1,-3.161000013E-1,-6.309999526E-2,-2.065000057E0
1.389400000E1,-2.527999878E-1,-1.621000022E-1,-2.169199944E0
1.391400000E1,-3.563999832E-1,4.669999704E-2,-2.865499973E0
1.394400000E1,4.467999935E-1,1.928000003E-1,-2.745899916E0
1.397399844E1,1.861999929E-1,3.720999956E-1,-1.748099923E0
1.399399844E1,-1.166999936E-1,2.277999967E-1,-1.356699944E0
1.401399844E1,-3.659999967E-1,2.621999979E-1,-1.423599958E0
1.403399844E1,-5.719999671E-1,3.619000018E-1,-1.409999967E0
1.405399844E1,-4.821999967E-1,4.596999884E-1,-9.853000045E-1
1.407399844E1,-7.819999754E-2,2.843999863E-1,4.429999739E-2
1.409399844E1,7.679999620E-2,-4.959999770E-2,1.598999977E0
1.411399844E1,-2.622999847E-1,-3.567999899E-1,2.241999865E0
1.413399844E1,-8.510999680E-1,-2.359999903E-2,1.624499917E0
1.415399844E1,-1.327600002E0,7.418999672E-1,1.653999925E0
1.417399844E1,-6.607999802E-1,5.931000113E-1,2.640599966E0
1.419399844E1,1.126799941E0,-8.527999520E-1,3.633999825E0
1.421400000E1,1.158999920E0,-1.748099923E0,4.519000053E0
1.424399844E1,-4.827999771E-1,-2.155400038E0,3.836099863E0
1.426399844E1,-3.574999869E-1,-1.595099926E0,1.927599907E0
1.428399844E1,9.226999879E-1,-1.180999994E0,5.256000161E-1
1.430399844E1,1.201699972E0,-8.015999794E-1,-6.199999712E-3
1.432400000E1,5.977999568E-1,-5.590000153E-1,-2.588000000E-1
1.434400000E1,-1.361999959E-1,-4.882999957E-1,-5.543000102E-1
1.437399844E1,-5.148999691E-1,-2.753999829E-1,-1.429499984E0
1.439399844E1,-7.513999939E-1,-8.329999447E-2,-1.707799911E0
1.441399844E1,-9.291999936E-1,6.069999933E-2,-1.956999898E0
1.443399844E1,-8.722999692E-1,1.796000004E-1,-2.301499844E0
1.445399844E1,-8.428999782E-1,3.759000003E-1,-2.742100000E0
1.447399844E1,-8.317999840E-1,3.962000012E-1,-2.546099901E0
1.449400000E1,-9.207999706E-1,3.457999825E-1,-2.205100060E0
1.451400000E1,-9.542999864E-1,5.091999769E-1,-2.187299967E0
1.454399844E1,-8.284999728E-1,7.847999930E-1,-1.689199924E0
1.456399844E1,-6.111999750E-1,8.754999638E-1,-1.121599913E0
1.458399844E1,-3.764999807E-1,9.141999483E-1,-6.013999581E-1
1.460399844E1,-2.939999998E-1,8.330999613E-1,-8.839999884E-2
1.462399844E1,-1.979999989E-1,9.086999893E-1,4.858999848E-1
1.464399844E1,-8.240000159E-2,8.032000065E-1,9.842999578E-1
1.466399844E1,-1.097999960E-1,3.802999854E-1,1.481999993E0
1.468399844E1,-8.273999691E-1,3.576999903E-1,1.382699966E0
1.470399844E1,-1.134400010E0,1.679999977E-1,1.368899941E0
1.472399844E1,6.749999523E-2,-1.090700030E0,2.975600004E0
1.474399844E1,-1.386999935E-1,-1.789799929E0,4.439699650E0
1.476399844E1,-1.069299936E0,-2.330499887E0,4.219199657E0
1.478399844E1,-1.937099934E0,-2.525499821E0,1.729900002E0
1.480399844E1,-1.842899919E0,-2.443500042E0,2.931999862E-1
1.482399844E1,-1.061699986E0,-2.152999878E0,1.118099928E0
1.484399844E1,-1.105899930E0,-1.548999906E0,1.638599992E0
1.486399844E1,-1.337000012E0,-1.086400032E0,8.495999575E-1
1.488399844E1,-1.147699952E0,-7.055000067E-1,-4.702999890E-1
1.490399844E1,-7.267000079E-1,-4.621999860E-1,-1.658999920E0
1.492399844E1,-3.199999928E-1,-2.477999926E-1,-2.172800064E0
1.494399844E1,-5.069999769E-2,-1.445999891E-1,-2.334499836E0
1.496399844E1,2.653999925E-1,-8.289999515E-2,-2.476199865E0
1.498399844E1,6.157999635E-1,-1.165999994E-1,-2.643999815E0
1.500399844E1,8.777999878E-1,-2.465000004E-1,-2.858999968E0
1.502399844E1,8.718000054E-1,-2.409999967E-1,-2.780799866E0
1.504399844E1,6.301999688E-1,-9.539999813E-2,-2.264499903E0
1.506399844E1,6.538999677E-1,4.899999872E-2,-1.856199980E0
1.508399844E1,6.158999801E-1,1.814000010E-1,-1.290699959E0
1.510399844E1,3.801999986E-1,1.983999908E-1,-8.108999729E-1
1.512399844E1,3.987999856E-1,2.190000005E-2,-1.924999952E-1
1.514399844E1,4.087999761E-1,-3.350000083E-2,9.147999883E-1
1.516399844E1,2.599000037E-1,1.973999888E-1,2.069999933E0
1.518399844E1,-1.903999895E-1,8.014999628E-1,2.558500051E0
1.520399844E1,-3.795000017E-1,1.047600031E0,2.851199865E0
1.522399844E1,-2.552999854E-1,8.583999872E-1,3.292299986E0
1.524399844E1,7.497000098E-1,-1.186999977E-1,3.923399925E0
1.526399844E1,2.345000029E0,-1.447199941E0,3.978999853E0
1.528400000E1,2.615700006E0,-2.568300009E0,3.667699814E0
1.531399844E1,1.804099917E0,-3.011699915E0,2.423599958E0
1.533399844E1,1.928499937E0,-2.498399973E0,1.383299947E0
1.535399844E1,2.414899826E0,-1.985099912E0,3.761000037E-1
1.537399844E1,1.812099934E0,-1.487299919E0,7.459999621E-2
1.539399844E1,6.482999921E-1,-1.070299983E0,1.533999890E-1
1.541399844E1,-1.284999996E-1,-7.530999780E-1,-3.554999828E-1
1.543399844E1,-5.113999844E-1,-4.504999816E-1,-1.430799961E0
1.545399844E1,-8.588999510E-1,-1.006999984E-1,-2.494299889E0
1.547399844E1,-1.119199991E0,2.319999933E-1,-3.146199942E0
1.549400000E1,-1.078899980E0,4.379999936E-1,-3.092900038E0
1.551400000E1,-8.658999801E-1,5.155000091E-1,-2.940799952E0
1.553400000E1,-8.352999687E-1,4.989999831E-1,-2.815399885E0
1.555400313E1,-8.975999951E-1,3.904999793E-1,-2.970599890E0
1.558399844E1,-6.500999928E-1,2.870000005E-1,-2.682099819E0
1.560399844E1,-4.824999869E-1,2.258999944E-1,-1.867799997E0
1.562399844E1,-3.750000000E-1,3.486999869E-1,-1.229499936E0
1.564399844E1,-9.510000050E-2,7.415999770E-1,-5.200999975E-1
1.566399844E1,1.119999960E-1,9.208999872E-1,4.553000033E-1
1.568400000E1,7.289999723E-2,9.034999609E-1,9.835000038E-1
1.571399844E1,5.478000045E-1,7.337999940E-1,1.750899911E0
1.573399844E1,1.056699991E0,5.214999914E-1,2.598799944E0
1.575399844E1,7.331999540E-1,7.428999543E-1,2.621500015E0
1.577400000E1,-1.583999991E-1,7.706999779E-1,2.604300022E0
1.580399844E1,-1.297999978E0,2.316999882E-1,3.273099899E0
1.582399844E1,-1.413299918E0,-3.871999979E-1,3.970499992E0
1.584399844E1,-1.414299965E0,-5.873999596E-1,3.761799812E0
1.586399844E1,-1.309199929E0,-9.098999500E-1,1.705399990E0
1.588399844E1,-7.897999883E-1,-9.979999661E-1,3.656999767E-1
1.590399844E1,9.039999545E-2,-1.394299984E0,7.464999557E-1
1.592399844E1,3.858000040E-1,-1.870199919E0,1.283900023E0
1.594399844E1,2.125999928E-1,-1.902300000E0,1.006500006E0
1.596399844E1,2.671999931E-1,-1.767300010E0,3.183999956E-1
1.598399844E1,4.465000033E-1,-1.404799938E0,-6.116999984E-1
1.600400000E1,5.403999686E-1,-8.904999495E-1,-1.763700008E0
1.603400000E1,6.315000057E-1,-2.867999971E-1,-3.067899942E0
1.606399844E1,6.920999885E-1,-1.377999932E-1,-3.508099794E0
1.608399844E1,5.512999892E-1,-1.008999944E-1,-3.454099894E0
1.610399844E1,3.156999946E-1,-1.547999978E-1,-3.137499809E0
1.612399844E1,1.837999970E-1,-1.211999953E-1,-2.675999880E0
1.614399844E1,1.794999987E-1,-5.779999867E-2,-2.089400053E0
1.616399844E1,1.431999952E-1,9.659999609E-2,-1.368099928E0
1.618399844E1,5.629999936E-2,1.644999981E-1,-7.447999716E-1
1.620399844E1,-2.388999909E-1,4.192000031E-1,-4.328999817E-1
1.622399844E1,-4.215999842E-1,5.151999593E-1,-8.899999410E-2
1.624399844E1,-3.404999971E-1,4.432999790E-1,4.215999842E-1
1.626399844E1,-3.242999911E-1,5.225999951E-1,1.019400001E0
1.628400000E1,-4.847999811E-1,8.701999784E-1,1.712299943E0
1.631399844E1,-9.858999848E-1,1.324199915E0,2.825399876E0
1.633399844E1,-8.468999863E-1,1.510999918E0,2.974499941E0
1.635399844E1,2.481999993E-1,8.468999863E-1,2.940799952E0
1.637399844E1,1.743099928E0,-1.488000005E-1,3.416399956E0
1.639399844E1,2.305899858E0,-1.203799963E0,3.958699942E0
1.641399844E1,1.757099986E0,-2.018300056E0,3.447799921E0
1.643399844E1,1.150699973E0,-2.239899874E0,2.231299877E0
1.645399844E1,1.583400011E0,-2.190399885E0,1.256399989E0
1.647399844E1,2.524999857E0,-2.377199888E0,5.601999760E-1
1.649399844E1,1.891499996E0,-2.109299898E0,5.866999626E-1
1.651399844E1,2.897000015E-1,-1.593299985E0,3.594999909E-1
1.653399844E1,-3.321000040E-1,-1.071099997E0,-8.549000025E-1
1.655399844E1,-4.064999819E-1,-6.032999754E-1,-2.161000013E0
1.657399844E1,-5.266999602E-1,-1.776999980E-1,-3.142099857E0
1.659399844E1,-6.592999697E-1,3.639999777E-2,-3.488799810E0
1.661399844E1,-6.468999982E-1,2.099999934E-1,-3.660899878E0
1.663399844E1,-6.541000009E-1,2.656999826E-1,-3.528999805E0
1.665399844E1,-6.651999950E-1,1.080999970E-1,-3.329299927E0
1.667399844E1,-7.511999607E-1,9.589999914E-2,-2.916199923E0
1.669399844E1,-7.827000022E-1,5.379999802E-2,-2.269899845E0
1.671400000E1,-6.261000037E-1,5.590000004E-2,-1.576200008E0
1.673400000E1,-4.763999879E-1,2.653999925E-1,-7.827000022E-1
1.676399844E1,-1.147999987E-1,7.839999795E-1,-7.071999907E-1
1.678399844E1,-3.629999980E-2,1.194700003E0,1.399999950E-3
1.680399844E1,2.970999777E-1,1.105700016E0,1.029299974E0
1.682399844E1,2.705000043E-1,8.348000050E-1,1.742999911E0
1.684399844E1,1.585000008E-1,4.963999987E-1,2.407699823E0
1.686399844E1,1.030999944E-1,4.822999835E-1,2.719300032E0
1.688399844E1,-1.982999891E-1,9.496999979E-1,2.387699842E0
1.690399844E1,1.898999959E-1,5.370999575E-1,2.358199835E0
1.692399844E1,3.870999813E-1,-2.951999903E-1,3.354199886E0
1.694399844E1,-4.708999991E-1,-7.951999903E-1,3.888899803E0
1.696399844E1,-1.646899939E0,-5.447999835E-1,2.469899893E0
1.698399844E1,-1.375800014E0,-5.234999657E-1,4.427999854E-1
1.700399844E1,-2.963999808E-1,-8.230999708E-1,-3.305999935E-1
1.702399844E1,3.696999848E-1,-1.125599980E0,5.482000113E-1
1.704399844E1,-1.347000003E-1,-1.645999908E0,8.748999834E-1
1.706399844E1,-7.360999584E-1,-1.668200016E0,5.008000135E-1
1.708399844E1,-6.492999792E-1,-1.581099987E0,-4.262999892E-1
1.710399844E1,-1.094999984E-1,-1.146799922E0,-1.221300006E0
1.712399844E1,4.254999757E-1,-8.310999870E-1,-1.829999924E0
1.714399844E1,5.734999776E-1,-5.451999903E-1,-2.222599983E0
1.716399844E1,6.656000018E-1,-4.777999818E-1,-2.575099945E0
1.718399844E1,7.911999822E-1,-4.610999823E-1,-2.809900045E0
1.720399844E1,6.211999655E-1,-2.936999798E-1,-2.614500046E0
1.722399844E1,5.223999619E-1,-4.389999807E-2,-2.273499966E0
1.724399844E1,5.485000014E-1,1.328999996E-1,-1.738199949E0
1.726399844E1,5.080999732E-1,1.656000018E-1,-1.154399991E0
1.728400000E1,2.228000015E-1,3.111999929E-1,-9.512999654E-1
1.731399844E1,-3.980000019E-1,7.504999638E-1,-1.047500014E0
1.733399844E1,-5.871999860E-1,8.007000089E-1,-6.729999781E-1
1.735399844E1,-2.705999911E-1,4.573999941E-1,2.080999911E-1
1.737399844E1,-2.799999900E-3,1.360999942E-1,1.593400002E0
1.739399844E1,-4.071999788E-1,2.100999951E-1,2.300199986E0
1.741399844E1,-1.017099977E0,8.554999828E-1,2.293699980E0
1.743399844E1,-8.819999695E-1,1.472499967E0,1.715299964E0
1.745399844E1,9.011999965E-1,3.858999908E-1,2.277400017E0
1.747399844E1,2.061199903E0,-1.028599977E0,4.269999981E0
1.749399844E1,8.622999787E-1,-1.783999920E0,6.324599743E0
1.751399844E1,-3.590000048E-2,-1.901600003E0,5.911200047E0
1.753399844E1,1.013000011E0,-1.872499943E0,3.208699942E0
1.755399844E1,2.669800043E0,-1.581599951E0,8.952999711E-1
1.757400000E1,3.071399927E0,-1.071900010E0,-2.626999915E-1
1.760399844E1,1.160799980E0,-9.827999473E-1,-5.960999727E-1
1.762399844E1,2.278999984E-1,-1.002300024E0,-1.160200000E0
1.764399844E1,-1.357000023E-1,-8.592000008E-1,-2.147699833E0
1.766399844E1,2.269999869E-2,-6.543999910E-1,-3.143399954E0
1.768399844E1,4.690000042E-2,-3.361999989E-1,-3.424000025E0
1.770399844E1,5.499999970E-3,-2.782000005E-1,-3.270599842E0
1.772399844E1,-8.699999750E-2,-2.653000057E-1,-3.148200035E0
1.774399844E1,-8.020000160E-2,-1.747999936E-1,-3.105000019E0
1.776399844E1,-8.089999855E-2,-1.731999964E-1,-2.751199961E0
1.778399844E1,-2.355999947E-1,-1.497000009E-1,-2.168200016E0
1.780399844E1,-4.784999788E-1,-2.989999950E-2,-1.634199977E0
1.782399844E1,-2.892999947E-1,2.280000001E-1,-1.022699952E0
1.784399844E1,1.028999984E-1,7.051999569E-1,-4.957000017E-1
1.786399844E1,3.773999810E-1,1.095700026E0,-1.196999997E-1
1.788399844E1,3.564999998E-1,1.337599993E0,4.176999927E-1
1.790399844E1,1.668999940E-1,1.398299932E0,1.248499990E0
1.792399844E1,2.691999972E-1,9.978999496E-1,2.082999945E0
1.794399844E1,4.619999826E-1,4.774999917E-1,2.446300030E0
1.796399844E1,6.599999964E-3,4.951999784E-1,2.177099943E0
1.798399844E1,-1.006999969E0,9.914999604E-1,1.635899901E0
1.800399844E1,-1.575299978E0,1.164499998E0,1.709800005E0
1.802399844E1,-1.121299982E0,3.574000001E-1,2.902199984E0
1.804399844E1,-8.097999692E-1,-1.017000005E-1,3.370599985E0
1.806399844E1,-1.058200002E0,-6.970999837E-1,1.630800009E0
1.808399844E1,-1.713599920E0,-9.486999512E-1,-1.925999969E-1
1.810400000E1,-1.171199918E0,-1.445299983E0,-7.576999664E-1
1.812400000E1,-6.620999575E-1,-1.834699988E0,4.845999777E-1
1.815399844E1,-8.414999843E-1,-1.848499894E0,8.589999676E-1
1.817399844E1,-5.315999985E-1,-1.702799916E0,-1.547999978E-1
1.819399844E1,-1.783999950E-1,-1.424799919E0,-1.187500000E0
1.821399844E1,2.479999885E-2,-1.088799953E0,-2.017799854E0
1.823399844E1,2.317999899E-1,-7.860999703E-1,-2.717799902E0
1.825399844E1,4.553000033E-1,-5.411999822E-1,-2.976500034E0
1.827399844E1,5.780999660E-1,-4.803999960E-1,-3.147599936E0
1.829399844E1,5.630999804E-1,-3.902999759E-1,-3.103600025E0
1.831399844E1,6.193000078E-1,-3.650999963E-1,-2.652999878E0
1.833399844E1,5.076000094E-1,-2.273999900E-1,-2.188099861E0
1.835399844E1,3.940999806E-1,-1.378999949E-1,-1.604499936E0
1.837399844E1,2.419999987E-1,1.809999906E-2,-1.248000026E0
1.839399844E1,-6.189999729E-2,3.422999978E-1,-9.268999696E-1
1.841399844E1,-4.324999750E-1,5.683000088E-1,-5.724999905E-1
1.843399844E1,-2.399999946E-1,4.636999965E-1,-1.791999936E-1
1.845399844E1,-1.381999999E-1,4.906999767E-1,8.840000033E-1
1.847399844E1,-6.302999854E-1,7.904999852E-1,2.067499876E0
1.849399844E1,-1.329999924E0,1.177299976E0,2.904099941E0
1.851399844E1,-1.526799917E0,1.460799932E0,2.766799927E0
1.853399844E1,-3.441999853E-1,7.400000095E-1,2.351300001E0
1.855399844E1,1.408800006E0,-5.094000101E-1,2.556099892E0
1.857399844E1,1.281999946E0,-1.377499938E0,4.290299892E0
1.859399844E1,9.250000119E-2,-1.685099959E0,4.997299671E0
1.861399844E1,-1.252000034E-1,-1.555299997E0,3.618099928E0
1.863399844E1,1.307799935E0,-9.684000015E-1,1.918899894E0
1.865399844E1,2.656699896E0,-9.537999630E-1,8.173999786E-1
1.867399844E1,1.962799907E0,-7.554999590E-1,4.096999764E-1
1.869400000E1,5.141000152E-1,-7.386999726E-1,-8.439999819E-2
1.872399844E1,-3.159999847E-1,-4.220999777E-1,-1.324000001E0
1.874399844E1,-2.465000004E-1,-2.804999948E-1,-2.204299927E0
1.876399844E1,-2.991999984E-1,-1.429999992E-2,-2.740700006E0
1.878399844E1,-4.423999786E-1,1.215999946E-1,-3.256899834E0
1.880399844E1,-5.227000117E-1,1.613999903E-1,-3.626099825E0
1.882399844E1,-4.107999802E-1,7.880000025E-2,-3.410899878E0
1.884399844E1,-2.644999921E-1,-9.659999609E-2,-2.827399969E0
1.886399844E1,-4.449999928E-1,-7.299999893E-2,-2.254899979E0
1.888399844E1,-6.394999623E-1,4.580000043E-2,-1.664799929E0
1.890399844E1,-5.723999739E-1,2.577999830E-1,-1.355299950E0
1.892399844E1,-3.689999878E-2,7.529999614E-1,-9.546999931E-1
1.894399844E1,3.452000022E-1,1.202199936E0,-9.359999746E-2
1.896399844E1,2.899000049E-1,1.284999967E0,9.233999848E-1
1.898399844E1,-1.851999909E-1,1.194599986E0,1.552299976E0
1.900399844E1,-2.821999788E-1,7.861999869E-1,1.893399954E0
1.902399844E1,5.799999926E-3,4.964999855E-1,2.403800011E0
1.904399844E1,-8.810000122E-2,6.378999949E-1,2.541999817E0
1.906400000E1,-1.145999953E-1,9.150999784E-1,2.515399933E0
1.909399844E1,-1.870999932E-1,-1.139999926E-2,3.453399897E0
1.911399844E1,-1.544399977E0,-6.284999847E-1,3.288899899E0
1.913399844E1,-2.094699860E0,-9.182999730E-1,1.895199895E0
1.915399844E1,-1.550899982E0,-1.221300006E0,8.219999671E-1
1.917400156E1,-3.513999879E-1,-1.388700008E0,9.114999771E-1
1.920399844E1,-2.694000006E-1,-1.697199941E0,1.333099961E0
1.922399844E1,-6.793999672E-1,-1.727199912E0,9.125999808E-1
1.924399844E1,-6.218999624E-1,-1.498999953E0,1.397999972E-1
1.926399844E1,3.639999777E-2,-1.146899939E0,-1.116999984E0
1.928400000E1,5.464000106E-1,-8.312999606E-1,-2.058899879E0
1.930400000E1,7.778999805E-1,-6.969999671E-1,-2.423699856E0
1.933399844E1,8.195999861E-1,-7.434999943E-1,-2.710599899E0
1.935399844E1,9.750999808E-1,-7.714999914E-1,-3.011999846E0
1.937399844E1,1.096199989E0,-6.916999817E-1,-3.331199884E0
1.939399844E1,1.047899961E0,-5.306000113E-1,-3.367599964E0
1.941399844E1,7.906000018E-1,-4.388999939E-1,-2.947999954E0
1.943399844E1,6.437000036E-1,-2.386000007E-1,-2.345199823E0
1.945399844E1,4.491999745E-1,-6.000000052E-3,-1.773199916E0
1.947399844E1,2.443999946E-1,1.809999943E-1,-1.453999996E0
1.949399844E1,6.780000031E-2,3.118000031E-1,-8.305000067E-1
1.951399844E1,1.709999889E-2,1.405999959E-1,4.350999892E-1
1.953399844E1,-2.060000002E-1,2.628000081E-1,1.430999994E0
1.955400312E1,-5.238000154E-1,8.671000004E-1,2.237999916E0
1.958399844E1,-8.933999538E-1,1.748799920E0,3.114499807E0
1.960399844E1,-6.865999699E-1,1.742599964E0,3.087499857E0
1.962399844E1,4.150999784E-1,8.460999727E-1,2.806399822E0
1.964399844E1,1.850699902E0,-2.958000004E-1,3.624899864E0
1.966400000E1,2.005100012E0,-1.312799931E0,3.912199974E0
1.969400000E1,1.172899961E0,-1.761599898E0,3.135299921E0
1.971400000E1,2.030099869E0,-1.808999896E0,1.914899945E0
1.974399844E1,2.230499983E0,-1.620499969E0,5.426999927E-1
1.976399844E1,6.784999967E-1,-1.169899940E0,2.588999867E-1
1.978400000E1,-2.775000036E-1,-7.839999795E-1,-1.940999925E-1
1.981399844E1,-4.769999981E-1,-4.382999837E-1,-1.827699900E0
1.983399844E1,-5.058999658E-1,-1.424999982E-1,-2.681599855E0
1.985399844E1,-1.122699976E0,1.401999891E-1,-2.654199839E0
1.987399844E1,-8.219999671E-1,-4.779999703E-2,-3.247399807E0
1.989399844E1,-7.366999984E-1,3.170000017E-2,-2.937099934E0
1.991399844E1,-4.895999730E-1,-5.109999701E-2,-2.813699961E0
1.993400000E1,-4.811999798E-1,-3.899999894E-3,-2.203699827E0
1.996399844E1,-3.201999962E-1,4.016000032E-1,-1.367499948E0
1.998400469E1,2.152999938E-1,1.313000023E-1,-1.504400015E0
2.001399844E1,-1.550000012E-1,6.340000033E-1,-1.029999971E0
2.003400000E1,-1.498000026E-1,7.870000005E-1,-3.623999953E-1
2.006399844E1,-7.319999486E-2,9.831999540E-1,7.719999552E-1
2.008399844E1,-1.019999944E-2,8.643999696E-1,1.440099955E0
2.010399844E1,3.786999881E-1,5.663999915E-1,1.471300006E0
2.012399844E1,6.819999963E-2,1.006999969E0,1.526600003E0
2.014399844E1,5.669999868E-2,1.145299911E0,1.968199968E0
2.016399844E1,6.139000058E-1,2.842999995E-1,3.191900015E0
2.018399844E1,3.614999950E-1,-1.020200014E0,4.748699665E0
2.020399844E1,-7.001999617E-1,-1.247299910E0,4.950900078E0
2.022400469E1,-1.732299924E0,-8.590999842E-1,2.491600037E0
2.025399844E1,-4.640999734E-1,-4.333999753E-1,4.910000041E-2
2.027400625E1,4.301999807E-1,-4.447000027E-1,4.565999806E-1
2.030399844E1,-1.280999929E-1,-9.337999821E-1,2.691999972E-1
2.032400156E1,-5.300999880E-1,-9.930999875E-1,-7.160999775E-1
2.035399844E1,-6.085999608E-1,-9.501999617E-1,-1.247399926E0
2.037400312E1,-3.482999802E-1,-6.839999557E-1,-1.122399926E0
2.040399844E1,2.488999963E-1,-4.763999879E-1,-1.910200000E0
2.042399844E1,3.801999986E-1,-4.025000036E-1,-2.708899975E0
2.044399844E1,4.957999885E-1,-4.052000046E-1,-2.674099922E0
2.046399844E1,5.559999943E-1,-3.612999916E-1,-2.319599867E0
2.048399844E1,4.619999826E-1,-1.586999893E-1,-2.094300032E0
2.050399844E1,3.410999775E-1,9.759999812E-2,-1.701599956E0
2.052400156E1,4.235999882E-1,1.976999938E-1,-1.591300011E0
2.055399844E1,9.300000034E-3,6.714000106E-1,-1.632200003E0
2.057399844E1,-1.978999972E-1,7.899999619E-1,-1.282899976E0
2.059399844E1,-5.799999833E-2,8.506999612E-1,-8.547999859E-1
2.061399844E1,-2.830999792E-1,6.891999841E-1,1.328999996E-1
2.063399844E1,-7.105000019E-1,1.008899927E0,1.506199956E0
2.065399844E1,-4.391999841E-1,1.160899997E0,1.928499937E0
2.067399844E1,-1.311900020E0,1.988399982E0,2.519000053E0
2.069399844E1,-4.439999759E-1,1.764400005E0,2.042099953E0
2.071399844E1,7.163999677E-1,5.496999621E-1,2.734999895E0
2.073399844E1,1.396899939E0,-9.133999944E-1,4.294199944E0
2.075399844E1,6.513999701E-1,-2.001399994E0,4.762300014E0
2.077400469E1,-3.118000031E-1,-2.175400019E0,4.246999741E0
2.080401094E1,1.498999953E0,-1.895999908E0,2.425299883E0
2.083399844E1,2.291699886E0,-1.225999951E0,4.348999858E-1
2.085400625E1,1.371399999E0,-8.702999949E-1,5.709999800E-2
2.088399844E1,2.700999975E-1,-6.258999705E-1,-9.215999842E-1
2.090400000E1,2.313999981E-1,-3.972999752E-1,-1.917599916E0
2.093399844E1,1.626999974E-1,-5.469999835E-2,-2.791499853E0
2.095400156E1,-1.669999957E-2,1.589999907E-2,-2.990200043E0
2.098399844E1,3.058999777E-1,1.131999940E-1,-2.995599985E0
2.100400469E1,3.925999999E-1,-5.419999734E-2,-2.945999861E0
2.103399844E1,-3.867000043E-1,5.350000039E-2,-2.937199831E0
2.105400625E1,-2.604999840E-1,1.752000004E-1,-3.216899872E0
2.108399844E1,-5.539999902E-2,4.152999818E-1,-1.650900006E0
2.110400156E1,-6.250000000E-2,6.351999640E-1,-6.326000094E-1
2.113399844E1,-5.499999970E-3,8.586999774E-1,1.659999937E-1
2.115399844E1,-1.513999999E-1,9.169999957E-1,2.617000043E-1
2.117399844E1,-2.474999875E-1,8.741999865E-1,9.231999516E-1
2.119399844E1,-2.157000005E-1,8.262000084E-1,1.898299932E0
2.121399844E1,-4.757999778E-1,9.034000039E-1,2.421399832E0
2.123399844E1,-8.139999509E-1,1.103999972E0,2.284699917E0
2.125399844E1,-2.089999989E-2,1.896999925E-1,2.948799849E0
2.127399844E1,-6.553999782E-1,-4.424999952E-1,3.931099892E0
2.129399844E1,-1.768499970E0,-7.647999525E-1,3.023599863E0
2.131399844E1,-1.675300002E0,-8.481000066E-1,1.559000015E0
2.133399844E1,-5.952999592E-1,-1.010999918E0,7.993999720E-1
2.135399844E1,3.626999855E-1,-1.087899923E0,1.314499974E0
2.137399844E1,8.909999579E-2,-1.332799911E0,1.173200011E0
2.139399844E1,-2.771999836E-1,-1.192399979E0,5.450999737E-1
2.141399844E1,-4.389999807E-2,-1.152199984E0,-1.191999987E-1
2.143399844E1,1.660999954E-1,-8.447999954E-1,-7.306999564E-1
2.145399844E1,4.133999944E-1,-5.807999969E-1,-1.771999955E0
2.147399844E1,6.520000100E-1,-2.949000001E-1,-2.400300026E0
2.149400469E1,7.186999917E-1,-1.911999881E-1,-2.879099846E0
2.152399844E1,8.273999691E-1,-1.140000001E-1,-3.313099861E0
2.154399844E1,7.680999637E-1,-6.749999523E-2,-3.074800014E0
2.156399844E1,6.171999574E-1,-3.920000046E-2,-2.730499983E0
2.158399844E1,4.175999761E-1,6.319999695E-2,-2.415699959E0
2.160399844E1,3.127000034E-1,2.624999881E-1,-1.943699956E0
2.162399844E1,9.129999578E-2,3.000999987E-1,-1.197399974E0
2.164399844E1,-1.968999952E-1,2.263999879E-1,-4.398999810E-1
2.166399844E1,-3.243999779E-1,2.163999975E-1,2.689999901E-2
2.168399844E1,9.999999776E-3,1.573999971E-1,5.224999785E-1
2.170399844E1,-2.050999999E-1,5.593999624E-1,1.013499975E0
2.172399844E1,-9.632999897E-1,1.318199992E0,1.480700016E0
2.174399844E1,-1.162599921E0,1.725499988E0,2.084199905E0
2.176399844E1,-3.155999780E-1,1.143499970E0,2.440000057E0
2.178400000E1,1.542599916E0,-2.398999929E-1,3.254199982E0
2.181399844E1,1.398000002E0,-1.812699914E0,5.422599792E0
2.183399844E1,3.509999812E-2,-1.691799998E0,5.474199772E0
2.185399844E1,3.526999950E-1,-1.471799970E0,3.396099806E0
2.187399844E1,1.854900002E0,-8.881999850E-1,1.488099933E0
2.189399844E1,2.320799828E0,-7.202999592E-1,2.282999903E-1
2.191399844E1,1.040099978E0,-5.367999673E-1,-3.769999743E-2
2.193399844E1,-8.479999751E-2,-5.618000031E-1,-3.622999787E-1
2.195399844E1,-4.409999847E-1,-4.398999810E-1,-1.024600029E0
2.197400156E1,-1.180000007E-1,-3.993999958E-1,-2.158900023E0
2.200399844E1,5.370000005E-2,-3.199999779E-2,-3.681299925E0
2.202400156E1,1.699999906E-3,-9.800000116E-3,-3.806999922E0
2.205399844E1,3.159999847E-2,6.849999726E-2,-4.220299721E0
2.207399844E1,7.899999619E-2,2.089999914E-1,-3.953999996E0
2.209399844E1,1.147999987E-1,4.069999978E-2,-3.047799826E0
2.211399844E1,-2.859999985E-2,8.449999988E-2,-2.147199869E0
2.213399844E1,-1.282999963E-1,4.588999748E-1,-1.373700023E0
2.215399844E1,-5.339999869E-2,9.722999930E-1,-7.839999795E-1
2.217399844E1,-9.049999714E-2,1.369699955E0,1.886999905E-1
2.219399844E1,-2.052999884E-1,1.377399921E0,1.062999964E0
2.221399844E1,5.619999766E-2,1.135999918E0,1.734899998E0
2.223399844E1,2.730000019E-1,9.113999605E-1,2.524899960E0
2.225399844E1,3.291999996E-1,5.273000002E-1,3.431299925E0
2.227399844E1,-1.735999882E-1,7.712000012E-1,3.155099869E0
2.229400000E1,-2.836000025E-1,9.407999516E-1,2.952600002E0
2.232399844E1,3.810000047E-2,-2.219000012E-1,4.026000023E0
2.234399844E1,-1.044600010E0,-7.560999990E-1,3.383100033E0
2.236399844E1,-1.479200006E0,-8.175999522E-1,1.740499973E0
2.238399844E1,-9.405999780E-1,-9.945999980E-1,4.932999909E-1
2.240399844E1,-4.266999960E-1,-1.024399996E0,4.655999839E-1
2.242399844E1,-3.067999780E-1,-1.254699945E0,8.986999989E-1
2.244399844E1,-6.769999862E-1,-1.439999938E0,6.802999973E-1
2.246399844E1,-7.556999922E-1,-1.596599936E0,2.369999886E-1
2.248399844E1,-5.273999572E-1,-1.437500000E0,-8.003999591E-1
2.250399844E1,-1.902000010E-1,-1.090700030E0,-1.900499940E0
2.252399844E1,3.382999897E-1,-8.348999619E-1,-2.947599888E0
2.254399844E1,8.242999911E-1,-5.810999870E-1,-3.767099857E0
2.256400000E1,1.040899992E0,-4.468999803E-1,-4.175399780E0
2.258400000E1,1.015699983E0,-3.134000003E-1,-4.077600002E0
2.261400000E1,9.416999817E-1,-1.674000025E-1,-3.466599941E0
2.264399844E1,8.873999715E-1,7.899999619E-3,-2.567899942E0
2.266399844E1,7.925999761E-1,2.168999910E-1,-1.922699928E0
2.268399844E1,2.597999871E-1,4.057999849E-1,-1.072899938E0
2.270399844E1,-3.780999780E-1,4.511999786E-1,-5.310999751E-1
2.272399844E1,-5.949999690E-1,5.806999803E-1,-4.244000018E-1
2.274399844E1,-8.479999751E-2,6.139999628E-1,1.488000005E-1
2.276399844E1,-1.515000015E-1,8.998999596E-1,1.496999979E0
2.278399844E1,-8.212999701E-1,1.248299956E0,2.898999929E0
2.280399844E1,-1.471099973E0,1.639899969E0,3.190699816E0
2.282399844E1,-6.951000094E-1,1.536899924E0,2.941599846E0
2.284399844E1,6.888999939E-1,8.546999693E-1,3.170099974E0
2.286399844E1,1.393899918E0,-3.933999836E-1,3.981799841E0
2.288399844E1,6.146999598E-1,-1.054000020E0,4.255300045E0
2.290399844E1,3.762999773E-1,-1.499499917E0,3.356099844E0
2.292399844E1,1.532599926E0,-1.623600006E0,2.278800011E0
2.294399844E1,2.202299833E0,-1.610000014E0,1.773299932E0
2.296399844E1,1.368499994E0,-1.572199941E0,1.515799999E0
2.298399844E1,5.432000160E-1,-9.615999460E-1,4.346999824E-1
2.300399844E1,3.853999972E-1,-3.664999902E-1,-7.030999660E-1
2.302399844E1,2.089999914E-1,-1.568999887E-1,-1.851399899E0
2.304399844E1,-2.787999809E-1,5.159999803E-2,-2.706499815E0
2.306399844E1,-5.791999698E-1,6.759999692E-2,-3.268199921E0
2.308399844E1,-6.444000006E-1,-3.639999777E-2,-3.496500015E0
2.310399844E1,-6.165999770E-1,9.499999695E-3,-3.410300016E0
2.312399844E1,-5.033999681E-1,-6.289999932E-2,-3.342000008E0
2.314399844E1,-4.307999909E-1,1.489999983E-2,-3.135699987E0
2.316399844E1,-3.967999816E-1,8.079999685E-2,-2.713699818E0
2.318399844E1,-5.180000067E-1,2.417999953E-1,-2.097599983E0
2.320399844E1,-6.706999540E-1,5.870000124E-1,-1.269699931E0
2.322399844E1,-5.785999894E-1,8.835999966E-1,-2.669000030E-1
2.324399844E1,-6.434000134E-1,1.163200021E0,9.229999781E-1
2.326399844E1,-7.342000008E-1,9.162999988E-1,1.521099925E0
2.328400000E1,-5.518999696E-1,6.556000113E-1,2.066099882E0
2.331399844E1,3.369999826E-1,2.608999908E-1,3.274699926E0
2.333399844E1,-6.960000098E-2,8.968999982E-1,3.208099842E0
2.335399844E1,-4.327999949E-1,1.142400026E0,2.421299934E0
2.337400000E1,-2.732000053E-1,3.546999991E-1,2.622900009E0
2.339400000E1,-1.056599975E0,-3.511999846E-1,2.836599827E0
2.342399844E1,-2.150799990E0,-6.006000042E-1,1.351499915E0
2.344399844E1,-1.547699928E0,-8.831999898E-1,6.541000009E-1
2.346399844E1,-1.330000013E-1,-1.281099916E0,1.450299978E0
2.348399844E1,5.899999756E-3,-1.521099925E0,1.694599986E0
2.350399844E1,-5.742999911E-1,-1.683200002E0,1.882900000E0
2.352399844E1,-7.784000039E-1,-1.644999981E0,1.135100007E0
2.354399844E1,-3.351999819E-1,-1.205999970E0,-4.927999973E-1
2.356399844E1,3.917999864E-1,-7.027999759E-1,-2.036000013E0
2.358399844E1,5.859999657E-1,-1.282999963E-1,-3.184199810E0
2.360399844E1,4.706999958E-1,2.534999847E-1,-3.586299896E0
2.362399844E1,5.357999802E-1,1.776999980E-1,-3.861699820E0
2.364399844E1,7.175999880E-1,-1.109999977E-2,-3.753099918E0
2.366399844E1,6.995999813E-1,-1.372999996E-1,-2.872299910E0
2.368399844E1,4.468999803E-1,-1.306999922E-1,-2.373499870E0
2.370399844E1,3.355999887E-1,-2.055999935E-1,-2.215299845E0
2.372399844E1,1.764999926E-1,-6.159999967E-2,-1.423399925E0
2.374399844E1,-1.819999963E-1,3.579999879E-2,-1.653999984E-1
2.376400000E1,-4.668999910E-1,4.569999874E-2,3.030999899E-1
2.379400000E1,-6.625999808E-1,2.653000057E-1,9.709999710E-2
2.382399844E1,-3.980999887E-1,4.222999811E-1,1.163800001E0
2.384399844E1,1.039000005E-1,4.258999825E-1,1.841199994E0
2.386399844E1,-4.399999976E-3,8.623999953E-1,2.118700027E0
2.388399844E1,6.877999902E-1,4.528999925E-1,2.054499865E0
2.390399844E1,2.113999844E0,-5.302999616E-1,2.209699869E0
2.392399844E1,1.508099914E0,-1.157400012E0,3.760699987E0
2.394399844E1,-7.759999484E-2,-1.591599941E0,4.364900112E0
2.396399844E1,-8.407999873E-1,-1.177299976E0,3.438599825E0
2.398399844E1,5.462999940E-1,-1.216199994E0,1.983999968E0
2.400399844E1,2.089200020E0,-1.044399977E0,7.574999928E-1
2.402399844E1,1.392599940E0,-6.015999913E-1,5.913000107E-1
2.404399844E1,-1.601999998E-1,-6.116999984E-1,6.570999622E-1
2.406399844E1,-9.327999949E-1,-4.002999961E-1,1.885000020E-1
2.408399844E1,-5.654000044E-1,-1.812999994E-1,-1.443899989E0
2.410399844E1,-7.499999832E-3,2.960000038E-1,-2.861500025E0
2.412399844E1,-1.509999949E-2,4.491999745E-1,-3.523000002E0
2.414399844E1,-3.502999842E-1,3.475999832E-1,-3.491299868E0
2.416399844E1,-3.592999876E-1,1.493999958E-1,-3.556999922E0
2.418400000E1,-1.489999983E-2,-5.900000036E-2,-3.513299942E0
2.421399844E1,-1.344999969E-1,-1.875000000E-1,-2.909399986E0
2.423399844E1,-5.356999636E-1,-2.485999912E-1,-2.036499977E0
2.425399844E1,-7.933999896E-1,8.609999716E-2,-1.495100021E0
2.427399844E1,-3.199999928E-1,4.356999993E-1,-7.638999820E-1
2.429399844E1,2.045999914E-1,6.646999717E-1,2.226999998E-1
2.431399844E1,-3.830000013E-2,8.533999920E-1,1.170799971E0
2.433399844E1,-2.082999945E-1,7.288999557E-1,1.759299994E0
2.435399844E1,4.122000039E-1,3.744999766E-1,1.978899956E0
2.437399844E1,9.958999753E-1,3.386999965E-1,2.066900015E0
2.439400000E1,8.266999722E-1,9.229999781E-1,2.299799919E0
2.441400000E1,5.080999732E-1,1.119499922E0,2.625399828E0
2.444399844E1,1.862999946E-1,1.702999920E-1,3.108099937E0
2.446399844E1,-8.883999586E-1,-4.614999890E-1,3.007200003E0
2.448399844E1,-1.663699985E0,-7.409999967E-1,1.831200004E0
2.450399844E1,-1.177099943E0,-9.618999958E-1,1.051200032E0
2.452399844E1,-2.681999803E-1,-1.081599951E0,1.428200006E0
2.454400469E1,1.606999934E-1,-1.340799928E0,1.893499970E0
2.457399844E1,-9.919999540E-2,-1.460099936E0,1.320999980E0
2.459399844E1,-2.600000007E-3,-1.391099930E0,5.213999748E-1
2.461399844E1,1.739999950E-1,-1.229200006E0,-3.350999951E-1
2.463399844E1,3.811999857E-1,-1.064499974E0,-1.343799949E0
2.465399844E1,5.746999979E-1,-7.708999515E-1,-2.416199923E0
2.467399844E1,8.894000053E-1,-5.970000029E-1,-3.092799902E0
2.469399844E1,1.068599939E0,-5.370999575E-1,-3.368099928E0
2.471399844E1,9.720999599E-1,-4.553999901E-1,-3.205499887E0
2.473399844E1,8.134999871E-1,-3.370999992E-1,-2.819499969E0
2.475399844E1,7.836999893E-1,-2.513999939E-1,-2.325099945E0
2.477399844E1,5.519999862E-1,-2.945999801E-1,-1.702999949E0
2.479399844E1,1.383000016E-1,-2.148000002E-1,-1.059800029E0
2.481399844E1,-1.788000017E-1,-6.909999996E-2,-6.262999773E-1
2.483399844E1,-1.287999898E-1,6.989999861E-2,-2.967000008E-1
2.485399844E1,2.371999919E-1,6.639999896E-2,2.565999925E-1
2.487399844E1,5.762999654E-1,1.973999888E-1,1.056800008E0
2.489400000E1,5.938000083E-1,6.660999656E-1,2.075799942E0
2.491400000E1,-2.135999948E-1,1.505399942E0,2.194299936E0
2.494399844E1,4.242999852E-1,8.721999526E-1,1.382300019E0
2.496399844E1,1.977199912E0,-6.213999987E-1,2.268499851E0
2.498399844E1,1.351599932E0,-1.743999958E0,3.579099894E0
2.500399844E1,-4.672999978E-1,-1.262699962E0,3.369400024E0
2.502399844E1,-1.030000001E-1,-5.270000100E-1,1.904899955E0
2.504399844E1,1.780299902E0,-3.692999780E-1,8.999999613E-3
2.506399844E1,2.436499834E0,-1.040999964E-1,-1.055999994E0
2.508399844E1,1.574199915E0,-2.395999879E-1,-5.303999782E-1
2.510399844E1,3.245999813E-1,-3.368999958E-1,-2.407999933E-1
2.512399844E1,-2.710999846E-1,-2.703000009E-1,-5.692999959E-1
2.514399844E1,-2.723000050E-1,-1.406999975E-1,-1.423099995E0
2.516399844E1,-2.360000014E-1,1.127000004E-1,-1.850600004E0
2.518399844E1,-4.837999940E-1,2.474000007E-1,-2.272699833E0
2.520400000E1,-6.545999646E-1,2.699999809E-1,-2.700599909E0
2.523399844E1,-2.879999876E-1,2.074999958E-1,-2.335500002E0
2.525399844E1,-2.136999965E-1,1.885000020E-1,-1.874399900E0
2.527399844E1,-3.137999773E-1,2.143999934E-1,-1.608799934E0
2.529399844E1,-2.543999851E-1,3.306999803E-1,-1.429000020E0
2.531399844E1,8.799999952E-3,6.317999959E-1,-1.150300026E0
2.533399844E1,2.899000049E-1,9.865999818E-1,-5.385000110E-1
2.535399844E1,3.641999960E-1,1.189299941E0,1.704999954E-1
2.537399844E1,2.931999862E-1,1.152899981E0,8.618999720E-1
2.539399844E1,1.844999939E-1,9.264999628E-1,1.426599979E0
2.541399844E1,1.123999953E-1,6.721000075E-1,2.000000000E0
2.543399844E1,-9.879999608E-2,3.017999828E-1,2.336599827E0
2.545399844E1,-5.196999907E-1,3.165999949E-1,2.123899937E0
2.547399844E1,-3.819999993E-1,2.378999889E-1,2.558899879E0
2.549400000E1,4.111999869E-1,-6.268999577E-1,3.543399811E0
2.551400000E1,-2.646999955E-1,-6.804999709E-1,3.344499826E0
2.554399844E1,-1.322799921E0,-4.544000030E-1,4.183000028E-1
2.556401406E1,-8.564999700E-1,-4.148999751E-1,-6.610999703E-1
2.559399844E1,1.459999941E-2,-8.511999846E-1,5.916999578E-1
2.561399844E1,-4.702999890E-1,-1.301800013E0,6.484000087E-1
2.563399844E1,-7.174999714E-1,-1.372200012E0,6.895999908E-1
2.565399844E1,-4.265999794E-1,-1.213699937E0,2.732000053E-1
2.567399844E1,-1.338000000E-1,-7.500000000E-1,-8.574000001E-1
2.569399844E1,-6.740000099E-2,-4.201999903E-1,-1.843699932E0
2.571399844E1,-6.999999750E-3,-2.534999847E-1,-2.534399986E0
2.573399844E1,2.415999919E-1,-1.985999942E-1,-2.851199865E0
2.575399844E1,6.021999717E-1,-1.867000014E-1,-3.040400028E0
2.577399844E1,6.236000061E-1,-6.999999750E-3,-2.860899925E0
2.579399844E1,4.616999924E-1,-5.979999900E-2,-2.401499987E0
2.581399844E1,4.113999903E-1,-8.359999955E-2,-2.033200026E0
2.583399844E1,4.546999931E-1,9.709999710E-2,-1.647599936E0
2.585399844E1,2.705000043E-1,3.034999967E-1,-1.223399997E0
2.587399844E1,-3.269000053E-1,4.752999842E-1,-1.031800032E0
2.589399844E1,-5.460999608E-1,6.293999553E-1,-1.014299989E0
2.591399844E1,-3.199000061E-1,5.764999986E-1,-4.603999853E-1
2.593399844E1,-4.718999863E-1,7.271999717E-1,7.032999992E-1
2.595400000E1,-9.936999679E-1,1.028100014E0,1.988899946E0
2.597400000E1,-1.493600011E0,1.351300001E0,2.277099848E0
2.599400000E1,-1.106899977E0,1.344999909E0,1.748699903E0
2.601400000E1,6.385999918E-1,1.992999911E-1,1.931499958E0
2.604399844E1,1.478500009E0,-1.393899918E0,3.689099789E0
2.606399844E1,2.085999995E-1,-1.296999931E0,4.732100010E0
2.608399844E1,1.785999984E-1,-1.077700019E0,3.679899931E0
2.610399844E1,1.248899937E0,-5.715999603E-1,1.792899966E0
2.612399844E1,2.284999847E0,-6.268999577E-1,3.238999844E-1
2.614399844E1,1.720699906E0,-5.073999763E-1,-9.799999744E-2
2.616399844E1,5.922999978E-1,-5.521999598E-1,-5.133000016E-1
2.618399844E1,-3.157999814E-1,-3.608999848E-1,-9.770999551E-1
2.620399844E1,-5.166999698E-1,-3.278000057E-1,-1.498699903E0
2.622399844E1,-3.719999790E-1,-2.769999802E-1,-2.239699841E0
2.624399844E1,-3.093000054E-1,-1.757999957E-1,-2.500399828E0
2.626399844E1,-4.222999811E-1,-1.460999995E-1,-2.152699947E0
2.628400000E1,-3.340999782E-1,-1.999999949E-4,-2.146499872E0
2.631399844E1,-3.553999960E-1,3.463000059E-1,-2.987099886E0
2.633399844E1,-3.772999942E-1,4.168999791E-1,-2.868000031E0
2.635399844E1,-3.544999957E-1,4.232999980E-1,-2.359599829E0
2.637399844E1,-2.777999938E-1,4.927999973E-1,-1.744199991E0
2.639399844E1,-2.660999894E-1,6.995999813E-1,-1.119300008E0
2.641399844E1,-1.134999990E-1,8.470000029E-1,-2.883999944E-1
2.643399844E1,-3.370000049E-2,1.029299974E0,4.940999746E-1
2.645399844E1,-1.018999964E-1,1.176399946E0,9.547999501E-1
2.647399844E1,-2.236999869E-1,1.270799994E0,1.405399919E0
2.649400000E1,3.499999875E-3,1.072199941E0,2.185999870E0
2.652399844E1,-5.447999835E-1,1.536999941E0,2.611599922E0
2.654400000E1,-1.689999998E-1,9.940999746E-1,3.057499886E0
2.656400313E1,6.003000140E-1,-2.755999863E-1,4.051000118E0
2.659399844E1,-7.780999541E-1,-9.725999832E-1,3.427799940E0
2.661399844E1,-1.835500002E0,-7.622999549E-1,1.395499945E0
2.663399844E1,-1.542299986E0,-7.989999652E-1,2.222999930E-1
2.665399844E1,-2.796999812E-1,-8.434999585E-1,4.510999918E-1
2.667399844E1,1.539999992E-2,-1.022499919E0,1.011500001E0
2.669399844E1,-7.272999883E-1,-1.103600025E0,6.987000108E-1
2.671399844E1,-9.553999901E-1,-1.089299917E0,5.152999759E-1
2.673399844E1,-5.878999829E-1,-1.018499970E0,-1.459999979E-1
2.675399844E1,-1.435000002E-1,-7.196999788E-1,-1.263499975E0
2.677399844E1,3.500000015E-2,-3.850999773E-1,-2.319499969E0
2.679399844E1,5.639999732E-2,-2.020999938E-1,-3.001499891E0
2.681399844E1,9.659999609E-2,-9.380000085E-2,-3.711199999E0
2.683399844E1,2.269999869E-2,9.749999642E-2,-4.282199860E0
2.685399844E1,1.365000010E-1,1.796000004E-1,-4.217499733E0
2.687399844E1,2.818999887E-1,4.165000021E-1,-3.382499933E0
2.689399844E1,4.039999843E-2,6.882999539E-1,-2.706699848E0
2.691399844E1,-2.239999920E-1,7.915999889E-1,-2.284299850E0
2.693399844E1,-3.379999995E-1,7.484999895E-1,-2.036299944E0
2.695399844E1,-3.985999823E-1,6.561999917E-1,-1.289299965E0
2.697399844E1,-4.605000019E-1,4.463999867E-1,-1.649999917E-1
2.699399844E1,-5.730000138E-1,4.221999943E-1,1.209100008E0
2.701400000E1,-7.414000034E-1,4.837999940E-1,2.451499939E0
2.703400000E1,-1.082700014E0,1.085299969E0,3.392499924E0
2.705400000E1,-1.206900001E0,1.701499939E0,3.442499876E0
2.708399844E1,1.215299964E0,1.409999933E-2,4.348799706E0
2.710400000E1,1.486099958E0,-1.104300022E0,5.794600010E0
2.712400000E1,-1.110999957E-1,-1.193400025E0,6.811100006E0
2.714400000E1,-7.509999722E-2,-1.504099965E0,5.753999710E0
2.716400000E1,1.137699962E0,-1.384099960E0,3.320699930E0
2.719399844E1,1.162999988E0,-1.065299988E0,-3.773999810E-1
2.721399844E1,5.238000154E-1,-9.168999791E-1,-2.053299904E0
2.723399844E1,-7.849999517E-2,-6.782999635E-1,-3.120999813E0
2.725399844E1,-3.301999867E-1,-5.414999723E-1,-4.094999790E0
2.727399844E1,-1.254999936E-1,-4.518999755E-1,-4.481299877E0
2.729399844E1,1.360999942E-1,-2.421000004E-1,-4.015599728E0
2.731399844E1,1.818999946E-1,-1.694999933E-1,-3.500399828E0
2.733399844E1,2.069999874E-1,-3.639999777E-2,-3.757099867E0
2.735399844E1,4.023000002E-1,1.850999892E-1,-4.343599796E0
2.737399844E1,7.037999630E-1,2.757000029E-1,-4.332999706E0
2.739399844E1,4.851999879E-1,4.666000009E-1,-3.483399868E0
2.741399844E1,5.240000039E-2,4.113999903E-1,-2.686499834E0
2.743399844E1,-1.215999946E-1,5.683999658E-1,-1.353099942E0
2.745399844E1,-3.810000047E-2,7.592999935E-1,-3.730999827E-1
2.747399844E1,-2.272000015E-1,1.058499932E0,4.190999866E-1
2.749399844E1,-5.752999783E-1,1.504699945E0,1.358299971E0
2.751399844E1,-5.795999765E-1,1.745899916E0,2.395699978E0
2.753399844E1,-5.773000121E-1,1.914199948E0,3.562599897E0
2.755399844E1,-3.121999800E-1,1.690099955E0,4.223799706E0
2.757400000E1,-2.610999942E-1,1.814000010E0,4.101699829E0
2.760399844E1,7.710000128E-2,1.194000006E0,4.791999817E0
2.762399844E1,-9.940999746E-1,1.097100019E0,5.299499989E0
2.764399844E1,-1.797399998E0,7.249000072E-1,3.755100012E0
2.766399844E1,-1.171700001E0,1.807999909E-1,1.911700010E0
2.768399844E1,7.279999554E-2,-6.872999668E-1,1.506999969E0
2.770399844E1,5.904999971E-1,-1.107999921E0,2.860599995E0
2.772399844E1,3.759000003E-1,-1.480000019E0,3.078299999E0
2.774399844E1,1.252999902E-1,-1.481899977E0,1.663699985E0
2.776399844E1,9.569999576E-2,-1.393899918E0,-2.469999939E-1
2.778400000E1,4.319999740E-2,-1.070500016E0,-1.134199977E0
2.781399844E1,-4.987999797E-1,-7.590999603E-1,-1.592799902E0
2.783399844E1,-3.222999871E-1,-8.112999797E-1,-2.741299868E0
2.785399844E1,1.413999945E-1,-8.382999897E-1,-3.588599920E0
2.787399844E1,5.763999820E-1,-1.072899938E0,-3.459499836E0
2.789399844E1,1.949999928E-1,-7.372999787E-1,-2.548499823E0
2.791399844E1,5.260000005E-2,-5.810999870E-1,-2.252899885E0
2.793399844E1,1.381999999E-1,-8.009999990E-2,-2.948799849E0
2.795399844E1,5.145999789E-1,5.619999766E-1,-3.159799814E0
2.797399844E1,8.471999764E-1,6.430999637E-1,-2.515499830E0
2.799399844E1,5.719999671E-1,3.992999792E-1,-1.056499958E0
2.801399844E1,2.481999993E-1,-6.679999828E-2,7.235999703E-1
2.803399844E1,5.956000090E-1,-4.219999909E-1,1.600999951E0
2.805399844E1,7.247999907E-1,-9.439999610E-2,1.011199951E0
2.807399844E1,-4.414999783E-1,1.392399907E0,-2.545000017E-1
2.809399844E1,-9.030000120E-2,6.919999719E-1,3.801999986E-1
2.811399844E1,1.136299968E0,-9.957999587E-1,2.717599869E0
2.813399844E1,-4.640999734E-1,-1.297500014E0,5.641399860E0
2.815399844E1,-2.021800041E0,-1.055799961E0,7.372799873E0
2.817399844E1,-6.448999643E-1,-1.513999939E0,5.048099995E0
2.819399844E1,1.566599965E0,-1.454399943E0,2.186499834E0
2.821399844E1,1.813499928E0,-9.940999746E-1,1.369300008E0
2.823399844E1,4.450999796E-1,-5.957999825E-1,1.041999936E0
2.825399844E1,1.332999915E-1,-3.802999854E-1,-2.646999955E-1
2.827399844E1,2.803999782E-1,-2.714999914E-1,-1.800999999E0
2.829399844E1,7.819999754E-2,-1.128999963E-1,-2.300299883E0
2.831399844E1,-1.361999959E-1,-2.434999943E-1,-2.645400047E0
2.833399844E1,-3.055999875E-1,-5.189999938E-2,-3.426399946E0
2.835399844E1,-1.371999979E-1,-8.039999753E-2,-3.889999866E0
2.837399844E1,-5.229999870E-2,-2.254999876E-1,-3.698799849E0
2.839399844E1,-1.790999919E-1,-2.953000069E-1,-3.177999973E0
2.841399844E1,-3.527999818E-1,-2.275999933E-1,-2.686599970E0
2.843399844E1,-4.544000030E-1,-1.190999970E-1,-2.652099848E0
2.845399844E1,-7.152000070E-1,1.419999897E-1,-2.437000036E0
2.847399844E1,-4.578999877E-1,1.849000007E-1,-1.896999955E0
2.849399844E1,-1.039999947E-1,4.671999812E-1,-1.181599975E0
2.851399844E1,8.949999511E-2,6.056999564E-1,-1.265999973E-1
2.853399844E1,9.769999981E-2,4.930999875E-1,1.182099938E0
2.855399844E1,1.032999977E-1,1.071999967E-1,1.815699935E0
2.857399844E1,1.755999923E-1,-1.099999994E-2,2.308799982E0
2.859399844E1,-3.253999949E-1,4.962999821E-1,2.838500023E0
2.861399844E1,-6.510999799E-1,7.961999774E-1,2.728099823E0
2.863399844E1,-6.683999896E-1,9.302999973E-1,2.478399992E0
2.865399844E1,-9.072999954E-1,6.671000123E-1,2.173199892E0
2.867399844E1,-1.204900026E0,1.090000011E-2,1.526799917E0
2.869399844E1,-9.724999666E-1,-7.378000021E-1,8.210999966E-1
2.871399844E1,-7.001999617E-1,-1.306599975E0,1.115399957E0
2.873399844E1,-2.691999972E-1,-1.604399920E0,2.039799929E0
2.875399844E1,-3.819999993E-1,-1.441200018E0,2.565199852E0
2.877399844E1,-5.960999727E-1,-1.377300024E0,1.796000004E0
2.879399844E1,-2.947999835E-1,-1.077299953E0,8.929999918E-2
2.881399844E1,2.230999917E-1,-7.586999536E-1,-1.158900023E0
2.883399844E1,3.920999765E-1,-5.199999809E-1,-2.321399927E0
2.885399844E1,6.383999586E-1,-2.723999918E-1,-3.315199852E0
2.887399844E1,8.680999875E-1,-1.612999886E-1,-3.456399918E0
2.889399844E1,1.079699993E0,-1.932999939E-1,-3.412099838E0
2.891399844E1,1.031499982E0,-1.754999906E-1,-3.044699907E0
2.893399844E1,8.141999841E-1,-8.799999952E-2,-2.540899992E0
2.895399844E1,6.639999747E-1,-8.980000019E-2,-2.319399834E0
2.897399844E1,4.553999901E-1,3.399999812E-2,-2.046200037E0
2.899399844E1,1.292999983E-1,1.353999972E-1,-1.626299977E0
2.901400000E1,-4.079999775E-2,2.264999896E-1,-9.605000019E-1
2.904399844E1,1.994999945E-1,2.102999985E-1,-6.340000033E-2
2.906399844E1,1.730000041E-2,3.538999856E-1,6.175999641E-1
2.908399844E1,-7.328000069E-1,8.457999825E-1,1.182799935E0
2.910399844E1,-1.475499988E0,1.608500004E0,1.639999986E0
2.912399844E1,-1.026799917E0,1.999699950E0,1.938799977E0
2.914399844E1,5.885999799E-1,1.006999969E0,2.314499855E0
2.916399844E1,1.707199931E0,-4.282999933E-1,3.380499840E0
2.918399844E1,1.238399982E0,-1.092599988E0,4.214799881E0
2.920399844E1,3.224000037E-1,-1.316900015E0,3.936899900E0
2.922399844E1,9.838999510E-1,-1.135499954E0,2.899999857E0
2.924399844E1,2.273499966E0,-9.100999832E-1,1.749099970E0
2.926399844E1,2.008899927E0,-8.104000092E-1,5.260999799E-1
2.928400000E1,1.161100030E0,-5.643999577E-1,-4.763000011E-1
2.930400000E1,9.355999827E-1,-2.644000053E-1,-1.042400002E0
2.933399844E1,3.511999846E-1,1.246999949E-1,-2.164499998E0
2.935399844E1,7.209999859E-2,2.642999887E-1,-2.519099951E0
2.937399844E1,8.799999952E-3,3.587999940E-1,-2.675999880E0
2.939399844E1,-1.257999986E-1,4.607999921E-1,-2.389400005E0
2.941399844E1,-2.655999959E-1,3.181000054E-1,-1.845199943E0
2.943399844E1,-7.268999815E-1,1.697999984E-1,-1.955099940E0
2.945399844E1,-9.404999614E-1,2.575999796E-1,-2.325899839E0
2.947399844E1,-7.125999928E-1,2.386000007E-1,-2.117599964E0
2.949399844E1,-5.367000103E-1,5.041999817E-1,-1.293999910E0
2.951399844E1,-3.470000029E-1,7.707999945E-1,-6.168999672E-1
2.953399844E1,-2.122999877E-1,1.146499991E0,2.419999987E-2
2.955399844E1,-1.592999995E-1,1.378000021E0,6.284999847E-1
2.957399844E1,-1.491999924E-1,1.464800000E0,1.176499963E0
2.959399844E1,3.467999995E-1,1.172599912E0,1.509999990E0
2.961399844E1,6.355999708E-1,8.876999617E-1,2.068399906E0
2.963399844E1,2.396999896E-1,9.477999806E-1,2.407699823E0
2.965399844E1,-1.879999936E-1,8.059999943E-1,2.479099989E0
2.967399844E1,8.060000092E-2,-1.735999882E-1,3.249199867E0
2.969400000E1,-4.904999733E-1,-6.096999645E-1,4.113299847E0
2.971400000E1,-1.643499970E0,-7.163000107E-1,3.048300028E0
2.974399844E1,-1.393199921E0,-6.963999867E-1,4.822999835E-1
2.976399844E1,-1.506000012E-1,-7.853999734E-1,4.398999810E-1
2.978400000E1,-7.949999720E-2,-9.408999681E-1,1.022799969E0
2.981399844E1,-9.092999697E-1,-1.105499983E0,5.525999665E-1
2.983399844E1,-6.378999949E-1,-9.440000057E-1,-8.839999884E-2
2.985399844E1,-1.729999930E-1,-7.469999790E-1,-1.010999918E0
2.987399844E1,7.699999958E-2,-4.224999845E-1,-1.745700002E0
2.989399844E1,1.882999986E-1,-1.850000024E-1,-2.331300020E0
2.991399844E1,2.194999903E-1,-9.919999540E-2,-2.786099911E0
2.993399844E1,3.633999825E-1,-2.322999984E-1,-3.198400021E0
2.995399844E1,4.375999868E-1,-2.171999961E-1,-3.471699953E0
2.997399844E1,2.456999868E-1,-2.730000019E-2,-3.375999928E0
2.999399844E1,1.266999990E-1,-7.499999832E-3,-3.036599874E0
3.001399844E1,1.911999881E-1,-7.490000129E-2,-2.209499836E0
3.003399844E1,1.247999966E-1,-4.099999741E-2,-1.598899961E0
3.005399844E1,-2.226999998E-1,1.949999928E-1,-1.075199962E0
3.007399844E1,-6.503999829E-1,3.220999837E-1,-4.723999798E-1
3.009399844E1,-3.780999780E-1,2.358999997E-1,3.576999903E-1
3.011399844E1,3.134999871E-1,3.427999914E-1,1.000200033E0
3.013399844E1,2.881999910E-1,8.165000081E-1,1.629999995E0
3.015399844E1,-4.415999949E-1,1.241299987E0,2.438699961E0
3.017399844E1,-3.506000042E-1,1.018700004E0,2.852399826E0
3.019400000E1,3.240999877E-1,1.239999980E-1,2.384899855E0
3.021400000E1,9.441999793E-1,-6.736999750E-1,3.105399847E0
3.024399844E1,-1.273999959E-1,-7.300999761E-1,3.729899883E0
3.026399844E1,1.798999906E-1,-5.090000033E-1,2.276299953E0
3.028400000E1,2.017299891E0,-8.015999794E-1,9.662999511E-1
3.031399844E1,2.369999886E0,-7.728999853E-1,7.486999631E-1
3.033399844E1,9.160999656E-1,-6.103000045E-1,1.230499983E0
3.035399844E1,5.399999674E-3,-4.624999762E-1,7.730999589E-1
3.037400469E1,1.107999980E-1,-2.888999879E-1,-9.598999619E-1
3.040399844E1,2.031999975E-1,8.819999546E-2,-2.482399940E0
3.042399844E1,-1.583999991E-1,2.883999944E-1,-3.081799984E0
3.044399844E1,-5.324000120E-1,2.739999890E-1,-3.639299870E0
3.046399844E1,-7.362999916E-1,3.247999847E-1,-3.979799986E0
3.048399844E1,-7.031999826E-1,3.892000020E-1,-3.597399950E0
3.050399844E1,-7.960000038E-1,2.267999947E-1,-2.648399830E0
3.052399844E1,-8.356999755E-1,1.574999988E-1,-1.848199964E0
3.054399844E1,-8.454999924E-1,3.168999851E-1,-1.145399928E0
3.056400781E1,-1.014500022E0,7.009999752E-1,-5.482000113E-1
3.059399844E1,-4.120999873E-1,9.239999652E-1,4.269999862E-1
3.061399844E1,1.543999910E-1,1.142400026E0,8.586999774E-1
3.063399844E1,4.165000021E-1,1.321299911E0,1.282899976E0
3.065399844E1,3.524999917E-1,1.397599936E0,1.846300006E0
3.067399844E1,1.635999978E-1,1.288599968E0,2.229399920E0
3.069400000E1,-1.856999993E-1,1.480299950E0,2.522300005E0
3.071400000E1,3.805999756E-1,6.237999797E-1,3.094899893E0
3.074399844E1,-3.850999773E-1,-8.181999922E-1,4.139699936E0
3.076399844E1,-1.776600003E0,-9.221999645E-1,3.014400005E0
3.078400000E1,-1.967700005E0,-1.072899938E0,1.493499994E0
3.081399844E1,2.509999871E-1,-1.251699924E0,1.212800026E0
3.083399844E1,6.726999879E-1,-1.336599946E0,1.419199944E0
3.085399844E1,-1.187999994E-1,-1.186100006E0,5.471999645E-1
3.087399844E1,-5.776000023E-1,-9.713999629E-1,-5.676000118E-1
3.089399844E1,-4.111999869E-1,-6.776999831E-1,-1.691599965E0
3.091399844E1,-1.999999955E-2,-5.489000082E-1,-2.597899914E0
3.093399844E1,3.342999816E-1,-3.994999826E-1,-2.955999851E0
3.095399844E1,5.575000048E-1,-3.416000009E-1,-2.804499865E0
3.097399844E1,6.962999701E-1,-3.598999977E-1,-2.836099863E0
3.099399844E1,8.382999897E-1,-4.246999919E-1,-2.959499836E0
3.101399844E1,8.386999965E-1,-2.953000069E-1,-3.177999973E0
3.103399844E1,7.156999707E-1,-5.109999701E-2,-2.946399927E0
3.105399844E1,7.615000010E-1,-4.199999943E-2,-2.365900040E0
3.107399844E1,6.471999884E-1,5.889999866E-2,-1.602399945E0
3.109399844E1,2.239999920E-1,1.316999942E-1,-1.278199911E0
3.111399844E1,-2.097999901E-1,3.053999841E-1,-1.185199976E0
3.113399844E1,-6.949999928E-2,3.519999981E-1,-4.104999900E-1
3.115399844E1,-2.406999916E-1,3.452999890E-1,1.147499919E0
3.117399844E1,-9.490999579E-1,8.633999825E-1,1.888700008E0
3.119399844E1,-1.434099913E0,1.611999989E0,1.807799935E0
3.121399844E1,-1.481299996E0,2.121799946E0,2.098799944E0
3.123399844E1,-4.324999750E-1,1.228399992E0,2.409899950E0
3.125399844E1,1.625399947E0,-3.165999949E-1,3.719699860E0
3.127399844E1,1.087399960E0,-9.830999970E-1,5.394999981E0
3.129400000E1,-2.751999795E-1,-1.291399956E0,5.564099789E0
3.131400000E1,1.577000022E-1,-8.039000034E-1,4.236099720E0
3.134399844E1,2.771800041E0,-6.883999705E-1,1.574699998E0
3.136399844E1,1.880499959E0,-5.049999952E-1,7.586999536E-1
3.138399844E1,4.041000009E-1,-5.106999874E-1,7.859999686E-2
3.140399844E1,-1.753000021E-1,-2.192000002E-1,-1.151899934E0
3.142399844E1,-3.950999975E-1,-1.719999872E-2,-2.230399847E0
3.144399844E1,-5.022000074E-1,1.376999915E-1,-3.137499809E0
3.146399844E1,-5.835999846E-1,2.540999949E-1,-3.797199965E0
3.148399844E1,-6.305999756E-1,2.705999911E-1,-4.228799820E0
3.150400000E1,-6.426999569E-1,2.238999903E-1,-4.055799961E0
3.153399844E1,-4.852999747E-1,6.879999489E-2,-3.443199873E0
3.155399844E1,-3.152000010E-1,5.599999800E-2,-2.706599951E0
3.157399844E1,-3.861999810E-1,8.259999752E-2,-1.845199943E0
3.159399844E1,-3.317999840E-1,9.769999981E-2,-1.199499965E0
3.161399844E1,-1.753999889E-1,4.915999770E-1,-8.155999780E-1
3.163399844E1,-2.549999952E-2,1.052999973E0,-7.504000068E-1
3.165399844E1,2.251999974E-1,1.390399933E0,-3.041999936E-1
3.167399844E1,3.545999825E-1,1.453199983E0,8.052999973E-1
3.169399844E1,3.147999942E-1,1.088899970E0,1.894199967E0
3.171399844E1,-7.479999959E-2,8.166999817E-1,2.772799969E0
3.173399844E1,-5.745999813E-1,1.131600022E0,3.561199903E0
3.175399844E1,5.024999976E-1,2.809999883E-1,3.707099915E0
3.177399844E1,8.158999681E-1,-8.150000125E-2,4.160500050E0
3.179400000E1,-8.362999558E-1,-1.235999987E-1,3.599399805E0
3.182399844E1,-1.587099910E0,-4.754999876E-1,1.631199956E0
3.184399844E1,-2.748000026E-1,-8.429999948E-1,1.293900013E0
3.186399844E1,2.936999798E-1,-9.419999719E-1,1.515299916E0
3.188399844E1,5.260000005E-2,-9.851999879E-1,1.267599940E0
3.190399844E1,-2.225999981E-1,-7.447999716E-1,6.187999845E-1
3.192399844E1,-6.449999660E-2,-4.834999740E-1,-4.582999945E-1
3.194399844E1,1.946999878E-1,-2.974999845E-1,-1.551800013E0
3.196399844E1,2.243999988E-1,-1.805000007E-1,-2.563299894E0
3.198399844E1,3.357000053E-1,-1.059999969E-2,-3.032599926E0
3.200399844E1,6.937999725E-1,1.027999967E-1,-3.400300026E0
3.202399844E1,1.029099941E0,7.530000061E-2,-3.775099993E0
3.204399844E1,1.114899993E0,9.169999510E-2,-3.892199993E0
3.206399844E1,7.084000111E-1,1.817999929E-1,-3.561599970E0
3.208399844E1,5.787000060E-1,2.180000022E-2,-3.112499952E0
3.210399844E1,6.649999619E-1,4.169999808E-2,-2.528699875E0
3.212399844E1,4.688999951E-1,5.945000052E-1,-1.545699954E0
3.214399844E1,1.509999931E-1,1.199299932E0,2.109999955E-2
3.216399844E1,2.780999839E-1,1.304499984E0,1.156599998E0
3.218399844E1,5.636000037E-1,9.212999940E-1,1.796099901E0
3.220399844E1,4.851000011E-1,9.160999656E-1,2.326400042E0
3.222399844E1,-4.210999906E-1,1.247499943E0,2.667799950E0
3.224400000E1,-1.916199923E0,1.861499906E0,2.120100021E0
3.227399844E1,-1.168999970E-1,4.230000079E-2,1.971199989E0
3.229400000E1,1.106400013E0,-2.008100033E0,4.278599739E0
3.231400000E1,-1.197999939E-1,-2.765499830E0,6.658999920E0
3.234399844E1,2.515999973E-1,-2.294699907E0,4.405600071E0
3.236399844E1,2.163599968E0,-1.293999910E0,1.409699917E0
3.238399844E1,2.828999996E0,-5.198999643E-1,-7.577999830E-1
3.240399844E1,1.389099956E0,4.099999741E-2,-8.671000004E-1
3.242399844E1,-1.171000004E-1,4.759999737E-2,-7.299999595E-1
3.244399844E1,-7.779999971E-1,1.809999943E-1,-1.617100000E0
3.246399844E1,-5.299000144E-1,2.173999995E-1,-2.905999899E0
3.248399844E1,-2.908999920E-1,4.720000029E-1,-3.806799889E0
3.250399844E1,-2.858999968E-1,4.357999861E-1,-3.876799822E0
3.252399844E1,-2.462999970E-1,1.898999959E-1,-3.523999929E0
3.254399844E1,-9.699999541E-2,8.789999783E-2,-3.180500031E0
3.256399844E1,9.579999745E-2,1.816999912E-1,-2.699899912E0
3.258400000E1,-4.959999770E-2,4.150999784E-1,-1.994099975E0
3.261399844E1,-5.496000051E-1,7.475000024E-1,-1.926099896E0
3.263399844E1,-4.759999812E-1,8.909999728E-1,-1.219299912E0
3.265399844E1,-9.789999574E-2,6.455000043E-1,-1.626999974E-1
3.267399844E1,-2.209999971E-2,8.019999862E-1,6.588000059E-1
3.269399844E1,-5.279999971E-2,8.549999595E-1,1.227299929E0
3.271399844E1,1.256999969E-1,5.888999701E-1,1.388499975E0
3.273399844E1,5.792999864E-1,1.454999894E-1,1.775699973E0
3.275399844E1,7.620000094E-2,4.388999939E-1,1.850399971E0
3.277399844E1,-5.462999940E-1,3.903999925E-1,2.001600027E0
3.279400000E1,-1.564499974E0,3.576000035E-1,1.394400001E0
3.282399844E1,-2.463599920E0,3.242999911E-1,7.003999949E-1
3.284399844E1,-1.709399939E0,-5.446000099E-1,6.312999725E-1
3.286399844E1,-2.734999955E-1,-1.591300011E0,2.445600033E0
3.288399844E1,-6.679999828E-2,-2.071699858E0,4.658599854E0
3.290399844E1,-1.081999987E-1,-1.970600009E0,5.023999691E0
3.292399844E1,-3.043999970E-1,-1.452399969E0,2.383599997E0
3.294399844E1,-1.052999943E-1,-7.389000058E-1,-4.230999947E-1
3.296399844E1,3.820999861E-1,-4.469999969E-1,-2.223599911E0
3.298399844E1,5.789999962E-1,-4.490000010E-2,-3.350499868E0
3.300399844E1,5.810999870E-1,8.069999516E-2,-2.990700006E0
3.302399844E1,6.430000067E-1,-2.987999916E-1,-2.813999891E0
3.304399844E1,7.633999586E-1,-5.795999765E-1,-2.961499929E0
3.306399844E1,1.135699987E0,-7.229999900E-1,-3.016199827E0
3.308399844E1,1.053200006E0,-6.624000072E-1,-2.581899881E0
3.310399844E1,7.752000093E-1,-5.943999887E-1,-2.167799950E0
3.312399844E1,3.876999915E-1,-4.486999810E-1,-1.887899995E0
3.314399844E1,-2.089999989E-2,-2.549000084E-1,-1.566399932E0
3.316399844E1,5.920000002E-2,-6.119999662E-2,-1.230599999E0
3.318400000E1,6.728999615E-1,-2.639999986E-2,-3.989999890E-1
3.321399844E1,5.649999976E-1,2.250999957E-1,8.951999545E-1
3.323399844E1,-5.913000107E-1,1.097899914E0,1.083699942E0
3.325399844E1,-1.561499953E0,2.346299887E0,1.286199927E0
3.327399844E1,-1.015299916E0,2.184900045E0,2.072200060E0
3.329399844E1,9.815999866E-1,3.375999928E-1,3.619799852E0
3.331399844E1,6.112999916E-1,-9.479999542E-1,5.644299984E0
3.333399844E1,-1.065500021E0,-1.389799953E0,5.740499973E0
3.335399844E1,-9.761999846E-1,-1.376599908E0,4.606199741E0
3.337399844E1,1.467199922E0,-1.355700016E0,3.307299852E0
3.339400000E1,2.657799959E0,-1.153100014E0,1.844699979E0
3.341400000E1,1.899899960E0,-7.398999929E-1,5.599999800E-2
3.344399844E1,4.748999774E-1,-6.024000049E-1,-1.848699927E0
3.346399844E1,9.409999847E-2,-3.542000055E-1,-2.723000050E0
3.348399844E1,3.849999979E-2,-8.850000054E-2,-3.402199984E0
3.350400000E1,1.375000030E-1,1.823999882E-1,-3.815099955E0
3.352400000E1,2.750999928E-1,5.853999853E-1,-4.285500050E0
3.355399844E1,2.490999997E-1,8.281999826E-1,-4.551399708E0
3.357399844E1,1.732999980E-1,5.382999778E-1,-3.587699890E0
3.359399844E1,1.923999935E-1,1.705999970E-1,-2.532899857E0
3.361399844E1,4.449999705E-2,1.303000003E-1,-1.741299987E0
3.363399844E1,-1.840000004E-1,1.717000008E-1,-1.310899973E0
3.365399844E1,-6.110000014E-1,4.052999914E-1,-1.659799933E0
3.367399844E1,-9.451999664E-1,7.725999951E-1,-1.431100011E0
3.369399844E1,-7.913999557E-1,9.989999533E-1,-2.770999968E-1
3.371399844E1,-7.325999737E-1,1.115599990E0,1.366599917E0
3.373399844E1,-6.107000113E-1,1.000100017E0,2.307600021E0
3.375399844E1,-6.286999583E-1,8.241999745E-1,2.881000042E0
3.377399844E1,-7.832999825E-1,9.048999548E-1,2.857800007E0
3.379399844E1,-5.496999621E-1,6.725999713E-1,3.049199820E0
3.381399844E1,5.109999701E-2,-1.638000011E-1,4.195499897E0
3.383399844E1,-4.531999826E-1,-7.321000099E-1,4.897299767E0
3.385400000E1,-1.720699906E0,-7.186999917E-1,4.380199909E0
3.387400000E1,-1.632200003E0,-7.713999748E-1,2.844699860E0
3.389400000E1,-1.759999990E-1,-8.359999657E-1,2.014799833E0
3.392399844E1,2.823999822E-1,-1.275499940E0,2.545500040E0
3.394399844E1,-3.660999835E-1,-1.201699972E0,2.761299849E0
3.396399844E1,-3.270999789E-1,-1.285300016E0,1.735999942E0
3.398399844E1,-1.009999961E-1,-9.519999623E-1,-1.358999908E-1
3.400399844E1,2.566999793E-1,-5.569999814E-1,-1.952899933E0
3.402399844E1,6.347999573E-1,-3.991999924E-1,-3.541899920E0
3.404399844E1,9.638999701E-1,-3.601999879E-1,-4.909899712E0
3.406399844E1,9.202999473E-1,-2.489999980E-1,-5.321000099E0
3.408399844E1,7.156999707E-1,-3.337999880E-1,-4.744599819E0
3.410399844E1,3.894999921E-1,-3.832999766E-1,-4.229799747E0
3.412399844E1,1.339000016E-1,-2.970999777E-1,-3.879899979E0
3.414399844E1,-1.045999974E-1,2.609999850E-2,-3.249199867E0
3.416399844E1,-3.281999826E-1,2.478999943E-1,-2.113100052E0
3.418399844E1,-5.210999846E-1,3.384999931E-1,-3.436000049E-1
3.420399844E1,-8.484999537E-1,4.887000024E-1,3.700999916E-1
3.422399844E1,-9.562000036E-1,6.746999621E-1,4.989999905E-2
3.424399844E1,-5.959999561E-1,6.200000048E-1,7.342999578E-1
3.426399844E1,-8.143999577E-1,1.155499935E0,2.155599833E0
3.428400000E1,-1.679299951E0,1.495700002E0,2.674499989E0
3.431399844E1,-8.639000058E-1,1.203799963E0,2.662199974E0
3.433399844E1,-3.920000046E-2,1.274299979E0,3.005100012E0
3.435399844E1,1.380999923E0,2.303999960E-1,3.815099955E0
3.437399844E1,1.237100005E0,-1.041399956E0,5.134099960E0
3.439399844E1,2.215999961E-1,-1.492900014E0,5.177899837E0
3.441400000E1,7.206999660E-1,-1.609300017E0,3.598999977E0
3.444399844E1,3.254599810E0,-1.612199903E0,-3.017999828E-1
3.446399844E1,3.002499819E0,-1.052099943E0,-9.569000006E-1
3.448399844E1,1.289999962E0,-7.490999699E-1,-3.868999779E-1
3.450399844E1,1.389999986E-1,-5.807999969E-1,-5.295000076E-1
3.452399844E1,-4.287999868E-1,-2.022999972E-1,-1.510499954E0
3.454399844E1,-6.940000057E-1,1.517999917E-1,-2.868099928E0
3.456399844E1,-9.156000018E-1,4.429999888E-1,-3.938599825E0
3.458399844E1,-1.006199956E0,4.390999973E-1,-4.292699814E0
3.460399844E1,-1.032099962E0,4.590999782E-1,-4.470599651E0
3.462399844E1,-8.273999691E-1,5.654999614E-1,-4.423899651E0
3.464399844E1,-4.921999872E-1,6.362999678E-1,-4.084599972E0
3.466399844E1,1.463000029E-1,4.007999897E-1,-3.296099901E0
3.468399844E1,3.569999933E-1,3.974999785E-1,-2.364199877E0
3.470399844E1,-9.719999880E-2,2.973999977E-1,-1.361799955E0
3.472399844E1,-5.830000043E-1,7.475999594E-1,-3.689999878E-1
3.474399844E1,-2.450999916E-1,8.227999806E-1,1.245700002E0
3.476399844E1,8.049999923E-2,8.639000058E-1,2.402299881E0
3.478399844E1,1.314999908E-1,8.904999495E-1,3.002399921E0
3.480399844E1,-1.499999966E-2,9.526000023E-1,3.268199921E0
3.482399844E1,-1.609999985E-1,8.708999753E-1,3.610399961E0
3.484399844E1,-3.852999806E-1,9.530999660E-1,3.735099792E0
3.486399844E1,-4.545999765E-1,8.053999543E-1,3.976999998E0
3.488399844E1,-4.030999839E-1,2.723000050E-1,4.767899990E0
3.490399844E1,-9.832999706E-1,-2.021999955E-1,4.786399841E0
3.492399844E1,-1.554799914E0,-5.169000030E-1,3.223399878E0
3.494399844E1,-1.268299937E0,-5.412999988E-1,1.267300010E0
3.496399844E1,-4.188999832E-1,-6.197999716E-1,-4.497999847E-1
3.498399844E1,2.680999935E-1,-6.902999878E-1,-8.601999879E-1
3.500399844E1,1.603000015E-1,-8.070999980E-1,-1.907999963E-1
3.502399844E1,-2.574999928E-1,-1.038900018E0,2.746999860E-1
3.504399844E1,-3.120000064E-1,-9.077000022E-1,7.459999919E-1
3.506399844E1,-4.018999934E-1,-7.304999828E-1,6.911000013E-1
3.508399844E1,-5.410999656E-1,-5.006999969E-1,-3.874999881E-1
3.510399844E1,-1.952999979E-1,-3.683999777E-1,-1.686800003E0
3.512399844E1,2.316999882E-1,-2.116999924E-1,-2.728399992E0
3.514400000E1,6.380000114E-1,-1.342999935E-1,-3.592999935E0
3.517399844E1,5.051999688E-1,2.683999836E-1,-3.775199890E0
3.519399844E1,4.638999999E-1,5.146999955E-1,-3.480999947E0
3.521399844E1,2.410999984E-1,6.428999901E-1,-3.342899799E0
3.523399844E1,7.189999521E-2,6.629999876E-1,-3.146999836E0
3.525399844E1,8.479999751E-2,7.028999925E-1,-1.908199906E0
3.527399844E1,1.099999994E-2,5.009999871E-1,-4.690000042E-2
3.529399844E1,-4.690000042E-2,3.461999893E-1,1.453899980E0
3.531399844E1,2.219000012E-1,-1.349999942E-2,1.620700002E0
3.533399844E1,1.315999925E-1,1.445000023E-1,1.097499967E0
3.535399844E1,-6.370999813E-1,7.501999736E-1,4.715999961E-1
3.537399844E1,-1.568300009E0,1.852899909E0,5.792999864E-1
3.539399844E1,-1.253000021E0,1.823199987E0,1.429999948E0
3.541399844E1,2.620999813E-1,2.682999969E-1,3.610699892E0
3.543399844E1,1.702999920E-1,-1.018700004E0,5.902299881E0
3.545399844E1,-1.301800013E0,-1.032099962E0,4.913399696E0
3.547400156E1,-1.138899922E0,-1.078999996E0,2.803999901E0
3.550399844E1,1.745499969E0,-1.351799965E0,1.432799935E0
3.552399844E1,2.086899996E0,-1.050300002E0,1.115199924E0
3.554399844E1,1.327799916E0,-7.445999980E-1,-3.976999819E-1
3.556399844E1,1.123199940E0,-5.425999761E-1,-2.099999905E0
3.558399844E1,1.115299940E0,-3.219999969E-1,-3.017999887E0
3.560399844E1,6.626999974E-1,5.299999844E-3,-2.544800043E0
3.562399844E1,1.180999950E-1,9.309999645E-2,-1.946499944E0
3.564399844E1,-3.044999838E-1,2.786000073E-1,-2.720999956E0
3.566399844E1,-9.239999950E-2,4.587999880E-1,-3.225800037E0
3.568399844E1,2.784000039E-1,5.163999796E-1,-3.182399988E0
3.570399844E1,9.309999645E-2,6.380000114E-1,-2.641599894E0
3.572399844E1,7.699999958E-3,6.255999804E-1,-2.356099844E0
3.574399844E1,-1.200000010E-2,6.814999580E-1,-1.903999925E0
3.576399844E1,1.692000031E-1,5.446999669E-1,-7.956999540E-1
3.578399844E1,4.079999775E-2,5.124999881E-1,2.460999936E-1
3.580399844E1,1.081999987E-1,5.777999759E-1,7.937999964E-1
3.582399844E1,1.480000000E-2,7.385999560E-1,9.054999948E-1
3.584399844E1,1.899999939E-2,7.398999929E-1,1.030399919E0
3.586399844E1,1.177999973E-1,8.149999976E-1,1.640799999E0
3.588399844E1,-3.583999872E-1,1.007300019E0,2.060799837E0
3.590399844E1,-6.444000006E-1,1.015699983E0,2.164700031E0
3.592399844E1,1.023800015E0,-5.205000043E-1,2.992399931E0
3.594399844E1,4.222999811E-1,-1.029699922E0,3.852999926E0
3.596400156E1,-1.888399959E0,-8.319000006E-1,3.510200024E0
3.599399844E1,-2.120699883E0,-4.196999967E-1,1.076999977E-1
3.601399844E1,-3.179000020E-1,-4.057999849E-1,-4.299999680E-3
3.603399844E1,1.982999891E-1,-5.299000144E-1,1.128299952E0
3.605399844E1,-6.991999745E-1,-7.012000084E-1,1.094699979E0
3.607399844E1,-8.677999973E-1,-7.939999700E-1,9.163999557E-1
3.609399844E1,-4.758999944E-1,-6.240999699E-1,-1.964000016E-1
3.611399844E1,-9.019999951E-2,-3.048999906E-1,-1.448699951E0
3.613399844E1,7.539999485E-2,-5.359999835E-2,-2.579200029E0
3.615399844E1,6.469999999E-2,3.869999945E-2,-3.089299917E0
3.617399844E1,-4.230000079E-2,6.999999750E-4,-3.375299931E0
3.619399844E1,1.999999949E-4,-2.749999985E-2,-3.349299908E0
3.621399844E1,9.969999641E-2,-2.149999887E-2,-2.708799839E0
3.623399844E1,1.442999989E-1,-1.066999957E-1,-2.118900061E0
3.625399844E1,1.869999990E-2,-6.939999759E-2,-1.947099924E0
3.627399844E1,-8.659999818E-2,1.098999977E-1,-1.560699940E0
3.629400000E1,-1.504999995E-1,1.894000024E-1,-8.328999877E-1
3.632399844E1,-3.192999959E-1,2.879999876E-1,-3.822999895E-1
3.634399844E1,-2.188999951E-1,1.543999910E-1,-1.069999952E-2
3.636399844E1,-3.628000021E-1,2.734999955E-1,5.652999878E-1
3.638399844E1,-6.060999632E-1,8.927999735E-1,1.506899953E0
3.640399844E1,-9.808999896E-1,1.471099973E0,2.308699846E0
3.642399844E1,-1.014999986E0,1.623199940E0,2.311800003E0
3.644399844E1,9.309999645E-2,5.651000142E-1,2.134599924E0
3.646399844E1,8.851000071E-1,-1.399999950E-3,2.585700035E0
3.648399844E1,2.474000007E-1,-8.976999521E-1,3.155799866E0
3.650399844E1,2.435999960E-1,-1.382799983E0,3.608199835E0
3.652400000E1,1.521199942E0,-1.695599914E0,3.886499882E0
3.655399844E1,1.806599975E0,-1.061800003E0,1.866099954E0
3.657399844E1,1.169399977E0,-4.790999889E-1,3.628000021E-1
3.659399844E1,9.639999866E-1,3.940000013E-2,-8.149999976E-1
3.661399844E1,6.430999637E-1,2.671000063E-1,-1.809700012E0
3.663399844E1,1.005999967E-1,2.935000062E-1,-2.105799913E0
3.665399844E1,-1.567000002E-1,2.313999981E-1,-2.806200027E0
3.667399844E1,-2.430000007E-1,3.364000022E-1,-3.791899920E0
3.669399844E1,-3.147999942E-1,3.225999773E-1,-4.218299866E0
3.671399844E1,-3.671999872E-1,2.597999871E-1,-3.921000004E0
3.673399844E1,-2.586999834E-1,1.586999893E-1,-3.429799795E0
3.675399844E1,-3.795999885E-1,5.460000038E-2,-2.920599937E0
3.677399844E1,-7.451999784E-1,1.732999980E-1,-2.158099890E0
3.679399844E1,-7.839999795E-1,2.234999985E-1,-1.295300007E0
3.681399844E1,-6.043999791E-1,2.441999912E-1,-7.049999833E-1
3.683399844E1,-1.445999891E-1,-1.150999963E-1,7.319999486E-2
3.685399844E1,1.780999899E-1,-8.262999654E-1,6.398999691E-1
3.687399844E1,-1.058300018E0,2.780799866E0,1.073400021E0
3.689399844E1,-6.369999796E-2,1.029999971E0,1.483600020E0
3.691399844E1,4.615999758E-1,2.142999917E-1,1.292899966E0
3.693399844E1,-8.693999648E-1,2.578999996E0,-7.129999995E-2
3.695399844E1,-7.784000039E-1,1.350099921E0,2.592999935E-1
3.697399844E1,-1.548200011E0,9.222999811E-1,2.615900040E0
3.699400000E1,-1.695599914E0,-6.812999845E-1,5.416500092E0
3.701400000E1,-1.279199958E0,-1.118899941E0,5.679100037E0
3.704399844E1,-4.235999882E-1,-1.815999895E-1,2.337299824E0
3.706399844E1,-7.069999725E-2,-3.084000051E-1,1.415799975E0
3.708399844E1,1.595999897E-1,-7.389000058E-1,1.242699981E0
3.710399844E1,1.088999957E-1,-1.262399912E0,4.439999759E-1
3.712399844E1,-4.807999730E-1,-6.916999817E-1,1.359200001E0
3.714399844E1,3.313999772E-1,-7.479000092E-1,9.641999602E-1
3.716399844E1,7.415999770E-1,-2.699999809E-1,-9.929999709E-2
3.718399844E1,1.013999939E0,-1.439999975E-2,-1.128499985E0
3.720399844E1,6.437999606E-1,-4.123999774E-1,-2.946899891E0
3.722399844E1,2.502000034E-1,1.669999957E-2,-3.796099901E0
3.724399844E1,9.315999746E-1,9.910000116E-2,-4.055999756E0
3.726399844E1,1.632200003E0,-2.778999805E-1,-4.177199841E0
3.728400000E1,1.575099945E0,-3.671999872E-1,-3.970999956E0
3.731399844E1,7.256999612E-1,-1.648000032E-1,-1.922499895E0
3.733399844E1,-1.079800010E0,-9.030000120E-2,-3.072000027E0
3.735399844E1,-6.024000049E-1,5.576999784E-1,-9.767999649E-1
3.737399844E1,6.578999758E-1,7.724999785E-1,4.549999908E-2
3.739399844E1,6.071000099E-1,3.055999875E-1,1.992100000E0
3.741399844E1,-3.412999809E-1,1.538399935E0,2.092200041E0
3.743399844E1,-6.970999837E-1,4.189999774E-2,1.833899975E0
3.745400000E1,-1.973899961E0,1.686100006E0,1.507499933E0
3.747400000E1,-1.511299968E0,2.575999975E0,1.677899957E0
3.750400000E1,1.202299953E0,-1.119999960E-2,2.245199919E0
3.753399844E1,1.261099935E0,-5.575000048E-1,2.360800028E0
3.755399844E1,9.973999858E-1,-5.716999769E-1,1.535399914E0
3.757400000E1,-4.827999771E-1,-2.453999966E-1,-9.071999788E-1
3.760400000E1,1.817299962E0,-1.493099928E0,2.941599846E0
3.762400000E1,1.282899976E0,-1.208799958E0,3.111099958E0
3.765399844E1,-1.991999894E-1,-2.875999808E-1,7.971999645E-1
3.767399844E1,-6.438999772E-1,-5.339999869E-2,-1.068400025E0
3.769399844E1,-4.876999855E-1,7.757999897E-1,-2.504799843E0
3.771399844E1,-3.291999996E-1,8.996999860E-1,-3.346499920E0
3.773399844E1,-1.237999946E-1,6.790999770E-1,-3.112200022E0
3.775399844E1,3.291999996E-1,-3.340999782E-1,-1.467899919E0
3.777399844E1,-1.139400005E0,-5.888000131E-1,-4.496500015E0
3.779399844E1,-1.254199982E0,8.729999661E-1,-6.049999595E-1
3.781399844E1,-1.944999993E-1,7.931999564E-1,-1.217000008E0
3.783399844E1,6.693999767E-1,4.585999846E-1,-6.302999854E-1
3.785399844E1,6.861000061E-1,8.921999931E-1,4.800000042E-2
3.787399844E1,9.865999818E-1,-1.511999965E-1,1.002999991E-1
3.789399844E1,-5.608999729E-1,7.559999824E-1,-7.702999711E-1
3.791399844E1,-1.189999953E-1,8.757999539E-1,-7.168999910E-1
3.793399844E1,1.327499986E0,1.131999940E-1,4.825999737E-1
3.795399844E1,1.051200032E0,2.096999884E-1,1.435999990E0
3.797399844E1,-2.631999850E-1,8.302999735E-1,1.489899993E0
3.799399844E1,1.674999893E-1,4.699999988E-1,1.814700007E0
3.801399844E1,5.054999590E-1,-2.500000000E-1,2.320099831E0
3.803399844E1,-6.872999668E-1,-3.102999926E-1,2.661900043E0
3.805399844E1,-1.167199969E0,-2.087999880E-1,1.388299942E0
3.807399844E1,-2.425999939E-1,-9.519999474E-2,8.183999658E-1
3.809399844E1,5.629000068E-1,-5.580999851E-1,6.018999815E-1
3.811399844E1,2.579999901E-2,-8.102999926E-1,5.715999603E-1
3.813399844E1,-2.662000060E-1,-8.962000012E-1,4.895999730E-1
3.815399844E1,2.399999881E-3,-9.417999983E-1,1.171999946E-1
3.817399844E1,3.023999929E-1,-8.610999584E-1,-4.056999981E-1
3.819399844E1,4.289000034E-1,-4.477999806E-1,-1.013700008E0
3.821399844E1,3.885000050E-1,-1.092000008E-1,-1.590299964E0
3.823399844E1,3.197999895E-1,1.070999950E-1,-2.023900032E0
3.825399844E1,5.345999599E-1,1.269000024E-1,-2.522899866E0
3.827399844E1,5.169999599E-1,2.811999917E-1,-2.853099823E0
3.829399844E1,5.333999991E-1,5.062999725E-1,-2.868499994E0
3.831399844E1,7.518000007E-1,5.102999806E-1,-2.679100037E0
3.833399844E1,6.301999688E-1,6.811000109E-1,-2.500900030E0
3.835399844E1,3.675999939E-1,8.733999729E-1,-2.038399935E0
3.837399844E1,-9.250000119E-2,1.027799964E0,-1.527199984E0
3.839399844E1,-5.419999957E-1,1.208899975E0,-6.162999868E-1
3.841399844E1,-5.694999695E-1,9.552999735E-1,6.042999625E-1
3.843399844E1,-5.803999901E-1,1.055999994E0,1.625399947E0
3.845399844E1,-1.418399930E0,1.628999949E0,2.362400055E0
3.847399844E1,-2.003499985E0,1.973199964E0,2.122099876E0
3.849399844E1,-1.495899916E0,2.163699865E0,2.470599890E0
3.851399844E1,7.700999975E-1,6.532999873E-1,3.629400015E0
3.853399844E1,2.067800045E0,-1.610799909E0,5.543200016E0
3.855399844E1,1.153299928E0,-2.523999929E0,7.010299683E0
3.857399844E1,4.557999969E-1,-2.165600061E0,5.422499657E0
3.859399844E1,1.480599999E0,-1.442199945E0,2.542899847E0
3.861399844E1,2.804299831E0,-1.098299980E0,-1.569999903E-1
3.863399844E1,1.820499897E0,-8.181999922E-1,-1.570599914E0
3.865399844E1,2.739000022E-1,-3.547999859E-1,-1.513899922E0
3.867399844E1,-2.992999852E-1,-2.617000043E-1,-1.373999953E0
3.869399844E1,-1.865999997E-1,-1.847999990E-1,-1.418200016E0
3.871399844E1,-1.463999897E-1,-1.169999987E-1,-1.889499903E0
3.873399844E1,-4.749999940E-1,4.120000005E-1,-2.894999981E0
3.875399844E1,-4.609999955E-1,6.908999681E-1,-3.506199837E0
3.877399844E1,-3.342999816E-1,8.876000047E-1,-3.653800011E0
3.879399844E1,-7.880000025E-2,9.341999888E-1,-3.323099852E0
3.881399844E1,-1.397999972E-1,8.668999672E-1,-2.740099907E0
3.883399844E1,-1.560999900E-1,8.028999567E-1,-2.061800003E0
3.885399844E1,-8.919999748E-2,6.808999777E-1,-9.919999838E-1
3.887399844E1,1.937000006E-1,5.922999978E-1,-3.050000072E-1
3.889399844E1,2.554000020E-1,5.744999647E-1,1.686999947E-1
3.891399844E1,1.841000021E-1,7.694999576E-1,5.083000064E-1
3.893399844E1,5.869999900E-2,9.538999796E-1,1.071900010E0
3.895399844E1,-7.140000165E-2,7.035999894E-1,2.163199902E0
3.897399844E1,-2.879999876E-1,4.677999914E-1,2.498499870E0
3.899399844E1,-1.744999886E-1,4.684000015E-1,2.500099897E0
3.901399844E1,7.429999709E-1,-5.133000016E-1,3.974399805E0
3.903399844E1,-1.747999936E-1,-7.554999590E-1,4.603799820E0
3.905399844E1,-1.214900017E0,-8.314999938E-1,2.179100037E0
3.907399844E1,-8.248999715E-1,-4.803999960E-1,5.941999555E-1
3.909399844E1,2.854000032E-1,-6.503999829E-1,2.782999873E-1
3.911399844E1,3.567000031E-1,-9.239999652E-1,9.097999930E-1
3.913400156E1,-7.396000028E-1,-1.105999947E0,9.289999604E-1
3.916399844E1,-8.539999723E-1,-8.129000068E-1,-3.165999949E-1
3.918399844E1,-4.363999963E-1,-4.895999730E-1,-1.590699911E0
3.920399844E1,-4.084999859E-1,-3.923999965E-1,-2.793499947E0
3.922399844E1,-5.281000137E-1,-2.224999964E-1,-3.368000031E0
3.924399844E1,-8.519999683E-2,-2.090999931E-1,-3.315299988E0
3.926399844E1,4.969999790E-1,-1.586000025E-1,-3.115900040E0
3.928400000E1,7.990999818E-1,-7.169999927E-2,-3.394899845E0
3.931399844E1,8.190999627E-1,2.894999981E-1,-3.369199991E0
3.933399844E1,7.337999940E-1,5.130999684E-1,-2.302700043E0
3.935399844E1,6.882999539E-1,4.129000008E-1,-1.445199966E0
3.937399844E1,4.590999782E-1,4.609999955E-1,-1.009699941E0
3.939399844E1,5.559999868E-2,5.665999651E-1,-1.013399959E0
3.941399844E1,-3.800999820E-1,8.168999553E-1,-8.592000008E-1
3.943399844E1,-5.570999980E-1,1.137300014E0,4.181999862E-1
3.945399844E1,-7.698999643E-1,1.225199938E0,2.142199993E0
3.947399844E1,-9.929999709E-1,1.033299923E0,3.669600010E0
3.949399844E1,-1.368600011E0,1.052600026E0,2.891999960E0
3.951399844E1,-1.417899966E0,8.965999484E-1,2.040099859E0
3.953399844E1,5.415999889E-1,-4.663999975E-1,2.936100006E0
3.955399844E1,3.249000013E-1,-1.332299948E0,4.459499836E0
3.957399844E1,-1.512099981E0,-1.586300015E0,4.907899857E0
3.959399844E1,-1.308599949E0,-1.446599960E0,4.218100071E0
3.961399844E1,6.631999612E-1,-1.231999993E0,2.731699944E0
3.963399844E1,1.572299957E0,-1.059800029E0,9.117999673E-1
3.965399844E1,1.081599951E0,-5.523999929E-1,-2.167999893E-1
3.967399844E1,3.707999885E-1,-2.757999897E-1,-4.098999798E-1
3.969400000E1,1.399999950E-3,-5.079999939E-2,-1.248999953E0
3.971400000E1,-3.028999865E-1,1.243999973E-1,-2.524799824E0
3.974399844E1,-4.493999779E-1,5.511000156E-1,-3.827099800E0
3.976399844E1,-7.238000035E-1,7.863999605E-1,-4.060999870E0
3.978399844E1,-7.576999664E-1,8.291999698E-1,-4.000800133E0
3.980399844E1,-3.896999955E-1,7.694999576E-1,-3.284799814E0
3.982399844E1,-1.395999938E-1,7.080999613E-1,-2.080199957E0
3.984399844E1,-2.202999890E-1,5.601999760E-1,-1.120599985E0
3.986399844E1,-4.860999882E-1,5.115000010E-1,-2.683999836E-1
3.988399844E1,-1.712999940E-1,5.015000105E-1,2.719999850E-1
3.990399844E1,3.859999776E-1,5.904999971E-1,7.853999734E-1
3.992399844E1,4.236999750E-1,7.845999599E-1,1.281399965E0
3.994401406E1,8.370000124E-2,1.064499974E0,1.493799925E0
3.997399844E1,5.762000084E-1,6.647999883E-1,2.149699926E0
3.999399844E1,6.143000126E-1,4.556999803E-1,2.730099916E0
4.001399844E1,4.923999906E-1,1.577999890E-1,3.180799961E0
4.003399844E1,3.296999931E-1,-6.437999606E-1,4.059799671E0
4.005399844E1,-1.022699952E0,-7.633000016E-1,3.059399843E0
4.007399844E1,-1.391099930E0,-5.568999648E-1,1.079399943E0
4.009399844E1,-1.203999966E-1,-8.876999617E-1,-1.340999901E-1
4.011399844E1,1.233799934E0,-8.252999783E-1,5.825999975E-1
4.013399844E1,9.660999775E-1,-1.062699914E0,1.416199923E0
4.015399844E1,-4.391999841E-1,-8.037999868E-1,1.211699963E0
4.017399844E1,-6.466000080E-1,-7.393999696E-1,1.287999898E-1
4.019400000E1,-2.877999842E-1,-2.876999974E-1,-8.420000076E-1
4.021400000E1,1.009999961E-1,-2.000999898E-1,-2.085099936E0
4.024399844E1,1.633999944E-1,3.129999936E-1,-3.206099987E0
4.026399844E1,4.917999804E-1,5.877000093E-1,-3.379400015E0
4.028400000E1,8.016999960E-1,6.595000029E-1,-3.561999798E0
4.031399844E1,6.951999664E-1,6.347000003E-1,-3.088899851E0
4.033399844E1,4.541999996E-1,5.386999846E-1,-2.226999998E0
4.035399844E1,4.682999849E-1,5.706999898E-1,-1.699800014E0
4.037399844E1,2.965999842E-1,5.658000112E-1,-1.310500026E0
4.039399844E1,-2.998999953E-1,5.661999583E-1,-1.213999987E0
4.041399844E1,-8.621000051E-1,5.787000060E-1,-1.026999950E0
4.043399844E1,-7.218999863E-1,5.551999807E-1,-1.644999981E-1
4.045399844E1,-4.918999970E-1,7.168999910E-1,1.360700011E0
4.047399844E1,-4.377000034E-1,8.170999885E-1,2.943099976E0
4.049399844E1,-6.948999763E-1,1.037400007E0,3.192299843E0
4.051399844E1,-7.999999449E-3,4.315999746E-1,3.052399874E0
4.053400469E1,2.362099886E0,-1.626599908E0,5.221099854E0
4.056399844E1,-1.726000011E-1,-1.980899930E0,7.318699837E0
4.058399844E1,-5.367000103E-1,-2.213700056E0,4.642799854E0
4.060399844E1,8.309999704E-1,-8.296999931E-1,1.927099943E0
4.062399844E1,2.142400026E0,-6.599999666E-1,2.885999978E-1
4.064399844E1,1.150099993E0,2.687999904E-1,-2.105999947E0
4.066399844E1,1.650999933E-1,2.908999920E-1,-2.731699944E0
4.068399844E1,-5.911999941E-1,1.720999926E-1,-2.333499908E0
4.070399844E1,-9.213999510E-1,-7.859999686E-2,-1.935299993E0
4.072399844E1,-9.748999476E-1,-8.349999785E-2,-2.320199966E0
4.074399844E1,-1.072899938E0,2.489999980E-1,-2.869699955E0
4.076399844E1,-1.112800002E0,5.138999820E-1,-3.211699963E0
4.078400000E1,-1.005499959E0,5.935999751E-1,-3.277499914E0
4.081399844E1,-6.211999655E-1,8.422999978E-1,-3.255100012E0
4.083399844E1,-4.456000030E-1,7.811999917E-1,-1.999699950E0
4.085399844E1,-3.339999914E-1,7.060999870E-1,-5.300999880E-1
4.087399844E1,-4.332000017E-1,7.987999916E-1,2.146999985E-1
4.089399844E1,-5.059999824E-1,8.430999517E-1,2.764999866E-1
4.091399844E1,-4.736000001E-1,9.746999741E-1,2.340999991E-1
4.093399844E1,-5.496000051E-1,1.137599945E0,8.689999580E-1
4.095399844E1,-6.240999699E-1,1.162699938E0,1.719399929E0
4.097399844E1,-3.691999912E-1,9.712999463E-1,2.354199886E0
4.099399844E1,-2.816999853E-1,8.050999641E-1,2.939599991E0
4.101399844E1,-5.498999953E-1,1.140599966E0,2.891199827E0
4.103399844E1,-3.915999830E-1,7.829999924E-1,2.904899836E0
4.105399844E1,-1.400200009E0,5.060999990E-1,2.539199829E0
4.107399844E1,-1.983599901E0,-1.009999961E-2,2.032199860E0
4.109399844E1,-1.376299977E0,-6.029999852E-1,1.796399951E0
4.111399844E1,1.339999959E-2,-1.002699971E0,1.744300008E0
4.113399844E1,4.268999994E-1,-1.465899944E0,2.369099855E0
4.115399844E1,1.692999899E-1,-1.656099916E0,2.273499966E0
4.117399844E1,-1.702999920E-1,-1.567199945E0,9.577999711E-1
4.119400000E1,-1.219999939E-1,-1.235099912E0,-8.029999733E-1
4.122400000E1,3.095999956E-1,-7.604999542E-1,-2.412099838E0
4.125399844E1,6.448999643E-1,-5.753999949E-1,-3.088500023E0
4.127399844E1,7.644000053E-1,-4.499999881E-1,-3.403699875E0
4.129399844E1,8.021999598E-1,-3.057000041E-1,-3.782599926E0
4.131399844E1,8.069999814E-1,-3.119999915E-2,-4.153100014E0
4.133399844E1,8.258999586E-1,1.348000020E-1,-3.594299793E0
4.135399844E1,7.943999767E-1,1.662999988E-1,-2.532099962E0
4.137399844E1,4.184999764E-1,3.069999814E-1,-1.805400014E0
4.139399844E1,1.141999960E-1,5.163999796E-1,-1.194599986E0
4.141399844E1,-1.233999953E-1,7.192999721E-1,-9.341999888E-1
4.143399844E1,4.409999773E-2,6.890000105E-1,-8.352999687E-1
4.145399844E1,4.705999792E-1,6.708999872E-1,1.171000004E-1
4.147399844E1,-1.249999925E-2,8.282999992E-1,1.226300001E0
4.149399844E1,-8.445000052E-1,1.413399935E0,1.694799900E0
4.151399844E1,-1.005100012E0,2.067600012E0,1.861699939E0
4.153399844E1,7.030999660E-1,1.211799979E0,2.898399830E0
4.155399844E1,2.555599928E0,5.909999833E-2,4.367499828E0
4.157400000E1,2.221299887E0,-8.489999771E-1,5.200599670E0
4.160399844E1,8.762999773E-1,-1.418799996E0,5.079799652E0
4.162399844E1,1.671800017E0,-7.540000081E-1,2.037199974E0
4.164399844E1,2.875999928E0,-8.034999967E-1,2.352999896E-1
4.166399844E1,2.346299887E0,-8.691999912E-1,-9.361999631E-1
4.168399844E1,6.298999786E-1,-6.315999627E-1,-8.887999654E-1
4.170399844E1,-4.526000023E-1,-5.432000160E-1,-9.712999463E-1
4.172399844E1,-9.496999979E-1,-4.138000011E-1,-1.754599929E0
4.174399844E1,-1.012599945E0,-2.215999961E-1,-2.635399818E0
4.176399844E1,-4.204999804E-1,-3.161999881E-1,-3.332799911E0
4.178400000E1,-2.922999859E-1,-2.364999950E-1,-4.723499775E0
4.181400000E1,-1.000699997E0,7.303999662E-1,-4.049200058E0
4.184399844E1,-5.019999743E-1,4.384999871E-1,-2.059200048E0
4.186399844E1,-6.631999612E-1,6.086999774E-1,-6.527999640E-1
4.188399844E1,-6.370999813E-1,7.928000093E-1,-6.746999621E-1
4.190399844E1,-7.777000070E-1,1.102299929E0,-4.274999797E-1
4.192399844E1,-8.190999627E-1,1.246899962E0,1.256999969E-1
4.194399844E1,-8.625999689E-1,1.281299949E0,5.623999834E-1
4.196399844E1,-8.046999574E-1,1.204999924E0,1.246799946E0
4.198399844E1,-4.025999904E-1,1.013599992E0,1.734200001E0
4.200399844E1,-1.528999954E-1,1.083400011E0,1.937699914E0
4.202399844E1,-1.034999937E-1,6.811000109E-1,2.999399900E0
4.204399844E1,1.118999943E-1,-3.312000036E-1,4.747399807E0
4.206399844E1,-5.252999663E-1,-7.114999890E-1,4.957399845E0
4.208399844E1,-1.510299921E0,-5.706999898E-1,1.943300009E0
4.210399844E1,-9.433999658E-1,-3.067999780E-1,2.929999828E-1
