"Time (s)","Acceleration x (m/s^2)","Acceleration y (m/s^2)","Acceleration z (m/s^2)"
0.000000000E0,-3.119817257E0,3.797893286E0,3.374071836E0
2.000000000E-2,-2.590947628E0,3.352437735E0,4.019222736E0
4.000000000E-2,-2.540832281E0,3.162596703E0,5.060164452E0
6.002031200E-2,-2.946381330E0,3.166580915E0,5.869251251E0
8.200000000E-2,-3.470577478E0,3.275660753E0,6.494607449E0
1.040000000E-1,-3.967671156E0,3.734638691E0,7.237211704E0
1.260015620E-1,-4.054743290E0,4.023226261E0,7.501981735E0
1.480000000E-1,-3.919605017E0,4.107061386E0,7.280413151E0
1.680031250E-1,-3.787703514E0,4.218459129E0,7.273996353E0
1.899984370E-1,-3.692807198E0,4.185400009E0,7.398657799E0
2.100000000E-1,-3.583478212E0,4.005279064E0,7.473261356E0
2.300000000E-1,-3.729668140E0,4.024145603E0,7.637675762E0
2.500031250E-1,-3.829295635E0,4.124376297E0,7.770401001E0
2.720000000E-1,-3.891650438E0,4.170134068E0,7.791996479E0
2.920062500E-1,-4.323564529E0,4.353740692E0,8.052821159E0
3.139984370E-1,-4.498092175E0,4.367043018E0,8.135890007E0
3.340000000E-1,-3.716165066E0,4.062299728E0,7.595901966E0
3.540000000E-1,-4.867287636E0,3.707699060E0,7.843404770E0
3.740031250E-1,-3.728346586E0,2.450838804E0,7.527226448E0
3.960000000E-1,-1.176300049E0,9.292950630E-1,8.690808296E0
4.160046870E-1,-2.843852043E0,1.751521349E0,1.156994152E1
4.379984370E-1,-3.011465073E0,3.423133790E-1,1.629833603E1
4.580156250E-1,-3.161160231E0,-2.179202437E-1,1.529708099E1
4.800000000E-1,-3.376035213E0,3.736486733E-1,1.469227695E1
5.000000000E-1,-2.452936172E0,-5.340027213E-1,1.319947338E1
5.219984370E-1,-2.313105106E0,-3.821241856E-1,1.255291367E1
5.420000000E-1,-2.277929783E0,-4.643697739E-1,1.318837357E1
5.620000000E-1,-2.096458673E0,-8.609549142E-3,1.333821297E1
5.820000000E-1,-2.361209631E0,6.360244751E-1,1.229266548E1
6.020000000E-1,-1.677291512E0,1.180006266E0,1.099329281E1
6.239984370E-1,5.895482302E-1,-1.323581815E0,9.284340858E0
6.439984370E-1,2.318382025E0,-2.832072496E0,9.548707962E0
6.639984370E-1,4.897052288E0,-5.646226406E0,1.149480152E1
6.839984370E-1,3.292965889E0,-3.709825277E0,8.365934372E0
7.039984370E-1,7.539149523E-1,-2.666853368E-1,7.387644768E0
7.240000000E-1,1.499919444E-1,-3.153355122E-1,7.181790829E0
7.440000000E-1,6.797617078E-1,-2.031729221E0,7.623530865E0
7.640000000E-1,-2.072784901E0,-8.314200640E-1,7.319285393E0
7.840000000E-1,-2.604412556E0,1.083251834E0,6.717057228E0
8.060000000E-1,-2.490247488E0,1.968043327E0,4.326149940E0
8.260000000E-1,-1.412674785E0,2.080839157E0,3.431858301E0
8.480000000E-1,-1.093537211E0,1.799740553E0,5.312589645E0
8.680000000E-1,-1.885970116E0,2.143662930E0,7.401329517E0
8.880000000E-1,-2.374559641E0,2.246958256E0,9.306041718E0
9.080031250E-1,-2.238032818E0,2.356248856E0,9.264143944E0
9.300000000E-1,-1.477155447E0,2.885137558E0,9.237912178E0
9.519984370E-1,-1.365633488E0,3.774209976E0,1.052548504E1
9.719984370E-1,-1.179469943E0,3.444997549E0,1.027922726E1
9.919984370E-1,-1.191728234E0,3.605514765E0,9.206873894E0
1.012000000E0,-1.006177664E0,3.968054295E0,8.325778961E0
1.033998437E0,-4.258422852E-1,4.129710674E0,8.686249733E0
1.053998437E0,-5.557421222E-2,4.319541931E0,9.032988548E0
1.073998437E0,1.585153043E-1,4.287612915E0,8.693116188E0
1.093998437E0,-8.057925105E-2,4.212377548E0,1.030282402E1
1.113998437E0,-6.319735050E-1,3.974154472E0,1.074407578E1
1.134040625E0,-1.049857378E0,3.819527388E0,1.024101543E1
1.156000000E0,-1.244841218E0,4.020314693E0,9.788587570E0
1.176000000E0,-9.648058414E-1,3.805727243E0,1.007202339E1
1.196000000E0,-9.561771154E-1,3.551022530E0,1.029282570E1
1.216001562E0,-8.877987266E-1,3.029172659E0,1.074646950E1
1.238001562E0,-4.257465303E-1,2.071856022E0,1.137464142E1
1.260018750E0,-7.932564616E-1,1.745325208E0,1.259739876E1
1.281998437E0,-9.972520471E-1,1.135847569E0,1.233318424E1
1.301998437E0,-1.299582243E0,1.276952267E0,1.036435509E1
1.322000000E0,-1.492344260E0,1.827963352E0,8.607002258E0
1.343998437E0,-1.463929772E0,2.272289038E0,7.740348816E0
1.363998437E0,-1.616478801E0,2.409993887E0,7.008862972E0
1.383998437E0,-2.031709909E0,2.394939184E0,7.288380623E0
1.403998437E0,-2.454171658E0,2.063313484E0,7.875688076E0
1.423998437E0,-2.519102335E0,1.744147182E0,8.451646805E0
1.443998437E0,-2.463049412E0,1.758627295E0,8.953969955E0
1.463998437E0,-1.907019973E0,1.795315981E0,9.466223717E0
1.483998437E0,-1.230428100E0,2.012259483E0,9.523856163E0
1.503998437E0,-9.039931297E-1,2.080618620E0,9.682792664E0
1.523998437E0,-1.206878781E0,2.160403013E0,9.667154312E0
1.544000000E0,-1.589041233E0,2.454726934E0,9.024827957E0
1.564001562E0,-1.417032242E0,2.703417778E0,7.690348148E0
1.585998437E0,-1.159579039E0,2.985722542E0,6.724575043E0
1.606000000E0,-9.179847836E-1,3.043241024E0,6.933148384E0
1.628012500E0,-6.443754435E-1,2.954962254E0,7.291071892E0
1.650000000E0,-5.134891868E-1,3.001850128E0,7.565687180E0
1.670000000E0,-4.082114100E-1,3.081979275E0,7.667315960E0
1.691998437E0,-3.160346448E-1,3.215173483E0,7.960175037E0
1.711998437E0,-1.758684814E-1,3.358940363E0,8.325108528E0
1.731998437E0,-1.604211032E-1,3.516201258E0,8.862300873E0
1.752000000E0,-2.300253361E-1,3.606232882E0,9.063978195E0
1.773998437E0,-1.457590014E-1,3.552047014E0,8.863535881E0
1.793998437E0,-7.213250548E-2,3.586964369E0,8.354988098E0
1.813998437E0,-1.417942047E-1,3.598418236E0,8.251117706E0
1.833998437E0,-5.096297860E-1,3.569084406E0,8.413415909E0
1.853998437E0,-8.815163374E-1,3.696455717E0,8.481765747E0
1.873998437E0,-1.020552397E0,3.833672285E0,8.963009834E0
1.893998437E0,-8.864101171E-1,4.094697952E0,9.407144547E0
1.913998437E0,-3.189459741E-1,4.040703773E0,1.021686363E1
1.933998437E0,3.381378949E-1,3.535287857E0,1.085523415E1
1.953998437E0,6.498054862E-1,2.832225561E0,1.119152355E1
1.974000000E0,9.520494938E-1,1.820024252E0,1.140567970E1
1.994000000E0,1.182706952E0,9.372341633E-1,1.187303829E1
2.016000000E0,8.010998964E-1,2.606040537E-1,1.232133770E1
2.038000000E0,4.823645949E-1,-5.725015327E-2,1.207376766E1
2.058000000E0,1.180513740E0,-2.530000806E-1,1.156562233E1
2.080000000E0,2.756999731E0,-2.706405520E-1,1.110896206E1
2.102000000E0,3.643122673E0,-6.089891493E-2,1.049568272E1
2.123998437E0,3.246221542E0,2.929353714E-1,1.001536751E1
2.144000000E0,2.050911427E0,9.009476900E-1,9.816293716E0
2.166000000E0,1.116263032E0,1.540592194E0,9.909236908E0
2.188012500E0,7.518559694E-1,2.103353977E0,9.921945572E0
2.208012500E0,5.661999583E-1,2.442631483E0,9.408417702E0
2.230000000E0,1.245559454E-1,2.786410093E0,8.895100594E0
2.252000000E0,-7.483029962E-1,3.403338671E0,8.529248238E0
2.273998437E0,-1.787999392E0,4.028589249E0,8.663696289E0
2.293998437E0,-2.144208670E0,3.564966202E0,8.965384483E0
2.313998437E0,-2.344699144E0,2.808829546E0,9.290479660E0
2.333998437E0,-2.502237558E0,2.241403818E0,1.005514908E1
2.354000000E0,-2.651770115E0,1.767437935E0,1.104947090E1
2.376000000E0,-3.058659554E0,1.682913065E0,1.161053753E1
2.398004687E0,-3.114243507E0,1.841888070E0,1.098610020E1
2.418006250E0,-2.756741285E0,2.067297459E0,1.038136387E1
2.440000000E0,-1.965026736E0,2.303183794E0,1.019377327E1
2.460018750E0,-1.418526292E0,2.618806601E0,1.048486996E1
2.481998437E0,-1.236250877E0,3.078445196E0,1.109863758E1
2.501998437E0,-1.072190523E0,3.306632042E0,1.199222088E1
2.521998437E0,-8.722938895E-1,3.051946402E0,1.218776035E1
2.541998437E0,-7.880754471E-1,2.462398291E0,1.140663815E1
2.562014062E0,-1.656998277E0,2.176721811E0,1.030113029E1
2.583998437E0,-2.509908676E0,1.717743874E0,1.014858055E1
2.603998437E0,-2.041526318E0,5.942887664E-1,1.098793983E1
2.623998437E0,-1.349544406E0,-4.005020857E-1,1.192733765E1
2.643998437E0,-1.231491208E0,-1.129182100E0,1.248713112E1
2.663998437E0,-1.592192054E0,-1.238855720E0,1.169806957E1
2.683998437E0,-1.591397047E0,-1.065410137E0,1.046417522E1
2.703998437E0,-1.389479756E0,-7.990025878E-1,9.167416573E0
2.723998437E0,-1.082236528E0,-5.709117651E-1,8.368424416E0
2.743998437E0,-7.026885748E-1,-3.262147903E-1,7.752032280E0
2.764000000E0,-3.170593679E-1,1.436520979E-4,7.465829372E0
2.785998437E0,-2.465836108E-1,2.166465372E-1,7.414899826E0
2.806000000E0,-2.001169622E-1,2.653924525E-1,7.278832912E0
2.826000000E0,-1.448013168E-2,3.324588537E-1,6.860221386E0
2.848000000E0,8.236053400E-4,5.287546515E-1,6.583528042E0
2.870000000E0,-1.829553246E-1,6.834871173E-1,6.317053318E0
2.891998437E0,-3.641101718E-2,8.341207504E-1,5.952827930E0
2.911998437E0,9.672574815E-4,1.179115653E0,5.968869209E0
2.931998437E0,-3.106811941E-1,1.628698826E0,6.117558956E0
2.951998437E0,-4.983770251E-1,1.965850353E0,7.078016758E0
2.971998437E0,-2.737817466E-1,1.708856702E0,8.703124046E0
2.991998437E0,-3.482988775E-1,1.349831820E0,1.057478714E1
3.011998437E0,-4.520635903E-1,1.410156131E0,1.196985912E1
3.031998437E0,-2.500216961E-1,1.599843860E0,1.264529228E1
3.052000000E0,-8.300217986E-2,1.708732128E0,1.279562855E1
3.072000000E0,-4.475050271E-1,1.784465551E0,1.219119835E1
3.093998437E0,-7.463971376E-1,2.023464441E0,1.218205261E1
3.114000000E0,-4.505600333E-1,1.981067896E0,1.258597374E1
3.134000000E0,-3.816166222E-1,2.321695805E0,1.251603413E1
3.154000000E0,5.889449120E-1,1.559784055E0,1.253992844E1
3.174000000E0,9.543000460E-1,9.577956200E-1,1.319024086E1
3.194000000E0,3.476285040E-1,3.371610641E-1,1.445663929E1
3.214000000E0,-1.510358304E-1,-4.586045444E-1,1.565230465E1
3.234000000E0,-1.749491096E-1,-8.674384356E-1,1.497867203E1
3.254000000E0,1.663012505E-1,-8.445498943E-1,1.313882351E1
3.275998437E0,9.260963798E-1,-4.770590663E-1,1.065799999E1
3.296000000E0,1.612044692E0,-4.441722929E-1,9.346551895E0
3.316000000E0,1.793802977E0,-2.091000080E-1,8.589744568E0
3.336000000E0,1.499785423E0,1.667034775E-1,7.750279903E0
3.356000000E0,9.427887797E-1,5.049179792E-1,7.092927933E0
3.376000000E0,4.199621379E-1,6.986567974E-1,6.498294353E0
3.396000000E0,-7.428729534E-2,9.967923760E-1,6.318508625E0
3.416000000E0,-6.082230210E-1,1.437248945E0,6.321065903E0
3.436000000E0,-8.558217883E-1,1.896887660E0,6.137038231E0
3.456000000E0,-8.332205415E-1,2.070036411E0,6.111889362E0
3.476000000E0,-8.337568045E-1,2.240379095E0,6.216382027E0
3.496000000E0,-9.948195219E-1,2.321542501E0,6.814166069E0
3.516000000E0,-1.359791636E0,2.520845413E0,7.595011234E0
3.536001562E0,-1.483485699E0,2.555168629E0,8.257132530E0
3.558001562E0,-1.643121481E0,2.682367802E0,8.785637856E0
3.580000000E0,-1.381894946E0,2.696627617E0,9.386640549E0
3.600000000E0,-1.307693839E0,2.681783676E0,1.018982792E1
3.620000000E0,-1.609305739E0,2.709010601E0,1.143739891E1
3.640000000E0,-1.603703380E0,2.613434076E0,1.227168179E1
3.660018750E0,-1.508098006E0,2.689167261E0,1.247715187E1
3.682000000E0,-1.375286818E0,2.472367764E0,1.243814564E1
3.703998437E0,-1.956187248E0,2.920830250E0,1.188252831E1
3.724001562E0,-1.342438459E0,2.248088360E0,1.184362698E1
3.746000000E0,-7.526987195E-1,1.604411960E0,1.242126179E1
3.766000000E0,-1.171837330E0,1.567675471E0,1.267664623E1
3.786000000E0,-2.523392916E0,1.879141808E0,1.140990353E1
3.806000000E0,-3.267778873E0,2.156610489E0,9.907484055E0
3.826000000E0,-3.061293125E0,1.735700488E0,8.879625320E0
3.848010937E0,-2.679312706E0,1.251956820E0,8.785292625E0
3.870000000E0,-2.715513229E0,9.125834703E-1,8.920403481E0
3.890000000E0,-2.823003292E0,6.644580364E-1,8.846450806E0
3.910000000E0,-2.517397642E0,4.794723988E-1,8.519019127E0
3.930001562E0,-1.958753943E0,5.012883544E-1,8.302986145E0
3.952000000E0,-1.515204072E0,5.067854524E-1,7.766656399E0
3.972000000E0,-1.242475748E0,6.080601811E-1,7.054553509E0
3.992000000E0,-9.227541089E-1,7.062128782E-1,6.821674347E0
4.012000000E0,-6.841670275E-1,7.181647420E-1,6.927067280E0
4.034000000E0,-5.920190215E-1,7.061458826E-1,6.894084454E0
4.054000000E0,-4.240801632E-1,7.830763459E-1,6.952579498E0
4.074000000E0,-1.646731943E-1,7.530052066E-1,7.238926411E0
4.094000000E0,1.010353118E-1,6.924031377E-1,7.153137207E0
4.114000000E0,-1.745851934E-1,8.817653060E-1,7.649120331E0
4.134000000E0,-7.648516893E-1,1.186978102E0,8.798882484E0
4.154000000E0,-1.011013865E0,1.239076018E0,1.088685608E1
4.174000000E0,-1.015735269E0,1.221808910E0,1.172657967E1
4.194000000E0,-7.548822165E-1,1.282094955E0,1.133647728E1
4.214000000E0,-2.498588860E-1,1.214521170E0,1.166366959E1
4.234000000E0,-3.562572226E-2,1.206591487E0,1.243919945E1
4.254000000E0,-2.908284664E-1,1.250031829E0,1.325226116E1
4.274000000E0,7.728961706E-1,3.520050943E-1,1.341720200E1
4.294000000E0,1.880377293E0,-4.366928041E-1,1.451276016E1
4.316000000E0,2.541895151E0,-1.088902116E0,1.569148350E1
4.338000000E0,2.578555107E0,-1.150030851E0,1.472993374E1
4.360017187E0,1.972333789E0,-7.939364910E-1,1.214966393E1
4.381998437E0,1.812123418E0,-4.096862078E-1,1.017059803E1
4.401998437E0,2.168562412E0,-4.011724293E-1,9.326459885E0
4.421998437E0,2.576927185E0,-5.283141732E-1,8.863851547E0
4.441998437E0,2.398444414E0,-6.173209548E-1,9.023008347E0
4.461998437E0,1.621841788E0,-6.059341431E-1,9.120549202E0
4.482000000E0,9.214420319E-1,-3.850259483E-1,8.829633713E0
4.503998437E0,7.220529318E-1,-4.559517652E-2,7.903863430E0
4.523998437E0,5.361958742E-1,2.895835042E-1,7.220730305E0
4.544000000E0,3.050596118E-1,5.125889778E-1,6.863496304E0
4.564001562E0,1.204091981E-1,6.394433975E-1,6.466652870E0
4.585998437E0,-1.780998707E-1,7.549588680E-1,6.454260349E0
4.605998437E0,-3.445160389E-1,7.963785529E-1,7.059437752E0
4.625998437E0,-5.862729549E-1,9.152266979E-1,7.852186680E0
4.645998437E0,-5.995942950E-1,1.029487491E0,8.408369064E0
4.665998437E0,-4.910412133E-1,1.064634442E0,8.940762520E0
4.685998437E0,-5.792340040E-1,9.786443114E-1,9.537848473E0
4.705998437E0,-5.950644612E-1,9.066267014E-1,9.901308060E0
4.726000000E0,-7.577552199E-1,1.079765916E0,9.925766945E0
4.746000000E0,-8.475856781E-1,1.351124644E0,1.003417587E1
4.766000000E0,-8.411884308E-1,1.453309178E0,1.016093445E1
4.786000000E0,-1.056618690E0,1.495849371E0,1.047486210E1
4.806000000E0,-9.247843623E-1,1.348989010E0,1.111399937E1
4.826000000E0,-9.136369824E-1,1.333397985E0,1.168350315E1
4.848000000E0,-1.002873659E0,1.185781002E0,1.200257301E1
4.868010937E0,-1.485822439E0,1.318659306E0,1.160924435E1
4.889998437E0,-1.014021039E0,3.169348538E-1,1.198153305E1
4.910000000E0,-4.939908385E-1,-3.711491525E-1,1.278730679E1
4.930000000E0,-4.143118262E-1,-5.874509215E-1,1.359607792E1
4.950000000E0,-9.410649538E-1,-4.493725002E-1,1.308155346E1
4.971998437E0,-1.098143697E0,-3.521487713E-1,1.149224472E1
4.991998437E0,-7.465791106E-1,-3.567456305E-1,9.783024788E0
5.011998437E0,-4.078474641E-1,-1.058141440E-1,8.378231049E0
5.031998437E0,-5.127326846E-1,1.179479510E-1,7.713438034E0
5.051998437E0,-7.556100488E-1,2.719908655E-1,7.794342995E0
5.071998437E0,-7.304230332E-1,1.545600891E-1,7.404174328E0
5.091998437E0,-5.474007130E-1,3.846237063E-1,7.260723114E0
5.112000000E0,-2.648561597E-1,4.143692553E-1,7.551685333E0
5.133998437E0,-1.815187931E-1,4.644847214E-1,8.043550491E0
5.153998437E0,-2.375814170E-1,4.547355175E-1,7.970996380E0
5.173998437E0,-3.824785054E-1,4.150588214E-1,8.191512108E0
5.193998437E0,-2.716269791E-1,4.390965998E-1,8.052534103E0
5.213998437E0,4.819048941E-2,6.053212285E-1,7.382224083E0
5.233998437E0,2.863848209E-1,6.351625323E-1,6.647922516E0
5.254000000E0,3.363470435E-1,7.514537573E-1,7.117549896E0
5.275998437E0,1.677856594E-1,8.712404370E-1,8.614883423E0
5.295998437E0,1.425507665E-1,8.128985167E-1,9.909753799E0
5.315998437E0,3.540449739E-1,4.667160809E-1,1.031756306E1
5.335998437E0,1.016022563E0,3.905804753E-1,1.077426147E1
5.355998437E0,1.207223535E0,3.840491176E-1,1.200038052E1
5.375998437E0,8.935735226E-1,2.843641341E-1,1.313898659E1
5.396000000E0,4.472177029E-1,9.630436450E-2,1.339228344E1
5.416000000E0,6.517112851E-1,-3.457610607E-1,1.361272240E1
5.437998437E0,5.372300744E-1,-9.416873753E-2,1.332249737E1
5.457998437E0,6.957358122E-1,-1.236844659E-1,1.309659004E1
5.477998437E0,1.349305034E0,-7.503236532E-1,1.352805328E1
5.498017187E0,1.690641642E0,-1.705667615E0,1.512043762E1
5.520000000E0,1.038039684E0,-1.946045399E0,1.598745441E1
5.541998437E0,2.198547572E-1,-1.682175636E0,1.330162907E1
5.561998437E0,5.645336509E-1,-9.491573572E-1,9.699122429E0
5.582000000E0,1.017162204E0,-4.158920050E-1,7.097064972E0
5.602000000E0,1.030081272E0,-6.782294810E-2,6.903230667E0
5.622001562E0,1.152089834E0,-1.712045819E-1,7.559681892E0
5.644000000E0,1.111809850E0,-3.947080970E-1,7.787543297E0
5.664000000E0,8.355188966E-1,-3.270096481E-1,7.695491314E0
5.684000000E0,5.570158362E-1,-1.538035125E-1,6.989757061E0
5.705998437E0,-2.946783416E-2,3.838958740E-1,6.003154278E0
5.726000000E0,-5.665830970E-1,1.004683614E0,5.592759132E0
5.746000000E0,-6.914933324E-1,1.178924084E0,5.083273411E0
5.766000000E0,-9.220070839E-1,1.274414420E0,5.314447880E0
5.786000000E0,-1.344602823E0,1.292734861E0,6.654291153E0
5.806000000E0,-1.677253127E0,1.040089130E0,7.889737129E0
5.826000000E0,-2.171109915E0,1.130963326E0,8.285048485E0
5.846000000E0,-2.114683390E0,1.067229748E0,9.012876511E0
5.866000000E0,-1.432355046E0,7.586458921E-1,9.952897072E0
5.886000000E0,-1.036210418E0,4.684782326E-1,1.131134892E1
5.906000000E0,-6.810163260E-1,-2.406651527E-2,1.308831501E1
5.928000000E0,-4.550707042E-1,-2.979727685E-1,1.502873898E1
5.950000000E0,-1.471189111E-1,-4.534522295E-1,1.590650177E1
5.971998437E0,9.065405279E-2,-1.267011557E-2,1.523440170E1
5.991998437E0,-1.636293232E-1,5.956199169E-1,1.348941135E1
6.011998437E0,-5.609039664E-1,1.025340796E0,1.192534637E1
6.031998437E0,-2.342295349E-1,4.894897342E-1,1.169648933E1
6.051998437E0,2.118389681E-2,1.108132303E-1,1.271225262E1
6.071998437E0,-5.257666856E-2,-3.086317480E-1,1.310747814E1
6.091998437E0,-1.211389422E0,-1.300147176E-1,1.148442078E1
6.111998437E0,-2.074537277E0,1.572703272E-1,9.321622849E0
6.132000000E0,-2.374588490E0,1.572894752E-1,7.600105762E0
6.153998437E0,-2.142188072E0,4.089871347E-1,7.788769245E0
6.173998437E0,-1.267835259E0,2.121358514E-1,8.769462585E0
6.193998437E0,-6.773483753E-1,-8.514739573E-2,8.933149338E0
6.214000000E0,-5.661903620E-1,-2.394201729E-4,8.495134354E0
6.235998437E0,-5.939439535E-1,1.705629379E-2,7.678549767E0
6.255998437E0,-5.536926985E-1,9.018479288E-2,7.170231819E0
6.275998437E0,-4.884363115E-1,1.918330193E-1,6.906859875E0
6.295998437E0,-3.548111320E-1,2.423889786E-1,6.720753670E0
6.316000000E0,-2.234556228E-1,3.291261196E-1,6.577954292E0
6.338000000E0,-1.467837244E-1,5.550909042E-1,6.647069931E0
6.358000000E0,-1.503558643E-2,6.379206777E-1,6.276437759E0
6.379998437E0,7.345411181E-2,8.594417572E-1,6.214514732E0
6.400000000E0,3.702489436E-1,8.600929976E-1,6.544674873E0
6.420000000E0,7.217368484E-1,7.464737296E-1,7.433105469E0
6.440000000E0,8.281351924E-1,4.442010224E-1,9.071123123E0
6.460017187E0,4.991910458E-1,2.525787055E-1,1.079139423E1
6.481998437E0,3.729878962E-1,1.403576881E-1,1.195352173E1
6.501998437E0,6.881893277E-1,1.283292025E-1,1.201917934E1
6.521998437E0,9.195362329E-1,4.045722187E-1,1.224047089E1
6.542000000E0,1.123043418E0,4.971224666E-1,1.291568375E1
6.564000000E0,1.111963034E0,5.918083787E-1,1.319213772E1
6.585998437E0,1.088988304E0,5.328726768E-1,1.288076687E1
6.605998437E0,1.807785034E0,9.658209980E-2,1.325573730E1
6.625998437E0,2.163946629E0,-7.063373923E-1,1.486659431E1
6.645998437E0,1.792557955E0,-1.193365812E0,1.666341400E1
6.666000000E0,8.695453405E-1,-1.264253378E0,1.540084553E1
6.686000000E0,5.493543744E-1,-8.925104737E-1,1.248883629E1
6.706000000E0,9.496457577E-1,-5.053010583E-1,1.003886795E1
6.726000000E0,1.665866375E0,-3.484233618E-1,8.544542313E0
6.746000000E0,1.939236283E0,-4.683058709E-3,7.604884624E0
6.766000000E0,1.445915937E0,3.602603078E-1,7.164801598E0
6.786000000E0,8.622478247E-1,5.026482940E-1,6.597682476E0
6.808001562E0,4.028962851E-1,5.878913999E-1,5.715849876E0
6.828004687E0,1.257434767E-2,7.589236498E-1,5.073361397E0
6.849998437E0,-2.123465389E-1,9.299941659E-1,5.030572414E0
6.870000000E0,-3.132382035E-1,1.050403357E0,5.419907570E0
6.891998437E0,-4.107971191E-1,1.098067164E0,6.245667934E0
6.911998437E0,-4.308605492E-1,1.096515656E0,6.733414650E0
6.931998437E0,-4.986834824E-1,1.068130016E0,7.407496929E0
6.951998437E0,-6.660286188E-1,9.354338050E-1,8.209199905E0
6.971998437E0,-4.879095852E-1,8.351932764E-1,9.086618423E0
6.991998437E0,9.565314651E-2,5.631161928E-1,1.004913521E1
7.011998437E0,5.255560279E-1,3.045712113E-1,1.126898003E1
7.031998437E0,9.300611615E-1,3.028186224E-2,1.267761421E1
7.052000000E0,1.027093410E0,-2.445341796E-1,1.386585617E1
7.073998437E0,8.785954118E-1,-3.729687631E-1,1.425409985E1
7.093998437E0,5.210261941E-1,-1.259828955E-1,1.391290760E1
7.113998437E0,2.363268584E-1,1.509879231E-1,1.318145943E1
7.133998437E0,-3.523498774E-1,6.447489858E-1,1.230179119E1
7.153998437E0,-5.644282699E-1,6.668809056E-1,1.157978630E1
7.173998437E0,-3.986633122E-1,4.387805462E-1,1.123624706E1
7.193998437E0,-3.523498774E-1,2.778997719E-1,1.156641674E1
7.213998437E0,-5.277682543E-1,-1.506814659E-1,1.174465179E1
7.233998437E0,-7.058968544E-1,-2.518987358E-1,1.094586945E1
7.253998437E0,-4.793191850E-1,-2.977142036E-1,1.016426754E1
7.273998437E0,-1.461612284E-1,-4.209006727E-1,9.943531036E0
7.293998437E0,-2.942186594E-1,-4.202781618E-1,1.003164768E1
7.313998437E0,-5.341272354E-1,-3.687166572E-1,9.673963547E0
7.333998437E0,-6.459748149E-1,-2.569648623E-1,8.744735718E0
7.353998437E0,-5.398350358E-1,-3.967671096E-2,7.687169075E0
7.373998437E0,-4.168496728E-1,1.427997649E-1,6.665859699E0
7.393998437E0,-4.432625175E-1,3.436924517E-1,5.992236614E0
7.413998437E0,-6.651188135E-1,4.901409745E-1,5.926472664E0
7.433998437E0,-8.023448586E-1,4.874403179E-1,5.805106163E0
7.453998437E0,-7.389080524E-1,5.581458807E-1,5.488199711E0
7.473998437E0,-5.634131432E-1,7.616817355E-1,5.572523594E0
7.493998437E0,-5.233150125E-1,8.613954186E-1,5.992198467E0
7.513998437E0,-2.414217293E-1,6.666606665E-1,6.686354160E0
7.533998437E0,-4.675397277E-2,6.705871820E-1,7.623751163E0
7.553998437E0,-2.218275815E-1,5.232479572E-1,8.798882484E0
7.573998437E0,-3.225277066E-1,3.437594771E-1,9.606762886E0
7.593998437E0,-1.828787029E-1,3.610551953E-1,1.030636787E1
7.613998437E0,2.155930847E-1,2.748639286E-1,1.108821869E1
7.633998437E0,4.785913527E-1,3.104417622E-1,1.197795200E1
7.654000000E0,4.819240868E-1,6.069301367E-1,1.262923241E1
7.675998437E0,5.265902877E-1,8.019809723E-1,1.263051605E1
7.695998437E0,5.420281291E-1,1.041161776E0,1.240266418E1
7.715998437E0,8.540596366E-1,8.857780099E-1,1.249461079E1
7.735998437E0,1.272671342E0,6.225690246E-1,1.240467453E1
7.755998437E0,2.363939047E0,-8.651687950E-2,1.241622448E1
7.776000000E0,3.004809380E0,-7.681365609E-1,1.347279549E1
7.798000000E0,2.634713650E0,-1.607151031E0,1.475550270E1
7.818000000E0,2.283714056E0,-2.254265308E0,1.505399323E1
7.838000000E0,2.754960060E0,-2.807172775E0,1.415187740E1
7.860017187E0,3.504862309E0,-3.034765720E0,1.264317608E1
7.881998437E0,3.039850712E0,-2.656194448E0,1.147082138E1
7.901998437E0,2.241154671E0,-2.344622612E0,1.029794979E1
7.921998437E0,1.925876737E0,-2.116167784E0,8.822499275E0
7.941998437E0,1.900306582E0,-1.655724645E0,7.508580685E0
7.961998437E0,1.762448430E0,-1.060554743E0,7.015039444E0
7.981998437E0,1.351067185E0,-6.099947095E-1,6.862548351E0
8.001998437E0,7.564911246E-1,-2.640708685E-1,6.516902447E0
8.021998437E0,3.238492906E-1,2.138501033E-2,6.127088070E0
8.042001562E0,1.254370064E-1,2.579895854E-1,5.507880211E0
8.064000000E0,1.036210507E-1,4.733049273E-1,5.137727261E0
8.084000000E0,-5.795883387E-2,6.062214375E-1,5.396635532E0
8.106000000E0,-3.708714247E-1,6.948547959E-1,6.293456078E0
8.126000000E0,-6.316670775E-1,6.259688139E-1,6.938807964E0
8.146000000E0,-9.064064622E-1,7.001029253E-1,7.502996922E0
8.166000000E0,-9.895235300E-1,7.859876752E-1,8.264122963E0
8.186000000E0,-8.609358072E-1,8.263635039E-1,9.358072281E0
8.206000000E0,-8.598631620E-1,9.072300196E-1,1.059333706E1
8.226000000E0,-9.588394761E-1,8.384973407E-1,1.202817249E1
8.246000000E0,-7.190649509E-1,6.992121935E-1,1.356055737E1
8.266000000E0,-3.991613090E-1,6.034824848E-1,1.430388927E1
8.286000000E0,-6.191597581E-1,6.902100444E-1,1.470063782E1
8.308003125E0,-1.246249080E0,6.161334515E-1,1.449910355E1
8.329998437E0,-1.811864853E0,5.984642506E-1,1.332557106E1
8.349998437E0,-2.262740850E0,7.551886439E-1,1.167884827E1
8.370000000E0,-1.640526175E0,1.411621273E-1,1.128823090E1
8.390000000E0,-7.929213047E-1,-7.456789017E-1,1.282784557E1
8.411998437E0,-7.425472736E-1,-1.857412100E0,1.623967934E1
8.432000000E0,-1.418870926E0,-2.098134756E0,1.556093121E1
8.453998437E0,-2.271714449E0,-1.365240812E0,1.144838238E1
8.473998437E0,-1.978673577E0,-6.960806251E-1,7.960500717E0
8.493998437E0,-1.490572453E0,-2.290389091E-1,6.560955524E0
8.513998437E0,-9.255600572E-1,-1.994848810E-2,6.654453754E0
8.533998437E0,-5.499098301E-1,-1.561977156E-2,6.903172970E0
8.553998437E0,-7.109630108E-1,-1.494077593E-1,6.963018417E0
8.574000000E0,-1.103659868E0,-3.681516051E-1,7.093080997E0
8.595998437E0,-1.588389993E0,-4.041125178E-1,7.232203484E0
8.615998437E0,-1.837789178E0,-3.446501195E-1,7.159276009E0
8.635998437E0,-1.791945100E0,-2.781104743E-1,6.891499043E0
8.655998437E0,-1.612073541E0,-1.665789783E-1,6.566337585E0
8.675998437E0,-1.395934582E0,-3.192907199E-2,6.305886745E0
8.696000000E0,-1.101141214E0,1.641464606E-2,6.047744274E0
8.717998437E0,-7.864952683E-1,1.338837594E-1,6.274599075E0
8.737998437E0,-4.949198067E-1,6.168421358E-2,7.027527809E0
8.757998437E0,-2.768175900E-1,2.706405707E-2,7.849055290E0
8.778000000E0,3.941622078E-1,-1.347839832E-1,8.836423874E0
8.800000000E0,7.995005250E-1,-2.908093333E-1,9.980048180E0
8.821998437E0,5.206813812E-1,-2.808302939E-1,1.160391998E1
8.841998437E0,2.748543620E-1,-2.636878192E-1,1.226278496E1
8.861998437E0,-3.494576737E-2,3.773261979E-2,1.238665104E1
8.881998437E0,5.168315172E-1,-7.661445439E-2,1.271191788E1
8.901998437E0,9.721128941E-1,-8.358637244E-2,1.364625072E1
8.921998437E0,1.123455167E-1,-1.340753026E-2,1.488514423E1
8.942000000E0,-3.311276734E-1,-6.290909052E-1,1.554744816E1
8.963998437E0,2.084583640E-1,-1.145778656E0,1.323428535E1
8.983998437E0,9.738176465E-1,-1.347849369E0,1.164491844E1
9.003998437E0,1.547631145E0,-2.016406298E0,1.189511204E1
9.023998437E0,1.817505479E0,-2.564908266E0,1.266352654E1
9.043998437E0,1.345148683E0,-2.412665844E0,1.255242538E1
9.063998437E0,1.223618984E0,-1.959797740E0,1.107291508E1
9.083998437E0,1.469331145E0,-1.381760836E0,8.953472137E0
9.103998437E0,1.886506438E0,-8.512153029E-1,7.343169689E0
9.123998437E0,2.206649303E0,-6.364170909E-1,6.656110287E0
9.143998437E0,1.907604098E0,-5.404958725E-1,7.072060108E0
9.163998437E0,1.173053503E0,-7.597855330E-1,7.455955982E0
9.183998437E0,3.015449345E-1,-5.175402164E-1,7.733252525E0
9.203998437E0,-2.396978885E-1,-2.331186384E-1,7.758803368E0
9.223998437E0,-2.455493361E-1,-8.686164021E-2,7.286618710E0
9.243998437E0,-1.154771373E-1,2.008064836E-1,6.477924347E0
9.263998437E0,-8.497500420E-2,3.964606524E-1,6.103576660E0
9.284000000E0,-4.541130364E-1,5.308519602E-1,6.383928299E0
9.305998437E0,-1.052443266E0,5.522082448E-1,6.903163433E0
9.326000000E0,-1.231874228E0,5.258911848E-1,7.134558201E0
9.348014062E0,-1.100422978E0,6.442126632E-1,8.199345589E0
9.370000000E0,-1.192312479E0,5.483871102E-1,1.016198826E1
9.391998437E0,-1.221291900E0,-7.442136109E-2,1.226979446E1
9.411998437E0,-7.056191564E-1,-8.034270406E-1,1.349731255E1
9.431998437E0,-5.222902894E-1,-9.738654494E-1,1.534815407E1
9.451998437E0,-5.160749555E-1,-8.999133706E-1,1.762067413E1
9.471998437E0,-1.118829608E0,-5.901898742E-1,1.653177071E1
9.491998437E0,-1.448769808E0,5.326620117E-2,1.384045887E1
9.511998437E0,-1.433207393E0,5.435604453E-1,1.177272034E1
9.532000000E0,-6.329119802E-1,1.231194288E-1,1.191938019E1
9.552000000E0,1.004319787E-1,-4.484052360E-1,1.298132324E1
9.572000000E0,-2.781104743E-1,-6.858142614E-1,1.312840462E1
9.593998437E0,-1.612676740E0,-6.069014072E-1,1.058785915E1
9.614000000E0,-2.091909885E0,-1.341040134E-1,7.866302967E0
9.635998437E0,-1.815599680E0,2.089563459E-1,6.429600239E0
9.655998437E0,-1.045432925E0,2.776507735E-1,6.704453945E0
9.676000000E0,-4.180180430E-1,2.101151459E-2,7.545029640E0
9.696000000E0,-4.863485396E-1,-3.735720813E-1,7.810527802E0
9.716000000E0,-1.084975600E0,-4.835904241E-1,7.700068951E0
9.736000000E0,-1.870666385E0,-4.288685620E-1,7.688653469E0
9.756000000E0,-2.083616257E0,-4.723855555E-1,7.673531055E0
9.778000000E0,-1.828116655E0,-3.211965263E-1,7.293111801E0
9.798000000E0,-1.396739006E0,8.456320502E-3,6.591457367E0
9.818000000E0,-1.119653225E0,2.145396322E-1,6.042802334E0
9.838007812E0,-1.062537074E0,2.801982164E-1,5.991374969E0
9.860018750E0,-1.044609427E0,3.804290891E-1,6.567467690E0
9.882000000E0,-7.227520347E-1,2.850536406E-1,7.542233467E0
9.902000000E0,-4.000136554E-1,1.270746440E-1,9.085315704E0
9.922000000E0,-4.738987088E-1,-2.170391679E-1,1.053789616E1
9.942000000E0,-2.751416564E-1,-6.749637723E-1,1.157954693E1
9.962000000E0,5.430049263E-3,-1.166455030E0,1.309367847E1
9.982000000E0,5.474102497E-1,-1.064088583E0,1.430864906E1
1.000200000E1,9.810097814E-1,-7.127251029E-1,1.436474133E1
1.002200000E1,7.833061814E-1,-4.868944287E-1,1.370391178E1
1.004200156E1,2.238099873E-1,-3.354946971E-1,1.281037712E1
1.006400000E1,6.318776608E-1,-5.899983644E-1,1.197345066E1
1.008400000E1,1.996189594E0,-1.220822573E0,1.219863987E1
1.010600000E1,2.482585907E0,-2.322251320E0,1.370716858E1
1.012600000E1,1.556518435E0,-2.722992659E0,1.485857773E1
1.014600000E1,4.446798563E-1,-2.695852041E0,1.332850170E1
1.016600000E1,1.420623511E-1,-2.069069147E0,1.062800503E1
1.018600000E1,7.072280049E-1,-1.331856132E0,8.649600029E0
1.020800156E1,1.706510425E0,-9.298217893E-1,7.753938675E0
1.023000156E1,1.563030601E0,-5.505706072E-1,7.206681252E0
1.025200000E1,5.818101764E-1,-3.436637223E-1,7.077355862E0
1.027200000E1,-8.271488547E-2,-2.054129392E-1,6.810096264E0
1.029200000E1,-3.502334058E-1,-1.005564700E-3,6.469468117E0
1.031399844E1,-2.170583159E-1,2.106801718E-1,6.428948879E0
1.033400000E1,-2.101247311E-1,4.193109274E-1,6.593478203E0
1.035400000E1,-3.215700090E-1,5.609231591E-1,6.330814838E0
1.037400000E1,-4.224616587E-1,7.280288935E-1,6.049419880E0
1.039600156E1,-4.565263689E-1,7.851257920E-1,6.388889313E0
1.041800000E1,-5.248760581E-1,7.688164711E-1,7.164342403E0
1.043800000E1,-6.940599084E-1,7.655987144E-1,8.175202370E0
1.045800000E1,-8.066257238E-1,6.789094210E-1,9.571261406E0
1.047800000E1,-4.297304749E-1,4.739848971E-1,1.114617729E1
1.049800000E1,4.001094103E-1,1.395149231E-1,1.218833542E1
1.051800000E1,7.742657065E-1,1.699979007E-1,1.285253429E1
1.053800156E1,4.188703597E-1,2.275353521E-1,1.373763275E1
1.055800156E1,-5.158642530E-1,2.577214241E-1,1.425658989E1
1.058000000E1,-1.548569679E0,2.776890993E-1,1.395897198E1
1.060000000E1,-1.966654778E0,2.730922103E-1,1.342534256E1
1.062199844E1,-2.266427994E0,4.216189384E-1,1.289749718E1
1.064199844E1,-1.718567491E0,-3.696168661E-1,1.239316368E1
1.066199844E1,-1.523382664E0,-7.366384268E-1,1.215466309E1
1.068199844E1,-2.072162390E0,-8.557356000E-1,1.129773045E1
1.070199844E1,-2.757306337E0,-5.517198443E-1,9.953261375E0
1.072199844E1,-3.011685610E0,-4.028483927E-1,8.294501305E0
1.074199844E1,-2.753973722E0,-1.781286001E-1,7.672497272E0
1.076200000E1,-2.037532806E0,-4.385219887E-2,8.236867905E0
1.078399844E1,-1.719812512E0,-2.761280835E-1,9.093513489E0
1.080399844E1,-2.109550238E0,-4.083837569E-1,9.300937653E0
1.082399844E1,-2.385946512E0,-5.011159778E-1,8.950377464E0
1.084399844E1,-2.526687145E0,-4.214273691E-1,8.789161682E0
1.086399844E1,-2.573067665E0,-3.927448392E-1,8.521031380E0
1.088399844E1,-2.326847792E0,-2.587557435E-1,7.835733891E0
1.090399844E1,-1.940567493E0,-7.955453545E-2,7.359431267E0
1.092399844E1,-1.609439850E0,9.389101714E-2,6.972939968E0
1.094399844E1,-1.312826991E0,2.546760142E-1,7.017395496E0
1.096399844E1,-1.150768280E0,4.302476048E-1,7.355658054E0
1.098399844E1,-9.641258717E-1,4.441531301E-1,7.806945801E0
1.100399844E1,-8.719203472E-1,5.436466336E-1,8.051930428E0
1.102399844E1,-3.180170357E-1,4.990665615E-1,8.439560890E0
1.104400000E1,8.148904890E-2,4.042561650E-1,9.521491051E0
1.106400000E1,4.865975678E-2,1.029698253E-1,1.098553658E1
1.108599844E1,-2.765302956E-1,-1.021270677E-1,1.216693020E1
1.110599844E1,-2.554038465E-1,-1.299955696E-1,1.218679333E1
1.112599844E1,-8.856631070E-2,-7.431602105E-3,1.172346687E1
1.114599844E1,-9.193734732E-4,-9.394846857E-2,1.178495026E1
1.116599844E1,4.213795066E-3,8.124962449E-2,1.219365978E1
1.118599844E1,7.812950611E-1,-4.206325114E-1,1.256775856E1
1.120600000E1,1.071079612E0,-1.024450183E0,1.351123619E1
1.122600000E1,6.465972662E-1,-1.357473969E0,1.438965034E1
1.124600000E1,-1.758206040E-1,-1.420029759E0,1.347237396E1
1.126799844E1,6.388688087E-2,-1.185733199E0,1.154361534E1
1.128800156E1,1.101131678E0,-1.144581676E0,9.972749710E0
1.131000000E1,1.895154238E0,-8.252813220E-1,8.758832932E0
1.133199844E1,1.784465551E0,-5.401031375E-1,7.993387222E0
1.135199844E1,1.194917321E0,-3.349967003E-1,7.390536785E0
1.137200000E1,6.560495496E-1,-2.101247311E-1,6.795127392E0
1.139200000E1,5.141883492E-1,-1.956541650E-2,6.201250553E0
1.141200000E1,5.850758553E-1,3.235715628E-1,5.807318211E0
1.143200000E1,5.223573446E-1,6.496523023E-1,5.966312408E0
1.145200000E1,2.808494270E-1,8.800031543E-1,6.119119644E0
1.147200000E1,-1.795363873E-1,1.208181262E0,6.226925850E0
1.149200000E1,-6.412342787E-1,1.395742893E0,6.845348358E0
1.151400000E1,-9.991003275E-1,1.368228793E0,7.863200188E0
1.153400000E1,-1.174652815E0,1.364513040E0,8.905070305E0
1.155400000E1,-1.147828102E0,1.309685826E0,1.032532978E1
1.157400000E1,-7.678300738E-1,9.118556380E-1,1.155339241E1
1.159400000E1,-8.853757977E-1,8.538681269E-1,1.247427940E1
1.161400000E1,-1.118896604E0,8.558983803E-1,1.297803783E1
1.163600000E1,-1.310691357E0,8.745827079E-1,1.331218243E1
1.165600000E1,-1.283790112E0,7.239395976E-1,1.360684204E1
1.167600000E1,-1.343175888E0,3.279098570E-1,1.390565681E1
1.169600000E1,-1.306937218E0,-1.317960173E-1,1.392563438E1
1.171600000E1,-1.393482924E0,-1.707640439E-1,1.349678516E1
1.173600000E1,-1.253278494E0,-4.484818578E-1,1.231646252E1
1.175600000E1,-1.325085282E0,-5.198099613E-1,1.056543922E1
1.177800000E1,-1.658712506E0,-2.713684142E-1,8.799237251E0
1.179800313E1,-1.774879098E0,-4.005978256E-2,8.391897202E0
1.182000000E1,-1.187763453E0,2.563615441E-1,8.377512932E0
1.184000000E1,-2.965458333E-1,1.344104707E-1,8.880946159E0
1.186001875E1,-1.466017663E-1,-7.281246036E-2,9.543191910E0
1.188200000E1,-6.278937459E-1,-1.105642319E-1,9.775401115E0
1.190200000E1,-1.268486381E0,-2.111973315E-1,9.342031479E0
1.192200000E1,-1.540410280E0,-1.415547729E-1,7.992841244E0
1.194200000E1,-1.504334331E0,1.253891289E-1,6.629975796E0
1.196399844E1,-1.724016666E0,7.086358070E-1,5.905442238E0
1.198400000E1,-1.608424664E0,5.934268236E-1,5.913476944E0
1.200400000E1,-1.342898250E0,5.470463634E-1,6.807768822E0
1.202400000E1,-1.010132909E0,4.441052675E-1,7.439828396E0
1.204400000E1,-9.744783640E-1,5.665639043E-1,7.741517067E0
1.206400000E1,-7.211048007E-1,7.095551491E-1,8.106642723E0
1.208400000E1,-4.623873830E-1,9.496744871E-1,8.046481133E0
1.210400000E1,-2.513049841E-1,1.228292465E0,7.685818195E0
1.212400000E1,8.350975811E-3,1.428102970E0,7.771770000E0
1.214600000E1,1.833192259E-1,1.651309729E0,8.050014496E0
1.216600000E1,3.039869964E-1,1.653464437E0,8.547654152E0
1.218800313E1,3.463452160E-1,1.491233230E0,9.132547379E0
1.220800781E1,1.480382830E-1,1.298231959E0,9.928610802E0
1.223000000E1,-4.767717719E-1,1.058141351E0,1.054549122E1
1.225199844E1,-1.229853511E0,1.039399505E0,1.051028728E1
1.227199844E1,-1.436607122E0,1.095510125E0,9.977165222E0
1.229199844E1,-1.448999643E0,1.272623539E0,9.432129860E0
1.231199844E1,-1.598541379E0,1.564907670E0,8.931636810E0
1.233200000E1,-1.666785717E0,1.639491796E0,8.822901726E0
1.235399844E1,-1.500810146E0,1.631868720E0,8.955041885E0
1.237399844E1,-1.656873822E0,1.851857543E0,9.272006035E0
1.239399844E1,-1.714344263E0,1.791820526E0,9.422074318E0
1.241399844E1,-1.832656026E0,1.796187639E0,9.409441948E0
1.243400000E1,-2.220909357E0,1.786850214E0,9.631844521E0
1.245400000E1,-2.377719879E0,1.722925067E0,1.006881523E1
1.247400000E1,-2.030838490E0,1.499986529E0,1.107879448E1
1.249599844E1,-1.027371049E0,7.592779398E-1,1.256947231E1
1.251599844E1,-5.752404928E-1,2.614947259E-1,1.316907597E1
1.253600000E1,-7.329896092E-1,2.193663269E-1,1.315530491E1
1.255800000E1,-8.730503917E-1,4.198663533E-1,1.217191982E1
1.257800000E1,-6.733452678E-1,7.268891931E-1,1.079142380E1
1.259999844E1,-1.565233320E-1,5.166208744E-1,1.039739513E1
1.261999844E1,-1.487373859E-1,2.139075696E-1,1.093612862E1
1.263999844E1,-3.626353741E-1,-5.744168907E-2,1.144603729E1
1.266001875E1,-2.972545028E-1,-4.645804763E-1,1.102688885E1
1.268199844E1,2.193567604E-1,-8.397901654E-1,9.439341545E0
1.270199844E1,9.688280821E-1,-1.136048675E0,8.405295372E0
1.272200156E1,1.659162641E0,-1.357828379E0,8.630934715E0
1.274399844E1,1.542497873E0,-1.745535851E0,9.316087723E0
1.276399844E1,4.854483306E-1,-1.706519842E0,8.591285706E0
1.278399844E1,-6.075047851E-1,-1.170046329E0,7.777363300E0
1.280399844E1,-1.255270362E0,-8.695836067E-1,7.843567371E0
1.282399844E1,-1.043096185E0,-7.343208194E-1,8.670275688E0
1.284399844E1,-6.146011353E-1,-5.395189524E-1,9.668178558E0
1.286399844E1,-7.558782101E-1,-1.303786486E-1,9.444819450E0
1.288399844E1,-1.044542313E0,4.620426297E-1,8.367801666E0
1.290400000E1,-1.031498671E0,8.182327747E-1,7.859761715E0
1.292599844E1,-1.003716350E0,1.257482648E0,8.410581589E0
1.294599844E1,-9.501916170E-1,1.495399117E0,8.863306046E0
1.296600000E1,-6.887831092E-1,1.415863872E0,9.090697289E0
1.298600000E1,-3.089477718E-1,1.260987639E0,9.678292274E0
1.300799844E1,-3.209570944E-1,1.170027256E0,1.022757053E1
1.302801094E1,-7.561655045E-1,1.252617598E0,1.067112923E1
1.304999844E1,-1.149207234E0,1.144763589E0,1.111695766E1
1.307000000E1,-1.143269658E0,1.197359324E0,1.077116871E1
1.309000000E1,-8.471068740E-1,1.404735565E0,1.009726715E1
1.311004219E1,-3.034315407E-1,1.427346468E0,9.437109947E0
1.313200000E1,3.109589219E-2,1.314359307E0,9.492760658E0
1.315399844E1,-9.697474539E-2,7.233266830E-1,1.061095810E1
1.317399844E1,-3.704021573E-1,-1.079114601E-1,1.150852585E1
1.319400000E1,-8.837285638E-1,-1.549623162E-1,1.206034088E1
1.321599844E1,-7.943291068E-1,2.651913464E-1,1.181263638E1
1.323599844E1,-3.997454941E-1,3.473316431E-1,1.152449894E1
1.325599844E1,-9.559568763E-2,-6.373365223E-2,1.215325451E1
1.327599844E1,-4.517092705E-1,-4.982716739E-1,1.259781075E1
1.329600000E1,-1.318161249E0,-6.628969908E-1,1.125229740E1
1.331600000E1,-1.582529068E0,-4.525232911E-1,9.849899292E0
1.333600000E1,-1.080809712E0,-4.302476048E-1,9.108375549E0
1.335600000E1,-2.378974557E-1,-4.124826491E-1,9.900301933E0
1.337600000E1,-3.704308718E-2,-6.656454802E-1,1.072791004E1
1.339600000E1,-5.770217776E-1,-5.920094848E-1,1.074670029E1
1.341800000E1,-1.218131423E0,-6.166409850E-1,1.013049889E1
1.344000000E1,-1.197254062E0,-3.831393123E-1,9.246751785E0
1.346001875E1,-8.501331210E-1,-2.311841212E-2,8.273011208E0
1.348200000E1,-5.539608002E-1,3.492757380E-1,7.341129780E0
1.350399844E1,-4.758810997E-1,5.806226134E-1,6.994353771E0
1.352399844E1,-8.561378121E-1,6.720141172E-1,7.203482628E0
1.354400000E1,-1.321340799E0,2.986623049E-1,7.208366871E0
1.356400000E1,-2.416467667E0,2.086786181E-1,7.344328403E0
1.358400000E1,-3.125812292E0,1.708310843E-1,7.727621078E0
1.360400000E1,-2.701234102E0,9.943598509E-2,7.935361385E0
1.362400000E1,-1.288626313E0,3.977918029E-1,8.337462425E0
1.364599844E1,-1.363162696E-1,7.009743452E-1,8.736720085E0
1.366599844E1,4.434061423E-2,9.292375445E-1,9.501150131E0
1.368600000E1,7.204631716E-2,6.972298622E-1,1.088841820E1
1.370600000E1,7.788816839E-2,5.843288302E-1,1.210161686E1
1.372600000E1,9.376651794E-2,9.244395494E-1,1.260139275E1
1.374600000E1,8.888521791E-1,6.339750290E-1,1.293452168E1
1.376600000E1,1.547774792E0,-3.612946272E-1,1.371590233E1
1.378600000E1,4.882447422E-1,-8.884020448E-1,1.408350849E1
1.380600000E1,-6.401712298E-1,-8.828187585E-1,1.305522728E1
1.382600000E1,-2.164741307E-1,-6.368672252E-1,1.087099743E1
1.384800000E1,1.094485402E0,2.904549837E-1,8.746027946E0
1.386801250E1,1.986995816E0,8.465322852E-1,8.139720917E0
1.389000000E1,1.707851052E0,1.005698800E0,8.195083618E0
1.391000000E1,5.597931147E-1,9.000857472E-1,8.327799797E0
1.393000156E1,-4.021397233E-1,7.319074869E-1,8.634152412E0
1.395199844E1,-5.947101712E-1,4.360894859E-1,9.237442970E0
1.397199844E1,-4.441818893E-1,4.093222916E-1,9.917204857E0
1.399199844E1,-2.822859585E-1,5.244929790E-1,1.035661697E1
1.401199844E1,-2.850153446E-1,6.655401587E-1,9.797322273E0
1.403199844E1,-3.985292315E-1,9.637715220E-1,8.700442314E0
1.405199844E1,-3.678259850E-1,1.183856130E0,8.150791168E0
1.407199844E1,-4.693593085E-1,1.360950470E0,8.213893890E0
1.409199844E1,-6.725695729E-1,1.417051435E0,8.426996231E0
1.411200000E1,-5.996134877E-1,1.357406974E0,8.580847740E0
1.413399844E1,-3.480211496E-1,1.191709161E0,8.634957314E0
1.415399844E1,-2.375526875E-1,1.127467871E0,8.826406479E0
1.417399844E1,-3.423612714E-1,1.027007222E0,9.344808578E0
1.419399844E1,-3.615819216E-1,9.095763564E-1,9.480923653E0
1.421400000E1,1.623268723E-1,8.429026604E-1,9.787382126E0
1.423599844E1,7.784411907E-1,7.509174347E-1,1.112458229E1
1.425599844E1,9.722182751E-1,1.696722806E-1,1.222833729E1
1.427599844E1,1.138136506E0,-3.340773284E-1,1.296291733E1
1.429599844E1,1.057710409E0,-4.128848612E-1,1.298818111E1
1.431599844E1,-1.174116507E-2,5.370098948E-1,1.235608196E1
1.433600000E1,-1.113495350E0,1.558931708E0,9.961793900E0
1.435800000E1,-1.587221622E0,2.057931423E0,6.820621014E0
1.438000000E1,-1.522721767E0,2.213458776E0,6.229281902E0
1.440199844E1,-1.005746603E0,1.617331147E0,8.190391541E0
1.442200000E1,-1.170841217E0,8.987833261E-1,9.999709129E0
1.444200000E1,-1.481666088E0,2.917861640E-1,1.043400764E1
1.446399844E1,-1.941908360E0,3.908294812E-2,1.012528992E1
1.448399844E1,-1.998813629E0,5.159983411E-2,9.726559639E0
1.450400000E1,-1.835720539E0,3.270192146E-1,9.663352966E0
1.452600000E1,-1.592948556E0,6.472868323E-1,9.735025406E0
1.454601094E1,-1.353605032E0,8.428643346E-1,9.159928322E0
1.456800000E1,-1.058218002E0,9.793625474E-1,8.423797607E0
1.458801094E1,-1.022898793E0,9.322351217E-1,8.101413727E0
1.460999844E1,-1.427221894E0,9.486306310E-1,8.123009682E0
1.462999844E1,-1.855803251E0,1.142991900E0,8.362420082E0
1.465000000E1,-1.830549240E0,1.229365110E0,8.476325989E0
1.467000000E1,-1.434538603E0,1.354160547E0,9.389676094E0
1.469000000E1,-9.750721455E-1,1.246565104E0,1.067933655E1
1.471000000E1,-9.024416208E-1,1.331109166E0,1.148867321E1
1.473000000E1,-1.168830037E0,1.368573666E0,1.144224453E1
1.475000000E1,-1.470346332E0,1.506881833E0,1.125782299E1
1.477000000E1,-1.200184584E0,1.349994659E0,1.139293385E1
1.479000000E1,-9.997037649E-1,1.385572433E0,1.128940773E1
1.481000000E1,-1.022017598E0,1.416342616E0,1.103936672E1
1.483000000E1,-1.184162617E0,1.499833226E0,1.075539589E1
1.485000000E1,-1.249294400E0,1.610876322E0,1.056301689E1
1.487000000E1,-7.618445158E-1,1.364972711E0,1.109767056E1
1.489000000E1,-1.075379625E-1,9.327139258E-1,1.193513393E1
1.491000000E1,1.072123498E-1,5.693698525E-1,1.233683300E1
1.493200000E1,2.233885974E-1,-9.808565676E-2,1.235636902E1
1.495399844E1,3.878032267E-1,-1.006598949E0,1.241839886E1
1.497399844E1,4.043040574E-1,-1.734149098E0,1.204845619E1
1.499399844E1,5.141787529E-1,-2.258488655E0,1.092636967E1
1.501399844E1,9.079962373E-1,-2.355233669E0,9.687246323E0
1.503399844E1,1.707870245E0,-2.401594877E0,9.265973091E0
1.505400000E1,2.395954370E0,-2.448119164E0,9.120491028E0
1.507599844E1,2.084392071E0,-2.142724276E0,8.549311638E0
1.509599844E1,1.117431402E0,-1.723921061E0,8.001642227E0
1.511600000E1,3.633536398E-1,-1.314014554E0,7.594685555E0
1.513600000E1,-5.363969505E-2,-8.912176490E-1,7.492845535E0
1.515800312E1,-1.737807244E-1,-2.637548149E-1,7.554817200E0
1.517999844E1,-1.046457663E-1,3.816740811E-1,7.341216087E0
1.520000000E1,-7.650911063E-2,9.017137885E-1,7.112311363E0
1.522199844E1,-1.682645082E-2,1.314081550E0,7.275231838E0
1.524199844E1,-1.544355899E-1,1.536397576E0,7.781749725E0
1.526200000E1,-3.809366524E-1,1.580489159E0,7.994986534E0
1.528401562E1,-6.747148037E-1,1.660149097E0,8.356701851E0
1.530599844E1,-8.361510038E-1,1.671191096E0,9.110607147E0
1.532600000E1,-1.147349358E0,1.611776590E0,1.013969326E1
1.534800000E1,-1.206246734E0,1.259081960E0,1.069395161E1
1.537000000E1,-1.577003121E0,1.514064431E0,1.099722004E1
1.539000000E1,-2.013083220E0,1.384260416E0,1.158105087E1
1.541200000E1,-2.468460321E0,1.098612905E0,1.254364491E1
1.543400000E1,-2.504181623E0,8.000847101E-1,1.243270588E1
1.545600000E1,-2.066866398E0,4.863964617E-1,1.211693954E1
1.547799844E1,-1.394699097E0,1.867573112E-1,1.222899818E1
1.549800000E1,-1.381531000E0,1.817294955E-1,1.228954315E1
1.552000000E1,-1.986785173E0,4.026568234E-1,1.225587082E1
1.554202500E1,-2.144716263E0,3.472741842E-1,1.230376434E1
1.556399844E1,-2.284690857E0,1.797470897E-1,1.141082287E1
1.558399844E1,-2.293750525E0,-2.723931372E-1,1.010393333E1
1.560399844E1,-2.278973579E0,-2.834926546E-1,8.651667595E0
1.562400000E1,-2.304055214E0,8.787677437E-2,7.242144108E0
1.564400000E1,-2.388647318E0,-1.349180639E-1,6.924356937E0
1.566400000E1,-2.112729788E0,-1.029372692E0,8.707979202E0
1.568400000E1,-2.379529953E0,-1.469340682E0,1.121504402E1
1.570400000E1,-3.125438690E0,-1.076528788E0,1.222829914E1
1.572600000E1,-2.438743353E0,-9.678321332E-2,1.031686401E1
1.574600000E1,-6.288418770E-1,9.672574997E-1,8.003596306E0
1.576799844E1,3.483850658E-1,1.714123845E0,7.145466328E0
1.578800781E1,2.146928608E-1,1.635278106E0,7.618369102E0
1.581000000E1,-9.232999384E-2,8.548161983E-1,7.560410023E0
1.583200000E1,-1.119739413E0,4.803726077E-1,7.419889450E0
1.585200000E1,-2.015707254E0,5.086721182E-1,6.912519932E0
1.587200000E1,-2.178771496E0,6.321458817E-1,6.579879284E0
1.589200000E1,-1.514054775E0,5.888299346E-1,7.308770180E0
1.591399844E1,-1.051571608E0,7.336887121E-1,8.891394615E0
1.593400000E1,-8.504012823E-1,1.033825874E0,9.774510384E0
1.595600000E1,-8.515696526E-1,1.728517771E0,9.761322975E0
1.597600000E1,-1.103229046E0,2.295809507E0,9.338200569E0
1.599800000E1,-1.302895904E0,2.559401512E0,9.301042557E0
1.601800156E1,-1.233808756E0,2.659747362E0,1.001296329E1
1.604000000E1,-8.839392662E-1,2.393014193E0,1.081375694E1
1.606001875E1,-8.386601210E-1,2.308527470E0,1.120572567E1
1.608199844E1,-1.287400484E0,2.356986284E0,1.133369160E1
1.610199844E1,-1.225352407E0,1.961253405E0,1.161624527E1
1.612199844E1,-6.405351758E-1,1.236279488E0,1.257830238E1
1.614199844E1,-4.234289229E-1,6.288514137E-1,1.387379551E1
1.616199844E1,-9.241906404E-1,5.157110468E-2,1.399861908E1
1.618200000E1,-1.527194262E0,-2.974843383E-1,1.180103874E1
1.620200625E1,-1.116943002E0,-3.359543681E-1,9.343707085E0
1.622399844E1,1.460079998E-1,-2.973981500E-1,8.222215652E0
1.624403438E1,1.037800312E0,-3.593888283E-1,8.551848412E0
1.626599844E1,9.143360853E-1,-7.662211061E-1,9.330596924E0
1.628599844E1,-9.312487394E-2,-9.830209613E-1,9.724682808E0
1.630599844E1,-9.598258734E-1,-9.070768356E-1,9.939087868E0
1.632600000E1,-1.143346190E0,-4.939429760E-1,9.813172340E0
1.634600000E1,-1.223906398E0,1.580556184E-1,9.701621056E0
1.636800312E1,-1.374587774E0,5.718311071E-1,9.781204224E0
1.638800312E1,-1.234603643E0,7.267838717E-1,7.962827682E0
1.640800312E1,-1.360002279E0,1.476178646E0,5.996575356E0
1.642801250E1,-1.445159316E0,1.955832839E0,4.727581024E0
1.645000000E1,-1.006531954E0,2.131318331E0,4.597058773E0
1.647199844E1,-5.530893207E-1,2.174356461E0,5.908832550E0
1.649199844E1,4.621766880E-2,2.236328125E0,7.641803265E0
1.651199844E1,-1.061110198E-2,2.414609909E0,8.684574127E0
1.653200000E1,-4.202589989E-1,2.394402742E0,9.212399483E0
1.655200000E1,-3.290016055E-1,2.352590561E0,9.511406898E0
1.657200000E1,-1.381262839E-1,2.465922356E0,1.047662449E1
1.659200000E1,1.039370820E-1,2.349640846E0,1.120903015E1
1.661399844E1,3.115526736E-1,2.296882153E0,1.202297306E1
1.663400000E1,7.197257876E-1,1.807066798E0,1.352414608E1
1.665400000E1,1.128799081E0,8.243045211E-1,1.533531189E1
1.667599844E1,1.954846501E0,-4.893748090E-2,1.500595570E1
1.669599844E1,2.005737782E0,2.605657578E-1,1.281383514E1
1.671599844E1,1.738104224E0,6.432358027E-1,1.129515457E1
1.673600000E1,1.661269546E0,6.333046556E-1,1.135438633E1
1.675600000E1,1.517636538E0,4.642931819E-1,1.121240997E1
1.677600000E1,2.774879634E-1,1.053372145E0,1.020433712E1
1.679800625E1,-6.626766920E-1,1.469762087E0,8.763074875E0
1.681999844E1,-5.395668745E-1,1.536818981E0,8.599301338E0
1.683999844E1,-3.374004960E-1,1.194591641E0,9.656678200E0
1.686001719E1,-7.343495488E-1,6.650325656E-1,1.004668331E1
1.688199844E1,-1.068474770E0,2.483936250E-1,9.304863930E0
1.690199844E1,-1.563806415E0,3.595708013E-1,9.720142365E0
1.692199844E1,-1.709488750E0,2.773539126E-1,1.010395241E1
1.694199844E1,-1.412071466E0,2.665416896E-1,9.581192970E0
1.696199844E1,-8.706945181E-1,5.729612112E-1,8.144739151E0
1.698199844E1,-4.359554052E-1,8.325597048E-1,7.307754993E0
1.700199844E1,1.054597944E-1,8.075259328E-1,7.056966782E0
1.702199844E1,3.969586492E-1,9.739325047E-1,6.858573914E0
1.704200156E1,2.624619603E-1,1.125456810E0,7.006746292E0
1.706400000E1,3.943729028E-2,1.164606690E0,7.749868393E0
1.708400000E1,-2.192609906E-1,1.180762768E0,8.309019089E0
1.710600000E1,-8.007168025E-2,1.202846885E0,8.360543251E0
1.712600000E1,2.348711789E-1,1.369425893E0,8.664999008E0
1.714600000E1,1.923980564E-1,1.328513741E0,9.813028336E0
1.716600000E1,2.401288599E-1,1.149168968E0,1.074719810E1
1.718600000E1,6.828454733E-1,9.109171033E-1,1.104642487E1
1.720600000E1,9.134645462E-1,4.027621746E-1,1.080732155E1
1.722600000E1,8.220443726E-1,1.911147684E-1,1.134505844E1
1.724600000E1,6.029748917E-1,4.418834448E-1,1.188790989E1
1.726600000E1,1.720387220E0,-1.458547730E-2,1.263911533E1
1.728800000E1,2.641790867E0,-9.986311197E-1,1.430097866E1
1.730800156E1,1.618566513E0,-1.600954890E0,1.539959145E1
1.732999844E1,1.818156689E-1,-1.647938609E0,1.461821938E1
1.734999844E1,1.099110961E0,-1.651606560E0,1.268061161E1
1.736999844E1,2.650630474E0,-1.194380999E0,1.138840294E1
1.738999844E1,3.099179268E0,-4.177786112E-1,1.083513165E1
1.740999844E1,2.039601326E0,9.037632495E-2,9.999958038E0
1.742999844E1,8.199470043E-1,1.569159925E-1,9.023066521E0
1.745000000E1,1.163103208E-1,2.139362991E-1,7.902780533E0
1.747199844E1,-2.074815184E-1,5.102714300E-1,7.102476120E0
1.749199844E1,-3.396606147E-1,6.870688200E-1,6.333008289E0
1.751199844E1,-4.211879671E-1,9.856449366E-1,5.271591663E0
1.753199844E1,-3.599826097E-1,1.039725184E0,4.878368378E0
1.755199844E1,-6.372886300E-1,9.843425155E-1,5.788355827E0
1.757199844E1,-9.193830490E-1,9.642983079E-1,6.932066441E0
1.759200000E1,-8.412458301E-1,9.943790436E-1,7.148243427E0
1.761400000E1,-9.886329174E-1,1.059204459E0,7.876598358E0
1.763600000E1,-1.018579602E0,1.001379609E0,8.890974045E0
1.765600000E1,-9.238554239E-1,1.070466638E0,9.685408592E0
1.767600000E1,-7.899237871E-1,9.901365042E-1,1.027988815E1
1.769600000E1,-3.546100259E-1,8.708382249E-1,1.087726116E1
1.771600000E1,2.552889287E-1,7.189500332E-1,1.175338459E1
1.773600000E1,9.454511404E-1,3.390285373E-1,1.242267990E1
1.775600156E1,1.235992312E0,6.214677095E-1,1.234957981E1
1.777800000E1,1.529004216E0,-6.751649082E-2,1.292870808E1
1.779800000E1,1.443751454E0,-9.322925210E-1,1.405134010E1
1.781800469E1,2.545132041E-1,-1.008409023E0,1.419570160E1
1.783999844E1,-1.181481123E0,-6.441264749E-1,1.186551094E1
1.786001719E1,-1.709699512E0,-3.716375828E-1,9.820824623E0
1.788199844E1,-5.244546533E-1,-7.694677114E-1,9.356003761E0
1.790200000E1,5.792148709E-1,-7.756638527E-1,1.061325645E1
1.792200000E1,6.825103164E-1,-8.773887157E-1,1.141696167E1
1.794399844E1,-1.246612966E-1,-7.637024522E-1,1.066963577E1
1.796399844E1,-3.884257078E-1,-4.535001218E-1,9.474795341E0
1.798400000E1,-2.848429680E-1,-7.322426885E-2,8.768016815E0
1.800400000E1,1.085722595E-1,1.932982653E-1,8.818438530E0
1.802400000E1,5.399882793E-1,3.346710801E-1,8.970183372E0
1.804400000E1,8.067405820E-1,5.624266863E-1,8.923065186E0
1.806400156E1,6.524199843E-1,6.009255052E-1,8.797513962E0
1.808600000E1,4.098202884E-1,3.012767732E-1,9.211892128E0
1.810600000E1,5.982822776E-1,1.253699809E-1,9.147086143E0
1.812600000E1,1.041161776E0,1.312022470E-2,8.875209808E0
1.814600000E1,1.399315238E0,1.144141108E-1,8.510515213E0
1.816600000E1,1.612379909E0,3.776230812E-1,7.910997868E0
1.818600000E1,1.594720364E0,6.637206078E-1,7.423729897E0
1.820600000E1,1.276090384E0,9.344377518E-1,7.232183933E0
1.822801250E1,7.092583179E-1,1.300396204E0,6.596207619E0
1.825000000E1,2.606806718E-2,1.911559343E0,5.991259575E0
1.827199844E1,-3.196929693E-1,2.086297750E0,6.938032627E0
1.829199844E1,-5.795117021E-1,1.975091934E0,6.880935669E0
1.831199844E1,-1.310279489E0,3.091699600E0,5.645345688E0
1.833200000E1,-9.304729700E-1,3.440917969E0,5.459661007E0
1.835399844E1,8.974425495E-2,3.178427219E0,7.662997246E0
1.837399844E1,7.006391883E-1,2.483706474E0,1.014121628E1
1.839399844E1,-8.653315306E-1,2.767601252E0,1.128985882E1
1.841400000E1,-2.586570978E0,2.759288788E0,1.063113689E1
1.843599844E1,-3.083971262E0,3.230860233E0,8.919828415E0
1.845599844E1,-2.087868452E0,3.572886229E0,9.109861374E0
1.847599844E1,-3.973608613E-1,3.184652090E0,9.891587257E0
1.849599844E1,2.610062957E-1,3.304946423E0,1.083050728E1
1.851599844E1,-3.425623849E-2,4.145924091E0,1.104460526E1
1.853600000E1,1.697871983E-1,4.079633713E0,9.336055756E0
1.855600000E1,4.825561643E-1,4.147638321E0,8.275807381E0
1.857800000E1,2.190024108E-1,4.152388573E0,9.506331444E0
1.860000000E1,3.449565917E-2,3.610532761E0,1.108862114E1
1.862199844E1,7.797148824E-1,2.873875141E0,1.215469170E1
1.864199844E1,1.196210146E0,2.789340734E0,1.275930405E1
1.866199844E1,4.902079999E-1,3.217797518E0,1.214110279E1
1.868199844E1,-8.122856021E-1,3.805344343E0,1.033048248E1
1.870200000E1,-1.294841766E0,4.265605450E0,8.833168030E0
1.872400000E1,-1.005219936E0,4.179787636E0,7.921963215E0
1.874600000E1,-7.057723403E-1,4.153643131E0,8.155838013E0
1.876800312E1,-7.802511454E-1,3.889438152E0,8.553648949E0
1.878800312E1,-8.033121228E-1,3.738115072E0,8.470015526E0
1.881000000E1,-5.209208131E-1,3.683555841E0,8.192996025E0
1.883200000E1,-6.289089471E-2,3.692845345E0,8.455257416E0
1.885399844E1,3.576841354E-1,3.586954594E0,8.505325317E0
1.887399844E1,4.996220171E-1,3.369043827E0,8.370540619E0
1.889400000E1,6.039421558E-1,3.197782040E0,8.323173523E0
1.891599844E1,6.196193695E-1,3.065516710E0,8.599895477E0
1.893599844E1,4.659116268E-2,3.442603588E0,9.675256729E0
1.895599844E1,1.203708872E-1,3.391511202E0,1.065541363E1
1.897599844E1,7.408713102E-1,2.822313786E0,1.021204567E1
1.899599844E1,5.355446339E-1,3.200176239E0,9.678014755E0
1.901599844E1,5.358989239E-1,2.771508694E0,9.494762421E0
1.903599844E1,5.906591415E-1,2.129431725E0,9.476949692E0
1.905599844E1,5.912624598E-1,1.580048561E0,1.008560371E1
1.907599844E1,5.295590758E-1,1.424798965E0,1.117960072E1
1.909599844E1,3.458089232E-1,1.601424098E0,1.198167706E1
1.911599844E1,1.571841240E-1,1.892338753E0,1.186552906E1
1.913600000E1,-6.729622185E-2,2.467329979E0,1.077192497E1
1.915799844E1,-2.356756479E-1,3.096162558E0,9.702817917E0
1.917800000E1,-3.399287760E-1,3.512667418E0,9.215656281E0
1.919999844E1,-4.816271961E-1,3.834084272E0,8.950857162E0
1.922000156E1,-4.194449782E-1,3.971252680E0,8.982115746E0
1.924199844E1,-5.587587953E-1,4.139986515E0,8.948242188E0
1.926199844E1,-5.492777824E-1,3.910296440E0,8.931483269E0
1.928199844E1,-5.819250941E-1,3.460445166E0,8.992670059E0
1.930199844E1,-7.635588050E-1,3.053689480E0,9.367506027E0
1.932199844E1,-1.079440236E0,2.768195152E0,1.037792587E1
1.934199844E1,-1.595993996E0,2.746877193E0,1.220838833E1
1.936200469E1,-2.008419275E0,2.301249266E0,1.413167953E1
1.938399844E1,-2.919872522E0,2.703111172E0,1.383250999E1
1.940399844E1,-1.686801314E0,2.206371784E0,1.226627159E1
1.942399844E1,8.858163357E-1,1.015898108E0,1.131192303E1
1.944399844E1,1.099905849E0,1.460740685E0,1.266099834E1
1.946399844E1,-2.619448304E-1,1.581724644E0,1.290688324E1
1.948400000E1,-1.802460313E0,1.452284455E0,1.180162334E1
1.950400000E1,-2.661011457E0,1.503644943E0,1.027436256E1
1.952400000E1,-2.302312374E0,1.358728647E0,9.027002335E0
1.954400000E1,-1.766786695E0,1.457101583E0,9.138706207E0
1.956400000E1,-1.261926293E0,1.200500607E0,9.073822975E0
1.958400000E1,-1.528688192E0,1.239899635E0,8.710939407E0
1.960400313E1,-1.586129904E0,1.225093842E0,6.811551571E0
1.962600000E1,-1.014777541E0,1.900450349E0,7.261470318E0
1.964600000E1,1.279557198E-1,1.962651610E0,6.257389545E0
1.966600156E1,3.560369611E-1,2.327231169E0,6.140466690E0
1.968600156E1,-5.065172911E-2,2.254935741E0,6.977632999E0
1.970800312E1,-5.967116952E-1,2.441578150E0,7.953451633E0
1.973000000E1,-3.289537430E-1,2.232775211E0,8.982566833E0
1.975000469E1,2.033443451E-1,2.269904375E0,9.705940247E0
1.977200000E1,3.544088602E-1,2.795556068E0,9.121438980E0
1.979200000E1,6.786221266E-1,2.767122507E0,8.546466827E0
1.981200000E1,1.069413304E0,2.690421820E0,8.756878853E0
1.983200156E1,7.110587955E-1,2.973694324E0,9.929100037E0
1.985400000E1,8.419928700E-2,3.095875263E0,1.025613785E1
1.987400781E1,-8.219868541E-1,4.021052361E0,9.838014603E0
1.989600000E1,-6.854695678E-1,4.651435852E0,9.830314636E0
1.991800000E1,1.179220915E0,3.721911192E0,1.048322296E1
1.993800000E1,2.021999121E0,2.843813658E0,1.161050892E1
1.995800000E1,1.770876050E0,2.301488638E0,1.244309807E1
1.997800000E1,1.233052135E0,2.191642523E0,1.223382473E1
1.999800312E1,1.797719836E0,1.899712920E0,1.073011303E1
2.001800312E1,2.071808100E0,1.956742764E0,9.995524406E0
2.004000313E1,1.171281695E0,2.299582720E0,1.030440426E1
2.006002031E1,2.116665840E-1,2.629034758E0,9.819339752E0
2.008200156E1,-4.012298882E-1,2.846447229E0,8.399520874E0
2.010399844E1,-5.557804108E-1,2.931738377E0,7.223182201E0
2.012400000E1,-5.908985734E-1,3.076233149E0,6.956583023E0
2.014400000E1,-5.143990517E-1,3.110326767E0,7.108949661E0
2.016400312E1,-8.933724165E-1,3.336425304E0,7.126628876E0
2.018600000E1,-1.024411917E0,3.330890179E0,6.608351231E0
2.020600625E1,-9.547693729E-1,3.364150286E0,6.486821175E0
2.022800000E1,-8.079664111E-1,3.218783855E0,7.252831936E0
2.024800000E1,-8.136167526E-1,3.048776388E0,8.230432510E0
2.026800156E1,-9.431143999E-1,3.052951813E0,8.695634842E0
2.028802344E1,-1.056388736E0,3.349986076E0,8.971849442E0
2.031000000E1,-7.536467910E-1,3.616834164E0,9.216977119E0
2.033200000E1,-1.997817755E-1,3.764326572E0,9.517008781E0
2.035399844E1,1.132265851E-1,4.087994099E0,9.882029533E0
2.037399844E1,1.795459688E-1,4.129088402E0,1.030733490E1
2.039399844E1,8.216899633E-2,3.816443682E0,1.080789566E1
2.041399844E1,-9.032365084E-1,4.048585415E0,1.126080132E1
2.043400000E1,-1.954990268E0,4.565953255E0,1.162274837E1
2.045599844E1,-1.806702852E0,3.780607224E0,1.153296566E1
2.047599844E1,-1.735307813E0,3.215451241E0,1.170648766E1
2.049599844E1,-2.349497080E0,3.301269054E0,1.176717567E1
2.051599844E1,-2.831162691E0,3.233465195E0,1.048169041E1
2.053600000E1,-2.720885754E0,2.988662958E0,8.572985649E0
2.055800000E1,-1.884083509E0,2.270325661E0,8.274734497E0
2.057800000E1,-1.541185856E0,1.604603529E0,9.792448044E0
2.059999844E1,-2.004416227E0,1.272997022E0,1.073768806E1
2.061999844E1,-2.482499838E0,1.282353640E0,1.041358948E1
2.063999844E1,-2.262702703E0,1.499287367E0,9.215071678E0
2.066001875E1,-1.668624520E0,1.949205756E0,7.949535370E0
2.068199844E1,-1.047894120E0,2.465338230E0,6.917433262E0
2.070199844E1,-5.935226083E-1,2.775961876E0,6.194173336E0
2.072199844E1,-9.630436450E-2,2.876681089E0,5.903162956E0
2.074199844E1,3.995635509E-1,2.882130384E0,6.146059513E0
2.076200625E1,5.575999618E-1,2.751062155E0,6.580224037E0
2.078399844E1,-8.552087843E-2,2.898391962E0,7.430558205E0
2.080399844E1,-7.412927151E-1,2.999254942E0,8.394166946E0
2.082399844E1,-1.043699622E0,3.223160505E0,8.921398163E0
2.084399844E1,-1.077419519E0,3.632664680E0,9.417382240E0
2.086399844E1,-1.021222830E0,3.882427931E0,9.992660522E0
2.088399844E1,-1.175083756E0,3.952951431E0,9.969330788E0
2.090399844E1,-1.631294012E0,4.214254856E0,9.893923759E0
2.092399844E1,-1.572377563E0,4.093328476E0,9.913844109E0
2.094399844E1,-1.733066916E0,4.401874065E0,1.019039249E1
2.096399844E1,-2.056676865E0,5.089622498E0,1.074928570E1
2.098400000E1,-1.105642319E0,3.938988447E0,1.145610142E1
2.100599844E1,2.726995945E-1,1.727186680E0,1.219525909E1
2.102599844E1,-2.121645808E-1,1.223868012E0,1.338514805E1
2.104600000E1,-8.997122645E-1,9.835380912E-1,1.391307926E1
2.106801094E1,-6.771089435E-1,9.231179953E-1,1.155230045E1
2.109000000E1,5.446521640E-1,1.527443290E0,9.393622398E0
2.111000000E1,1.314081550E0,1.855314851E0,8.924511909E0
2.113000000E1,7.818025947E-1,2.036393166E0,9.764876366E0
2.115000000E1,-2.587270141E-1,2.052740812E0,1.005415344E1
2.117000000E1,-1.019230843E0,2.275133371E0,9.334092140E0
2.119000000E1,-1.349295378E0,2.468508005E0,8.467362404E0
2.121000000E1,-1.543024659E0,2.669936895E0,8.487244606E0
2.123000000E1,-1.256917596E0,2.626305103E0,8.623043060E0
2.125000000E1,-9.608314037E-1,2.843200684E0,8.048625946E0
2.127000000E1,-7.519612908E-1,3.081155539E0,7.351233482E0
2.129199844E1,-7.852789760E-1,3.353567839E0,6.664212227E0
2.131199844E1,-6.894151568E-1,3.442555666E0,6.577466011E0
2.133200000E1,-2.241547406E-1,3.304525137E0,6.928120613E0
2.135200000E1,3.903506324E-2,3.362455130E0,8.042593002E0
2.137200000E1,2.006053776E-1,3.350924730E0,8.694897652E0
2.139399844E1,3.792702854E-1,3.572589397E0,8.913038254E0
2.141400000E1,4.557315111E-1,3.863533020E0,9.436794281E0
2.143400000E1,7.173315287E-1,3.793967009E0,9.982164383E0
2.145400000E1,9.681673050E-1,3.567207336E0,1.043935204E1
2.147400000E1,3.997358978E-1,3.212673903E0,1.092382336E1
2.149400000E1,-1.087034702E0,3.785922289E0,1.154555893E1
2.151400000E1,-1.684895515E0,4.296490669E0,1.164160442E1
2.153400000E1,-9.018862247E-1,4.029450893E0,1.123703194E1
2.155400000E1,-5.138435960E-1,4.009895325E0,1.132526398E1
2.157400156E1,-7.985429168E-1,3.892866611E0,1.093533421E1
2.159600000E1,-1.606394410E0,3.426677227E0,9.364527702E0
2.161600000E1,-2.124068499E0,2.828902483E0,8.513618469E0
2.163600000E1,-2.227115154E0,1.749807119E0,9.054841995E0
2.165600000E1,-2.470270157E0,1.262012482E0,1.048840427E1
2.167600000E1,-2.521745682E0,1.169605851E0,1.130367756E1
2.169600000E1,-1.791427851E0,1.288808346E0,1.068670082E1
2.171800000E1,-5.793967843E-1,1.899645925E0,9.121419907E0
2.173801094E1,2.927629650E-1,2.301871777E0,7.797359467E0
2.176001875E1,7.302889824E-1,2.809471130E0,6.921685219E0
2.178199844E1,6.463099122E-1,3.214905262E0,6.426908493E0
2.180199844E1,4.950443208E-1,3.585240364E0,6.208146095E0
2.182200000E1,7.300304174E-1,3.652163029E0,6.016609669E0
2.184200000E1,9.255217910E-1,3.545285940E0,6.334502220E0
2.186200000E1,8.040016294E-1,3.543217182E0,6.785521984E0
2.188200000E1,6.266296506E-1,3.623566866E0,7.203961372E0
2.190200000E1,6.238140464E-1,3.500265360E0,7.773254871E0
2.192200000E1,4.940387309E-1,3.544443130E0,8.330394745E0
2.194400000E1,4.368843436E-1,3.530173779E0,8.789373398E0
2.196400000E1,4.325843453E-1,3.397841454E0,9.305016518E0
2.198400000E1,3.854664788E-2,3.669775009E0,9.718046188E0
2.200400000E1,-8.133677840E-1,4.549873829E0,1.029207897E1
2.202400000E1,-1.333378792E0,5.502421379E0,1.046418476E1
2.204400000E1,6.807194650E-2,4.401443005E0,1.103805447E1
2.206400000E1,1.798466802E0,2.563682318E0,1.245008755E1
2.208400000E1,1.602688193E0,1.720961809E0,1.504500961E1
2.210400000E1,9.643653035E-1,1.558701873E0,1.623877907E1
2.212400000E1,1.364216208E0,1.574024796E0,1.397168922E1
2.214599844E1,2.296077728E0,2.113160610E0,1.134165955E1
2.216599844E1,2.264857531E0,2.470595837E0,1.074183464E1
2.218599844E1,1.239420772E0,2.851953745E0,1.077915573E1
2.220599844E1,2.200271338E-1,3.299324989E0,9.743222237E0
2.222599844E1,-6.582139432E-2,3.152713537E0,8.295804024E0
2.224599844E1,-4.990952611E-1,3.056935787E0,7.105253220E0
2.226599844E1,-6.278267503E-1,2.708665848E0,6.007894993E0
2.228599844E1,-4.990665615E-1,2.647450686E0,4.816913605E0
2.230599844E1,1.167412698E-1,2.756157160E0,4.717515945E0
2.232600000E1,9.366979003E-1,2.767764091E0,6.457229137E0
2.234801250E1,9.441295266E-1,3.199879408E0,8.440001488E0
2.236999844E1,3.177297115E-1,4.250235081E0,9.146328926E0
2.238999844E1,3.936067689E-3,4.635940552E0,8.498276711E0
2.240999844E1,-2.326685190E-1,4.961887360E0,7.836222172E0
2.242999844E1,-2.364705205E-1,4.962912083E0,8.029031754E0
2.245000000E1,-3.259274662E-1,5.038817883E0,8.318308830E0
2.247199844E1,-6.563751698E-1,5.174090385E0,8.719461441E0
2.249199844E1,-9.150351286E-1,5.128916740E0,9.236006737E0
2.251199844E1,-8.565208912E-1,4.571345329E0,9.553353310E0
2.253199844E1,-8.729450703E-1,4.266726017E0,9.169207573E0
2.255200000E1,-1.680662632E0,5.158461094E0,8.937938690E0
2.257200000E1,-2.279375792E0,5.480768204E0,8.673120499E0
2.259399844E1,-2.591187000E0,4.952511787E0,9.480703354E0
2.261400000E1,-3.312330008E0,4.805718422E0,1.041316891E1
2.263400000E1,-4.053555965E0,4.507371902E0,1.000240040E1
2.265599844E1,-4.332212448E0,3.788604021E0,8.798691750E0
2.267600000E1,-3.425547123E0,2.906378984E0,9.214142799E0
2.269799844E1,-1.722656846E0,1.823807120E0,1.114429092E1
2.271800469E1,-5.722237825E-1,9.818812609E-1,1.202845001E1
2.273999844E1,-4.645708948E-2,9.223901629E-1,1.091845989E1
2.276001719E1,3.447650373E-1,1.195539832E0,9.079933167E0
2.278199844E1,-3.362416849E-2,2.423774958E0,7.866140366E0
2.280199844E1,-4.326801598E-1,2.972334385E0,7.574219704E0
2.282199844E1,-6.373268962E-1,3.179183722E0,6.742253780E0
2.284199844E1,-5.375365615E-1,3.271983147E0,5.968314171E0
2.286199844E1,-6.251739711E-2,3.231741428E0,5.922604084E0
2.288199844E1,-1.069346219E-1,3.298309803E0,6.745529175E0
2.290199844E1,-6.631076932E-1,3.434003353E0,7.292575836E0
2.292199844E1,-1.181490660E0,3.866137743E0,7.891154766E0
2.294199844E1,-1.276904464E0,4.148452759E0,8.779662132E0
2.296199844E1,-1.367433906E0,4.495736122E0,9.282061577E0
2.298199844E1,-1.411899090E0,4.468212605E0,8.950100899E0
2.300200312E1,-1.261773109E0,4.136050224E0,9.187127113E0
2.302399844E1,-1.332679629E0,4.012413979E0,9.804849625E0
2.304400000E1,-1.606174231E0,3.958640099E0,1.023541355E1
2.306400000E1,-2.258689880E0,4.513635159E0,1.065179348E1
2.308400000E1,-2.595822334E0,5.621987820E0,1.146401310E1
2.310400000E1,-1.891850352E0,5.743594170E0,1.206131744E1
2.312400000E1,-3.687932491E-1,4.423929214E0,1.177801704E1
2.314599844E1,6.643622518E-1,3.000978470E0,1.205017948E1
2.316599844E1,8.451532125E-1,2.432508945E0,1.311454582E1
2.318600000E1,7.006296515E-1,2.321063757E0,1.330108261E1
2.320800000E1,1.533821464E0,2.017373562E0,1.095562840E1
2.322999844E1,2.401949167E0,1.933624387E0,8.822164536E0
2.324999844E1,1.632117629E0,2.285600901E0,8.520686150E0
2.326999844E1,2.235130966E-1,2.676477909E0,8.362850189E0
2.328999844E1,-7.926339507E-1,3.238675117E0,7.824759007E0
2.331000000E1,-1.315690398E0,3.677551270E0,6.748134136E0
2.333200000E1,-1.365451574E0,3.952242851E0,6.162732601E0
2.335399844E1,-1.341231823E0,3.859223366E0,6.185515404E0
2.337399844E1,-1.156284571E0,3.730376959E0,5.975142002E0
2.339399844E1,-1.118877411E0,3.688928366E0,5.929499149E0
2.341399844E1,-1.048286915E0,3.577789783E0,6.074692726E0
2.343400000E1,-9.843041897E-1,3.476438284E0,6.164811134E0
2.345599844E1,-9.009955525E-1,3.560762167E0,6.074396133E0
2.347599844E1,-7.664127350E-1,3.751350164E0,6.298340321E0
2.349599844E1,-6.323661208E-1,4.061245918E0,6.628520012E0
2.351599844E1,-6.985897422E-1,4.497823715E0,7.154094696E0
2.353600000E1,-2.224788070E-1,4.357782364E0,7.569191933E0
2.355600000E1,9.428366274E-2,3.861444950E0,8.876818657E0
2.357600000E1,7.565677911E-2,3.309562445E0,1.165421772E1
2.359600000E1,-2.374090403E-1,2.579225540E0,1.366257954E1
2.361600000E1,-1.704786539E0,2.761730671E0,1.334375763E1
2.363600000E1,-3.248194218E0,3.664804459E0,1.268068886E1
2.365600000E1,-2.554737806E0,2.810601234E0,1.291108704E1
2.367600000E1,-2.278025389E0,2.986402512E0,1.386739826E1
2.369800938E1,-2.382680893E0,3.184929848E0,1.322059917E1
2.371999844E1,-2.490975380E0,2.796264887E0,1.063605976E1
2.373999844E1,-1.965505481E0,2.172919989E0,9.288994789E0
2.376001719E1,-1.707784057E0,1.693648696E0,9.785188675E0
2.378199844E1,-2.261390686E0,1.577635288E0,1.071623611E1
2.380199844E1,-2.519370556E0,1.308651447E0,1.002964687E1
2.382199844E1,-2.041526318E0,1.443445086E0,8.823236465E0
2.384199844E1,-1.188060284E0,2.008945942E0,8.403599739E0
2.386199844E1,-5.337442160E-1,2.607812166E0,8.910816193E0
2.388199844E1,-2.892195713E-3,2.696196795E0,9.197517395E0
2.390200000E1,5.676844120E-1,2.603052616E0,8.533720016E0
2.392399844E1,8.322053552E-1,2.496175528E0,7.392873764E0
2.394399844E1,7.707222104E-1,2.280879498E0,6.774470329E0
2.396399844E1,2.120496482E-1,2.342975378E0,7.032651424E0
2.398399844E1,-4.656147659E-1,2.470595837E0,7.594359875E0
2.400400000E1,-1.057375193E0,2.747327328E0,8.221296310E0
2.402400000E1,-1.170525312E0,3.001648903E0,7.698766232E0
2.404400000E1,-9.866696596E-1,3.123456240E0,7.043319702E0
2.406400156E1,-5.261784792E-1,3.166092396E0,7.911112785E0
2.408600000E1,-4.363671839E-1,3.215776920E0,9.925843239E0
2.410600000E1,-1.159617186E0,3.942570210E0,1.127682400E1
2.412600000E1,-1.952452421E0,4.815802574E0,1.107624722E1
2.414600000E1,-8.710967302E-1,3.424082041E0,1.087571907E1
2.416799844E1,-3.158239424E-1,2.615042925E0,1.276210022E1
2.418800781E1,3.357053697E-1,2.294085741E0,1.414661026E1
2.420800938E1,1.565099239E0,1.848084331E0,1.295616531E1
2.422999844E1,3.090761185E0,1.415289164E0,1.015721893E1
2.425000000E1,3.148490191E0,1.718194127E0,8.720180511E0
2.427199844E1,1.871470809E0,2.056552172E0,8.649589539E0
2.429199844E1,8.966093659E-1,2.286242485E0,7.775371075E0
2.431199844E1,7.817260027E-1,2.400847912E0,6.481563568E0
2.433200000E1,9.760202765E-1,2.530901194E0,5.272194862E0
2.435399844E1,6.721194386E-1,3.188607454E0,4.988529682E0
2.437399844E1,9.469546378E-2,3.676325321E0,5.594253540E0
2.439399844E1,-3.317980468E-1,3.717381001E0,6.420367718E0
2.441399844E1,-7.058872581E-1,3.653609276E0,6.852578640E0
2.443399844E1,-1.196650743E0,3.662716866E0,7.809206009E0
2.445399844E1,-1.610684872E0,3.461718798E0,9.069149017E0
2.447399844E1,-1.675577283E0,3.422779560E0,9.800750732E0
2.449399844E1,-1.381205440E0,3.441396713E0,1.021043777E1
2.451400000E1,-7.721300721E-1,3.490861177E0,1.125703812E1
2.453600000E1,-3.974087536E-1,3.444672108E0,1.293025970E1
2.455799844E1,-1.910860240E-1,3.104341030E0,1.342743015E1
2.457800000E1,-3.553761542E-1,2.961589098E0,1.257152271E1
2.460000000E1,-4.836000204E-1,2.823788643E0,1.255781746E1
2.462199844E1,-6.039516926E-1,2.310931444E0,1.352043056E1
2.464199844E1,-1.715953112E0,2.569351912E0,1.398487663E1
2.466199844E1,-1.514753938E0,2.079220533E0,1.367009640E1
2.468199844E1,-8.831922412E-1,1.539720654E0,1.302092361E1
2.470199844E1,-1.229049087E0,1.758512497E0,1.127054214E1
2.472200000E1,-2.225420237E0,2.475489855E0,8.883886337E0
2.474200000E1,-1.999445677E0,2.776632309E0,7.435787201E0
2.476200000E1,-7.580329776E-1,2.160470247E0,8.138523102E0
2.478200000E1,-1.495131105E-1,1.365202546E0,9.775956154E0
2.480200000E1,-3.955029547E-1,1.032216907E0,1.060959816E1
2.482200000E1,-1.086785674E0,1.145252109E0,1.039576721E1
2.484200000E1,-1.316858768E0,1.134123802E0,9.779911995E0
2.486200000E1,-1.135493279E0,1.503280878E0,7.436850071E0
2.488200000E1,-1.046084285E0,2.124595404E0,5.507315159E0
2.490200000E1,-4.174434245E-1,2.543820143E0,4.602958202E0
2.492200000E1,7.551982403E-1,2.997732162E0,4.530136108E0
2.494200000E1,1.874880195E0,3.289633036E0,6.027086735E0
2.496200000E1,2.072238922E0,3.151228905E0,7.604741096E0
2.498200000E1,1.152080297E0,3.403357744E0,7.858842850E0
2.500200000E1,1.898123175E-1,3.541838408E0,8.072299957E0
2.502200000E1,-1.001159400E-1,3.404554844E0,8.280613899E0
2.504200156E1,-3.366630673E-1,3.534339666E0,8.420436859E0
2.506400000E1,-1.737587094E0,3.527013540E0,8.827316284E0
2.508400000E1,-2.983663797E0,3.101238251E0,9.328135490E0
2.510400000E1,-2.920303583E0,2.531332016E0,9.342136383E0
2.512400000E1,-2.128119707E0,2.863800526E0,9.450565338E0
2.514400000E1,-2.100605488E0,2.822572231E0,1.097714615E1
2.516400000E1,-2.966042519E0,3.399527073E0,1.167826462E1
2.518600000E1,-3.202369452E0,3.279290199E0,1.249345207E1
2.520600000E1,-1.709747314E0,2.517503262E0,1.223570251E1
2.522600000E1,-2.265872620E-2,1.676917911E0,1.231820583E1
2.524600000E1,5.463567972E-1,1.394651294E0,1.248434448E1
2.526600000E1,3.795097172E-1,1.503443718E0,1.228573132E1
2.528600000E1,6.039516926E-1,1.278101444E0,1.124490452E1
2.530800000E1,6.316765547E-1,1.538590550E0,9.596947670E0
2.532800000E1,1.088499799E-1,2.284068346E0,8.873303413E0
2.534800000E1,-3.120027781E-1,2.549585342E0,8.326793671E0
2.536800000E1,-8.621041179E-1,2.666106462E0,7.889852047E0
2.538800000E1,-1.474416494E0,2.722130537E0,7.809656143E0
2.540800000E1,-1.728412509E0,2.666891575E0,7.451857090E0
2.542800938E1,-1.940596223E0,2.793592691E0,7.506081104E0
2.545000000E1,-2.037053823E0,2.950997353E0,8.179445267E0
2.547199844E1,-1.769391775E0,2.867554426E0,7.729938984E0
2.549200000E1,-1.684828520E0,2.827964067E0,7.564929962E0
2.551400000E1,-1.752392769E0,3.028425694E0,7.816311836E0
2.553400000E1,-1.233387351E0,3.019241571E0,8.560085297E0
2.555400000E1,-5.657785535E-1,2.819680214E0,8.660910606E0
2.557599844E1,-4.894993305E-1,2.821174145E0,8.794794083E0
2.559599844E1,-9.212888479E-1,3.042771816E0,8.872595787E0
2.561600000E1,-8.401541114E-1,3.038366556E0,9.330031395E0
2.563800000E1,-4.826998115E-1,3.170909405E0,9.796278000E0
2.565800625E1,-2.906273603E-1,3.570587873E0,9.484964371E0
2.568000000E1,-5.250197053E-1,4.274780273E0,8.981148720E0
2.570000000E1,-4.195407331E-1,4.546205997E0,9.552060127E0
2.572199844E1,-9.476059079E-1,4.082142353E0,1.125938511E1
2.574200000E1,-2.356497765E0,3.988500834E0,1.248405743E1
2.576200000E1,-2.440562963E0,2.936095715E0,1.302978230E1
2.578200000E1,-2.078559875E0,1.640372872E0,1.293014431E1
2.580400000E1,-2.854012966E0,1.184440255E0,1.213073063E1
2.582400000E1,-3.792166471E0,1.133673668E0,1.120676994E1
2.584400000E1,-3.647786617E0,7.557153702E-1,9.725678444E0
2.586599844E1,-2.211112261E0,6.380930543E-1,8.455430031E0
2.588600000E1,-9.065788388E-1,9.180805683E-1,8.105320930E0
2.590600000E1,3.896802664E-2,7.959571481E-1,8.374974251E0
2.592600000E1,3.507505357E-1,7.150235772E-1,8.957321167E0
2.594800781E1,1.237323508E-2,7.291780114E-1,9.045160294E0
2.596999844E1,-3.156611323E-1,7.837946415E-1,8.515217781E0
2.598999844E1,-6.303071380E-1,1.154771328E0,7.778273106E0
2.600999844E1,-8.537052870E-1,1.574178100E0,6.889688969E0
2.602999844E1,-8.266028762E-1,1.853093028E0,6.427703381E0
2.605000000E1,-8.508035541E-1,2.196996212E0,6.353981495E0
2.607000000E1,-7.017213702E-1,2.570903301E0,6.545517445E0
2.609000000E1,-9.587053657E-1,3.000442266E0,6.192238808E0
2.611199844E1,-2.042369127E0,4.092207909E0,6.625101089E0
2.613199844E1,-2.359619856E0,4.501032352E0,8.314813614E0
2.615199844E1,-2.438235760E0,4.037658215E0,1.037805080E1
2.617199844E1,-2.837923765E0,3.288072109E0,1.182986546E1
2.619199844E1,-3.056016684E0,2.884045839E0,1.147168350E1
2.621199844E1,-3.124413967E0,2.942282438E0,1.065518379E1
2.623199844E1,-2.591531754E0,3.196288109E0,9.763497353E0
2.625199844E1,-1.681878805E0,3.088280678E0,9.804389954E0
2.627199844E1,-1.191948533E0,2.918186903E0,1.092277908E1
2.629199844E1,-1.240704060E0,2.686198473E0,1.216808033E1
2.631199844E1,-1.868032813E0,2.905200958E0,1.231918240E1
2.633200000E1,-1.484280467E0,2.436588526E0,1.153933430E1
2.635399844E1,1.372931004E-1,6.962051392E-1,1.193829441E1
2.637399844E1,1.848227978E-1,-5.888778716E-2,1.394256687E1
2.639399844E1,-1.126328230E0,9.410649538E-1,1.604773140E1
2.641399844E1,-9.987651706E-1,1.204858065E0,1.456212902E1
2.643399844E1,1.169519648E-1,1.347715378E0,1.151366806E1
2.645399844E1,4.933492243E-1,1.640143037E0,8.935217857E0
2.647399844E1,1.729092449E-1,1.450551033E0,8.560324669E0
2.649399844E1,-4.040837884E-1,1.435841084E0,9.261614799E0
2.651399844E1,-8.368213773E-1,1.662351727E0,9.340086937E0
2.653399844E1,-9.305304289E-1,2.031949520E0,8.625666618E0
2.655399844E1,-5.023897290E-1,2.395427465E0,7.352526188E0
2.657400000E1,1.699883305E-2,2.806569338E0,6.537023067E0
2.659400000E1,3.530777395E-1,3.003755808E0,6.073371410E0
2.661400000E1,3.708810210E-1,3.228418112E0,5.787197113E0
2.663599844E1,-7.543651015E-2,3.616690636E0,6.075870991E0
2.665599844E1,-2.692040503E-1,3.740164518E0,6.601896286E0
2.667600000E1,-1.421293914E-1,3.761626005E0,7.229291916E0
2.669799844E1,-2.306382507E-1,3.838460684E0,7.910844803E0
2.671800000E1,-5.157780647E-1,4.008420467E0,8.790789604E0
2.674000000E1,-5.421717763E-1,3.994907379E0,9.109784126E0
2.676001719E1,-3.564966321E-1,3.872870445E0,9.608170509E0
2.678199844E1,2.185235769E-1,3.480537176E0,1.021631718E1
2.680199844E1,4.794723988E-1,3.098384380E0,1.053272533E1
2.682199844E1,-1.622311026E-2,2.988270283E0,1.053177738E1
2.684199844E1,-1.208123803E0,3.414849758E0,1.028076935E1
2.686199844E1,-2.025666952E0,3.559775591E0,1.040945339E1
2.688199844E1,-1.834657550E0,3.399421692E0,1.170531940E1
2.690199844E1,-1.655341387E0,3.811568975E0,1.250896645E1
2.692199844E1,-1.468220234E0,4.392182350E0,1.132536888E1
2.694199844E1,-1.173944116E0,4.549193859E0,8.324046135E0
2.696199844E1,-5.330546498E-1,4.234212875E0,6.892533302E0
2.698200000E1,-4.282460511E-1,3.500457048E0,8.269946098E0
2.700400000E1,-1.291690946E0,2.710140705E0,1.017071247E1
2.702400000E1,-1.982341528E0,2.383676767E0,1.052942085E1
2.704599844E1,-1.663194418E0,2.202119589E0,9.868104935E0
2.706599844E1,-6.411384940E-1,2.331368208E0,8.711025238E0
2.708599844E1,1.234163046E-1,2.795431614E0,7.572927475E0
2.710600000E1,2.138692439E-1,3.210174322E0,7.053997993E0
2.712600000E1,1.066473201E-1,3.604805946E0,6.749082088E0
2.714801406E1,2.986431718E-1,3.863456249E0,6.318144798E0
2.717000000E1,4.221552014E-1,4.253873825E0,6.078533173E0
2.719199844E1,1.862018555E-1,4.808715820E0,6.233065128E0
2.721199844E1,-1.356746256E-1,4.940598011E0,6.392135143E0
2.723199844E1,-4.391061664E-1,5.002282143E0,7.186005116E0
2.725199844E1,-5.794830322E-1,4.993625164E0,8.119255066E0
2.727199844E1,-7.406510711E-1,4.963390827E0,8.851909637E0
2.729199844E1,-5.500342846E-1,4.406404018E0,8.902542114E0
2.731199844E1,-3.013150692E-1,3.978310823E0,8.669538498E0
2.733199844E1,-1.251401305E-1,3.869125843E0,8.945197105E0
2.735199844E1,-2.083625793E-1,3.918082237E0,9.661541939E0
2.737199844E1,-9.428175092E-1,4.638162613E0,1.024710655E1
2.739199844E1,-1.624829769E0,5.607861996E0,1.010567665E1
2.741199844E1,-6.125038266E-1,5.468625069E0,9.273719788E0
2.743199844E1,1.114625335E0,4.391856670E0,8.847293854E0
2.745199844E1,1.855563760E0,3.072029114E0,1.110313892E1
2.747199844E1,1.526437640E0,2.248873472E0,1.473091984E1
2.749199844E1,1.139333487E0,2.049561024E0,1.498324871E1
2.751199844E1,1.577003121E0,1.881900072E0,1.201507092E1
2.753200000E1,2.092235327E0,1.965879083E0,8.923352242E0
2.755200000E1,2.096209764E0,2.083702326E0,7.128333569E0
2.757200000E1,1.095519662E0,2.630921125E0,7.180794716E0
2.759200000E1,-1.002691686E-1,3.123829842E0,7.569603920E0
2.761200000E1,-9.430472851E-1,3.440860510E0,7.543698788E0
2.763200000E1,-1.296163321E0,3.519993544E0,7.191933155E0
2.765200000E1,-1.530776024E0,3.457543135E0,7.260071754E0
2.767200938E1,-1.662437916E0,3.351863384E0,7.514958382E0
2.769400000E1,-1.758981705E0,3.273333549E0,7.869204521E0
2.771600000E1,-1.431339979E0,3.023694754E0,7.959016323E0
2.773600000E1,-1.055555701E0,2.995586872E0,7.891030312E0
2.775600000E1,-9.531795382E-1,3.086777210E0,7.896345139E0
2.777600000E1,-1.015495896E0,3.089439392E0,7.824327469E0
2.779600000E1,-9.630245566E-1,3.032093763E0,7.647818089E0
2.781600000E1,-7.253760695E-1,2.855133295E0,7.524784088E0
2.783600000E1,-5.991920829E-1,2.421514750E0,8.006200790E0
2.785600000E1,-1.880501658E-1,2.331578970E0,8.501321793E0
2.787600000E1,4.612956345E-1,2.188836575E0,8.500613213E0
2.789600000E1,4.726345837E-1,2.404046535E0,8.870890617E0
2.791600000E1,4.729410410E-1,2.651616812E0,9.382186890E0
2.793600000E1,5.691496730E-1,2.824593067E0,9.777469635E0
2.795600000E1,4.937801659E-1,3.105202913E0,1.013599586E1
2.797600000E1,7.035217881E-1,3.194736481E0,1.040109158E1
2.799600000E1,1.225103378E0,2.425029516E0,1.084699821E1
2.801600000E1,6.927383542E-1,1.900727987E0,1.162976742E1
2.803600000E1,-7.462631464E-1,2.027477026E0,1.212407398E1
2.805600000E1,-1.783019423E0,2.092494011E0,1.156269169E1
2.807800000E1,-2.111963511E0,2.221369028E0,1.058977413E1
2.809800000E1,-1.682960987E0,2.146306038E0,1.075423717E1
2.811800000E1,-9.314785004E-1,1.753810167E0,1.162099552E1
2.813800000E1,-3.742615879E-1,1.165372968E0,1.193943405E1
2.815800000E1,-3.068408929E-2,6.223871112E-1,1.194405937E1
2.817800312E1,9.125739336E-2,3.544663489E-1,1.209674263E1
2.820000000E1,2.856090963E-1,2.928874791E-1,1.232105923E1
2.822000000E1,4.527626932E-1,4.933492243E-1,1.146145535E1
2.824000000E1,7.208366990E-1,1.006541610E0,1.019226933E1
2.826001875E1,1.536991358E0,1.155805707E0,9.068346024E0
2.828200000E1,2.044131041E0,1.305213332E0,8.244146347E0
2.830400000E1,1.967296362E0,1.560550332E0,7.738768578E0
2.832400000E1,1.579157948E0,1.670760155E0,7.876157284E0
2.834400000E1,1.335303664E0,1.666373849E0,8.267743111E0
2.836400000E1,1.260288596E0,1.453184724E0,8.233515739E0
2.838400000E1,1.093498945E0,1.263860703E0,8.301052094E0
2.840600000E1,3.338953555E-1,1.325707793E0,9.006460190E0
2.842600000E1,-2.902921736E-1,1.390408635E0,9.796575546E0
2.844600000E1,-1.844684631E-1,1.208497167E0,1.034499168E1
2.846600000E1,4.050510526E-1,1.230638742E0,1.123216724E1
2.848600000E1,7.233744860E-1,1.430056691E0,1.269979382E1
2.850600000E1,4.226244688E-1,1.897299528E0,1.293376446E1
2.852600000E1,2.398894280E-1,1.702919126E0,1.228351879E1
2.854600000E1,5.783050656E-1,7.267359495E-1,1.253466129E1
2.856600000E1,5.547269583E-1,3.448991179E-1,1.435362244E1
2.858600000E1,2.257827967E-1,2.366524637E-1,1.439258099E1
2.860600000E1,5.768972635E-1,4.099256396E-1,1.255902481E1
2.862600000E1,1.883269548E0,-2.685049474E-1,1.045126438E1
2.864600000E1,2.370815277E0,1.498482972E-1,8.987392426E0
2.866600000E1,2.006532669E0,8.805490732E-1,9.210273743E0
2.868600000E1,1.424521208E0,1.180896878E0,9.204604149E0
2.870600000E1,1.338952541E0,9.838923812E-1,8.675379753E0
2.872600000E1,9.137135744E-1,1.279279470E0,8.611234665E0
2.874600000E1,1.072257519E0,1.193011642E0,8.662738800E0
2.876600000E1,1.064308882E0,1.251554608E0,8.492109299E0
2.878600000E1,8.678214550E-1,1.543608904E0,7.514230728E0
2.880600000E1,2.269320041E-1,2.057528973E0,7.447106838E0
2.882600000E1,-6.593631953E-2,2.770541430E0,6.531315327E0
2.884800000E1,9.824846387E-1,2.850833416E0,5.468376160E0
2.886800000E1,1.411831975E0,3.039362431E0,6.294289112E0
2.888800000E1,1.413124919E0,3.276503325E0,7.371411800E0
2.890801406E1,1.411650062E0,3.182688951E0,7.253358364E0
2.893000000E1,1.116042733E0,3.286999464E0,8.074206352E0
2.895000000E1,1.340053797E0,3.430153608E0,8.710268974E0
2.897000000E1,1.618719697E0,3.425470352E0,9.152353287E0
2.899200000E1,1.613921762E0,3.556107759E0,9.196224213E0
2.901400000E1,1.570577145E0,3.511297941E0,1.016036892E1
2.903400000E1,1.575566649E0,3.400522947E0,1.133979225E1
2.905400000E1,1.218533635E0,3.633095741E0,1.101972580E1
2.907600000E1,1.571936965E0,3.152397394E0,9.832468987E0
2.909600000E1,1.785049796E0,2.593178988E0,9.465122223E0
2.911600000E1,9.137231708E-1,2.377461433E0,1.014955807E1
2.913600000E1,-5.386475325E-1,2.930589199E0,1.040056515E1
2.915600000E1,-6.224062443E-1,2.783920050E0,9.714932442E0
2.917600000E1,-3.035368919E-1,2.538591385E0,9.256491661E0
2.919600000E1,2.106322944E-1,2.202157974E0,9.157189369E0
2.921800000E1,5.362341404E-1,1.676716924E0,1.051030540E1
2.923800000E1,7.819845676E-1,1.277469397E0,1.147175980E1
2.925800000E1,1.063858747E0,1.212624907E0,1.131644344E1
2.927800000E1,1.278120637E0,1.371465802E0,1.035792923E1
2.929800000E1,1.390820503E0,1.838086009E0,8.954965591E0
2.931800000E1,1.596740961E0,2.275305748E0,7.980784416E0
2.933800000E1,1.642355323E0,2.580566406E0,7.658505440E0
2.935800000E1,1.436683893E0,2.671546221E0,7.922231674E0
2.937800000E1,1.164855719E0,2.736151218E0,8.840675354E0
2.939800000E1,8.714127541E-1,2.726181746E0,9.332023621E0
2.941800000E1,8.738549352E-1,2.750928164E0,8.727104187E0
2.943800312E1,8.798691630E-1,3.026778460E0,8.046653748E0
2.946001875E1,7.175039649E-1,3.203154564E0,7.224876881E0
2.948200000E1,3.215604424E-1,3.349497795E0,6.820228577E0
2.950200000E1,2.542738020E-1,3.477328777E0,7.766943455E0
2.952200000E1,4.222222567E-1,3.357235909E0,8.134961128E0
2.954200000E1,5.601378679E-1,3.213258028E0,8.432646751E0
2.956200156E1,4.099926651E-1,2.958783150E0,9.497395515E0
2.958400000E1,3.725281954E-1,2.947463274E0,1.049330807E1
2.960400000E1,-2.636494935E-1,2.945097923E0,1.094882774E1
2.962400000E1,-4.567945302E-1,2.888814926E0,1.093534374E1
2.964599844E1,3.181510866E-1,2.197819471E0,1.164635468E1
2.966600000E1,1.339622974E0,1.979707837E0,1.261029911E1
2.968600000E1,2.410970688E0,1.472941637E0,1.348864555E1
2.970600000E1,2.617762804E0,1.353154898E0,1.315792942E1
2.972600000E1,2.821901798E0,1.050096869E0,1.163681602E1
2.974600000E1,2.224606037E0,1.459323406E0,1.061542130E1
2.976600000E1,1.756166101E0,1.530134320E0,1.009413719E1
2.978600000E1,2.111437082E0,1.929496646E0,9.598191261E0
2.980600000E1,2.407503843E0,1.605302572E0,9.294444084E0
2.982600156E1,1.815599680E0,1.964950085E0,8.986932755E0
2.984800000E1,3.278064489E0,2.282727718E0,8.141196251E0
2.986801406E1,1.768280745E0,2.608664751E0,1.059696674E1
2.989000000E1,1.685087085E0,1.988403678E0,1.125942326E1
2.991199844E1,-3.594175577E-1,1.928261399E0,1.099708557E1
2.993199844E1,-9.454127550E-1,1.542536259E0,1.114798737E1
2.995199844E1,-7.664318085E-1,1.210067868E0,8.997304916E0
2.997199844E1,-8.211920261E-1,1.323093295E0,5.796075344E0
2.999199844E1,8.959773183E-1,2.190761566E0,1.050991344E1
3.001200000E1,1.873960853E0,3.778510094E0,6.266545296E0
3.003200000E1,3.323132753E0,4.171542168E0,8.609060287E0
3.005399844E1,2.239478827E0,3.361612320E0,1.092419624E1
3.007399844E1,1.209742203E-1,3.219492674E0,1.037511063E1
3.009399844E1,7.542980313E-1,3.374608040E0,7.502480030E0
3.011399844E1,4.036174297E0,2.594548702E0,7.143694401E0
3.013399844E1,7.216372967E0,1.261447430E0,6.956630707E0
3.015399844E1,7.077404022E0,2.963906765E0,5.526535511E0
3.017399844E1,2.408997774E0,6.486237526E0,1.196967793E1
3.019399844E1,7.522677779E-1,5.887916565E0,6.793854237E0
3.021399844E1,3.584158182E0,4.094161510E0,7.763869762E0
3.023399844E1,6.143579006E0,1.595122576E0,8.930210114E0
3.025399844E1,6.668148518E0,4.597920775E-1,8.550919533E0
3.027400000E1,5.200483799E0,8.706754446E-1,8.186617851E0
3.029400000E1,3.378956079E0,1.662428379E0,8.266364098E0
3.031400000E1,2.269578695E0,2.976749182E0,8.945368767E0
3.033400000E1,2.521975279E0,3.349699020E0,9.553047180E0
3.035599844E1,3.613252640E0,2.917708158E0,9.618820190E0
3.037600000E1,4.341338634E0,2.748715878E0,9.371576309E0
3.039600000E1,4.495544434E0,2.451911688E0,9.100418091E0
3.041600000E1,4.145368576E0,2.327882290E0,8.686106682E0
3.043600000E1,3.264206886E0,2.522243738E0,8.003087997E0
3.045600000E1,2.259666681E0,2.696656466E0,8.143512726E0
3.047799844E1,1.707334042E0,2.561834335E0,8.191531181E0
3.049800000E1,1.707621217E0,2.600830793E0,7.843079090E0
3.051999844E1,1.866960168E0,2.392688513E0,7.794007778E0
3.054000156E1,2.038528681E0,2.096937418E0,8.154737473E0
3.056002031E1,2.108985424E0,2.385831594E0,8.697568893E0
3.058200000E1,2.234604359E0,2.805535078E0,8.828982353E0
3.060200000E1,1.842223287E0,2.869383812E0,9.147583961E0
3.062200000E1,1.366524220E0,3.069146156E0,9.593565941E0
3.064200000E1,9.167206883E-1,3.302159786E0,9.922519684E0
3.066400000E1,5.996517539E-1,3.254936218E0,1.046990108E1
3.068600000E1,1.062297702E0,2.923166990E0,1.119226074E1
3.070600000E1,1.462838173E0,2.266992807E0,1.132635593E1
3.072600000E1,1.875359058E0,1.986746788E0,1.044569111E1
3.074600000E1,2.240292788E0,1.881152987E0,1.049769306E1
3.076600000E1,2.678814888E0,1.452820778E0,1.114064121E1
3.078600000E1,2.702613354E0,5.728750229E-1,1.095930481E1
3.080600000E1,1.890567064E0,2.772485614E-1,9.955119133E0
3.082600000E1,7.600249648E-1,2.584588528E-1,1.020887566E1
3.084600000E1,3.842502236E-1,4.424580336E-1,1.214860058E1
3.086600000E1,8.187690973E-1,2.708799839E-1,1.312865353E1
3.088600000E1,1.628516793E0,7.026885748E-1,1.183559322E1
3.090600000E1,2.216130733E0,1.697192192E0,9.278086662E0
3.092600000E1,2.692662954E0,2.675261736E0,6.839985371E0
3.094600000E1,2.978741169E0,3.370269775E0,4.677484989E0
3.096600000E1,2.745143890E0,3.430584431E0,3.546205282E0
3.098600000E1,1.764105201E0,3.456355810E0,4.000375748E0
3.100600000E1,1.289478779E0,3.536561489E0,4.797979832E0
3.102600000E1,1.965084076E0,3.014692545E0,5.522618771E0
3.104600000E1,2.857393503E0,2.215632677E0,6.913123608E0
3.106600000E1,2.613319159E0,1.915284753E0,8.769367218E0
3.108600000E1,2.006580353E0,2.250051498E0,1.074654675E1
3.110600000E1,1.824305058E0,2.752872229E0,1.176793289E1
3.112600000E1,2.116148710E0,3.016818523E0,1.156167698E1
3.114800000E1,2.024383783E0,3.230027199E0,1.160143948E1
3.116800313E1,1.722321630E0,3.367042542E0,1.231218243E1
3.118800312E1,1.543723702E0,3.474532366E0,1.266422558E1
3.121000000E1,1.182467580E0,3.684657335E0,1.326539040E1
3.123000000E1,1.433964014E0,3.330258131E0,1.284426022E1
3.125000000E1,2.388972759E0,2.327125788E0,1.246314144E1
3.127000000E1,2.568633556E0,1.896475911E0,1.107803822E1
3.129000000E1,3.452534378E-1,3.167337418E0,1.023406315E1
3.131000000E1,3.928789496E-1,3.462590218E0,1.095082951E1
3.133000000E1,4.641591012E-1,1.871499658E0,1.263428783E1
3.135000000E1,-2.654786706E-1,1.049828768E0,1.172168541E1
3.137000000E1,-1.759355217E-1,1.082112193E0,7.768130779E0
3.139000000E1,-1.545265675E0,1.562053800E0,7.899649620E0
3.141000000E1,-3.405665874E0,1.984687924E0,9.733158112E0
3.143199844E1,-2.277019739E0,1.111723661E0,1.011441040E1
3.145199844E1,-9.774568081E-1,1.588236809E0,9.601007462E0
3.147199844E1,-3.701818883E-1,1.876814723E0,8.575187683E0
3.149199844E1,-2.541013956E-1,7.518271804E-1,8.231897354E0
3.151199844E1,-1.696512222E0,1.174049497E0,8.117876053E0
3.153200000E1,-2.030187368E0,2.503128529E0,8.467525482E0
3.155200000E1,-6.591045260E-1,2.208861828E0,7.887429237E0
3.157200000E1,2.406555712E-1,1.712160587E0,7.108355999E0
3.159200000E1,-4.610944986E-1,1.966118455E0,6.757184029E0
3.161200000E1,-4.579533339E-1,2.205500126E0,7.017903328E0
3.163200000E1,5.133455992E-1,1.566363454E0,8.048501015E0
3.165200000E1,8.721598238E-2,2.163812399E0,9.696478844E0
3.167200938E1,-8.060798794E-2,2.220727444E0,1.030059242E1
3.169400000E1,-8.619126165E-4,1.742241502E0,9.054841995E0
3.171400000E1,5.529552698E-1,3.802854300E0,9.979089737E0
3.173400000E1,3.037379980E-1,2.183531046E0,9.083256721E0
3.175400000E1,4.210443199E-1,2.878893614E0,9.308005333E0
3.177400000E1,-8.392347693E-1,3.319196701E0,9.386151314E0
3.179400000E1,-6.722343564E-1,3.085915327E0,1.186507034E1
3.181400000E1,-1.166761518E0,2.480459929E0,1.444798279E1
3.183600000E1,-1.072008491E0,2.559870958E0,1.355377769E1
3.185600000E1,2.611786723E-1,1.379347563E0,1.325984573E1
3.187600000E1,5.428996086E-1,4.132104814E-1,1.325244236E1
3.189600000E1,-1.779658049E-1,4.267425090E-2,1.307689953E1
3.191600000E1,-2.459994406E-1,-1.169711128E-1,1.246537304E1
3.193800000E1,4.200195968E-1,-1.801397353E-1,1.094239235E1
3.195801562E1,3.660160005E-1,-4.533660412E-2,9.718102455E0
3.198000000E1,-1.835107654E-1,3.779391050E-1,8.914445877E0
3.200000000E1,-2.961244583E-1,5.604347587E-1,8.464211464E0
3.202000000E1,-2.871126831E-1,8.182711005E-1,8.527964592E0
3.204000000E1,-4.507994354E-1,1.117287755E0,8.443564415E0
3.206001875E1,-5.746849775E-1,1.336721063E0,7.806476593E0
3.208200000E1,-5.371534824E-1,1.749251604E0,6.827832699E0
3.210399844E1,-4.101459086E-1,2.128474236E0,6.930916786E0
3.212400000E1,-7.814865708E-1,2.374454260E0,7.106153488E0
3.214400000E1,-1.198623538E0,2.403012514E0,6.806236744E0
3.216599844E1,-1.413833618E0,2.428295135E0,6.839975357E0
3.218599844E1,-1.207012773E0,2.593657970E0,7.487483025E0
3.220599844E1,-7.046422958E-1,2.411545515E0,8.092669487E0
3.222600000E1,-5.389826894E-1,2.393732309E0,8.457852364E0
3.224799844E1,-3.151439726E-1,2.400350094E0,8.727305412E0
3.226801563E1,-3.134488761E-1,2.668711185E0,8.936262131E0
3.228999844E1,-1.135521978E-1,2.862181902E0,9.801861763E0
3.231000000E1,7.501225471E-1,2.247839451E0,1.033289528E1
3.233199844E1,1.706721067E0,1.252110004E0,1.120596504E1
3.235199844E1,1.050968409E0,1.410510421E0,1.224875450E1
3.237199844E1,6.244077906E-2,1.589299798E0,1.223366165E1
3.239199844E1,-8.166430593E-1,1.920734048E0,1.117040634E1
3.241199844E1,-1.146889687E0,2.420557022E0,1.027285862E1
3.243199844E1,-1.134746194E0,2.725626230E0,9.990083694E0
3.245199844E1,-9.253685474E-1,2.285207987E0,9.941089630E0
3.247199844E1,-5.969032049E-1,1.385218024E0,1.009683704E1
3.249199844E1,-1.345541421E-2,4.421132803E-1,1.097381306E1
3.251200000E1,6.630980968E-1,4.418738559E-2,1.243024540E1
3.253399844E1,1.374798417E0,2.907518670E-2,1.206168175E1
3.255399844E1,1.386281133E0,3.274310231E-1,1.005133820E1
3.257399844E1,1.100681543E0,9.267954826E-1,8.023448944E0
3.259399844E1,9.635224938E-1,1.458126307E0,6.683366299E0
3.261399844E1,8.469440937E-1,1.894474387E0,7.380768776E0
3.263399844E1,1.012249351E0,2.176032543E0,8.576758385E0
3.265399844E1,1.300243020E0,2.072507143E0,8.276142120E0
3.267399844E1,1.548292041E0,1.976384759E0,7.120394230E0
3.269399844E1,1.798485994E0,1.900603533E0,5.848124981E0
3.271399844E1,1.737711549E0,2.110977411E0,5.493696690E0
3.273399844E1,1.450445652E0,2.392497063E0,5.587942600E0
3.275399844E1,1.153938174E0,2.666259527E0,5.911159515E0
3.277399844E1,8.349730968E-1,3.229462147E0,6.477599144E0
3.279399844E1,4.864922166E-1,3.830751419E0,7.660497665E0
3.281399844E1,4.305348992E-1,3.857700586E0,9.169993401E0
3.283400000E1,2.472827286E-1,3.586025715E0,1.012706184E1
3.285400000E1,-3.636696339E-1,3.330775261E0,1.054929256E1
3.287400000E1,-1.177161932E0,3.124107599E0,1.068313885E1
3.289600000E1,-1.482662082E0,2.906024694E0,1.167257595E1
3.291800000E1,-6.049477458E-1,2.414245844E0,1.350481987E1
3.293800625E1,1.084736228E0,1.823989034E0,1.477992344E1
3.296001719E1,2.863953590E0,9.897055030E-1,1.509122753E1
3.298200000E1,3.836507082E0,1.198441610E-1,1.454701614E1
3.300399844E1,3.828912497E0,-2.523488700E-1,1.366943550E1
3.302399844E1,3.616125822E0,-2.972353399E-1,1.256566143E1
3.304400000E1,4.373795033E0,-6.168996096E-1,1.080270481E1
3.306400156E1,5.095234871E0,-6.352200508E-1,8.985238075E0
3.308599844E1,4.884593010E0,-8.146989346E-2,8.233305931E0
3.310599844E1,3.457571983E0,3.760716319E-1,8.026216507E0
3.312600000E1,1.709230185E0,9.846010804E-1,7.570158958E0
3.314800312E1,5.632694960E-1,1.208047152E0,6.925381660E0
3.317000000E1,-1.026442200E-1,1.407024384E0,6.836480141E0
3.319000625E1,-4.706617296E-1,1.617532253E0,7.182202816E0
3.321200000E1,-7.322235107E-1,1.616507530E0,7.281983376E0
3.323200000E1,-9.423961043E-1,1.648398280E0,7.085333347E0
3.325200000E1,-1.053180575E0,1.754423141E0,7.050483227E0
3.327200000E1,-1.231874228E0,1.909471631E0,7.244318008E0
3.329200000E1,-1.506977558E0,1.946955204E0,7.669154644E0
3.331200000E1,-1.696301460E0,1.834762931E0,8.154986382E0
3.333200000E1,-1.853399396E0,1.751492620E0,8.922960281E0
3.335200000E1,-2.033443451E0,1.842529774E0,9.861439705E0
3.337400000E1,-2.064989567E0,1.758407116E0,1.065619946E1
3.339400000E1,-1.921126604E0,1.650102854E0,1.138821220E1
3.341400000E1,-1.674897313E0,1.675538898E0,1.209696293E1
3.343599844E1,-1.009175181E0,1.486042738E0,1.297857475E1
3.345600000E1,-9.294290841E-2,1.233176589E0,1.371565342E1
3.347600156E1,2.175850421E-2,1.510262489E0,1.386512852E1
3.349800156E1,5.140542388E-1,9.816322923E-1,1.411719894E1
3.351999844E1,8.445307016E-1,2.575299144E-1,1.431002808E1
3.354000000E1,1.105450839E-1,3.134776354E-1,1.365790558E1
3.356002031E1,-9.567326307E-1,5.058373809E-1,1.159144115E1
3.358200000E1,-1.116876006E0,4.763408005E-1,9.119983673E0
3.360200000E1,-5.165825486E-1,5.094861388E-1,8.195755005E0
3.362200000E1,4.827859700E-1,3.494002223E-1,8.845704079E0
3.364200000E1,9.827336073E-1,-1.303403359E-2,9.929817200E0
3.366200000E1,7.136253119E-1,-1.912009418E-1,1.067700005E1
3.368200000E1,1.585153043E-1,-4.384261966E-1,1.030399323E1
3.370200000E1,-2.535459697E-1,-3.328323364E-1,9.059093475E0
3.372200000E1,-1.940931380E-1,-7.561846823E-2,8.000761032E0
3.374200000E1,1.850047559E-1,1.724208295E-1,7.544809341E0
3.376399844E1,5.952463746E-1,5.068237782E-1,7.396311760E0
3.378399844E1,9.198427200E-1,6.025247574E-1,7.159985065E0
3.380400156E1,9.779547453E-1,8.029577732E-1,6.981521130E0
3.382600000E1,1.124297976E0,1.016597152E0,6.740185738E0
3.384600000E1,1.155681133E0,1.218131423E0,6.603112221E0
3.386600000E1,1.197742581E0,1.334748268E0,6.655574322E0
3.388600000E1,1.394287348E0,1.297264695E0,6.936596394E0
3.390600000E1,1.124566197E0,1.292983890E0,7.642942905E0
3.392600000E1,2.198930681E-1,1.397754192E0,8.375645638E0
3.394600000E1,-4.380910397E-1,1.253536940E0,8.836997986E0
3.396600000E1,-2.944868207E-1,1.071759701E0,9.394454956E0
3.398600000E1,3.884065449E-1,9.460065365E-1,1.090229416E1
3.400800000E1,4.854579270E-1,1.107615113E0,1.297413063E1
3.402801250E1,-2.196727842E-1,1.423918009E0,1.425152302E1
3.405000000E1,-1.027840376E0,1.659689307E0,1.433634567E1
3.407000000E1,8.444827795E-2,1.262520075E0,1.455823994E1
3.409000000E1,1.553769946E0,5.452938080E-1,1.563407993E1
3.411000000E1,1.986306429E0,2.509123459E-2,1.658904076E1
3.413000000E1,1.857814312E0,-4.404373467E-1,1.560463047E1
3.415000000E1,2.255156040E0,-5.832083821E-1,1.283990192E1
3.417000000E1,3.353615761E0,-5.466250181E-1,1.002955914E1
3.419001094E1,3.942053080E0,-4.071770906E-1,8.898214340E0
3.421200000E1,3.335161448E0,-1.167125478E-1,8.470273018E0
3.423399844E1,2.075207710E0,2.211859226E-1,7.500937939E0
3.425399844E1,1.021529198E0,6.358520985E-1,6.524812698E0
3.427399844E1,2.124901861E-1,9.180901647E-1,5.666184425E0
3.429399844E1,-4.525998831E-1,1.462742329E0,5.417561531E0
3.431399844E1,-9.652367830E-1,1.741580606E0,5.663723469E0
3.433399844E1,-1.465921879E0,2.037120819E0,6.335977077E0
3.435399844E1,-1.619945526E0,2.244104385E0,7.260598660E0
3.437399844E1,-1.062058330E0,1.985099554E0,7.821215153E0
3.439399844E1,-5.473815203E-1,1.866902709E0,7.754062653E0
3.441399844E1,-9.274753928E-1,1.983691931E0,7.328766346E0
3.443399844E1,-1.770186543E0,2.328543186E0,7.334311485E0
3.445399844E1,-2.257262945E0,2.413786411E0,7.888109207E0
3.447399844E1,-1.882034063E0,2.463652611E0,9.165932655E0
3.449400000E1,-1.004013300E0,2.506958961E0,1.030356121E1
3.451599844E1,-3.610839248E-1,2.733057976E0,1.138498402E1
3.453600000E1,2.844503224E-1,2.749185324E0,1.253919029E1
3.455600000E1,1.024124503E0,2.550140858E0,1.331846523E1
3.457800000E1,1.392831683E0,2.582673311E0,1.389905930E1
3.459800000E1,1.283445358E0,2.684484482E0,1.363540077E1
3.461801563E1,1.233799219E0,2.506671667E0,1.322627926E1
3.463999844E1,1.076672435E0,1.995059609E0,1.315805340E1
3.466001875E1,1.223915964E-1,1.954300642E0,1.267269135E1
3.468200000E1,-9.467630982E-1,2.119979382E0,1.050889874E1
3.470200156E1,-9.350124002E-1,1.917027712E0,8.493881226E0
3.472400156E1,-4.853429794E-1,1.714736819E0,7.489474773E0
3.474600000E1,1.212711036E-1,1.509285688E0,8.000559807E0
3.476600000E1,4.971224666E-1,9.847159982E-1,8.516405106E0
3.478800000E1,5.952177048E-1,9.153608084E-1,9.377532005E0
3.480800000E1,8.873677254E-1,7.237671614E-1,8.952925682E0
3.482800312E1,9.429132938E-1,7.808161974E-1,7.959073067E0
3.485000000E1,8.865250349E-1,1.035827398E0,7.530396461E0
3.487000000E1,8.973659873E-1,1.202042460E0,7.667153358E0
3.489000000E1,1.009586930E0,1.235044241E0,7.335767269E0
3.491199844E1,1.139467597E0,1.437239289E0,6.643861771E0
3.493199844E1,1.312673688E0,1.580833912E0,6.090312958E0
3.495199844E1,1.257750750E0,1.763051867E0,6.345783710E0
3.497199844E1,1.038058877E0,1.828164577E0,6.839497089E0
3.499200156E1,8.757990003E-1,1.807708502E0,7.272789955E0
3.501399844E1,6.308434606E-1,1.944350362E0,8.128219604E0
3.503400000E1,5.526200533E-1,1.934285164E0,9.276937485E0
3.505400156E1,3.893355131E-1,2.068638086E0,1.005481339E1
3.507600000E1,2.138883919E-1,2.222432137E0,1.019572735E1
3.509600000E1,2.223159969E-1,2.195904255E0,1.066439629E1
3.511600000E1,4.252485335E-1,1.893880606E0,1.157409763E1
3.513600000E1,5.938769579E-1,1.647957802E0,1.268657780E1
3.515600000E1,6.075525880E-1,1.745353937E0,1.302717686E1
3.517600000E1,1.055718541E0,1.610215545E0,1.335184956E1
3.519600000E1,1.783383369E0,9.638385773E-1,1.425524902E1
3.521800000E1,2.320144176E0,-3.691859171E-2,1.540258884E1
3.523800938E1,2.016099691E0,-4.674056470E-1,1.512647057E1
3.526001875E1,1.894215822E0,-7.269849777E-1,1.308311558E1
3.528200000E1,2.969240904E0,-9.478932023E-1,1.074094391E1
3.530400000E1,3.671498775E0,-8.579957485E-1,9.646861076E0
3.532400000E1,3.210049868E0,-7.083677053E-1,9.469259262E0
3.534400000E1,2.119874001E0,-5.747712255E-1,8.713667870E0
3.536400000E1,1.123694539E0,-2.632281184E-1,7.707107544E0
3.538400000E1,4.404469430E-1,2.551261336E-2,6.744466305E0
3.540400000E1,-8.621041477E-2,5.325183868E-1,6.423576355E0
3.542400000E1,-3.190704584E-1,7.933043838E-1,6.388659000E0
3.544400000E1,-6.022470593E-1,1.051830292E0,6.226159573E0
3.546400000E1,-7.653688192E-1,1.231759310E0,6.149439812E0
3.548400000E1,-9.733866453E-1,1.382919669E0,6.343753338E0
3.550599844E1,-9.934021831E-1,1.431981564E0,6.680723190E0
3.552599844E1,-9.711073637E-1,1.495705724E0,7.123314857E0
3.554599844E1,-8.808267713E-1,1.463010550E0,7.767374516E0
3.556600000E1,-7.598908544E-1,1.364742756E0,8.734163284E0
3.558601406E1,-7.165558338E-1,1.365221739E0,9.777105331E0
3.560799844E1,-6.628491282E-1,1.434462070E0,1.073015118E1
3.562801562E1,-5.794925690E-1,1.425086260E0,1.156297970E1
3.564999844E1,-3.434913456E-1,1.327460289E0,1.229751110E1
3.567000000E1,2.188108861E-1,1.172469378E0,1.274530315E1
3.569199844E1,9.416682720E-1,9.461885095E-1,1.316935444E1
3.571199844E1,1.306468010E0,1.106868148E0,1.343904686E1
3.573199844E1,1.233636379E0,1.349783897E0,1.368677044E1
3.575199844E1,1.184066772E0,8.782985210E-1,1.422373199E1
3.577199844E1,6.677332520E-1,2.034305334E-1,1.453751564E1
3.579199844E1,-5.245983005E-1,-5.818868056E-2,1.366004086E1
3.581199844E1,-1.572703242E0,1.027208343E-1,1.155059624E1
3.583199844E1,-1.362386942E0,-2.411056757E-1,9.412440300E0
3.585199844E1,-6.184701324E-1,-5.218976736E-1,8.496341705E0
3.587199844E1,5.524859950E-2,-4.959540963E-1,9.422782898E0
3.589199844E1,2.798630297E-1,-9.766619205E-1,1.049390125E1
3.591200000E1,-1.525393873E-1,-1.072966337E0,1.066434860E1
3.593200000E1,-3.890577555E-1,-1.039495349E0,9.980574608E0
3.595200000E1,-2.381081581E-1,-7.719480395E-1,8.790915489E0
3.597200000E1,1.489097774E-1,-3.000988066E-1,7.797646999E0
3.599200000E1,3.738210797E-1,2.348615974E-1,6.880121708E0
3.601200000E1,6.542204022E-1,5.861580372E-1,6.300629139E0
3.603200000E1,8.339196444E-1,8.589821458E-1,6.034786701E0
3.605200000E1,8.060414791E-1,1.092426419E0,6.281523228E0
3.607200000E1,6.830945015E-1,1.238673806E0,6.648046970E0
3.609200000E1,6.338792443E-1,1.216072559E0,6.397556305E0
3.611399844E1,2.849387228E-1,1.397773266E0,6.647118092E0
3.613400000E1,2.761089206E-1,1.289804339E0,7.595978737E0
3.615400000E1,1.589175314E-1,1.252301455E0,8.099622726E0
3.617400000E1,-1.460654587E-1,1.351862073E0,8.665286064E0
3.619600000E1,-5.758917332E-1,1.224825740E0,9.757884979E0
3.621600000E1,-3.727006018E-1,8.391389847E-1,1.066884041E1
3.623600000E1,-2.328983545E-1,8.089241385E-1,1.135094833E1
3.625600000E1,-5.436753109E-2,7.944440246E-1,1.223555851E1
3.627600000E1,-2.813761532E-1,9.727641344E-1,1.304364967E1
3.629600000E1,-2.814527750E-1,8.874826431E-1,1.349511909E1
3.631600000E1,1.311084032E0,-2.337315530E-1,1.445115280E1
3.633600000E1,2.957930803E0,-1.175687075E0,1.588125706E1
3.635600000E1,3.051582575E0,-1.432594538E0,1.655595398E1
3.637600000E1,2.123513222E0,-1.390178800E0,1.471087456E1
3.639600156E1,2.330381870E0,-1.512110710E0,1.179328251E1
3.641800000E1,3.847089529E0,-1.525843859E0,9.141732216E0
3.643800000E1,4.775225639E0,-1.327278495E0,8.641966820E0
3.645800000E1,3.814863443E0,-1.045298815E0,9.193064690E0
3.647800000E1,1.976633787E0,-7.378355265E-1,9.042641640E0
3.649800000E1,6.447585225E-1,-3.555868268E-1,8.411778450E0
3.651800000E1,2.182554305E-1,-7.163451612E-2,7.448629379E0
3.653800000E1,1.894100755E-1,3.165038824E-1,6.604807854E0
3.655800000E1,-3.167049959E-2,7.708946466E-1,6.019483089E0
3.657800000E1,-2.491214722E-1,1.018435955E0,5.553216934E0
3.659800000E1,-4.583938718E-1,1.128617048E0,5.358079433E0
3.661800156E1,-5.348837972E-1,1.125284433E0,5.605017662E0
3.663800156E1,-4.875935316E-1,9.266805649E-1,6.218048573E0
3.665800156E1,-4.739178419E-1,7.821952701E-1,7.025038242E0
3.668000000E1,-5.226542354E-1,6.338888407E-1,7.746113777E0
3.670200000E1,-8.761437535E-1,5.696476698E-1,8.618752480E0
3.672200000E1,-9.301856756E-1,5.635375977E-1,9.983820915E0
3.674200000E1,-5.366842747E-1,5.194747448E-1,1.125797653E1
3.676400000E1,-2.964021638E-2,3.292984962E-1,1.210268974E1
3.678400313E1,2.529521883E-1,5.149544477E-1,1.275772381E1
3.680600000E1,9.959113002E-1,4.984344840E-1,1.319322014E1
3.682600156E1,2.004253387E0,2.849674821E-1,1.331246090E1
3.684800000E1,2.352887392E0,5.175785422E-1,1.330067158E1
3.686800469E1,2.288282156E0,4.425059259E-1,1.359289837E1
3.689000000E1,2.467828035E0,-3.516507447E-1,1.422567558E1
3.691000000E1,1.574436665E0,-6.836403608E-1,1.444916058E1
3.693000000E1,3.950049877E-1,-6.355456710E-1,1.353357029E1
3.695000000E1,-2.567925155E-1,-8.124005198E-1,1.129001141E1
3.697000000E1,-3.068121672E-1,-9.552960992E-1,9.291915894E0
3.699200000E1,3.057586849E-1,-1.069681406E0,8.476441383E0
3.701200000E1,9.229264259E-1,-1.284594655E0,9.276985168E0
3.703200000E1,6.647548676E-1,-1.533189297E0,1.024929047E1
3.705200000E1,-3.668491542E-1,-1.341930866E0,1.024479866E1
3.707399844E1,-6.898556948E-1,-1.177975893E0,9.154459953E0
3.709399844E1,-4.170028865E-1,-8.214027286E-1,7.680387974E0
3.711399844E1,9.555738419E-2,-4.107205272E-1,6.441714287E0
3.713399844E1,4.951688051E-1,-4.183149338E-2,5.980294228E0
3.715400000E1,7.461290359E-1,2.030953318E-1,5.962471962E0
3.717599844E1,8.180125356E-1,4.541609287E-1,6.359191418E0
3.719600000E1,1.015917182E0,6.552738547E-1,6.221179485E0
3.721800000E1,1.330697298E0,1.017401695E0,5.722515583E0
3.723800000E1,9.545490742E-1,1.336002827E0,6.343676567E0
3.726001719E1,2.807057798E-1,1.141804338E0,7.818744659E0
3.728199844E1,-1.363641471E-1,8.217283487E-1,8.788386345E0
3.730199844E1,-3.256976306E-1,9.223039746E-1,9.398936272E0
3.732199844E1,-2.391520292E-1,8.172846437E-1,9.726731300E0
3.734199844E1,-4.104332030E-1,8.422993422E-1,1.062418365E1
3.736199844E1,-4.019290209E-1,7.402296662E-1,1.169353008E1
3.738199844E1,-1.248719841E-1,4.421228766E-1,1.305227852E1
3.740199844E1,1.076911911E-1,4.765993655E-1,1.404969215E1
3.742199844E1,8.141338825E-1,8.028715849E-1,1.432497883E1
3.744199844E1,2.305999279E0,6.465398073E-1,1.469360828E1
3.746199844E1,3.237994909E0,1.611489207E-1,1.529695702E1
3.748199844E1,3.164023638E0,-3.582875133E-1,1.555165195E1
3.750200000E1,2.033539295E0,-9.633405805E-1,1.509378529E1
3.752399844E1,1.296153784E0,-1.617809892E0,1.326484489E1
3.754400000E1,1.632625222E0,-2.062288761E0,1.105919170E1
3.756400000E1,2.148700237E0,-2.041708231E0,9.074924469E0
3.758400000E1,2.403634787E0,-1.699461818E0,8.025690079E0
3.760400000E1,1.744300365E0,-1.213390946E0,7.977843761E0
3.762600000E1,7.526507974E-1,-5.825858712E-1,8.134674072E0
3.764800000E1,-9.254068881E-2,9.624691308E-2,7.901631832E0
3.767000000E1,-5.272223353E-1,6.707500219E-1,7.464067459E0
3.769200000E1,-5.334855914E-1,1.163898110E0,6.808094501E0
3.771399844E1,-8.327033520E-1,1.537211537E0,6.521795750E0
3.773399844E1,-1.211810827E0,1.670204759E0,6.812701225E0
3.775400000E1,-1.558232665E0,1.745746613E0,7.246597290E0
3.777400000E1,-1.793659329E0,1.668365955E0,7.575196743E0
3.779400000E1,-2.074614048E0,1.670022726E0,7.609999180E0
3.781400000E1,-2.161216974E0,1.749462247E0,7.786671638E0
3.783600000E1,-1.691436529E0,1.893430471E0,8.132968903E0
3.785600000E1,-1.009826422E0,2.267423868E0,8.787514687E0
3.787600000E1,-8.518665433E-1,3.577550411E0,1.022554016E1
3.789600000E1,1.342955679E-1,4.704778671E0,1.234106541E1
3.791600000E1,1.183808208E0,4.894217968E0,1.356611252E1
3.793800000E1,1.211897016E0,4.684073925E0,1.324816227E1
3.795800000E1,7.796286345E-1,3.747126818E0,1.207834530E1
3.797801094E1,-1.207012773E0,3.430708885E0,1.122140312E1
3.800000000E1,-3.356594324E0,3.028923750E0,1.146076584E1
3.802000000E1,-3.249898911E0,2.112346649E0,1.162766075E1
3.804000156E1,-1.366955042E0,7.062032819E-1,1.086979103E1
3.806006250E1,-1.450618029E0,2.223447263E-1,9.874741554E0
3.808199844E1,-3.012365580E0,5.782667398E-1,1.046677971E1
3.810200000E1,-3.122575521E0,4.518624842E-1,1.162774754E1
3.812200000E1,-1.770866513E0,6.368576549E-3,1.161912823E1
3.814200000E1,7.518559694E-1,-3.884831667E-1,1.018015480E1
3.816200000E1,2.174184084E0,-3.897760436E-2,9.269487381E0
3.818200000E1,2.376312256E0,3.661883473E-1,1.050354481E1
3.820200000E1,2.615674973E0,4.265988469E-1,1.085217857E1
3.822200000E1,2.896447659E0,6.669862866E-1,9.262601852E0
3.824200000E1,2.639281750E0,1.378581285E0,8.163260460E0
3.826200000E1,2.466975927E0,1.839417219E0,6.583786488E0
3.828200000E1,2.198384762E0,2.215421915E0,5.553503990E0
3.830400000E1,1.858781576E0,2.755276203E0,5.706751823E0
3.832400000E1,1.939245939E0,2.874066591E0,6.137430668E0
3.834400000E1,1.983653545E0,3.042101383E0,6.525827408E0
3.836400000E1,2.329060316E0,3.268410921E0,6.905682087E0
3.838400000E1,2.807536602E0,3.634474754E0,7.041826248E0
3.840400000E1,2.936229706E0,4.193329811E0,7.267340660E0
3.842600000E1,2.401144743E0,4.661644936E0,7.107982635E0
3.844600000E1,2.199189186E0,4.687329769E0,7.843338013E0
3.846600000E1,2.766844749E0,4.460024357E0,8.722919464E0
3.848600156E1,3.437604427E0,4.126435757E0,9.894220352E0
3.850800781E1,3.240130663E0,4.016627789E0,1.113562393E1
3.853000156E1,2.404113770E0,3.999083042E0,1.154148865E1
3.855200000E1,2.621440172E0,3.735538721E0,1.100326252E1
3.857200000E1,3.413231373E0,3.466622114E0,1.126909542E1
3.859200000E1,4.212023258E0,3.209906340E0,1.238952446E1
3.861200000E1,4.564880848E0,3.276560783E0,1.345529842E1
3.863200156E1,4.745182991E0,3.422750711E0,1.231832981E1
3.865400000E1,4.585873127E0,3.363929987E0,9.641689301E0
3.867400000E1,3.972938299E0,3.096593618E0,7.195763588E0
3.869400000E1,2.721785784E0,3.274578333E0,5.999285221E0
3.871400156E1,2.123570919E0,3.393895864E0,5.756733418E0
3.873600000E1,1.717724800E0,3.481552362E0,6.771185398E0
3.875600156E1,1.289670229E0,3.565866470E0,7.726998329E0
3.877800000E1,1.057155013E0,3.713789701E0,8.011467934E0
3.879800000E1,6.756916046E-1,3.977688551E0,7.943884850E0
3.882000000E1,7.111353874E-1,4.210519314E0,7.779633045E0
3.884000000E1,1.041793823E0,4.416229725E0,7.471001148E0
3.886001875E1,1.068723798E0,4.569745541E0,7.654444695E0
3.888200000E1,7.609826922E-1,4.491962910E0,7.663839817E0
3.890200000E1,2.911444902E-1,4.487078667E0,7.535567760E0
3.892200000E1,3.270479441E-1,4.470098972E0,7.487511158E0
3.894200000E1,1.037541628E0,4.456251144E0,7.228976250E0
3.896200000E1,1.837291241E0,4.393753052E0,6.993185520E0
3.898200000E1,1.887435436E0,4.478909492E0,7.116678238E0
3.900200000E1,1.414944410E0,4.596072197E0,7.101738930E0
3.902200000E1,1.041736364E0,4.973312378E0,6.867173672E0
3.904200156E1,1.289287210E0,5.165471077E0,7.170959473E0
3.906400000E1,1.828758359E0,5.028800488E0,7.716263294E0
3.908400000E1,2.254983664E0,4.892063141E0,8.008662224E0
3.910400000E1,2.951533556E0,4.568586826E0,8.123239517E0
3.912600000E1,3.053076506E0,4.323487759E0,8.153550148E0
3.914600000E1,2.739598989E0,4.128111362E0,7.989719391E0
3.916600000E1,2.045376062E0,4.353673935E0,7.834354401E0
3.918600000E1,1.110900044E0,4.735223770E0,7.817671776E0
3.920600000E1,1.763856262E-1,4.975333214E0,7.512085438E0
3.922600156E1,-1.158448815E0,5.133101463E0,7.498189449E0
3.924800000E1,-2.200328827E0,5.202274799E0,8.210963249E0
3.926800000E1,-2.696062624E-1,3.466248512E0,1.003021049E1
3.928800156E1,1.347514153E0,2.585967779E0,1.040164757E1
3.930800156E1,7.845415473E-1,2.121616840E0,1.011831760E1
3.932800312E1,-3.665426970E-1,1.934945941E0,9.998244286E0
3.935000000E1,3.776134849E-1,1.784695387E0,9.676932335E0
3.937000000E1,1.723681569E0,1.747001052E0,1.153307056E1
3.939000000E1,3.053354263E0,1.348174930E0,1.386319447E1
3.941000156E1,3.379405975E0,1.274423957E0,1.411276531E1
3.943199844E1,2.557208538E0,1.718634605E0,1.260140133E1
3.945200000E1,1.969518185E0,2.259724140E0,1.074504280E1
3.947200000E1,1.740527272E0,2.801618099E0,9.052294731E0
3.949200000E1,1.533256292E0,3.144985199E0,8.455956459E0
3.951200000E1,1.437191367E0,3.124672651E0,8.289579391E0
3.953200156E1,1.497975349E0,3.149026394E0,8.357707977E0
3.955400000E1,1.570529342E0,3.319656610E0,8.951949120E0
3.957400000E1,1.810294151E0,3.175985098E0,9.689736366E0
3.959400000E1,2.008026600E0,2.789752483E0,9.714923859E0
3.961400000E1,1.914652705E0,2.695794344E0,8.892821312E0
3.963400000E1,1.810093164E0,2.758618355E0,8.290958405E0
3.965400000E1,2.038528681E0,2.610302210E0,8.369669914E0
3.967400000E1,2.348520279E0,2.123139620E0,8.623857498E0
3.969400000E1,2.394536972E0,1.760159612E0,8.713112831E0
3.971400000E1,2.129843473E0,1.542890668E0,9.151635170E0
3.973400000E1,1.629570365E0,1.295358896E0,9.946499825E0
3.975600000E1,7.801075578E-1,1.513058782E0,9.921543121E0
3.977600000E1,3.983281255E-1,1.820972443E0,9.644036293E0
3.979600000E1,8.384589553E-1,2.033175230E0,9.791394234E0
3.981600000E1,1.371408343E0,2.441252470E0,1.058285046E1
3.983600000E1,2.539510489E0,1.696349382E0,1.180650806E1
3.985600000E1,3.854990244E0,9.527103305E-1,1.273156929E1
3.987600000E1,3.937312603E0,1.705954909E0,1.231984329E1
3.989600000E1,3.501960516E0,2.159397364E0,1.114651299E1
3.991799844E1,2.347198725E0,2.726804256E0,9.229178429E0
3.993800000E1,1.205691338E0,3.529876947E0,7.599971771E0
3.995800000E1,2.492172420E-1,4.138243675E0,7.588451385E0
3.997800000E1,-5.205377936E-1,4.233715057E0,8.239759445E0
3.999800156E1,-8.960922360E-1,4.191452026E0,8.284579277E0
4.002000000E1,-1.308641911E0,4.361689568E0,8.896163940E0
4.004000156E1,-1.109837055E0,4.023532391E0,8.583433151E0
4.006002031E1,-8.771302104E-1,3.968485117E0,7.488018990E0
4.008199844E1,-4.078187346E-1,3.983300209E0,7.213834763E0
4.010200000E1,4.523221850E-1,3.849943399E0,7.964216232E0
4.012399844E1,1.661891937E0,3.193817139E0,9.106948853E0
4.014399844E1,1.983404517E0,2.882331610E0,1.063197994E1
4.016400000E1,2.302427292E0,2.593092680E0,1.179498672E1
4.018600000E1,3.180773735E0,2.132649422E0,1.205253601E1
4.020600000E1,3.415079832E0,1.995107412E0,1.170938015E1
4.022600000E1,2.170468330E0,2.523077011E0,1.027458191E1
4.024800000E1,4.182479084E-1,3.161083698E0,8.850703239E0
4.026801875E1,4.073781967E-1,2.664526224E0,8.994412422E0
4.029000000E1,1.930847049E0,1.194553494E0,1.156554604E1
4.031000000E1,2.434146404E0,1.230303645E0,1.426628208E1
4.033000000E1,2.900278568E0,1.475690156E-1,1.523816490E1
4.035000000E1,3.537825584E0,2.424368560E-1,1.365335655E1
4.037000000E1,4.440171242E0,5.468931198E-1,1.065675449E1
4.039000000E1,4.784630299E0,9.982384443E-1,7.531258106E0
4.041000000E1,4.205692768E0,1.618796349E0,5.847904682E0
4.043200312E1,3.035819054E0,1.916347742E0,5.465866566E0
4.045399844E1,2.524685860E0,2.060689449E0,5.662698746E0
4.047399844E1,2.734427214E0,2.249649525E0,5.807146072E0
4.049400000E1,3.343569756E0,2.574523449E0,5.851658821E0
4.051400000E1,3.800584555E0,2.531456470E0,5.762134552E0
4.053599844E1,3.781239271E0,2.312013388E0,6.408425808E0
4.055599844E1,3.599586487E0,1.914221644E0,6.689897537E0
4.057600000E1,3.172403574E0,1.638936400E0,7.487722397E0
4.059799844E1,3.019308567E0,1.564017057E0,7.466614723E0
4.061800000E1,3.581840515E0,1.561871767E0,7.206441879E0
4.063800000E1,3.887110949E0,1.704920650E0,7.274370193E0
4.065800000E1,3.018647671E0,1.871317625E0,8.239223480E0
4.068000000E1,1.666393042E0,1.786821365E0,8.974051476E0
4.070200000E1,3.253145516E-1,2.274625778E0,9.861927986E0
4.072399844E1,1.408652425E0,1.306965947E0,1.132228470E1
4.074399844E1,2.808685780E0,5.456864834E-1,1.312255287E1
4.076399844E1,2.605628967E0,8.952973485E-1,1.555465889E1
4.078399844E1,2.143289328E0,3.923330307E-1,1.557465553E1
4.080400000E1,1.731065273E0,4.347870126E-2,1.340742397E1
4.082400000E1,2.246038914E0,-4.548983183E-3,1.153598213E1
4.084599844E1,2.699213266E0,4.679706693E-1,1.093202019E1
4.086599844E1,2.422462940E0,6.719949245E-1,1.090047455E1
4.088599844E1,1.801761270E0,8.232126832E-1,1.018502998E1
4.090599844E1,1.167278647E0,9.679374099E-1,8.913689613E0
4.092599844E1,6.842628121E-1,1.294880033E0,7.685540676E0
4.094599844E1,3.817602396E-1,1.485937357E0,6.930065155E0
4.096599844E1,2.876202464E-1,1.586857796E0,6.446340561E0
4.098600000E1,2.272097468E-1,1.565836668E0,6.183351517E0
4.100600000E1,-5.933789536E-2,1.719726324E0,6.322425842E0
4.102800625E1,-3.419303000E-1,1.776976585E0,7.107484818E0
4.105000000E1,-5.196375251E-1,1.590832114E0,7.901325226E0
4.107000000E1,-6.776069999E-1,1.405645370E0,8.899314880E0
4.109000000E1,-1.024335146E0,1.360098124E0,9.666829109E0
4.111000000E1,-1.469810009E0,1.429731131E0,1.064875793E1
4.113000000E1,-1.317299366E0,1.095289826E0,1.144806767E1
4.115000000E1,-7.679449916E-1,7.532925010E-1,1.214967346E1
4.117000000E1,3.389998078E-1,3.003095090E-1,1.261092091E1
4.119200000E1,1.337630868E0,9.386228025E-2,1.338024521E1
4.121200000E1,1.398481965E0,1.617809832E-1,1.403610325E1
4.123200000E1,1.120199084E0,-1.363162696E-1,1.430217552E1
4.125200000E1,6.550344229E-1,-1.783967614E-1,1.354062748E1
4.127200000E1,-3.214551210E-1,4.698477089E-1,1.205598354E1
4.129200000E1,-6.541629434E-1,5.648879409E-1,1.050240517E1
4.131400000E1,-2.391807586E-1,1.970140636E-1,9.400641441E0
4.133400000E1,5.832083821E-1,-5.214571208E-2,9.470542908E0
4.135400000E1,1.283483624E0,-5.912528634E-1,1.071276951E1
4.137400000E1,1.481943846E0,-1.252043009E0,1.189889526E1
4.139400000E1,1.940261126E0,-2.021405458E0,1.203147697E1
4.141400000E1,2.594500780E0,-2.700544596E0,1.096502209E1
4.143400000E1,2.224031448E0,-2.389058828E0,9.266431808E0
4.145400000E1,1.452341914E0,-1.916998982E0,8.178305626E0
4.147600000E1,8.215272427E-1,-1.546577692E0,7.278947830E0
4.149600000E1,5.861867666E-1,-1.278216481E0,6.836230755E0
4.151600156E1,8.246780038E-1,-1.331300616E0,6.407065868E0
4.153800000E1,9.090687633E-1,-1.234230161E0,5.653533459E0
4.156001875E1,3.197408319E-1,-8.991568089E-1,5.093979836E0
4.158199844E1,-2.605561912E-1,-5.756618381E-1,4.870256424E0
4.160200000E1,-6.410235763E-1,-3.839437664E-1,5.605879307E0
4.162200000E1,-7.717469335E-1,1.103822812E-1,7.041241646E0
4.164200000E1,-5.067375898E-1,4.575031996E-1,8.391188622E0
4.166400000E1,-2.698935568E-1,7.786231041E-1,9.337396622E0
4.168400000E1,2.783020139E-1,8.909399509E-1,9.788846970E0
4.170400000E1,9.395900965E-1,5.146863461E-1,1.055588150E1
4.172600000E1,3.837809563E-1,6.365512013E-1,1.185957336E1
4.174600000E1,-9.285001159E-1,5.493831038E-1,1.263120461E1
4.176600000E1,-2.145214319E0,4.719546139E-1,1.257446194E1
4.178600000E1,-2.118926048E0,3.225755990E-1,1.268922043E1
4.180600000E1,-9.951451421E-1,-2.150950730E-1,1.371893883E1
4.182600000E1,8.980172127E-2,-8.092497587E-1,1.510733604E1
4.184600000E1,7.115184069E-1,-1.118331671E0,1.599071980E1
4.186800781E1,5.650124550E-1,-1.534300208E0,1.549783993E1
4.189000000E1,9.790369868E-1,-2.187495947E0,1.400914478E1
4.191000000E1,2.145128250E0,-2.936861753E0,1.246045017E1
4.193000156E1,3.237746000E0,-3.147475004E0,1.150588226E1
4.195199844E1,4.182334900E0,-2.924076796E0,1.073857880E1
4.197200000E1,3.868378639E0,-2.401978016E0,9.816236496E0
4.199200000E1,2.672340870E0,-1.380065799E0,8.791106224E0
4.201400000E1,1.662667751E0,-7.059638500E-1,7.452853203E0
4.203400000E1,1.162662625E0,-2.229959369E-1,6.578835487E0
4.205600000E1,9.276478291E-1,1.803504229E-1,6.021321297E0
4.207600000E1,8.413991332E-1,4.935215712E-1,5.964052200E0
4.209600000E1,7.834115028E-1,6.507152915E-1,5.989813805E0
4.211600000E1,4.025802314E-1,6.352774501E-1,5.897320747E0
4.213600000E1,-8.977298439E-2,6.904206872E-1,6.014512062E0
4.215600000E1,-5.482051373E-1,7.247440219E-1,6.543745995E0
4.217600000E1,-8.264879584E-1,6.544981003E-1,7.417227268E0
4.219600000E1,-9.184731841E-1,4.608263671E-1,8.331707001E0
4.221600000E1,-9.971371293E-1,4.873158336E-1,8.861581802E0
4.223600000E1,-1.212452531E0,7.743135095E-1,9.283795357E0
4.225600000E1,-1.135952830E0,1.074067593E0,9.742581367E0
4.227600000E1,-8.095274568E-1,1.190243840E0,1.046937466E1
4.229800000E1,-7.089231014E-1,1.301842451E0,1.085310745E1
4.231801094E1,-7.063852549E-1,1.236193419E0,1.111148071E1
4.233999844E1,-4.810525775E-1,8.944258690E-1,1.182893658E1
4.236001875E1,-2.826019824E-1,8.712308407E-1,1.267072868E1
4.238200000E1,-9.864110500E-3,1.434979081E0,1.317833710E1
4.240200000E1,7.356615663E-1,1.543819547E0,1.351878357E1
4.242200000E1,1.211236238E0,8.131379485E-1,1.415202045E1
4.244200000E1,2.391999066E-1,2.947549820E-1,1.474308205E1
4.246200000E1,-9.940438271E-1,-2.594452798E-1,1.376758862E1
4.248399844E1,-1.458949924E0,-7.986961007E-1,1.125117779E1
4.250400000E1,-6.627724767E-1,-9.322351217E-1,9.350909233E0
