"Time (s)","Gyroscope x (rad/s)","Gyroscope y (rad/s)","Gyroscope z (rad/s)"
1.528510000E-1,-4.922875762E-1,-1.517040133E-1,6.473426521E-2
1.748494370E-1,-5.467593074E-1,-3.115761876E-1,-5.967280641E-2
1.948510000E-1,-5.947209597E-1,-3.167947233E-1,-1.111076623E-1
2.148510000E-1,-6.203074455E-1,-1.991071552E-1,-1.627344936E-1
2.348541250E-1,-6.497162580E-1,-3.364994749E-2,-1.514422148E-1
2.568510000E-1,-6.909933090E-1,3.600614145E-2,-1.504997462E-1
2.768510000E-1,-7.952592969E-1,-1.456302702E-1,-3.120125234E-1
2.968510000E-1,-8.505687714E-1,-6.486341357E-1,-4.383219779E-1
3.168525620E-1,-8.807629347E-1,-1.368338108E0,-4.485321641E-1
3.388510000E-1,-9.913993478E-1,-1.530409455E0,-6.069731712E-1
3.588556870E-1,-1.317985415E0,-1.600676417E0,-4.739790559E-1
3.808510000E-1,-2.130645514E0,-1.397677064E0,-2.124763876E-1
4.008510000E-1,-3.156899214E0,-1.462114692E0,-4.202229083E-1
4.208510000E-1,-3.786334753E0,-1.674049973E0,-8.761203885E-1
4.408541250E-1,-2.890980721E0,-1.768594503E0,-1.313656926E0
4.608697500E-1,-1.422443390E0,-7.998843789E-1,-1.369385362E0
4.828572500E-1,-1.342158169E-1,-4.720941186E-1,-6.115284562E-1
5.048494370E-1,1.516342014E-1,-4.289495647E-1,-1.167101637E-1
5.248510000E-1,-2.072403878E-1,-7.837051749E-1,-5.580690503E-1
5.448510000E-1,-6.328215003E-1,-1.548019767E0,-8.465545177E-1
5.648510000E-1,-5.731661320E-1,-1.927227497E0,-5.660102963E-1
5.848510000E-1,-1.424363256E-1,-1.703476310E0,4.417952001E-1
6.048510000E-1,3.758217394E-1,-5.952096581E-1,1.645060062E0
6.268494370E-1,4.973839223E-1,5.002811551E-1,2.081444740E0
6.468494370E-1,3.305653632E-1,1.019097805E0,1.819819927E0
6.668494370E-1,2.843141258E-1,2.034006715E-1,7.939327955E-1
6.868494370E-1,2.993937731E-1,-9.801769257E-2,-3.847752810E-1
7.068494370E-1,7.712261081E-1,6.930004358E-1,-6.022258401E-1
7.268525620E-1,1.502309561E0,1.462411404E0,-3.520852625E-1
7.468525620E-1,2.094831467E0,1.676894903E0,-3.985459208E-1
7.688510000E-1,2.439586401E0,1.478276372E0,-3.029716909E-1
7.888510000E-1,2.049243450E0,5.078558922E-1,-8.393288404E-2
8.088510000E-1,9.247801304E-1,-3.471983373E-1,-1.018574163E-1
8.288510000E-1,-2.691297606E-2,-5.604252219E-2,-1.406909972E-1
8.488510000E-1,-6.611307263E-1,2.862339914E-1,-2.492853701E-1
8.688510000E-1,-8.003207445E-1,4.605400264E-1,-2.641381323E-1
8.888510000E-1,-4.548851550E-1,1.215970889E-1,-1.688955128E-1
9.088541250E-1,1.417207420E-1,-5.057789683E-1,-1.773254573E-2
9.308510000E-1,6.389126778E-1,-1.177660942E0,4.593706504E-2
9.528494370E-1,9.527054429E-1,-1.835702419E0,-9.686577134E-3
9.728494370E-1,1.223545671E0,-1.940561771E0,-2.533170879E-1
9.928494370E-1,1.245205164E0,-1.715100169E0,-1.382126212E-1
1.012851000E0,8.069529533E-1,-1.207523465E0,9.913469851E-2
1.034849437E0,3.277030289E-1,-4.354247451E-1,2.142740786E-1
1.054849437E0,1.085594818E-1,1.479690075E-1,2.293362617E-1
1.074849437E0,-2.017949671E-1,7.192502022E-1,2.788163424E-1
1.094849437E0,-3.033382297E-1,9.625839591E-1,3.098483086E-1
1.114849437E0,-9.482374042E-2,1.181832194E0,3.817558587E-1
1.134891625E0,1.252622753E-1,1.255293131E0,4.855505824E-1
1.156851000E0,1.912357211E-1,9.272236228E-1,4.810301960E-1
1.176851000E0,1.914800704E-1,3.989298940E-1,3.104766309E-1
1.196851000E0,1.895078421E-1,6.529276818E-2,6.883578748E-2
1.216852562E0,1.994562298E-1,-2.363350391E-1,-3.541272879E-2
1.238852562E0,1.218239814E-1,-7.419045568E-1,-1.380206347E-1
1.260869750E0,2.166651785E-1,-1.133242249E0,-1.550899595E-1
1.282849437E0,7.164052725E-1,-7.942644358E-1,2.448697016E-2
1.302849437E0,9.289689660E-1,-2.597399056E-1,2.984513044E-1
1.322851000E0,7.660948038E-1,2.042733282E-1,5.937784910E-1
1.344849437E0,6.322629452E-1,5.920680165E-1,7.114485502E-1
1.364849437E0,4.934743941E-1,5.230228305E-1,5.959601402E-1
1.384849437E0,2.433687150E-1,2.974040993E-2,4.056668878E-1
1.404849437E0,4.024729133E-2,-4.090179205E-1,2.899864614E-1
1.424849437E0,-8.686503768E-2,-4.618141055E-1,3.216990829E-1
1.444849437E0,-1.550899595E-1,-2.458645254E-1,4.262093902E-1
1.464849437E0,-1.884955615E-1,-7.255333662E-2,5.054647923E-1
1.484849437E0,-2.337344885E-1,8.269369602E-2,4.588470459E-1
1.504849437E0,-2.905798554E-1,1.962099075E-1,3.648436368E-1
1.524849437E0,-1.520181745E-1,2.577676773E-1,2.985909283E-1
1.544851000E0,1.259429604E-1,3.329389989E-1,3.778986931E-1
1.564852562E0,2.724982500E-1,4.364719391E-1,4.681496620E-1
1.586849437E0,1.271123290E-1,3.767118752E-1,4.877497256E-1
1.606851000E0,-7.915068418E-2,1.509884298E-1,4.418824613E-1
1.628863500E0,-1.481435448E-1,-4.272565991E-2,3.837804496E-1
1.650851000E0,-1.472708881E-1,-9.634217620E-2,3.672347367E-1
1.670851000E0,-1.525068730E-1,-9.971065819E-2,3.592934906E-1
1.692849437E0,-1.788962483E-1,-1.843416691E-1,3.440742195E-1
1.712849437E0,-2.363699377E-1,-2.380978167E-1,3.052406311E-1
1.732849437E0,-2.382374406E-1,-2.372426093E-1,2.652202249E-1
1.752851000E0,-1.020144969E-1,-1.184729487E-1,2.407332659E-1
1.774849437E0,-1.343903481E-3,-3.244566917E-2,2.106263340E-1
1.794849437E0,-6.000442058E-2,1.221730490E-3,1.571494490E-1
1.814849437E0,-2.080083340E-1,9.704031050E-3,7.314674556E-2
1.834849437E0,-3.307049870E-1,1.888446324E-2,3.516838327E-2
1.854849437E0,-3.975859880E-1,1.563815027E-2,8.286823332E-2
1.874849437E0,-4.915196300E-1,-8.899433911E-2,1.498365104E-1
1.894849437E0,-6.163455844E-1,-2.239955515E-1,1.873610914E-1
1.914849437E0,-7.391992807E-1,-3.488738537E-1,1.689827740E-1
1.934849437E0,-8.314748406E-1,-4.189313650E-1,7.066838443E-2
1.954849437E0,-8.438492417E-1,-3.817034960E-1,2.286381321E-3
1.974851000E0,-9.175719619E-1,-3.457322717E-1,-1.061683744E-1
1.994851000E0,-1.001173258E0,-3.302511871E-1,-1.920560300E-1
2.016851000E0,-7.512769699E-1,2.321287990E-3,-1.664869636E-1
2.038851000E0,-2.052681744E-1,2.883982062E-1,1.359611470E-2
2.058851000E0,1.439373046E-1,1.651605070E-1,1.051386371E-1
2.080851000E0,1.897871047E-1,-1.550725102E-1,-5.407030135E-2
2.102851000E0,7.674212754E-2,-1.504124701E-1,-4.225442111E-1
2.124849437E0,-1.084198505E-1,1.494176388E-1,-7.919955254E-1
2.144851000E0,-2.509434521E-1,3.744254708E-1,-9.154775739E-1
2.166851000E0,-2.634749115E-1,4.417428374E-1,-8.917236328E-1
2.188863500E0,-9.138543904E-2,2.461437881E-1,-8.223468065E-1
2.208863500E0,1.169894189E-1,6.658431143E-2,-7.987324595E-1
2.230851000E0,2.592337430E-1,-1.001993492E-1,-7.852934599E-1
2.252851000E0,3.272666931E-1,-6.958627701E-2,-7.698996663E-1
2.274849437E0,3.447374403E-1,3.897320107E-2,-7.834783196E-1
2.294849437E0,2.858849168E-1,6.386159360E-2,-8.447219133E-1
2.314849437E0,1.683021039E-1,9.604547173E-2,-8.258374333E-1
2.334849437E0,1.364847459E-2,7.766715437E-2,-7.315372825E-1
2.354851000E0,-3.197443113E-2,9.918706119E-2,-5.460960865E-1
2.376851000E0,1.518959999E-1,2.609441876E-1,-2.146405876E-1
2.398855687E0,3.952298164E-1,5.630083084E-1,2.239955515E-1
2.418857250E0,4.113740921E-1,6.155427098E-1,5.311560631E-1
2.440851000E0,2.035577446E-1,4.395088255E-1,6.779033542E-1
2.460869750E0,-9.389871731E-3,3.293785453E-1,6.918485165E-1
2.482849437E0,-1.412320435E-1,3.085044026E-1,7.045370340E-1
2.502849437E0,-8.580038697E-2,3.382273614E-1,7.450636029E-1
2.522849437E0,1.458920687E-1,3.854036033E-1,7.620282173E-1
2.542849437E0,2.944021225E-1,3.758915663E-1,6.805911660E-1
2.562865062E0,2.304707319E-1,3.948109150E-1,6.237457395E-1
2.584849437E0,2.251474652E-3,2.248856723E-1,6.796312332E-1
2.604849437E0,-2.533694506E-1,-1.981646866E-1,6.937683821E-1
2.624849437E0,-3.673219979E-1,-3.904825151E-1,6.504144073E-1
2.644849437E0,-2.144835144E-1,-2.818008661E-1,6.239726543E-1
2.664849437E0,3.255039081E-2,2.726204321E-2,7.475070357E-1
2.684849437E0,1.515818387E-1,2.547657192E-1,9.229649901E-1
2.704849437E0,1.256462485E-1,3.662049770E-1,1.006164908E0
2.724849437E0,8.080874570E-3,3.421019912E-1,1.019150138E0
2.744849437E0,-1.204975322E-1,2.909987569E-1,9.763022661E-1
2.764851000E0,-2.229134440E-1,2.251300216E-1,8.633969426E-1
2.786849437E0,-2.546086311E-1,2.006430477E-1,7.192152739E-1
2.806851000E0,-1.672199965E-1,2.079385221E-1,6.327516437E-1
2.826851000E0,-1.214574650E-1,3.208787739E-1,5.570218563E-1
2.848851000E0,-1.457000822E-1,5.175774097E-1,4.745201170E-1
2.870851000E0,-1.232027933E-1,6.832091212E-1,5.019567013E-1
2.892849437E0,-1.341983676E-1,7.542440295E-1,5.249775648E-1
2.912849437E0,-2.491282970E-1,6.665936112E-1,4.741361439E-1
2.932849437E0,-4.107981324E-1,5.421341658E-1,3.868347704E-1
2.952849437E0,-6.425953507E-1,2.312212139E-1,2.151990980E-1
2.972849437E0,-8.093964458E-1,-2.478891164E-1,-1.431170013E-2
2.992849437E0,-8.159413934E-1,-6.842039824E-1,-1.329417229E-1
3.012849437E0,-6.627888083E-1,-8.131139874E-1,-1.075646430E-1
3.032849437E0,-4.175700247E-1,-5.522570610E-1,-4.139921069E-2
3.052851000E0,-1.977632642E-1,-1.715833247E-1,-4.557054490E-2
3.072851000E0,-1.106364205E-1,1.007753089E-1,-5.466371030E-2
3.094849437E0,-1.786693484E-1,-2.052507177E-2,-1.368338149E-2
3.114851000E0,-1.531351954E-1,-2.444333583E-1,-5.550146848E-2
3.134851000E0,-1.031838655E-1,-3.697479963E-1,-1.550026834E-1
3.154851000E0,-2.641904950E-1,-5.881061554E-1,-3.893829584E-1
3.174851000E0,-6.363993883E-1,-8.010362983E-1,-7.756592035E-1
3.194851000E0,-7.290589213E-1,-7.266852856E-1,-1.006531358E0
3.214851000E0,-3.703414202E-1,-6.515837908E-1,-1.058838844E0
3.234851000E0,2.481509149E-1,-3.769038618E-1,-8.880409598E-1
3.254851000E0,7.998843789E-1,6.531021744E-2,-6.102194786E-1
3.276849437E0,1.073499680E0,2.933898568E-1,-4.743979275E-1
3.296851000E0,1.052538276E0,2.269102484E-1,-5.245412588E-1
3.316851000E0,1.004559159E0,8.292059600E-2,-6.516535878E-1
3.336851000E0,9.942442775E-1,1.527163107E-2,-8.332899809E-1
3.356851000E0,9.133133292E-1,-6.750933826E-2,-9.790250063E-1
3.376851000E0,7.575078011E-1,-1.771160066E-1,-1.052817464E0
3.396851000E0,6.036221385E-1,-2.320415229E-1,-1.056709647E0
3.416851000E0,5.086063743E-1,-2.388134003E-1,-1.010807395E0
3.436851000E0,4.457221925E-1,-2.078512609E-1,-9.251641035E-1
3.456851000E0,3.435855210E-1,-1.785820872E-1,-8.758062124E-1
3.476851000E0,2.138377428E-1,-2.162986547E-1,-8.769581318E-1
3.496851000E0,8.887216449E-2,-3.392396569E-1,-9.200328588E-1
3.516851000E0,9.215338156E-3,-4.548851550E-1,-9.106779099E-1
3.536852562E0,-2.759365551E-2,-4.355294704E-1,-8.520697355E-1
3.558852562E0,-1.542347521E-1,-2.776469886E-1,-7.304028273E-1
3.580851000E0,-3.675663471E-1,-1.261174977E-1,-6.210055947E-1
3.600851000E0,-5.173854232E-1,-7.225662936E-3,-5.582610369E-1
3.620851000E0,-4.867897928E-1,1.692969352E-3,-4.061555564E-1
3.640851000E0,-2.553765774E-1,-2.012888193E-1,-2.367015481E-1
3.660869750E0,-8.166395873E-2,-4.360705018E-1,-1.137431040E-1
3.682851000E0,-5.656611919E-2,-4.030838013E-1,2.439970337E-2
3.704849437E0,-1.228013635E-1,7.208209485E-2,2.654296756E-1
3.724852562E0,-4.096462131E-1,1.011767387E-1,3.960501254E-1
3.746851000E0,-5.885773897E-1,6.489133835E-2,3.653497696E-1
3.766851000E0,-3.327121139E-1,2.102423608E-1,2.892534137E-1
3.786851000E0,1.078613475E-1,3.626445234E-1,3.170216084E-1
3.806851000E0,2.768266797E-1,3.012961745E-1,4.307298064E-1
3.826851000E0,1.573763341E-1,1.205324382E-1,4.621980786E-1
3.848861937E0,-1.008800324E-2,5.874778330E-2,4.094367921E-1
3.870851000E0,-3.324852139E-2,1.990198940E-1,3.846880198E-1
3.890851000E0,-9.930923581E-3,2.689726949E-1,4.502425790E-1
3.910851000E0,-7.993607782E-3,2.872637510E-1,6.023305655E-1
3.930852562E0,-2.670353744E-3,3.292389214E-1,7.055842280E-1
3.952851000E0,2.619739249E-2,4.046545923E-1,7.312231660E-1
3.972851000E0,-8.953538723E-3,4.475024045E-1,7.575950623E-1
3.992851000E0,-6.557202339E-2,4.299793243E-1,7.678576112E-1
4.012851000E0,-8.370599151E-2,2.523746192E-1,7.505439520E-1
4.034851000E0,-6.511823088E-2,4.712389037E-2,7.575252652E-1
4.054851000E0,-1.172163114E-1,-1.033758521E-1,7.664962411E-1
4.074851000E0,-1.987231821E-1,-1.685639024E-1,7.442781925E-1
4.094851000E0,-3.249104917E-1,-1.047372073E-1,6.615670323E-1
4.114851000E0,-6.123487949E-1,-5.674065277E-2,5.588020682E-1
4.134851000E0,-8.474969864E-1,-1.446877979E-2,5.358335376E-1
4.154851000E0,-7.052701116E-1,-3.041410744E-1,5.799729228E-1
4.174851000E0,-3.814940751E-1,-6.049834490E-1,5.659230351E-1
4.194851000E0,-3.383146226E-1,-5.492202044E-1,5.918760300E-1
4.214851000E0,-5.643871427E-1,-3.376339376E-1,5.799030662E-1
4.234851000E0,-6.395584345E-1,-5.134758726E-2,5.312607884E-1
4.254851000E0,-5.222199559E-1,1.032187715E-1,4.935616553E-1
4.274851000E0,-6.378305554E-1,-1.902583390E-1,3.833092153E-1
4.294851000E0,-8.417373896E-1,-4.389503002E-1,1.787566245E-1
4.316851000E0,-7.126702666E-1,-4.159468710E-1,-6.651449949E-2
4.338851000E0,-2.455678284E-1,1.941853315E-1,-2.007826716E-1
4.360868187E0,1.387885809E-1,8.879362345E-1,-2.121447772E-1
4.382849437E0,1.941504180E-1,9.597216249E-1,-2.005034238E-1
4.402849437E0,1.470963508E-1,4.742234051E-1,-3.259402514E-1
4.422849437E0,5.955063552E-2,-6.092944369E-2,-5.831145048E-1
4.442849437E0,-3.944443911E-2,-3.330088258E-1,-8.073543906E-1
4.462849437E0,3.417354822E-2,-2.961998284E-1,-8.840790987E-1
4.482851000E0,1.931905001E-1,-1.815491468E-1,-8.096058965E-1
4.504849437E0,3.407580853E-1,-1.093274206E-1,-7.065965533E-1
4.524849437E0,3.654195964E-1,-9.037315100E-2,-6.913772821E-1
4.544851000E0,3.614576757E-1,-9.827949107E-2,-7.094414234E-1
4.564852562E0,3.743382096E-1,-8.953539282E-2,-7.619409561E-1
4.586849437E0,2.805965841E-1,-2.195100635E-1,-8.132361770E-1
4.606849437E0,1.826836169E-1,-3.451563120E-1,-8.431510925E-1
4.626849437E0,1.861917228E-1,-3.286454976E-1,-8.208981752E-1
4.646849437E0,1.843067706E-1,-2.829876840E-1,-7.914369702E-1
4.666849437E0,1.275486648E-1,-2.047445774E-1,-7.714006305E-1
4.686849437E0,6.850416958E-2,-1.403244734E-1,-7.434229851E-1
4.706849437E0,2.377138473E-2,-8.723155409E-2,-6.739763618E-1
4.726851000E0,-2.017600648E-2,3.717551241E-3,-5.696056485E-1
4.746851000E0,-8.951793611E-2,7.604399323E-2,-4.537158012E-1
4.766851000E0,-1.544616371E-1,9.717993438E-2,-4.087386429E-1
4.786851000E0,-2.580818236E-1,3.665191308E-2,-3.369707167E-1
4.806851000E0,-3.562566042E-1,1.059414819E-2,-2.356543541E-1
4.826851000E0,-3.630633950E-1,1.861742735E-1,-1.398008764E-1
4.848851000E0,-2.644348443E-1,4.925842583E-1,-2.417281084E-2
4.868861937E0,-1.921956539E-1,7.007671595E-1,6.117378920E-2
4.890849437E0,-3.226939142E-1,2.257583439E-1,6.962118298E-2
4.910851000E0,-4.562465250E-1,-2.451838553E-1,-1.900663599E-2
4.930851000E0,-2.791479528E-1,-1.142492518E-1,-7.731808349E-3
4.950851000E0,1.885479242E-1,3.483328223E-1,8.578293025E-2
4.972849437E0,5.433558822E-1,2.091951668E-1,2.069611400E-1
4.992849437E0,5.441412926E-1,-2.337868512E-1,2.398431450E-1
5.012849437E0,3.346843421E-1,-3.877598047E-1,1.881115884E-1
5.032849437E0,9.875072539E-2,-1.792802215E-1,1.719847471E-1
5.052849437E0,-1.699950732E-2,1.661553420E-2,1.744282097E-1
5.072849437E0,-1.149648353E-1,8.812167495E-2,2.215171903E-1
5.092849437E0,-3.156951666E-1,2.848377265E-2,2.655518353E-1
5.112851000E0,-4.740488827E-1,-3.616322204E-2,2.639286816E-1
5.134849437E0,-4.811698198E-1,-8.100073040E-2,2.268229872E-1
5.154849437E0,-3.390651047E-1,-5.515240505E-2,2.270149738E-1
5.174849437E0,-2.297725976E-1,-1.529781073E-1,2.979626060E-1
5.194849437E0,-5.407030135E-2,-1.972396523E-1,4.204323590E-1
5.214849437E0,9.396852553E-2,-1.127657220E-1,4.885700047E-1
5.234849437E0,2.898991853E-2,-4.024729133E-2,4.914847016E-1
5.254851000E0,-2.005034238E-1,-1.511978656E-1,4.448669851E-1
5.276849437E0,-2.299645841E-1,-2.779087722E-1,4.488637745E-1
5.296849437E0,-4.330161959E-2,-4.125958383E-1,4.635245502E-1
5.316849437E0,2.713987045E-2,-5.784195662E-1,4.551818669E-1
5.336849437E0,-1.772207320E-1,-6.399948001E-1,4.229805470E-1
5.356849437E0,-4.147251248E-1,-4.992514253E-1,2.722713649E-1
5.376849437E0,-4.129623473E-1,-3.020292222E-1,1.579872072E-1
5.396851000E0,-3.108780384E-1,-2.633701861E-1,1.046848446E-1
5.416851000E0,-3.098657429E-1,-4.398578703E-1,9.457939118E-2
5.438849437E0,-2.300692946E-1,-3.112096488E-1,5.106833205E-2
5.458849437E0,-3.801327050E-1,-3.371452391E-1,-9.239772707E-2
5.478849437E0,-7.894473076E-1,-4.537681639E-1,-3.526961207E-1
5.498868187E0,-9.758659601E-1,-4.572588205E-1,-6.134483218E-1
5.520851000E0,-3.727499545E-1,-1.144936029E-2,-7.009940147E-1
5.542849437E0,4.885002077E-1,7.009242177E-1,-5.372996330E-1
5.562849437E0,7.659726739E-1,1.056046367E0,-4.020715058E-1
5.582851000E0,5.452757478E-1,1.053882122E0,-4.239928424E-1
5.602851000E0,2.175552845E-1,6.624048352E-1,-5.610011816E-1
5.622852562E0,1.392947286E-1,1.901710778E-1,-7.025648355E-1
5.644851000E0,2.594082952E-1,6.091198884E-3,-7.657980919E-1
5.664851000E0,4.074470997E-1,2.239257470E-2,-7.519227266E-1
5.684851000E0,4.708898365E-1,2.083224952E-1,-6.940127015E-1
5.706849437E0,4.654444158E-1,5.668829679E-1,-5.531471968E-1
5.726851000E0,4.537855983E-1,7.700392604E-1,-4.127005637E-1
5.746851000E0,3.870267570E-1,8.262912035E-1,-3.555410206E-1
5.766851000E0,2.122669369E-1,5.710542798E-1,-3.633251786E-1
5.786851000E0,1.226791963E-1,1.271297783E-1,-3.623129129E-1
5.806851000E0,2.495297194E-1,-2.020393163E-1,-3.117507100E-1
5.826851000E0,3.244916201E-1,-2.818183005E-1,-1.807637513E-1
5.846851000E0,1.576206833E-1,-3.895400465E-1,-1.895427518E-2
5.866851000E0,-1.458222568E-1,-4.126482010E-1,4.818854108E-2
5.886851000E0,-4.594055712E-1,-3.399901390E-1,8.131489158E-2
5.906851000E0,-6.718993783E-1,-2.813819945E-1,1.193107069E-1
5.928851000E0,-5.648059845E-1,-1.563465893E-1,2.023709267E-1
5.950851000E0,-1.890715212E-1,-8.272860199E-3,3.311936855E-1
5.972849437E0,2.594431937E-1,2.518510222E-1,4.491081238E-1
5.992849437E0,5.180835128E-1,6.136577725E-1,5.064421892E-1
6.012849437E0,3.805865049E-1,6.560692787E-1,5.445601940E-1
6.032849437E0,-2.305579931E-2,2.131745070E-1,5.069657564E-1
6.052849437E0,-2.863561809E-1,-1.330289990E-1,4.745550156E-1
6.072849437E0,-7.703883201E-2,-2.789036185E-2,4.380427301E-1
6.092849437E0,3.755424917E-1,4.138350189E-1,4.852539003E-1
6.112849437E0,5.850169063E-1,5.826956034E-1,6.398900747E-1
6.132851000E0,3.840596974E-1,4.501553178E-1,7.947182059E-1
6.154849437E0,-1.443387289E-2,-6.426302344E-2,9.674708843E-1
6.174849437E0,-2.808234841E-2,-4.118802547E-1,9.947329760E-1
6.194849437E0,1.325577497E-1,-5.381373763E-1,8.969596028E-1
6.214851000E0,2.382199913E-1,-4.566653967E-1,8.213694096E-1
6.236849437E0,2.701420486E-1,-1.821251065E-1,7.895869613E-1
6.256849437E0,1.962622702E-1,4.160865024E-2,8.243190050E-1
6.276849437E0,1.657015532E-1,1.566433012E-1,8.521220684E-1
6.296849437E0,2.029468864E-1,1.859997362E-1,8.839219809E-1
6.316851000E0,2.564586699E-1,1.167276204E-1,8.663640022E-1
6.338851000E0,3.197792172E-1,-1.900663599E-2,8.306894302E-1
6.358851000E0,3.626445234E-1,-6.812020391E-2,7.823089361E-1
6.380849437E0,2.351656556E-1,-1.769065708E-1,7.222172618E-1
6.400851000E0,1.453859266E-2,-2.881363928E-1,6.067287922E-1
6.420851000E0,-3.119077981E-1,-4.661250710E-1,4.333128929E-1
6.440851000E0,-5.520650744E-1,-5.946860313E-1,2.795668244E-1
6.460868187E0,-5.774770975E-1,-5.583657026E-1,2.456376404E-1
6.482849437E0,-4.278325438E-1,-4.574682415E-1,3.172310293E-1
6.502849437E0,-3.937462866E-1,-3.301988542E-1,3.770085573E-1
6.522849437E0,-5.348212123E-1,-2.500184178E-1,3.557504714E-1
6.542851000E0,-5.806710124E-1,-1.859997362E-1,2.619913816E-1
6.564851000E0,-4.643448591E-1,-1.457175314E-1,1.258033365E-1
6.586849437E0,-4.871912003E-1,-1.927367151E-1,-3.776892647E-2
6.606849437E0,-8.718442917E-1,-3.825936317E-1,-3.078237176E-1
6.626849437E0,-1.104112744E0,-3.730117679E-1,-6.202027202E-1
6.646849437E0,-6.795265079E-1,-9.674359858E-2,-7.846302390E-1
6.666851000E0,1.713040620E-1,4.347440600E-1,-7.383440733E-1
6.686851000E0,6.709918380E-1,8.401840329E-1,-5.109451413E-1
6.706851000E0,7.597767115E-1,9.727767110E-1,-3.493101895E-1
6.726851000E0,6.719168425E-1,8.423133492E-1,-3.378608227E-1
6.746851000E0,5.692391396E-1,6.430141926E-1,-4.694586694E-1
6.766851000E0,5.621007085E-1,4.098556638E-1,-6.240599155E-1
6.786851000E0,6.388254166E-1,1.947612911E-1,-6.632076502E-1
6.808852562E0,6.385810375E-1,5.056218803E-2,-6.310586929E-1
6.828855687E0,4.756545722E-1,-1.745329238E-3,-5.521523356E-1
6.850849437E0,2.509957850E-1,-2.174680308E-2,-4.556356668E-1
6.870851000E0,6.948155910E-2,-7.990117371E-2,-3.988775313E-1
6.892849437E0,1.684242673E-2,-2.363524884E-1,-3.753505051E-1
6.912849437E0,1.745329238E-2,-3.852814436E-1,-3.490134776E-1
6.932849437E0,-3.741985932E-2,-5.524490476E-1,-3.406358957E-1
6.952849437E0,-1.278104633E-1,-6.309190392E-1,-2.725506127E-1
6.972849437E0,-2.446602583E-1,-6.536432505E-1,-1.950929016E-1
6.992849437E0,-3.904650509E-1,-6.531720161E-1,-1.751437932E-1
7.012849437E0,-5.563062429E-1,-5.830272436E-1,-1.718974710E-1
7.032849437E0,-6.525611281E-1,-4.230852723E-1,-2.328443676E-1
7.052851000E0,-6.075316668E-1,-1.927018017E-1,-2.963219881E-1
7.074849437E0,-4.109203219E-1,1.886177361E-1,-2.730742097E-1
7.094849437E0,-2.500533164E-1,5.723981857E-1,-1.825090796E-1
7.114849437E0,-1.349663138E-1,8.845503330E-1,-7.480481267E-2
7.134849437E0,4.839798063E-2,1.131444573E0,4.724606127E-2
7.154849437E0,1.578301191E-1,9.685006738E-1,1.566083878E-1
7.174849437E0,8.874998987E-2,3.893829584E-1,1.570098251E-1
7.194849437E0,9.189158678E-2,-6.536258012E-2,1.155233458E-1
7.214849437E0,2.861816287E-1,-2.037148327E-1,1.367465407E-1
7.234849437E0,4.329463840E-1,-1.283340603E-1,2.271022350E-1
7.254849437E0,3.204773664E-1,-9.971065819E-2,2.493028343E-1
7.274849437E0,1.462585926E-1,-6.606071442E-2,1.841496825E-1
7.294849437E0,9.569640458E-2,-7.190756500E-3,1.176351905E-1
7.314849437E0,1.781632155E-1,6.373942643E-2,1.036027446E-1
7.334849437E0,2.675415277E-1,1.642703861E-1,1.517040133E-1
7.354849437E0,2.900562584E-1,2.775247991E-1,2.063851804E-1
7.374849437E0,2.478193045E-1,3.682295680E-1,2.130872458E-1
7.394849437E0,1.462934911E-1,4.351454973E-1,1.926668882E-1
7.414849437E0,1.240929067E-1,3.921929300E-1,2.140995413E-1
7.434849437E0,1.684766263E-1,1.954070628E-1,2.543468177E-1
7.454849437E0,1.078438908E-1,-4.169591516E-2,3.255213499E-1
7.474849437E0,-3.668681905E-2,-2.149023861E-1,3.350857496E-1
7.494849437E0,-1.803099662E-1,-3.029891551E-1,3.029367924E-1
7.514849437E0,-3.289073110E-1,-4.067664444E-1,2.413266748E-1
7.534849437E0,-4.495095611E-1,-5.253964663E-1,1.591042131E-1
7.554849437E0,-5.157622695E-1,-6.083344817E-1,1.196772233E-1
7.574849437E0,-5.135631561E-1,-6.248976588E-1,1.924225539E-1
7.594849437E0,-5.871287584E-1,-5.973389149E-1,2.795319259E-1
7.614849437E0,-6.791250706E-1,-4.502600431E-1,3.511951566E-1
7.634849437E0,-6.609562039E-1,-2.175901979E-1,3.831870258E-1
7.654851000E0,-5.190609097E-1,-4.756022245E-2,3.872885704E-1
7.676849437E0,-3.218212724E-1,-2.164208330E-3,3.481233716E-1
7.696849437E0,-2.641032338E-1,-2.623229846E-2,2.915921509E-1
7.716849437E0,-2.487094104E-1,-5.890486389E-2,2.346246094E-1
7.736849437E0,-2.214473784E-1,-2.155481651E-2,1.629613936E-1
7.756849437E0,-4.413762987E-1,-9.731955826E-2,-5.258677155E-2
7.776851000E0,-6.968750358E-1,-1.044230461E-1,-3.848974705E-1
7.798851000E0,-5.984733701E-1,1.658062800E-3,-6.398551464E-1
7.818851000E0,-2.798810005E-1,-7.340855151E-2,-6.634694338E-1
7.838851000E0,3.139847144E-2,-1.270774156E-1,-6.204994321E-1
7.860868187E0,1.323657632E-1,1.609193534E-2,-7.643843889E-1
7.882849437E0,2.238210291E-1,3.864507973E-1,-9.438915253E-1
7.902849437E0,4.707327485E-1,6.130468845E-1,-9.977174401E-1
7.922849437E0,5.963091850E-1,5.112767220E-1,-9.781523347E-1
7.942849437E0,4.445877075E-1,2.726204395E-1,-9.924814701E-1
7.962849437E0,2.532821894E-1,1.426108479E-1,-1.055156231E0
7.982849437E0,2.297027856E-1,1.612684280E-1,-1.151550770E0
8.002849437E0,2.989574373E-1,1.727526933E-1,-1.167904496E0
8.022849437E0,3.617020249E-1,1.417905539E-1,-1.135197043E0
8.042852562E0,3.580717444E-1,1.188743785E-1,-1.071003795E0
8.064851000E0,2.256361693E-1,7.847000659E-2,-1.068246245E0
8.084851000E0,5.150466785E-2,2.038544603E-2,-1.085525036E0
8.106851000E0,-4.043927789E-2,-9.046041220E-2,-1.100342870E0
8.126851000E0,-5.759586347E-4,-1.417556405E-1,-1.049448967E0
8.146851000E0,-9.599310579E-4,-2.106263340E-1,-9.663888216E-1
8.166851000E0,-9.484118968E-2,-2.778738737E-1,-8.692612052E-1
8.186851000E0,-2.027897984E-1,-2.968106866E-1,-7.858170271E-1
8.206851000E0,-3.035302162E-1,-2.860769033E-1,-7.135953307E-1
8.226851000E0,-3.807435632E-1,-2.620611787E-1,-5.987177491E-1
8.246851000E0,-3.423463404E-1,-2.230879813E-1,-4.561766982E-1
8.266851000E0,-1.979377866E-1,5.902703479E-2,-3.810926378E-1
8.286851000E0,-3.745476529E-2,4.022460282E-1,-3.140021861E-1
8.308854125E0,2.216044515E-1,6.820223331E-1,-1.291020066E-1
8.330849437E0,5.391321778E-1,8.610581756E-1,1.547757983E-1
8.350849437E0,4.880987704E-1,9.265604019E-1,3.737797141E-1
8.370851000E0,-1.509360671E-1,6.026970744E-1,4.502251446E-1
8.390851000E0,-8.105483651E-1,3.630459309E-1,4.225267470E-1
8.412849437E0,-6.583731174E-1,1.488067657E-1,4.446400702E-1
8.432851000E0,3.089058101E-1,2.806489468E-1,6.408500075E-1
8.454849437E0,1.023496032E0,6.675710082E-1,1.007927656E0
8.474849437E0,9.116553068E-1,7.714878917E-1,1.205935240E0
8.494849437E0,4.608891010E-1,6.158917546E-1,1.233144879E0
8.514849437E0,1.390678287E-1,2.943846881E-1,1.116731405E0
8.534849437E0,3.529055789E-2,-4.649557173E-2,8.583005667E-1
8.554849437E0,-4.920083284E-2,-3.168470860E-1,6.191904545E-1
8.574851000E0,-1.536936909E-1,-4.218111634E-1,5.059709549E-1
8.596849437E0,-2.006081492E-1,-3.166550994E-1,5.336518884E-1
8.616849437E0,-1.891064197E-1,-1.125388294E-1,6.585127115E-1
8.636849437E0,-1.656317413E-1,5.998696759E-2,7.996749282E-1
8.656849437E0,-1.279500872E-1,1.203928143E-1,9.099274278E-1
8.676849437E0,-8.445648104E-2,4.564036056E-2,9.655510187E-1
8.696851000E0,-8.683013171E-2,-8.178612590E-2,9.811542630E-1
8.718849437E0,-1.779712290E-1,-1.857903004E-1,9.647307396E-1
8.738849437E0,-2.277305573E-1,-3.026400805E-1,9.191951156E-1
8.758849437E0,-2.650457025E-1,-4.487765133E-1,8.708145618E-1
8.778851000E0,-3.427128494E-1,-6.648831964E-1,7.566700578E-1
8.800851000E0,-5.272116065E-1,-8.369377255E-1,5.707226396E-1
8.822849437E0,-6.156648993E-1,-8.395033479E-1,5.638809800E-1
8.842849437E0,-5.329712033E-1,-4.815712571E-1,6.739239693E-1
8.862849437E0,-5.666036606E-1,4.256857932E-2,7.994131446E-1
8.882849437E0,-7.583630085E-1,5.288870931E-1,7.664962411E-1
8.902849437E0,-8.718792200E-1,7.970220447E-1,5.255011916E-1
8.922849437E0,-5.226039290E-1,6.603453159E-1,2.727251351E-1
8.942851000E0,2.297202349E-1,-7.955210656E-2,2.040115297E-1
8.964849437E0,7.025648355E-1,-7.643843889E-1,1.511106044E-1
8.984849437E0,4.035724699E-1,-9.075886607E-1,2.199114859E-2
9.004849437E0,-1.493478268E-1,-6.641327143E-1,-2.014808059E-1
9.024849437E0,-3.125011921E-1,-5.256931856E-2,-2.976658940E-1
9.044849437E0,-1.556833647E-2,5.552067161E-1,-2.442762852E-1
9.064849437E0,4.160864949E-1,8.848121166E-1,-1.579522938E-1
9.084849437E0,6.218433380E-1,9.193521738E-1,-1.416334659E-1
9.104849437E0,4.515515864E-1,6.161186695E-1,-2.663547099E-1
9.124849437E0,7.328637689E-2,2.058266848E-1,-5.612106323E-1
9.144849437E0,-2.124589235E-1,-3.837978840E-2,-8.853880763E-1
9.164849437E0,-2.715208828E-1,-7.475244999E-2,-1.038680315E0
9.184849437E0,-2.148151249E-1,-1.511455141E-2,-1.022047400E0
9.204849437E0,-6.017895415E-2,2.649409883E-2,-8.884598613E-1
9.224849437E0,1.046499386E-1,7.178539038E-2,-7.373841405E-1
9.244849437E0,1.589820385E-1,1.032362282E-1,-6.906268001E-1
9.264849437E0,1.002691686E-1,7.867944241E-2,-7.325496078E-1
9.284851000E0,6.372196972E-2,3.837978840E-2,-7.796734571E-1
9.306849437E0,1.194503307E-1,-3.495894372E-2,-7.258126140E-1
9.326851000E0,1.216319948E-1,-9.091419727E-2,-6.067113280E-1
9.348865062E0,-3.303908184E-2,-2.031912357E-1,-5.590463877E-1
9.370851000E0,-1.360309571E-1,-3.834837377E-1,-5.847201943E-1
9.392849437E0,-1.380206347E-1,-6.459987164E-1,-5.276653767E-1
9.412849437E0,-2.444159091E-1,-7.172081470E-1,-4.253716469E-1
9.432849437E0,-3.982143104E-1,-5.168617964E-1,-2.865307033E-1
9.452849437E0,-2.937389165E-2,-1.244419739E-1,-1.184380427E-1
9.472849437E0,6.781476736E-1,5.175599456E-1,1.250179410E-1
9.492849437E0,8.837998509E-1,9.244485497E-1,4.085990191E-1
9.512849437E0,5.672320127E-1,1.085716963E0,5.951049328E-1
9.532851000E0,4.717624933E-2,5.304404497E-1,5.649631023E-1
9.552851000E0,-1.457000822E-1,6.300638430E-3,4.124562144E-1
9.572851000E0,2.153561711E-1,4.363323096E-3,3.210533261E-1
9.594849437E0,7.142236233E-1,4.516563118E-1,4.556705654E-1
9.614851000E0,7.126179338E-1,7.305599451E-1,7.005751729E-1
9.636849437E0,3.227986395E-1,7.025299072E-1,8.379500508E-1
9.656849437E0,-5.190609023E-2,2.048143893E-1,7.505264878E-1
9.676851000E0,-2.252521962E-1,-2.988178134E-1,4.732634723E-1
9.696851000E0,-2.417455465E-1,-4.767017663E-1,2.140122652E-1
9.716851000E0,-2.705434859E-1,-3.397632539E-1,1.135336682E-1
9.736851000E0,-2.963918149E-1,-5.729915947E-2,2.281145304E-1
9.756851000E0,-2.071356773E-1,1.349488646E-1,4.634198248E-1
9.778851000E0,-3.328342736E-2,1.876927018E-1,6.904522777E-1
9.798851000E0,5.759586394E-2,1.872214675E-1,7.802320123E-1
9.818851000E0,3.171263263E-2,1.639736891E-1,7.621154785E-1
9.838858812E0,-6.524040550E-2,9.442231059E-2,7.062125802E-1
9.860869750E0,-1.517912894E-1,-1.460840553E-2,6.354743838E-1
9.882851000E0,-2.113244683E-1,-2.060361207E-1,5.227609873E-1
9.902851000E0,-3.001617193E-1,-5.978450775E-1,3.563613296E-1
9.922851000E0,-3.693814874E-1,-8.939227462E-1,2.750813365E-1
9.942851000E0,-4.264712036E-1,-8.548971415E-1,3.525390625E-1
9.962851000E0,-4.786041975E-1,-5.054647923E-1,5.595176220E-1
9.982851000E0,-3.957708478E-1,-2.221105993E-1,6.543762684E-1
1.000285100E1,-1.964368075E-1,3.982841223E-2,5.527981520E-1
1.002285100E1,-3.846705705E-2,1.473755985E-1,3.788411617E-1
1.004285256E1,1.037947312E-1,1.305855364E-1,3.017150760E-1
1.006485100E1,2.584832534E-2,-7.745771110E-2,2.360557765E-1
1.008485100E1,-4.113915563E-1,-3.430968225E-1,-1.319468953E-2
1.010685100E1,-6.943443418E-1,-3.329389989E-1,-4.581838250E-1
1.012685100E1,-3.978827000E-1,-8.040732145E-2,-6.545508504E-1
1.014685100E1,2.637017965E-1,4.934918582E-1,-5.358335376E-1
1.016685100E1,6.035348773E-1,8.992459774E-1,-2.750813365E-1
1.018685100E1,5.869891047E-1,8.725249767E-1,-1.605179310E-1
1.020885256E1,4.082499743E-1,4.372747838E-1,-3.519980013E-1
1.023085256E1,2.713812590E-1,1.370781660E-1,-6.940301657E-1
1.025285100E1,2.136108428E-1,2.406809106E-2,-8.548971415E-1
1.027285100E1,2.331585288E-1,4.667010531E-2,-7.850490808E-1
1.029285100E1,2.149023861E-1,6.518805027E-2,-6.485643387E-1
1.031484944E1,1.569749117E-1,1.029744223E-1,-5.647711158E-1
1.033485100E1,2.186199427E-1,1.040914357E-1,-5.242270827E-1
1.035485100E1,3.252595663E-1,7.431612164E-2,-5.337566137E-1
1.037485100E1,2.949082851E-1,-5.427974090E-2,-5.449092388E-1
1.039685256E1,1.308647841E-1,-1.731541157E-1,-5.876697898E-1
1.041885100E1,-2.738421597E-2,-1.765400469E-1,-6.207088828E-1
1.043885100E1,-1.509360671E-1,-1.627344936E-1,-6.350554824E-1
1.045885100E1,-2.462310493E-1,-3.162536621E-1,-6.096260548E-1
1.047885100E1,-2.520604432E-1,-5.430417657E-1,-5.547528863E-1
1.049885100E1,-2.405238301E-1,-6.968227029E-1,-5.856277943E-1
1.051885100E1,-3.790331483E-1,-6.287373900E-1,-6.708696485E-1
1.053885256E1,-4.922875762E-1,-2.884505689E-1,-7.104013562E-1
1.055885256E1,-3.909188509E-1,1.596801728E-1,-5.941275358E-1
1.058085100E1,-1.932603121E-1,5.513320565E-1,-2.651504278E-1
1.060085100E1,1.308996929E-3,6.549871564E-1,6.925466657E-2
1.062284944E1,1.641482115E-1,4.592659473E-1,3.334975243E-1
1.064284944E1,2.050063759E-1,-1.361356769E-2,4.466821253E-1
1.066284944E1,2.324080467E-1,-2.166826278E-1,5.000368357E-1
1.068284944E1,4.401022196E-1,4.379031062E-2,6.196791530E-1
1.070284944E1,6.141115427E-1,3.319267035E-1,7.931125164E-1
1.072284944E1,5.448394418E-1,5.102644563E-1,9.931621552E-1
1.074284944E1,2.096489519E-1,2.977531552E-1,1.100395203E0
1.076285100E1,-1.265363693E-1,-8.703956753E-2,1.022623301E0
1.078484944E1,-2.236988544E-1,-2.360383272E-1,8.253661990E-1
1.080484944E1,-1.690002382E-1,-2.244318873E-1,7.449239492E-1
1.082484944E1,-1.685639024E-1,-4.918337986E-2,8.338136077E-1
1.084484944E1,-1.810604632E-1,2.360208780E-1,1.012029171E0
1.086484944E1,-4.930555075E-2,5.215567350E-1,1.243965983E0
1.088484944E1,9.306095541E-2,6.193649769E-1,1.462393880E0
1.090484944E1,1.836609989E-1,5.190783739E-1,1.606226563E0
1.092484944E1,2.604380250E-1,3.391174674E-1,1.660488844E0
1.094484944E1,3.054500818E-1,1.211782098E-1,1.645793080E0
1.096484944E1,3.332880735E-1,-7.581710070E-2,1.622597694E0
1.098484944E1,3.718423843E-1,-1.944645792E-1,1.597011209E0
1.100484944E1,3.242298067E-1,-2.095093280E-1,1.581442833E0
1.102484944E1,1.261000335E-1,-1.687733382E-1,1.478573084E0
1.104485100E1,-1.211782098E-1,-1.657015532E-1,1.281961799E0
1.106485100E1,-2.183755934E-1,-2.298598588E-1,1.088998199E0
1.108684944E1,-9.808750451E-2,-2.766695917E-1,1.000457644E0
1.110684944E1,3.476695716E-2,-1.681799293E-1,9.568069577E-1
1.112684944E1,-1.487020496E-2,6.649704650E-3,8.615992069E-1
1.114684944E1,-1.858077496E-1,9.192649275E-2,7.433880568E-1
1.116684944E1,-2.877349854E-1,5.881759338E-3,6.171309948E-1
1.118684944E1,-4.910832942E-1,-2.414837480E-1,3.565707505E-1
1.120685100E1,-6.435203552E-1,-3.090977967E-1,6.976080686E-2
1.122685100E1,-3.920533061E-1,-3.747221828E-2,-8.115781099E-2
1.124685100E1,1.271472424E-1,4.122816622E-1,-4.607669078E-3
1.126884944E1,4.701567888E-1,6.867346764E-1,2.178345472E-1
1.128885256E1,5.727297664E-1,6.914994717E-1,2.247984111E-1
1.131085100E1,4.762479961E-1,5.247157812E-1,7.958701812E-3
1.133284944E1,4.095240533E-1,4.649033546E-1,-2.727600634E-1
1.135284944E1,4.371351600E-1,4.317770004E-1,-4.481307268E-1
1.137285100E1,4.340633750E-1,3.392047286E-1,-4.689001441E-1
1.139285100E1,3.494323790E-1,2.316401005E-1,-4.302934706E-1
1.141285100E1,2.195275128E-1,2.147453129E-1,-4.207465351E-1
1.143285100E1,9.477137774E-2,2.174680233E-1,-4.701916873E-1
1.145285100E1,3.818780556E-2,1.472359747E-1,-5.162335038E-1
1.147285100E1,-6.333799660E-2,1.478293911E-2,-5.744402409E-1
1.149285100E1,-2.100154608E-1,-1.629788429E-1,-5.971469283E-1
1.151485100E1,-2.732138336E-1,-3.128851652E-1,-5.329188108E-1
1.153485100E1,-3.314554691E-1,-5.051332116E-1,-4.840845168E-1
1.155485100E1,-4.179539979E-1,-7.243814468E-1,-4.290019274E-1
1.157485100E1,-3.776718080E-1,-7.692887783E-1,-4.262268543E-1
1.159485100E1,-3.256784379E-1,-6.485643387E-1,-4.014780819E-1
1.161485100E1,-2.856056690E-1,-3.984761238E-1,-3.098832071E-1
1.163685100E1,-2.879793346E-1,-1.284387857E-1,-1.854761392E-1
1.165685100E1,-3.121521473E-1,1.333431527E-2,-7.709119469E-2
1.167685100E1,-2.470688075E-1,7.417649031E-2,2.696533687E-2
1.169685100E1,-7.106980681E-2,1.509186178E-1,1.622108966E-1
1.171685100E1,1.233947799E-1,2.506118119E-1,3.807435632E-1
1.173685100E1,3.252595663E-1,3.485422432E-1,5.632875562E-1
1.175685100E1,4.935441911E-1,4.950277209E-1,6.631901860E-1
1.177885100E1,4.715530574E-1,5.196368694E-1,7.068234086E-1
1.179885412E1,3.480884731E-1,1.952499896E-1,6.875026226E-1
1.182085100E1,1.910960972E-1,-3.141941726E-1,5.925043821E-1
1.184085100E1,5.829399452E-3,-6.675011516E-1,2.960776389E-1
1.186086975E1,-7.248352468E-2,-6.951820850E-1,-6.572909653E-2
1.188285100E1,1.724385284E-2,-2.058092207E-1,-2.783800066E-1
1.190285100E1,1.813571602E-1,2.874557376E-1,-2.977706194E-1
1.192285100E1,2.869670391E-1,6.663143635E-1,-2.030516118E-1
1.194285100E1,2.709798217E-1,8.943590522E-1,-1.629788429E-1
1.196484944E1,1.670280099E-1,8.821243048E-1,-1.832246631E-1
1.198485100E1,-1.898918301E-2,5.015552640E-1,-2.163684666E-1
1.200485100E1,-2.124240249E-1,-8.709193207E-3,-2.033657581E-1
1.202485100E1,-1.837831736E-1,-1.711644381E-1,-1.569574624E-1
1.204485100E1,-1.074250117E-1,-1.154360771E-1,-5.407030135E-2
1.206485100E1,-2.937389165E-2,-7.349581271E-2,7.628834248E-2
1.208485100E1,8.710937947E-2,-3.171263263E-2,1.470090896E-1
1.210485100E1,1.325752139E-1,-6.595598906E-2,1.681101173E-1
1.212485100E1,9.060004354E-2,-2.292490005E-1,1.185602173E-1
1.214685100E1,2.302089334E-2,-3.863635361E-1,-9.075712296E-4
1.216685100E1,-1.025380939E-1,-5.449441671E-1,-1.981472224E-1
1.218885412E1,-2.893406749E-1,-6.258401871E-1,-4.402942061E-1
1.220885881E1,-4.107806981E-1,-4.981867671E-1,-6.319662929E-1
1.223085100E1,-3.569198251E-1,-2.612234354E-1,-7.231945992E-1
1.225284944E1,-2.423215061E-1,-7.721336931E-2,-6.526309848E-1
1.227284944E1,-2.058790326E-1,5.902703479E-2,-5.278748274E-1
1.229284944E1,-2.131221592E-1,1.699601561E-1,-4.314802885E-1
1.231284944E1,-2.224247605E-1,2.144660652E-1,-3.634299040E-1
1.233285100E1,-2.614852190E-1,9.334021062E-2,-3.001966178E-1
1.235484944E1,-2.587101460E-1,-1.202182770E-1,-2.611536086E-1
1.237484944E1,-2.296504229E-1,-2.560572624E-1,-2.284636050E-1
1.239484944E1,-2.204699963E-1,-2.614852190E-1,-1.692969352E-1
1.241484944E1,-2.517637312E-1,-1.336747706E-1,-8.560840040E-2
1.243485100E1,-2.494424582E-1,-9.704031050E-3,-1.221730490E-3
1.245485100E1,-2.555336654E-1,-1.876578033E-1,1.093448773E-1
1.247485100E1,-2.992192507E-1,-6.489832401E-1,1.961400956E-1
1.249684944E1,-2.670179307E-1,-1.058978558E0,1.893507689E-1
1.251684944E1,-1.850921661E-1,-1.044719219E0,1.779188663E-1
1.253685100E1,-1.304109991E-1,-9.005200863E-1,2.391275615E-1
1.255885100E1,-1.040390730E-1,-6.126454473E-1,3.950727284E-1
1.257885100E1,-1.990548074E-1,-2.202780098E-1,5.027071834E-1
1.260084944E1,-4.583409131E-1,1.392772701E-2,4.650080800E-1
1.262084944E1,-4.680798650E-1,4.864232615E-2,3.969925940E-1
1.264084944E1,-1.272868663E-1,5.860815570E-2,4.003436267E-1
1.266086975E1,4.416206479E-1,1.776745170E-2,4.139746428E-1
1.268284944E1,7.740535140E-1,5.817182362E-2,3.858399391E-1
1.270284944E1,5.951921940E-1,9.271188825E-2,2.829353213E-1
1.272285256E1,2.342057377E-1,1.631184667E-1,4.789183289E-2
1.274484944E1,3.698352724E-2,3.476695716E-1,-2.034181207E-1
1.276484944E1,7.223917544E-2,7.009766102E-1,-2.639461458E-1
1.278484944E1,5.567600485E-3,8.248077035E-1,-1.972396523E-1
1.280484944E1,-1.480737329E-1,4.551295042E-1,-5.050982907E-2
1.282484944E1,-2.460739762E-1,-4.415683076E-2,8.028514683E-2
1.284484944E1,-1.149648353E-1,-2.818357646E-1,1.868200451E-1
1.286484944E1,1.905725002E-1,-1.966636926E-1,2.338043004E-1
1.288484944E1,2.498962432E-1,-3.412118554E-2,3.261322081E-1
1.290485100E1,5.211552978E-2,3.403391922E-3,4.041135311E-1
1.292684944E1,-8.557349443E-2,-1.710422686E-3,4.307298064E-1
1.294684944E1,-5.567600206E-2,-4.673991725E-2,3.730815649E-1
1.296685100E1,-9.182177484E-2,-1.678134054E-1,2.819055915E-1
1.298685100E1,-2.131221592E-1,-2.630734742E-1,1.758942753E-1
1.300884944E1,-3.110525906E-1,-1.195026934E-1,6.710790843E-2
1.302886194E1,-3.150319159E-1,1.721592695E-1,7.880161703E-2
1.305084944E1,-1.312313080E-1,4.162959456E-1,2.723760903E-1
1.307085100E1,1.475501359E-1,4.818505049E-1,5.159542561E-1
1.309085100E1,3.365518451E-1,3.933972120E-1,7.047290206E-1
1.311089319E1,3.740065992E-1,2.745926380E-1,7.646461725E-1
1.313285100E1,2.709449232E-1,7.101744413E-2,7.106980681E-1
1.315484944E1,2.351133078E-1,-1.875181794E-1,6.388777494E-1
1.317484944E1,3.221877813E-1,-4.022285640E-1,6.158394217E-1
1.319485100E1,4.160690308E-1,-4.512548745E-1,7.410318851E-1
1.321684944E1,4.841543436E-1,-2.587974072E-1,9.272934198E-1
1.323684944E1,2.891836166E-1,-1.200437471E-1,9.007469416E-1
1.325684944E1,7.740534842E-2,-1.735555381E-1,7.939677238E-1
1.327684944E1,2.321462482E-1,-1.123817489E-1,7.053573728E-1
1.329685100E1,5.863258839E-1,8.230973035E-2,7.564082146E-1
1.331685100E1,6.343399286E-1,1.100430116E-1,8.740260005E-1
1.333685100E1,3.239505589E-1,-5.944591388E-2,9.206262827E-1
1.335685100E1,8.185594343E-3,-2.662325203E-1,7.880859971E-1
1.337685100E1,-4.904375225E-2,-2.674193382E-1,5.707226396E-1
1.339685100E1,3.188716620E-2,-5.419247225E-2,4.878020585E-1
1.341885100E1,1.452462971E-1,2.329316437E-1,6.523517370E-1
1.344085100E1,2.265961021E-1,3.825238049E-1,8.603076935E-1
1.346086975E1,2.509783506E-1,4.490382969E-1,9.564578533E-1
1.348285100E1,1.623854339E-1,4.542044699E-1,9.446594715E-1
1.350484944E1,7.679448463E-3,4.059286714E-1,8.558222055E-1
1.352484944E1,-6.834709644E-2,2.869670391E-1,7.695680261E-1
1.354485100E1,-7.202973962E-2,2.116909772E-1,6.503794789E-1
1.356485100E1,-8.730136603E-2,1.260127723E-1,6.081774235E-1
1.358485100E1,-4.879940674E-2,-4.084070399E-2,8.652469516E-1
1.360485100E1,2.111848444E-2,-6.293657422E-2,1.249620795E0
1.362485100E1,4.068362340E-2,1.570796303E-4,1.421378732E0
1.364684944E1,-1.982693933E-2,2.155481651E-2,1.240859270E0
1.366684944E1,-1.807986498E-1,-7.618362457E-2,1.031943321E0
1.368685100E1,-2.705609500E-1,-2.719048560E-1,9.272236228E-1
1.370685100E1,-2.092649788E-1,-3.262020350E-1,9.170308709E-1
1.372685100E1,-1.508139074E-1,-1.518785506E-1,9.599660039E-1
1.374685100E1,-2.591115832E-1,-1.638864167E-2,8.874126673E-1
1.376685100E1,-3.593807518E-1,5.445427075E-2,6.406928897E-1
1.378685100E1,-3.097959422E-2,3.036349416E-1,5.782450438E-1
1.380685100E1,6.231697798E-1,5.715953112E-1,9.443103671E-1
1.382685100E1,1.025887132E0,4.924795628E-1,1.370031118E0
1.384885100E1,7.632673979E-1,7.136651129E-2,1.439756989E0
1.386886350E1,3.266558349E-1,-6.092944369E-2,1.075594068E0
1.389085100E1,-5.253441166E-3,6.859143730E-3,4.822519124E-1
1.391085100E1,-2.090031803E-1,7.585200667E-2,1.445307136E-1
1.393085256E1,-3.750537932E-1,7.166321576E-2,7.194247097E-2
1.395284944E1,-4.892855883E-1,-9.459684603E-3,1.246688664E-1
1.397284944E1,-4.978900850E-1,-1.382300723E-2,2.020742148E-1
1.399284944E1,-3.085741997E-1,1.099382862E-1,2.780309618E-1
1.401284944E1,-6.497860700E-2,2.786243558E-1,3.405660987E-1
1.403284944E1,-8.482300490E-2,3.412991464E-1,4.085292220E-1
1.405284944E1,-2.456550896E-1,3.724358082E-1,4.643099308E-1
1.407284944E1,-3.052929938E-1,3.805690408E-1,5.223072171E-1
1.409284944E1,-2.417455465E-1,2.946814001E-1,6.155427098E-1
1.411285100E1,-7.880161703E-2,1.232551485E-1,7.265107632E-1
1.413484944E1,8.005825430E-2,-1.137605608E-1,7.758861184E-1
1.415484944E1,1.720196456E-1,-1.960179210E-1,7.696029544E-1
1.417484944E1,2.552369535E-1,-1.822821796E-1,7.671769261E-1
1.419484944E1,2.521477044E-1,-1.635373533E-1,7.997098565E-1
1.421485100E1,3.797836602E-2,-2.386563271E-1,7.577347159E-1
1.423684944E1,-2.148325741E-1,-3.787015378E-1,5.459040999E-1
1.425684944E1,-2.653773129E-1,-5.229355693E-1,3.051533699E-1
1.427684944E1,-2.379407287E-1,-6.015277505E-1,1.417207420E-1
1.429684944E1,-1.008102149E-1,-2.919761240E-1,6.113888323E-2
1.431684944E1,3.162361979E-1,2.893756032E-1,1.840973347E-1
1.433685100E1,7.639655471E-1,6.557027698E-1,3.414736688E-1
1.435885100E1,6.199409366E-1,6.543239355E-1,3.931179643E-1
1.438085100E1,-1.955816001E-1,8.894197643E-2,2.418851852E-1
1.440284944E1,-7.634593844E-1,-4.750960767E-1,-3.841469809E-2
1.442285100E1,-8.186118007E-1,-6.840119958E-1,-2.472433448E-1
1.444285100E1,-7.095286846E-1,-4.889016151E-1,-2.942799628E-1
1.446484944E1,-7.688873410E-1,2.135061324E-1,-1.339714676E-1
1.448484944E1,-8.807803988E-1,9.060004354E-1,1.514422148E-1
1.450485100E1,-8.693310618E-1,1.244646668E0,3.382273614E-1
1.452685100E1,-6.296973228E-1,1.135703206E0,4.198389649E-1
1.454686194E1,-2.842094004E-1,7.299141288E-1,3.996105790E-1
1.456885100E1,-9.613273293E-2,1.274264902E-1,2.579596639E-1
1.458886194E1,-6.785839796E-2,-3.460115194E-1,1.100430116E-1
1.461084944E1,-1.018399596E-1,-4.591786861E-1,3.865904361E-2
1.463084944E1,-1.101302728E-1,-3.921405673E-1,1.056098714E-1
1.465085100E1,-1.904852390E-1,-3.205297291E-1,1.956688613E-1
1.467085100E1,-3.716503978E-1,-3.271096051E-1,2.529854774E-1
1.469085100E1,-4.081626832E-1,-3.147526681E-1,2.323382348E-1
1.471085100E1,-2.680476606E-1,-2.454631031E-1,1.684242785E-1
1.473085100E1,-8.244935423E-2,-1.327497363E-1,1.834690124E-1
1.475085100E1,5.427973811E-3,-1.297477782E-1,2.924648225E-1
1.477085100E1,8.005825430E-2,-1.495921761E-1,4.115835428E-1
1.479085100E1,1.656841040E-1,-1.232900545E-1,4.647113681E-1
1.481085100E1,1.975712776E-1,-8.150687814E-2,4.764050841E-1
1.483085100E1,1.613207757E-1,-4.331907257E-2,5.048888326E-1
1.485085100E1,1.356120780E-2,-6.339035928E-2,5.089030862E-1
1.487085100E1,-2.010619342E-1,-1.524894089E-1,4.852713346E-1
1.489085100E1,-2.281319797E-1,-1.463458538E-1,3.782303035E-1
1.491085100E1,-1.072330326E-1,-8.260643482E-2,2.392846346E-1
1.493285100E1,2.537708730E-2,-6.895796210E-2,9.182177484E-2
1.495484944E1,1.937315464E-1,-5.909684673E-2,-2.916445211E-2
1.497484944E1,5.011538267E-1,7.051130384E-2,-7.209955156E-2
1.499484944E1,7.657457590E-1,2.041860670E-1,-7.483971864E-2
1.501484944E1,7.529699206E-1,2.558478117E-1,-7.566002011E-2
1.503484944E1,6.089977622E-1,2.416582853E-1,-1.704488546E-1
1.505485100E1,4.775744379E-1,2.879095078E-1,-3.987902701E-1
1.507684944E1,3.587698936E-1,4.008846879E-1,-7.184298635E-1
1.509684944E1,2.431767285E-1,4.799655378E-1,-8.542165160E-1
1.511685100E1,1.229759008E-1,4.802447855E-1,-8.432208896E-1
1.513685100E1,1.860520989E-2,3.707428277E-1,-7.535808086E-1
1.515885413E1,-3.054326167E-3,2.382548898E-1,-5.968328118E-1
1.518084944E1,1.820378378E-2,1.591216624E-1,-4.797037542E-1
1.520085100E1,-5.010840297E-2,7.365289330E-2,-4.303458333E-1
1.522284944E1,-2.080606967E-1,-2.897246554E-2,-4.159468710E-1
1.524284944E1,-2.845061123E-1,-1.063952744E-1,-4.127354622E-1
1.526285100E1,-3.175626695E-1,-1.363800317E-1,-4.336096048E-1
1.528486663E1,-4.978377223E-1,-6.176720187E-2,-4.176398218E-1
1.530684944E1,-6.360852718E-1,1.856681257E-1,-3.398679495E-1
1.532685100E1,-5.801474452E-1,3.551221490E-1,-2.917317748E-1
1.534885100E1,-4.002912641E-1,4.597895443E-1,-2.270498872E-1
1.537085100E1,-2.161764801E-1,4.642226696E-1,-2.062281072E-1
1.539085100E1,-3.284709528E-2,3.344748914E-1,-1.721592695E-1
1.541285100E1,3.267256320E-1,-2.712241560E-2,-5.827654526E-2
1.543485100E1,6.738017797E-1,-2.794621289E-1,8.449138701E-2
1.545685100E1,6.868743300E-1,-3.236713111E-1,1.944122314E-1
1.547884944E1,5.593605638E-1,-1.729621291E-1,2.029294372E-1
1.549885100E1,4.576602280E-1,1.129751652E-1,1.628915817E-1
1.552085100E1,3.521027267E-1,3.351032138E-1,2.316401005E-1
1.554287600E1,3.602359593E-1,3.262194991E-1,3.819129467E-1
1.556484944E1,5.951572657E-1,4.179714620E-1,5.101946592E-1
1.558484944E1,7.901803851E-1,6.101322174E-1,5.379453897E-1
1.560484944E1,8.147546053E-1,9.194918275E-1,4.566653967E-1
1.562485100E1,5.573359728E-1,1.089347243E0,2.059663087E-1
1.564485100E1,-7.038912922E-2,7.453079224E-1,-1.707630157E-1
1.566485100E1,-7.192676067E-1,-4.059635848E-2,-4.276231229E-1
1.568485100E1,-7.672641873E-1,-5.114163756E-1,-4.024205506E-1
1.570485100E1,-1.385093331E-1,-5.280144811E-1,7.979645580E-2
1.572685100E1,4.077438116E-1,-3.077015579E-1,7.582757473E-1
1.574685100E1,2.956936955E-1,-1.172337681E-1,9.119868875E-1
1.576884944E1,-2.919935808E-2,1.950230896E-1,6.676058769E-1
1.578885881E1,-9.950122237E-2,2.142740786E-1,3.741287887E-1
1.581085100E1,2.577851340E-2,7.353071868E-2,3.515093029E-2
1.583285100E1,1.169719696E-1,1.933824830E-2,-1.410575062E-1
1.585285100E1,2.250776589E-1,2.867575921E-2,-8.220500499E-2
1.587285100E1,1.233075112E-1,-1.932952106E-1,4.468042776E-2
1.589285100E1,-1.661902517E-1,-4.738568962E-1,1.721069217E-1
1.591484944E1,-2.571917176E-1,-6.041806340E-1,2.380280048E-1
1.593485100E1,-1.163087413E-1,-6.185272336E-1,3.072652221E-1
1.595685100E1,2.473131567E-2,-5.250822902E-1,3.009994924E-1
1.597685100E1,3.944443911E-2,-4.000120163E-1,2.489537597E-1
1.599885100E1,-5.740387738E-2,-3.429571986E-1,2.251998335E-1
1.601885256E1,-1.328370124E-1,-4.824788272E-1,1.989151686E-1
1.604085100E1,-1.327672005E-1,-6.695955396E-1,9.409070015E-2
1.606086975E1,-7.852236181E-2,-7.079229951E-1,-6.983062625E-2
1.608284944E1,-5.782275647E-2,-5.459738970E-1,-1.581966430E-1
1.610284944E1,-2.137679309E-1,-5.231449604E-1,-1.707455665E-1
1.612284944E1,-4.981344342E-1,-6.188762784E-1,-2.345897108E-1
1.614284944E1,-4.591437578E-1,-4.648160934E-1,-2.639286816E-1
1.616284944E1,1.243721619E-1,9.058258682E-2,-2.021265775E-1
1.618285100E1,6.922848225E-1,4.822519124E-1,-1.518436475E-3
1.620285725E1,7.900232673E-1,5.960124731E-1,2.247984111E-1
1.622484944E1,4.715530574E-1,4.392644763E-1,1.973443776E-1
1.624488538E1,1.258382350E-1,8.733627200E-2,-1.316676438E-1
1.626684944E1,-8.735372871E-2,-1.710597128E-1,-5.550495982E-1
1.628684944E1,-1.881464869E-1,-1.660855263E-1,-6.779382229E-1
1.630684944E1,-1.810081005E-1,-8.169886470E-2,-5.035100579E-1
1.632685100E1,-7.496189326E-2,9.215338156E-3,-1.718451232E-1
1.634685100E1,9.203121066E-2,-3.145083413E-2,1.152440906E-1
1.636885413E1,5.146801472E-1,-4.349360466E-1,3.981270492E-1
1.638885412E1,9.171007276E-1,-7.070852518E-1,6.204121709E-1
1.640885412E1,8.931722641E-1,-6.508856416E-1,7.897614837E-1
1.642886350E1,5.187467337E-1,-3.023259342E-1,9.465967417E-1
1.645085100E1,-6.475171447E-2,1.697681695E-1,1.035992503E0
1.647284944E1,-5.681570172E-1,3.036349416E-1,9.712582827E-1
1.649284944E1,-7.620805502E-1,8.484045416E-2,8.123111129E-1
1.651284944E1,-6.676233411E-1,-1.549328715E-1,6.217735410E-1
1.653285100E1,-5.931152105E-1,-3.162536621E-1,5.790478587E-1
1.655285100E1,-5.738468170E-1,-1.767669469E-1,6.595599055E-1
1.657285100E1,-5.532868505E-1,4.211479425E-2,7.126877308E-1
1.659285100E1,-4.733332992E-1,2.689552307E-1,7.586247921E-1
1.661484944E1,-3.932052255E-1,4.456872642E-1,7.592706084E-1
1.663485100E1,-2.328792810E-1,2.662499845E-1,7.224092484E-1
1.665485100E1,1.173210293E-1,-3.731513917E-1,6.725277305E-1
1.667684944E1,7.223219872E-1,-6.747617126E-1,6.544286609E-1
1.669684944E1,1.060741305E0,-2.428974658E-1,7.305075526E-1
1.671684944E1,8.648106456E-1,2.744704783E-1,7.842811346E-1
1.673685100E1,4.856378734E-1,3.614751399E-1,7.488335371E-1
1.675685100E1,4.195247889E-1,4.004134238E-1,6.195220947E-1
1.677685100E1,5.501801372E-1,5.747368932E-1,4.982216954E-1
1.679885725E1,3.051708043E-1,5.144532323E-1,4.552342296E-1
1.682084944E1,-2.893930376E-1,1.064476296E-1,3.778637946E-1
1.684084944E1,-7.174175978E-1,-3.633077443E-1,7.623597980E-2
1.686086819E1,-8.044222593E-1,-5.624846816E-1,-1.550026834E-1
1.688284944E1,-7.947182059E-1,-1.998402029E-1,-1.016305238E-1
1.690284944E1,-7.755021453E-1,9.238027781E-2,8.353145421E-2
1.692284944E1,-4.672769904E-1,1.258033365E-1,3.345097899E-1
1.694284944E1,3.543018363E-3,4.105014354E-2,5.566378832E-1
1.696284944E1,2.315004766E-1,-2.054252476E-2,6.395933628E-1
1.698284944E1,1.715658605E-1,-5.000368133E-2,6.243740916E-1
1.700284944E1,8.468337357E-2,2.513274178E-2,5.198288560E-1
1.702284944E1,-3.054326214E-2,1.452113986E-1,3.568674624E-1
1.704285256E1,-1.678832173E-1,2.226516455E-1,2.091951668E-1
1.706485100E1,-1.939933449E-1,1.346172392E-1,1.177922711E-1
1.708485100E1,-9.040805697E-2,-5.886995420E-2,1.153837144E-1
1.710685100E1,-8.808676898E-2,-2.206794322E-1,1.594009250E-1
1.712685100E1,-2.168222517E-1,-1.665044129E-1,1.383347958E-1
1.714685100E1,-2.796890140E-1,-6.094689667E-2,1.344252527E-1
1.716685100E1,-2.351307571E-1,-1.546012610E-1,1.666440368E-1
1.718685100E1,-2.137155682E-1,-3.233920634E-1,1.852143407E-1
1.720685100E1,-3.546858132E-1,-4.081801474E-1,1.820029318E-1
1.722685100E1,-4.433485270E-1,-2.689377964E-1,2.004685104E-1
1.724685100E1,-4.455476403E-1,-8.358381689E-2,2.454631031E-1
1.726685100E1,-7.413809299E-1,-3.423987031E-1,7.412413508E-2
1.728885100E1,-9.498954415E-1,-4.816585183E-1,-3.584906161E-1
1.730885256E1,-4.604527652E-1,-8.421213925E-2,-5.713160634E-1
1.733084944E1,3.466922045E-1,2.488839477E-1,-2.808234692E-1
1.735084944E1,6.678327918E-1,1.994911283E-1,1.089085415E-1
1.737084944E1,6.324723959E-1,7.065092772E-2,9.492845833E-2
1.739084944E1,5.244190693E-1,-1.333431527E-2,-3.460813463E-1
1.741084944E1,4.686208963E-1,5.237733200E-2,-7.811744809E-1
1.743084944E1,4.357912540E-1,2.167698890E-1,-9.137670994E-1
1.745085100E1,3.850196302E-1,4.510454237E-1,-8.566250205E-1
1.747284944E1,2.905449569E-1,5.180661082E-1,-7.611555457E-1
1.749284944E1,2.401922047E-1,3.773401976E-1,-7.561988235E-1
1.751284944E1,1.201135591E-1,2.851693332E-1,-7.762002945E-1
1.753284944E1,-1.254193634E-1,3.216467202E-1,-8.148418665E-1
1.755284944E1,-3.293087184E-1,1.936791837E-1,-7.855727077E-1
1.757284944E1,-3.441963792E-1,-1.070759520E-1,-6.984807849E-1
1.759285100E1,-3.608468175E-1,-2.333505154E-1,-5.966931581E-1
1.761485100E1,-4.518133700E-1,-1.402022988E-1,-4.472755194E-1
1.763685100E1,-4.032757878E-1,-7.197737694E-2,-2.146405876E-1
1.765685100E1,-2.782578468E-1,-6.937684119E-2,1.806415804E-2
1.767685100E1,-1.383697093E-1,-1.249481216E-1,2.705434859E-1
1.769685100E1,-4.291764647E-2,-1.582315564E-1,4.783947468E-1
1.771685100E1,8.822639287E-2,-2.150071114E-1,5.763949752E-1
1.773685100E1,1.885130107E-1,-4.046196938E-1,5.192528963E-1
1.775685256E1,1.854063272E-1,-3.630633950E-1,3.497465253E-1
1.777885100E1,-1.152964532E-1,-4.904898703E-1,7.696902007E-2
1.779885100E1,-1.883559376E-1,-6.367658973E-1,-1.003564298E-1
1.781885569E1,3.069510460E-1,-3.261845708E-1,-8.822639287E-2
1.784084944E1,9.729163051E-1,1.587551534E-1,1.195201501E-1
1.786086819E1,9.170308709E-1,1.216494478E-2,3.783524632E-1
1.788284944E1,3.159569502E-1,-4.752008021E-1,5.922251344E-1
1.790285100E1,2.652900526E-3,-5.689598918E-1,5.083795190E-1
1.792285100E1,9.679596126E-2,-2.519382834E-1,3.218387067E-1
1.794484944E1,3.719296753E-1,2.542944849E-1,3.299195766E-1
1.796484944E1,4.790230691E-1,4.682194889E-1,4.987278283E-1
1.798485100E1,4.463505149E-1,4.634372890E-1,6.375687718E-1
1.800485100E1,4.665090442E-1,3.600963354E-1,7.071725130E-1
1.802485100E1,5.832540989E-1,2.528982162E-1,6.460859776E-1
1.804485100E1,6.413910389E-1,1.465378404E-1,4.830896854E-1
1.806485256E1,6.042504311E-1,6.237806752E-2,3.138625622E-1
1.808685100E1,4.684114754E-1,-2.101376466E-2,2.162288427E-1
1.810685100E1,3.767118752E-1,1.349663138E-1,1.765924096E-1
1.812685100E1,3.350857496E-1,5.256757140E-1,1.710771769E-1
1.814685100E1,2.493726462E-1,7.931474447E-1,8.775515109E-2
1.816685100E1,8.827875555E-2,8.757014871E-1,-6.956882030E-2
1.818685100E1,-4.413937777E-2,8.956680894E-1,-2.512750626E-1
1.820685100E1,3.658210114E-2,9.002757072E-1,-4.042007923E-1
1.822886350E1,3.326248527E-1,8.992459774E-1,-5.729916096E-1
1.825085100E1,5.221501589E-1,7.950323820E-1,-6.238504648E-1
1.827284944E1,9.075537324E-1,4.128750861E-1,-5.508084297E-1
1.829284944E1,1.531508923E0,1.727352291E-1,-4.216191769E-1
1.831284944E1,1.878183722E0,-2.895501256E-2,-2.018124163E-1
1.833285100E1,1.592002034E0,-4.058239460E-1,-1.479166597E-1
1.835484944E1,7.700741887E-1,-9.797056913E-1,-2.750813365E-1
1.837484944E1,2.441541106E-1,-1.047703743E0,-5.559571981E-1
1.839484944E1,3.401995897E-1,-2.689726949E-1,-5.859768391E-1
1.841485100E1,5.606870055E-1,3.087312877E-1,-1.579697430E-1
1.843684944E1,2.641730309E-1,4.402767420E-1,3.889466226E-1
1.845684944E1,-1.580046564E-1,3.233571351E-1,7.712086439E-1
1.847684944E1,-3.542320132E-1,1.629439443E-1,8.263435960E-1
1.849684944E1,-2.896373868E-1,1.666789502E-1,8.857196569E-1
1.851684944E1,2.295806110E-1,2.865132391E-1,1.021296859E0
1.853685100E1,6.109699607E-1,1.910088360E-1,1.036271811E0
1.855685100E1,3.094119728E-1,-1.269901544E-1,8.738863468E-1
1.857885100E1,-9.388125688E-2,-1.755103022E-1,6.386857629E-1
1.860085100E1,-2.101027369E-1,-2.876302600E-1,4.807334840E-1
1.862284944E1,-4.615697861E-1,-6.052452922E-1,3.288723826E-1
1.864284944E1,-5.408775210E-1,-4.319166243E-1,1.753008664E-1
1.866284944E1,-2.633178234E-1,3.304431736E-1,1.169719696E-1
1.868284944E1,-9.913469665E-3,9.213942289E-1,2.184628546E-1
1.870285100E1,-4.644321278E-2,9.535257220E-1,3.571816385E-1
1.872485100E1,-2.450791299E-1,5.891184211E-1,3.389254808E-1
1.874685100E1,-4.329114556E-1,9.119345248E-2,1.745329201E-1
1.876885412E1,-3.889815211E-1,-8.873254061E-2,1.223650351E-1
1.878885412E1,-3.443360031E-1,-6.857398897E-2,1.889493465E-1
1.881085100E1,-3.455228209E-1,6.597344764E-3,2.868448496E-1
1.883285100E1,-2.586054206E-1,9.082693607E-2,3.319790661E-1
1.885484944E1,-1.159596741E-1,3.824016452E-2,2.195973247E-1
1.887484944E1,-1.029744223E-1,-1.019970402E-1,9.056513757E-2
1.889485100E1,-1.558579057E-1,-1.130275205E-1,1.539380383E-2
1.891684944E1,-1.713040620E-1,6.478662044E-2,2.453932911E-2
1.893684944E1,-5.632177368E-2,1.188743785E-1,1.087689176E-1
1.895684944E1,3.096563220E-1,-6.073745899E-3,1.948660165E-1
1.897684944E1,5.836032033E-1,-1.382126212E-1,1.293463558E-1
1.899684944E1,5.945813060E-1,-6.316346675E-2,5.612978712E-2
1.901684944E1,4.981867671E-1,-4.221951589E-2,-4.876450077E-2
1.903684944E1,1.866106093E-1,-1.499586850E-1,-2.124763876E-1
1.905684944E1,-2.517113984E-1,-2.382025421E-1,-3.000395596E-1
1.907684944E1,-5.458866358E-1,-1.857903004E-1,-3.205122650E-1
1.909684944E1,-6.500478983E-1,-6.494370103E-2,-2.713114321E-1
1.911684944E1,-5.684013963E-1,1.405164599E-1,-1.827359647E-1
1.913685100E1,-5.502324700E-1,2.679080367E-1,-1.282293350E-1
1.915884944E1,-6.629633307E-1,3.058340549E-1,-7.960446924E-2
1.917885100E1,-7.596545815E-1,2.484999746E-1,-6.551966071E-2
1.920084944E1,-7.613649964E-1,6.188937649E-2,-2.823942713E-2
1.922085256E1,-6.611132622E-1,-1.668360233E-1,-8.185594343E-3
1.924284944E1,-4.686208963E-1,-2.443635464E-1,4.188790172E-2
1.926284944E1,-2.892359495E-1,-1.810081005E-1,8.684758097E-2
1.928284944E1,-1.426108479E-1,-2.237512171E-2,1.500110477E-1
1.930284944E1,-5.853834376E-2,8.429940045E-2,1.797689050E-1
1.932284944E1,-1.427853853E-1,-1.185078546E-2,1.608320922E-1
1.934284944E1,-1.911310107E-1,-6.883578748E-2,1.854237765E-1
1.936285569E1,1.480737329E-1,-3.544763848E-2,3.188018501E-1
1.938484944E1,8.380198479E-1,9.684831649E-2,7.086909413E-1
1.940484944E1,9.364215136E-1,-2.120749503E-1,1.051246762E0
1.942484944E1,3.665016890E-1,-5.411567688E-1,8.975530267E-1
1.944484944E1,3.255039081E-2,-3.824190795E-1,4.179016352E-1
1.946484944E1,3.918962181E-1,-8.939576149E-2,6.319837272E-2
1.948485100E1,7.176793814E-1,-9.930923581E-3,3.001966281E-3
1.950485100E1,6.200980544E-1,-1.855808645E-1,1.538333148E-1
1.952485100E1,2.526713014E-1,-1.433962435E-1,3.010692894E-1
1.954485100E1,-3.338814899E-2,2.313783020E-1,4.385314286E-1
1.956485100E1,-4.951499030E-2,7.245036364E-1,5.448917747E-1
1.958485100E1,1.337794811E-1,9.716771245E-1,6.614449024E-1
1.960485413E1,3.395887017E-1,9.914342761E-1,8.275653124E-1
1.962685100E1,3.293610811E-1,3.345272541E-1,8.573580980E-1
1.964685100E1,1.742885858E-1,1.854586899E-1,6.871710420E-1
1.966685256E1,-1.220334172E-1,2.945766747E-1,5.129522681E-1
1.968685256E1,-2.355670929E-1,5.021137595E-1,4.400673211E-1
1.970885413E1,-1.110902056E-1,6.282486916E-1,4.807683825E-1
1.973085100E1,-4.281292483E-2,8.552113548E-3,5.544387698E-1
1.975085569E1,2.944544852E-1,-2.021091282E-1,5.739340782E-1
1.977285100E1,5.839173794E-1,-8.581783623E-2,4.981518686E-1
1.979285100E1,4.181110859E-1,-5.958554149E-2,3.761009872E-1
1.981285100E1,1.110552996E-1,-1.008800324E-2,2.094220519E-1
1.983285256E1,9.948377265E-4,4.403465614E-2,7.168067247E-2
1.985485100E1,1.426283121E-1,1.272868663E-1,6.901031733E-2
1.987485881E1,2.622531652E-1,1.682497412E-1,2.372426093E-1
1.989685100E1,1.972571164E-1,-3.178244457E-2,4.415508509E-1
1.991885100E1,-1.567480266E-1,-5.029864311E-1,2.246413231E-1
1.993885100E1,-4.055272639E-1,-5.823640227E-1,-2.115339041E-2
1.995885100E1,-1.870469302E-1,-1.202880889E-1,-1.101826355E-1
1.997885100E1,1.409876943E-1,5.885250121E-2,-4.529129341E-2
1.999885412E1,9.585348517E-2,-1.051909924E-1,-6.604325771E-2
2.001885412E1,-2.021614909E-1,-1.202357337E-1,-2.697930038E-1
2.004085413E1,-2.601762414E-1,1.181587856E-2,-4.219158888E-1
2.006087131E1,-2.471386269E-2,1.195375994E-1,-3.986332119E-1
2.008285256E1,1.750216186E-1,1.986533701E-1,-2.895152271E-1
2.010484944E1,1.350710243E-1,1.763306111E-1,-1.892111450E-1
2.012485100E1,3.014183603E-2,6.724753231E-2,-1.475850344E-1
2.014485100E1,4.763003439E-2,0.000000000E0,-1.674992442E-1
2.016485412E1,1.516516656E-1,1.356120780E-2,-1.378810108E-1
2.018685100E1,2.058790326E-1,3.508111695E-3,-7.983136177E-2
2.020685725E1,4.002039880E-2,-6.003932562E-3,-3.413863853E-2
2.022885100E1,-1.677785069E-1,2.750638872E-2,-7.173303049E-3
2.024885100E1,-2.004336119E-1,9.225810319E-2,5.480333697E-3
2.026885256E1,-1.018574163E-1,1.802227050E-1,9.002408385E-2
2.028887444E1,-7.993607782E-3,2.597399056E-1,2.436828762E-1
2.031085100E1,7.276277989E-2,2.974215448E-1,3.781255782E-1
2.033285100E1,5.508258939E-2,2.641381323E-1,4.100127518E-1
2.035484944E1,3.106686054E-3,2.515543103E-1,3.495894372E-1
2.037484944E1,5.235987715E-3,2.703340352E-1,1.987755448E-1
2.039484944E1,-1.665044017E-2,2.216568142E-1,4.565781355E-2
2.041484944E1,2.984513063E-3,2.085842937E-1,3.897320107E-2
2.043485100E1,9.667378664E-2,1.685988009E-1,2.441890091E-1
2.045684944E1,6.246533245E-2,9.180432186E-3,4.382696152E-1
2.047684944E1,5.932373926E-2,-6.091198884E-3,5.519603491E-1
2.049684944E1,3.673219979E-1,9.585348517E-2,6.690545082E-1
2.051684944E1,6.976604462E-1,1.613731384E-1,7.290414572E-1
2.053685100E1,4.795641303E-1,1.998401992E-2,6.773273945E-1
2.055885100E1,-2.834589183E-1,-2.191260904E-1,4.820424914E-1
2.057885100E1,-7.109598517E-1,-1.229933500E-1,2.795493901E-1
2.060084944E1,-6.614797711E-1,2.323556840E-1,2.320415229E-1
2.062084944E1,-3.754726946E-1,4.606796503E-1,4.318817258E-1
2.064084944E1,-1.223475784E-1,5.274035931E-1,6.966132522E-1
2.066086975E1,2.729694918E-2,5.271068811E-1,8.702386022E-1
2.068284944E1,1.372177899E-1,4.674340785E-1,9.363342524E-1
2.070284944E1,1.669756472E-1,3.531673849E-1,9.151633978E-1
2.072284944E1,6.389650702E-2,1.405164599E-1,8.007047176E-1
2.074284944E1,-1.255764365E-1,-7.298967242E-2,5.990493298E-1
2.076285725E1,-2.868448496E-1,-1.046499386E-1,3.613180518E-1
2.078484944E1,-4.136430323E-1,-5.574581772E-2,1.848827302E-1
2.080484944E1,-3.648610711E-1,-1.005309671E-1,1.871865690E-1
2.082484944E1,-2.104692608E-1,-1.806939393E-1,2.661277950E-1
2.084484944E1,-1.406735331E-1,-2.769837379E-1,3.441789150E-1
2.086484944E1,1.064650831E-3,-3.023259342E-1,3.624176085E-1
2.088484944E1,1.307426095E-1,-2.356194556E-1,3.497814238E-1
2.090484944E1,9.896016866E-2,-2.590068579E-1,4.059112370E-1
2.092484944E1,-3.665191471E-4,-2.463532239E-1,4.927937090E-1
2.094484944E1,-1.276708394E-1,-1.464680284E-1,5.696056485E-1
2.096484944E1,-1.910611987E-1,7.084291428E-2,6.705031395E-1
2.098485100E1,-3.209311366E-1,-7.433357090E-2,5.704783201E-1
2.100684944E1,-5.519080162E-1,-3.339687586E-1,3.041759729E-1
2.102684944E1,-4.367162883E-1,-2.263168395E-1,2.733534575E-1
2.104685100E1,1.295906901E-1,9.358455241E-2,5.209109783E-1
2.106886194E1,5.884203315E-1,3.770609200E-1,9.429839253E-1
2.109085100E1,2.908591330E-1,4.253192842E-1,1.048401833E0
2.111085100E1,-2.238384783E-1,5.282937288E-1,7.452730536E-1
2.113085100E1,-4.148298502E-1,6.213721037E-1,3.943746090E-1
2.115085100E1,-2.247460485E-1,5.514891148E-1,2.636145353E-1
2.117085100E1,1.823868975E-2,4.239579141E-1,2.917492390E-1
2.119085100E1,6.651449949E-2,3.345447183E-1,3.906745017E-1
2.121085100E1,9.468410909E-2,2.970550358E-1,5.730614066E-1
2.123085100E1,2.404191047E-1,2.470688075E-1,7.552737594E-1
2.125085100E1,3.997851312E-1,2.582040131E-1,8.735373020E-1
2.127085100E1,4.047942162E-1,2.447475195E-1,8.925264478E-1
2.129284944E1,3.167947233E-1,2.121622264E-1,8.621577621E-1
2.131284944E1,1.825265288E-1,1.639387757E-1,8.727693558E-1
2.133285100E1,4.909611121E-2,1.002691686E-1,8.410217762E-1
2.135285100E1,-8.848818950E-3,4.026474431E-2,7.729190588E-1
2.137285100E1,5.660102889E-2,8.079128712E-2,7.329335809E-1
2.139484944E1,1.029918790E-1,2.791479528E-1,7.148345113E-1
2.141485100E1,9.522516280E-2,4.389677644E-1,6.966656446E-1
2.143485100E1,8.520697057E-2,4.577474892E-1,6.205866933E-1
2.145485100E1,4.040437192E-2,4.430692792E-1,4.071853161E-1
2.147485100E1,-7.470009383E-3,4.475024045E-1,2.199463844E-1
2.149485100E1,5.391322076E-2,5.292012691E-1,3.698527217E-1
2.151485100E1,2.590243220E-1,5.881236196E-1,7.379252315E-1
2.153485100E1,2.513972223E-1,4.302411079E-1,9.734399319E-1
2.155485100E1,2.143264264E-1,3.218910694E-1,9.853256345E-1
2.157485256E1,3.663969636E-1,3.119950593E-1,8.047189713E-1
2.159685100E1,3.622081876E-1,2.913652658E-1,5.735501051E-1
2.161685100E1,-1.246165112E-2,1.222952232E-1,4.031012356E-1
2.163685100E1,-4.624424279E-1,-6.908012927E-2,3.100228310E-1
2.165685100E1,-5.584530234E-1,-4.181808978E-2,3.926990926E-1
2.167685100E1,-2.598795295E-1,7.201228291E-2,6.976081133E-1
2.169685100E1,1.606226563E-1,2.468768209E-1,1.051246762E0
2.171885100E1,4.190186560E-1,3.561169803E-1,1.203858256E0
2.173886194E1,4.340459406E-1,4.056494236E-1,1.147431850E0
2.176086975E1,4.432787299E-1,4.023158550E-1,9.632995725E-1
2.178284944E1,4.146204293E-1,2.090904415E-1,7.508580685E-1
2.180284944E1,3.945665956E-1,-2.221804112E-2,6.081599593E-1
2.182285100E1,3.074746430E-1,-1.922131032E-1,4.618141055E-1
2.184285100E1,1.340761930E-1,-2.467720956E-1,2.807013094E-1
2.186285100E1,5.253441166E-3,-1.923701912E-1,1.382126212E-1
2.188285100E1,-9.044296294E-2,-4.543092102E-2,9.080947936E-2
2.190285100E1,-1.473057866E-1,3.621558100E-2,4.173082113E-2
2.192285100E1,-1.508837193E-1,5.450663343E-2,-3.874630900E-3
2.194485100E1,-1.818807572E-1,-5.326744914E-2,-4.134684801E-2
2.196485100E1,-2.658834457E-1,-1.516865641E-1,-7.667231560E-2
2.198485100E1,-2.997253835E-1,-5.019566789E-2,-2.399827726E-2
2.200485100E1,-2.546260953E-1,9.100146592E-2,1.454906464E-1
2.202485100E1,-2.169444263E-1,1.700823307E-1,3.301115632E-1
2.204485100E1,-4.654444158E-1,-1.855983138E-1,2.724982500E-1
2.206485100E1,-8.680046201E-1,-5.629385114E-1,-4.895648360E-2
2.208485100E1,-8.653691411E-1,-6.284406781E-1,-1.861742735E-1
2.210485100E1,-2.086017579E-1,-4.912752807E-1,-1.090830751E-2
2.212485100E1,3.001966178E-1,-1.204277202E-1,2.947511971E-1
2.214684944E1,4.312708601E-2,2.420248091E-1,3.516663909E-1
2.216684944E1,-2.060535699E-1,5.151513815E-1,1.115614474E-1
2.218684944E1,-8.330456167E-2,5.983861089E-1,-1.386140436E-1
2.220684944E1,2.415710241E-1,5.679824948E-1,-3.093596101E-1
2.222684944E1,4.671199322E-1,3.868173063E-1,-4.622330070E-1
2.224684944E1,6.061702967E-1,1.281071603E-1,-5.561665893E-1
2.226684944E1,7.652221322E-1,4.764748737E-3,-4.343251884E-1
2.228684944E1,7.414333224E-1,1.716356725E-1,-1.783202887E-1
2.230684944E1,3.628190458E-1,3.027622700E-1,9.473647177E-2
2.232685100E1,-5.949827284E-2,1.619141996E-1,1.583711803E-1
2.234886350E1,-1.217541695E-1,8.621926606E-2,1.143365204E-1
2.237084944E1,2.183057815E-1,2.238210291E-1,7.159340382E-2
2.239084944E1,4.047418535E-1,3.802723289E-1,3.541272879E-2
2.241084944E1,2.991843522E-1,4.504345655E-1,5.037020147E-2
2.243084944E1,1.245292425E-1,5.328140855E-1,9.697049111E-2
2.245085100E1,1.394518092E-2,6.300289631E-1,1.215970889E-1
2.247284944E1,-5.438445881E-2,7.067885399E-1,1.577428579E-1
2.249284944E1,-1.884955540E-2,6.762802005E-1,2.269626111E-1
2.251284944E1,1.101302728E-1,5.674239993E-1,3.232698739E-1
2.253284944E1,1.611986160E-1,4.920781255E-1,4.089131951E-1
2.255285100E1,6.867870688E-2,4.824788272E-1,5.029340982E-1
2.257285100E1,-5.483824387E-2,4.928984344E-1,5.648059845E-1
2.259484944E1,-2.197544128E-1,2.781182230E-1,5.429195762E-1
2.261485100E1,-5.642649531E-2,1.631359309E-1,5.050284863E-1
2.263485100E1,2.512924969E-1,2.701420486E-1,5.004906058E-1
2.265684944E1,7.098253816E-2,2.794097662E-1,5.246285200E-1
2.267685100E1,-5.856975913E-1,1.207244247E-1,5.126206279E-1
2.269884944E1,-9.988868237E-1,2.603856623E-1,4.380427301E-1
2.271885569E1,-8.359603286E-1,5.103167892E-1,3.495370746E-1
2.274084944E1,-3.953519762E-1,6.811496615E-1,3.587873280E-1
2.276086819E1,-2.125112861E-1,6.478313208E-1,3.425906897E-1
2.278284944E1,-1.747423708E-1,6.376734972E-1,3.432713449E-1
2.280284944E1,1.785471849E-2,5.252044797E-1,3.800454438E-1
2.282284944E1,2.548006177E-1,2.212728411E-1,4.142364562E-1
2.284284944E1,2.756223977E-1,-1.316850930E-1,4.380950928E-1
2.286284944E1,1.191710830E-1,-2.968281507E-1,3.713362515E-1
2.288284944E1,1.398008689E-2,-3.373197913E-1,1.933650225E-1
2.290284944E1,-6.457717973E-4,-4.034677744E-1,6.464699656E-2
2.292284944E1,-1.125562862E-1,-4.677482247E-1,2.848377265E-2
2.294284944E1,-1.107585952E-1,-3.619638383E-1,4.759512842E-2
2.296284944E1,4.029965401E-2,-1.708677262E-1,4.883431271E-2
2.298284944E1,1.226268336E-1,-8.384561539E-2,2.319542505E-2
2.300285413E1,2.508038096E-2,-2.026501745E-1,-1.809906401E-2
2.302484944E1,-4.649557173E-2,-2.093347907E-1,-7.518878579E-2
2.304485100E1,-2.516764775E-2,-1.356818974E-1,-5.714207888E-2
2.306485100E1,-1.345648803E-2,-1.251401007E-1,5.993460491E-2
2.308485100E1,-5.672320258E-3,-1.494700015E-1,2.303311080E-1
2.310485100E1,4.858996719E-2,-7.576474547E-2,3.074222803E-1
2.312485100E1,-2.054252476E-2,-1.284736842E-1,1.225395650E-1
2.314684944E1,-1.985661089E-1,-1.827708781E-1,-2.005383372E-2
2.316684944E1,-7.513642311E-2,-1.134987622E-1,-1.740093343E-2
2.318685100E1,4.262617528E-1,-7.133160532E-2,1.049117446E-1
2.320885100E1,7.288320661E-1,-1.210560352E-1,1.356295347E-1
2.323084944E1,3.460813463E-1,-1.746027321E-1,-1.589471400E-1
2.325084944E1,-6.794566661E-2,-7.347836159E-3,-5.127079487E-1
2.327084944E1,-1.664171368E-1,2.411696017E-1,-6.535385251E-1
2.329084944E1,-7.194247097E-2,4.011290073E-1,-5.888391733E-1
2.331085100E1,2.640683204E-2,4.124212861E-1,-4.608018398E-1
2.333285100E1,2.584832534E-2,2.127381861E-1,-3.974987268E-1
2.335484944E1,1.785471849E-2,-1.069363207E-1,-3.619114757E-1
2.337484944E1,5.134758726E-2,-1.519483626E-1,-3.172135949E-1
2.339484944E1,-7.051130291E-3,-8.916886896E-2,-2.683792710E-1
2.341484944E1,-6.239552051E-2,-3.387684003E-2,-2.240479141E-1
2.343485100E1,-8.826129884E-2,-3.817034885E-2,-1.991595179E-1
2.345684944E1,-1.778141409E-1,-8.915141970E-2,-1.852143407E-1
2.347684944E1,-3.228335381E-1,-1.228362694E-1,-1.500983089E-1
2.349684944E1,-4.111472070E-1,-5.738642439E-2,-1.125388294E-1
2.351684944E1,-4.361577928E-1,1.361356815E-3,-1.033234894E-1
2.353685100E1,-3.869918585E-1,-4.878195375E-2,-1.604481190E-1
2.355685100E1,-5.060232878E-1,-2.934422195E-1,-3.388905823E-1
2.357685100E1,-4.946612120E-1,-7.110645771E-1,-5.242794752E-1
2.359685100E1,-8.389797807E-2,-8.025547266E-1,-6.230651140E-1
2.361685100E1,2.754129469E-1,-3.129549921E-1,-4.742583036E-1
2.363685100E1,1.842020452E-1,1.426806599E-1,2.117084339E-2
2.365685100E1,-1.317549050E-1,3.018895984E-1,4.110774100E-1
2.367685100E1,-9.932668507E-2,3.493974507E-1,5.944765806E-1
2.369886038E1,3.844262064E-1,3.438124061E-1,5.632177591E-1
2.372084944E1,3.936939240E-1,4.986405745E-2,3.531150222E-1
2.374084944E1,-2.047794759E-1,-2.810329199E-1,1.497666985E-1
2.376086819E1,-7.252366543E-1,-1.075297371E-1,3.673918173E-2
2.378284944E1,-7.921875119E-1,3.969227672E-1,8.346164227E-2
2.380284944E1,-6.358408928E-1,8.042651415E-1,3.440392911E-1
2.382284944E1,-6.137450337E-1,9.581683278E-1,6.364343166E-1
2.384284944E1,-6.732782125E-1,8.914269209E-1,8.035146594E-1
2.386284944E1,-5.146452188E-1,6.549871564E-1,8.075638413E-1
2.388284944E1,-5.061454698E-2,2.626720369E-1,6.943443418E-1
2.390285100E1,4.054050744E-1,-8.618436009E-2,5.157448053E-1
2.392484944E1,5.611233711E-1,-2.227738202E-1,2.385865152E-1
2.394484944E1,4.199436605E-1,-8.960520476E-2,6.928957067E-3
2.396484944E1,2.631433010E-1,4.183554277E-2,-1.204277202E-1
2.398484944E1,2.855009437E-1,1.052433532E-2,-1.821076572E-1
2.400485100E1,4.749564528E-1,-2.139075547E-1,-1.284213215E-1
2.402485100E1,6.463826895E-1,-4.002737999E-1,-8.571311831E-2
2.404485100E1,4.403989315E-1,-5.612106323E-1,-8.056439459E-2
2.406485256E1,9.093165398E-3,-6.633647680E-1,-1.196423173E-1
2.408685100E1,-2.217615396E-1,-6.633821726E-1,-1.439373046E-1
2.410685100E1,-1.438151300E-1,-5.527457595E-1,-1.112996489E-1
2.412685100E1,-6.328564137E-2,-3.795043826E-1,2.343977243E-2
2.414685100E1,-3.058689535E-1,-5.142612457E-1,4.995132238E-2
2.416884944E1,-4.761607349E-1,-6.074444056E-1,1.783552021E-1
2.418885881E1,-8.442157507E-2,-5.134409666E-1,3.496069014E-1
2.420886038E1,4.846081138E-1,-2.778389752E-1,4.366988242E-1
2.423084944E1,4.261570275E-1,-2.150420099E-1,2.714161575E-1
2.425085100E1,1.818633080E-2,-1.437627673E-1,-7.464773208E-2
2.427284944E1,-1.329766363E-1,-1.233249679E-1,-3.411420584E-1
2.429284944E1,-3.097959422E-2,-9.936159104E-2,-2.956762314E-1
2.431284944E1,-5.707226694E-3,-1.396612525E-1,-2.121622264E-1
2.433285100E1,-2.090206295E-1,-2.021091282E-1,-2.806663811E-1
2.435484944E1,-5.821196437E-1,-1.947787404E-1,-4.027696252E-1
2.437484944E1,-7.955908775E-1,-7.171557844E-2,-4.829325974E-1
2.439484944E1,-7.934266925E-1,-7.197737694E-2,-5.632526278E-1
2.441484944E1,-7.614173293E-1,-1.507964432E-1,-6.300114989E-1
2.443484944E1,-7.789404392E-1,-3.160791397E-1,-6.374640465E-1
2.445484944E1,-7.299665213E-1,-4.007101357E-1,-5.481904745E-1
2.447484944E1,-5.950874686E-1,-2.692868412E-1,-3.841120601E-1
2.449484944E1,-5.058836937E-1,-1.265363675E-2,-1.734333634E-1
2.451485100E1,-4.215319157E-1,1.437104046E-1,-4.846779257E-2
2.453685100E1,-8.374089748E-2,7.101744413E-2,-2.895501256E-2
2.455884944E1,4.239928424E-1,-4.660028964E-3,-5.724680051E-2
2.457885100E1,6.577796936E-1,6.091199070E-2,-3.454006463E-2
2.460085100E1,4.831420481E-1,9.906488657E-2,-2.848377265E-2
2.462284944E1,3.295705318E-1,2.092475295E-1,-5.918411538E-2
2.464284944E1,4.697204530E-1,3.408628106E-1,8.953539282E-2
2.466284944E1,5.714033246E-1,1.935046464E-1,3.700098097E-1
2.468284944E1,6.586349010E-1,1.840100586E-1,5.944765806E-1
2.470284944E1,1.042572379E0,5.307022929E-1,6.881658435E-1
2.472285100E1,1.219985127E0,5.639159083E-1,6.821270585E-1
2.474285100E1,7.153057456E-1,-2.110103145E-2,6.104114652E-1
2.476285100E1,1.982693933E-2,-4.264537394E-1,4.143586159E-1
2.478285100E1,-2.850122750E-1,-2.837905288E-1,1.865233332E-1
2.480285100E1,-1.919513047E-1,2.661976218E-1,1.125039235E-1
2.482285100E1,1.055749655E-1,7.044323087E-1,1.520879865E-1
2.484285100E1,4.781678617E-1,7.591832876E-1,5.824163556E-2
2.486285100E1,8.289615512E-1,9.234362245E-1,2.415535599E-2
2.488285100E1,7.739662528E-1,8.661720157E-1,2.829178572E-1
2.490285100E1,4.309741557E-1,5.793794990E-1,6.056467295E-1
2.492285100E1,-4.513421282E-2,4.355469048E-1,7.156199217E-1
2.494285100E1,-4.062777460E-1,4.694237411E-1,5.342801809E-1
2.496285100E1,-4.179714620E-1,4.172733128E-1,1.634849906E-1
2.498285100E1,-3.514045775E-1,3.468143642E-1,-1.515469402E-1
2.500285100E1,-3.727674186E-1,2.593733668E-1,-2.539454103E-1
2.502285100E1,-4.774697125E-1,2.307325304E-1,-3.816511333E-1
2.504285256E1,-6.620731950E-1,4.736474454E-1,-5.944940448E-1
2.506485100E1,-8.737641573E-1,8.419991732E-1,-5.375090241E-1
2.508485100E1,-8.943415880E-1,7.744724154E-1,-1.093448773E-1
2.510485100E1,-7.836877108E-1,7.470009327E-1,3.592760265E-1
2.512485100E1,-7.459711432E-1,7.593054771E-1,5.186594725E-1
2.514485100E1,-7.737917304E-1,5.101422668E-1,4.489859343E-1
2.516485100E1,-6.539399624E-1,1.432566196E-1,3.806388676E-1
2.518685100E1,-2.665466964E-1,-2.085842937E-1,4.599117041E-1
2.520685100E1,1.245117858E-1,-5.213996768E-1,5.498834252E-1
2.522685100E1,2.548704445E-1,-6.655464172E-1,3.938684464E-1
2.524685100E1,2.559874356E-1,-1.046900868E0,1.915324330E-1
2.526685100E1,4.156850576E-1,-1.178027391E0,1.084024012E-1
2.528685100E1,7.250272036E-1,-9.617113471E-1,4.028219730E-2
2.530885100E1,8.583528996E-1,-3.625746965E-1,-1.026253626E-1
2.532885100E1,6.729291677E-1,4.799655452E-2,-2.033134103E-1
2.534885100E1,3.370928764E-1,9.192649275E-2,-3.704461455E-1
2.536885100E1,-1.033234876E-2,-2.321287990E-2,-5.483126640E-1
2.538885100E1,-2.282716185E-1,-7.433357090E-2,-5.526061654E-1
2.540885100E1,-2.950653732E-1,-3.410373256E-2,-4.858472943E-1
2.542886038E1,-3.474775851E-1,7.002261281E-2,-4.159119725E-1
2.545085100E1,-3.693465889E-1,-1.694714651E-2,-3.042981625E-1
2.547284944E1,-1.931730360E-1,8.325220644E-2,-1.533271670E-1
2.549285100E1,-1.933824830E-2,3.425383270E-1,-2.071705833E-2
2.551485100E1,2.268928103E-3,2.869495749E-1,1.080533341E-1
2.553485100E1,-2.368411794E-2,-3.689625859E-2,1.483355314E-1
2.555485100E1,3.586651757E-2,-1.765924096E-1,4.297000542E-2
2.557684944E1,9.864600748E-2,-9.604547173E-2,-8.059930801E-2
2.559684944E1,5.120795965E-2,2.251474746E-2,2.708750963E-2
2.561685100E1,1.322959550E-2,5.953317881E-2,2.358637899E-1
2.563885100E1,6.281439960E-2,7.278022822E-3,4.065046310E-1
2.565885725E1,1.141968891E-1,1.469043642E-1,5.336344242E-1
2.568085100E1,-8.555603772E-2,5.920680165E-1,6.359456182E-1
2.570085100E1,-5.511400700E-1,8.663640022E-1,4.715181589E-1
2.572284944E1,-1.120536327E0,7.763573527E-1,8.616690338E-2
2.574285100E1,-1.193246722E0,6.296449900E-1,6.012659147E-2
2.576285100E1,-7.307519317E-1,5.897467732E-1,5.752605200E-2
2.578285100E1,-5.597271025E-2,4.376936555E-1,-2.083050460E-1
2.580485100E1,4.212701321E-1,2.358288914E-1,-4.775220752E-1
2.582485100E1,6.006899476E-1,-1.738522500E-1,-2.896199226E-1
2.584485100E1,7.650825381E-1,-4.543790221E-1,1.886700988E-1
2.586684944E1,7.320085168E-1,-4.920955896E-1,5.955063105E-1
2.588685100E1,3.337942064E-1,-4.641005099E-1,6.263986826E-1
2.590685100E1,-1.284387857E-1,-5.336344242E-1,4.134335816E-1
2.592685100E1,-3.359584212E-1,-4.917116165E-1,1.168323383E-1
2.594885881E1,-2.114989907E-1,-2.859372795E-1,-9.628981352E-2
2.597084944E1,4.136430100E-3,-7.784168422E-2,-1.583188176E-1
2.599084944E1,1.296081543E-1,8.190830052E-2,-1.038296372E-1
2.601084944E1,1.462585926E-1,2.351656556E-1,-1.928588748E-2
2.603084944E1,9.171704948E-2,2.995683253E-1,2.672099136E-2
2.605085100E1,-5.565854907E-2,2.110103071E-1,3.986331820E-2
2.607085100E1,-2.501755059E-1,3.548254445E-2,5.351179466E-2
2.609085100E1,-4.842939675E-1,2.485348880E-1,1.698903441E-1
2.611284944E1,-8.691914082E-1,9.033998847E-1,4.141491652E-1
2.613284944E1,-1.265643001E0,9.710313678E-1,2.749591768E-1
2.615284944E1,-1.273043156E0,6.085264683E-1,-1.818633080E-1
2.617284944E1,-6.923197508E-1,3.735004691E-3,-4.116010070E-1
2.619284944E1,1.103222594E-1,-4.343600869E-1,-2.845933735E-1
2.621284944E1,6.052452922E-1,-7.009416819E-1,-8.337438107E-2
2.623284944E1,4.938758314E-1,-9.012705684E-1,1.116138026E-1
2.625284944E1,1.025380939E-1,-7.933743000E-1,1.385616958E-1
2.627284944E1,-1.790707856E-1,-5.956459641E-1,1.699950732E-2
2.629284944E1,-8.628907800E-2,-4.759338200E-1,-1.086991057E-1
2.631284944E1,1.934522986E-1,-4.381125569E-1,-7.504915446E-2
2.633285100E1,1.934871972E-1,-5.538453460E-1,-4.935790971E-2
2.635484944E1,-3.454181254E-1,-9.096481204E-1,-3.673394322E-1
2.637484944E1,-5.509655476E-1,-9.221970439E-1,-6.194871664E-1
2.639484944E1,1.205149814E-1,-6.497860551E-1,-4.290193915E-1
2.641484944E1,1.175287247E0,-1.862091720E-1,5.602506921E-3
2.643484944E1,1.502327085E0,2.652900480E-2,6.590363383E-2
2.645484944E1,1.056535006E0,-1.314232964E-2,-2.342406362E-1
2.647484944E1,6.180210710E-1,-5.143485218E-2,-5.630606413E-1
2.649484944E1,5.293932557E-1,-1.616872996E-1,-6.350904107E-1
2.651484944E1,7.140840292E-1,-2.467720956E-1,-5.280493498E-1
2.653484944E1,9.100320935E-1,-3.905348778E-1,-3.317172825E-1
2.655484944E1,9.117251039E-1,-3.763976991E-1,-1.162563786E-1
2.657485100E1,7.556577325E-1,-1.637293398E-1,1.532399096E-2
2.659485100E1,5.730439425E-1,7.058111578E-2,7.810348272E-2
2.661485100E1,3.976209164E-1,2.697406411E-1,5.447172746E-2
2.663684944E1,1.716705859E-1,3.284360468E-1,1.925098151E-2
2.665684944E1,3.471459821E-2,2.064026296E-1,6.195918657E-3
2.667685100E1,4.014257342E-3,7.963937521E-2,-8.848818950E-3
2.669884944E1,3.225368261E-2,1.405339092E-1,-6.190682948E-2
2.671885100E1,1.344427168E-1,1.616524011E-1,-7.206464559E-2
2.674085100E1,2.866528630E-1,2.530378401E-1,6.544984877E-3
2.676086819E1,3.323106766E-1,2.237512022E-1,6.433283538E-2
2.678284944E1,3.647738099E-1,1.852143407E-1,3.145083413E-2
2.680284944E1,3.140196502E-1,1.945518553E-1,-8.756317198E-2
2.682284944E1,2.188817412E-1,3.065147102E-1,-1.573937982E-1
2.684284944E1,1.162214726E-1,4.493699074E-1,-8.075638115E-2
2.686284944E1,-6.356488913E-2,3.099006712E-1,1.339714676E-1
2.688284944E1,-1.911310107E-1,-2.018124163E-1,3.596076369E-1
2.690284944E1,1.941329688E-1,-2.798810005E-1,6.211626530E-1
2.692284944E1,8.836252689E-1,-1.701696031E-2,7.718544006E-1
2.694284944E1,9.542064071E-1,1.913753450E-1,7.041530609E-1
2.696284944E1,2.173982114E-1,1.292939931E-1,3.775147200E-1
2.698285100E1,-4.262093902E-1,1.802925020E-2,-1.272694021E-1
2.700485100E1,-4.601036906E-1,-1.107411385E-1,-4.407829046E-1
2.702485100E1,-1.462585926E-1,-1.598023474E-1,-3.310889602E-1
2.704684944E1,1.417556405E-1,-1.464331299E-1,3.241076320E-2
2.706684944E1,2.137679309E-1,-3.476695716E-2,2.462659627E-1
2.708684944E1,1.148077548E-1,1.904328763E-1,2.555510998E-1
2.710685100E1,4.464552179E-2,3.655068576E-1,2.279225439E-1
2.712685100E1,7.124433666E-2,2.662499845E-1,2.270847857E-1
2.714886506E1,1.282816976E-1,-2.939134464E-2,1.899616420E-1
2.717085100E1,8.377580345E-2,-2.359685153E-1,5.736897141E-2
2.719284944E1,1.104793418E-2,-2.920110226E-1,-7.946483791E-2
2.721284944E1,-5.265658349E-2,-2.849424481E-1,-1.803099662E-1
2.723284944E1,-1.127657220E-1,-3.888244629E-1,-2.414837480E-1
2.725284944E1,-4.909611121E-2,-4.283910692E-1,-2.619041204E-1
2.727284944E1,8.876744658E-2,-3.932226896E-1,-2.498787940E-1
2.729284944E1,1.855459511E-1,-3.487516940E-1,-2.386388630E-1
2.731284944E1,7.911577821E-2,-3.182607889E-1,-2.279225439E-1
2.733284944E1,-1.505520940E-1,-2.515543103E-1,-2.371378839E-1
2.735284944E1,-2.390228361E-1,-1.472708881E-1,-2.587101460E-1
2.737284944E1,-9.079203010E-2,-1.141096279E-1,-2.042209804E-1
2.739284944E1,1.146506816E-1,-1.995958537E-1,-3.525565192E-2
2.741284944E1,-2.977531776E-2,-3.436029553E-1,6.698573381E-2
2.743284944E1,-7.108027935E-1,-4.418475628E-1,-1.727875918E-1
2.745284944E1,-1.308647871E0,-3.063750863E-1,-4.206418097E-1
2.747284944E1,-1.044946074E0,-3.206867874E-1,-4.764748812E-1
2.749284944E1,-1.361356815E-3,-2.822372019E-1,-2.273989469E-1
2.751284944E1,8.069704175E-1,-1.489987522E-1,2.642428502E-2
2.753285100E1,7.312754989E-1,-2.072403878E-1,-5.740387738E-2
2.755285100E1,1.903281510E-1,-1.772730947E-1,-3.391523659E-1
2.757285100E1,-2.210110426E-1,1.809906401E-2,-5.553637743E-1
2.759285100E1,-3.310191333E-1,1.682846397E-1,-6.332927346E-1
2.761285100E1,-2.701595128E-1,1.362927556E-1,-6.170262694E-1
2.763285100E1,-2.677160501E-1,1.572541706E-2,-6.075316668E-1
2.765285100E1,-3.379131854E-1,-1.263967454E-1,-6.165550351E-1
2.767286038E1,-3.582113683E-1,-1.402895600E-1,-5.686457157E-1
2.769485100E1,-3.270747066E-1,-1.108633131E-1,-4.347789586E-1
2.771685100E1,-2.742435932E-1,-8.970992267E-2,-2.423564196E-1
2.773685100E1,-2.264390141E-1,-1.589994878E-2,-1.162912846E-1
2.775685100E1,-2.302089334E-1,-1.192059834E-2,-6.696828455E-2
2.777685100E1,-2.205398083E-1,-3.935717419E-2,8.168140426E-3
2.779685100E1,-2.297376841E-1,-4.672246426E-2,1.342332661E-1
2.781685100E1,-3.139847219E-1,-1.680752076E-2,2.743483186E-1
2.783685100E1,-3.766420484E-1,-1.022762954E-1,4.787088931E-1
2.785685100E1,-3.613878787E-1,-1.923352778E-1,6.664888859E-1
2.787685100E1,-3.718947470E-1,-7.775441557E-2,6.977651715E-1
2.789685100E1,-4.698600769E-1,7.564257085E-2,6.675011516E-1
2.791685100E1,-5.681395531E-1,1.225744709E-1,6.536956429E-1
2.793685100E1,-7.092494369E-1,7.848745584E-2,6.121568084E-1
2.795685100E1,-8.482300043E-1,4.801400751E-2,6.118949652E-1
2.797685100E1,-1.036533594E0,2.111848444E-3,5.688202381E-1
2.799685100E1,-1.246828318E0,-1.330638975E-1,3.281219006E-1
2.801685100E1,-1.313587189E0,-1.750041693E-1,1.254193634E-1
2.803685100E1,-1.058542132E0,-4.314453900E-2,1.783552021E-1
2.805685100E1,-6.826506257E-1,-1.720894687E-2,3.643374741E-1
2.807885100E1,-6.372371316E-1,-2.315528244E-1,5.636889935E-1
2.809885100E1,-7.635466456E-1,-4.501029551E-1,6.565579772E-1
2.811885100E1,-7.176793814E-1,-6.589141488E-1,6.103590727E-1
2.813885100E1,-5.776166916E-1,-7.475943565E-1,4.761258066E-1
2.815885100E1,-5.552241206E-1,-7.080975175E-1,3.550174236E-1
2.817885412E1,-5.762029886E-1,-4.871214032E-1,3.147875965E-1
2.820085100E1,-3.920009434E-1,-6.503096968E-2,3.696258366E-1
2.822085100E1,-6.253514439E-2,3.357140720E-1,4.683591127E-1
2.824085100E1,1.774650812E-1,4.609938264E-1,5.417676568E-1
2.826086975E1,3.019419611E-1,3.723659813E-1,4.618664682E-1
2.828285100E1,3.453308344E-1,2.087064683E-1,1.903107017E-1
2.830485100E1,3.159394860E-1,8.850564808E-2,-1.220857799E-1
2.832485100E1,2.793574035E-1,7.365289610E-3,-3.419623673E-1
2.834485100E1,2.697406411E-1,-5.134758726E-2,-4.950102866E-1
2.836485100E1,2.311863154E-1,-5.557128415E-2,-6.176370978E-1
2.838485100E1,1.289100200E-1,9.599311277E-3,-7.016746998E-1
2.840685100E1,9.744173288E-2,7.796385884E-2,-7.093716264E-1
2.842685100E1,2.114117295E-1,-2.967059799E-2,-5.902354717E-1
2.844685100E1,2.245889604E-1,-3.500083387E-1,-4.917290509E-1
2.846685100E1,9.135053307E-2,-6.237457395E-1,-4.105188847E-1
2.848685100E1,9.028588235E-2,-6.819874048E-1,-3.808133900E-1
2.850685100E1,2.842792273E-1,-4.018096924E-1,-2.998650074E-1
2.852685100E1,2.360732406E-1,-7.604399323E-2,-1.629090309E-1
2.854685100E1,-1.464331299E-1,1.105491519E-1,-1.760688126E-1
2.856685100E1,-1.768367589E-1,7.567747682E-2,-2.113768309E-1
2.858685100E1,4.763876200E-1,1.618094742E-1,-2.277654707E-1
2.860685100E1,1.100901365E0,4.798084497E-1,-9.021607041E-2
2.862685100E1,1.149421453E0,5.121843219E-1,-1.262396574E-1
2.864685100E1,7.266852856E-1,3.352428377E-1,-3.653497696E-1
2.866685100E1,2.213950157E-1,-8.763298392E-2,-6.673440933E-1
2.868685100E1,-1.118232459E-1,-6.969448924E-1,-8.181231022E-1
2.870685100E1,-1.333082467E-1,-8.231496215E-1,-8.706400394E-1
2.872685100E1,1.269028932E-1,-7.635117173E-1,-7.550817728E-1
2.874685100E1,5.837079287E-1,-5.332155228E-1,-5.555557609E-1
2.876685100E1,1.105823159E0,-3.175975680E-1,-4.475547671E-1
2.878685100E1,1.510285735E0,1.061160211E-2,-3.515093029E-1
2.880685100E1,1.576887488E0,-4.963716492E-2,-1.639562249E-1
2.882685100E1,1.244000912E0,-4.551295042E-1,1.622807086E-1
2.884885100E1,6.388777494E-1,-4.142364562E-1,3.686135411E-1
2.886885100E1,1.912182719E-1,-1.813746095E-1,3.371103406E-1
2.888885100E1,-4.068362340E-2,-7.749261707E-2,3.080506027E-1
2.890886506E1,-8.567821234E-2,2.048492879E-1,3.542669415E-1
2.893085100E1,-1.361356825E-1,3.696083724E-1,4.043229818E-1
2.895085100E1,-2.165080905E-1,1.677959561E-1,4.235390425E-1
2.897085100E1,-2.097013146E-1,9.157742560E-2,3.519805372E-1
2.899285100E1,-2.310292274E-1,2.249205858E-1,3.513173163E-1
2.901485100E1,-1.794372946E-1,1.696285456E-1,3.480186462E-1
2.903485100E1,-9.075712413E-2,-1.428726465E-1,2.949431837E-1
2.905485100E1,5.962044746E-2,-1.247212291E-1,3.291516304E-1
2.907685100E1,-7.789404690E-2,1.063778177E-1,3.904476166E-1
2.909685100E1,-4.020540416E-1,3.967831433E-1,3.772005439E-1
2.911685100E1,-6.136403084E-1,5.691344142E-1,3.786142766E-1
2.913685100E1,-4.217762649E-1,8.904320598E-1,5.820323825E-1
2.915685100E1,-6.962118298E-2,1.206615925E0,8.216311932E-1
2.917685100E1,4.270820692E-2,1.166194081E0,8.690168858E-1
2.919685100E1,-2.989050746E-1,5.101946592E-1,6.929655075E-1
2.921885100E1,-6.901555657E-1,-4.841717780E-1,3.445803523E-1
2.923885100E1,-5.435304046E-1,-7.589738965E-1,2.299645841E-1
2.925885100E1,-1.136209369E-1,-5.048539639E-1,2.907718420E-1
2.927885100E1,2.132268697E-1,-4.473278672E-2,3.543716371E-1
2.929885100E1,2.058964968E-1,3.950203657E-1,4.008323252E-1
2.931885100E1,5.724680144E-3,7.308565974E-1,3.689975142E-1
2.933885100E1,-2.610488832E-1,8.397127986E-1,2.285857648E-1
2.935885100E1,-4.243069887E-1,6.700144410E-1,6.668902934E-2
2.937885100E1,-3.460289836E-1,2.879618704E-1,-6.183701381E-2
2.939885100E1,-4.131194204E-2,-1.501332223E-1,-1.492954642E-1
2.941885100E1,3.450166881E-1,-2.795493901E-1,-1.912182719E-1
2.943885413E1,6.156474352E-1,-1.971523911E-1,-1.967335194E-1
2.946086975E1,5.548925400E-1,-1.814444214E-1,-1.874134541E-1
2.948285100E1,2.947162986E-1,-1.217018068E-1,-1.271995902E-1
2.950285100E1,1.256986111E-1,-2.416757345E-1,-1.290496439E-1
2.952285100E1,1.073726565E-1,-3.485422432E-1,-2.336472273E-1
2.954285100E1,1.165007278E-1,-2.722539008E-1,-3.560471535E-1
2.956285256E1,1.654572040E-2,-5.524839759E-1,-5.429719090E-1
2.958485100E1,-1.328195538E-2,-9.190031290E-1,-6.561216116E-1
2.960485100E1,1.709026396E-1,-8.772897720E-1,-6.251245737E-1
2.962485100E1,3.058165908E-1,-4.862836301E-1,-4.154407084E-1
2.964684944E1,-5.918411538E-2,-5.805837512E-1,-3.125186563E-1
2.966685100E1,-4.661250710E-1,-7.881906629E-1,-2.229134440E-1
2.968685100E1,-4.731762111E-1,-5.586100817E-1,-1.180366203E-1
2.970685100E1,-1.257858723E-1,-9.494590759E-2,-9.587093443E-2
2.972685100E1,2.756747603E-1,5.160763860E-1,-2.683269083E-1
2.974685100E1,3.715631366E-1,6.652147770E-1,-4.237659276E-1
2.976685100E1,2.049714625E-1,1.012116447E-1,-5.270719528E-1
2.978685100E1,6.466444582E-2,-4.918337762E-1,-4.717625082E-1
2.980685100E1,-2.052507177E-2,-5.376137495E-1,-4.315501153E-1
2.982685256E1,-2.341010123E-1,-2.290570140E-1,-3.971147537E-1
2.984885100E1,-1.184520006E0,1.080131888E0,-3.614926040E-1
2.986886506E1,-1.439181089E0,1.074599266E0,-6.020687819E-1
2.989085100E1,-1.243407488E0,4.205021858E-1,-3.886150122E-1
2.991284944E1,-5.316272974E-1,-1.209513191E-2,-2.930233181E-1
2.993284944E1,7.043101788E-1,-1.502815723E0,1.551597659E-2
2.995284944E1,2.202675343E0,-2.001019955E0,3.838677108E-1
2.997284944E1,3.225071669E0,-1.655601859E0,8.539372683E-1
2.999284944E1,5.917713046E-1,1.366208792E0,1.024647951E0
3.001285100E1,-6.726498902E-2,-3.965038955E-1,8.102167249E-1
3.003285100E1,-2.690948546E-1,-1.249463797E0,7.599686980E-1
3.005484944E1,-1.394518092E-2,-1.995225430E0,5.853485465E-1
3.007484944E1,3.159744143E-1,-2.494773626E0,6.561041474E-1
3.009484944E1,1.828756034E-1,-2.671208858E0,7.386757135E-1
3.011484944E1,-1.674294323E-1,-2.579509258E0,5.825734735E-1
3.013484944E1,-2.357416153E-1,-2.076226234E0,-1.043357849E-1
3.015484944E1,1.318770796E-1,-3.117158078E-2,-7.630928755E-1
3.017484944E1,-5.873032808E-1,-2.435188055E0,-5.544561744E-1
3.019484944E1,5.464974642E-1,1.455779076E-1,3.828728795E-1
3.021484944E1,8.323649764E-1,1.483460069E0,8.994903564E-1
3.023484944E1,3.705334067E-1,1.219252110E0,6.609910727E-1
3.025484944E1,-5.457644537E-2,6.519677639E-1,-6.230825558E-3
3.027485100E1,-2.431418151E-1,9.356361032E-1,-4.577649534E-1
3.029485100E1,-2.079385221E-1,1.435498357E0,-5.116781592E-1
3.031485100E1,-2.755700350E-1,1.530967951E0,-2.197718620E-1
3.033485100E1,-3.413864076E-1,1.163872838E0,1.714611501E-1
3.035684944E1,-3.000046313E-1,7.258475423E-1,3.486295044E-1
3.037685100E1,-2.272942215E-1,4.794419408E-1,2.925869823E-1
3.039685100E1,-1.763480604E-1,2.779611349E-1,1.280897111E-1
3.041685100E1,-7.010987401E-2,1.809382886E-1,-9.751154482E-2
3.043685100E1,3.755948693E-2,2.994635999E-1,-2.536486983E-1
3.045685100E1,3.881612420E-2,3.576703370E-1,-2.595304549E-1
3.047884944E1,6.283185445E-3,1.897521913E-1,-1.874658167E-1
3.049885100E1,-2.796017379E-2,2.189515531E-1,-1.373050511E-1
3.052084944E1,-1.795943826E-2,5.104739070E-1,-1.252273768E-1
3.054085256E1,-3.090978041E-2,6.879564524E-1,-2.022836655E-1
3.056087131E1,-3.162536770E-2,7.782248855E-1,-3.156253397E-1
3.058285100E1,5.485569686E-2,9.507157207E-1,-4.519006610E-1
3.060285100E1,3.923500329E-2,1.006775737E0,-5.481380820E-1
3.062285100E1,-6.087708473E-2,8.508828878E-1,-6.264684796E-1
3.064285100E1,-1.400975734E-1,7.201752067E-1,-6.039711833E-1
3.066485100E1,-1.982868612E-1,5.632700920E-1,-4.181459844E-1
3.068685100E1,-2.127207220E-1,2.686061561E-1,-2.527062297E-1
3.070685100E1,-1.886351854E-1,-5.044001341E-2,-2.260550410E-1
3.072685100E1,-1.980075985E-1,-1.414589286E-1,-2.047620267E-1
3.074685100E1,-3.374070525E-1,-1.169021502E-1,-1.600641459E-1
3.076685100E1,-3.784746528E-1,-1.666440368E-1,-1.397659630E-1
3.078685100E1,-2.106263340E-1,-7.546803355E-2,-2.099281996E-1
3.080685100E1,-2.044478655E-1,3.601312339E-1,-2.831447721E-1
3.082685100E1,-4.489336014E-1,8.515461683E-1,-1.725083441E-1
3.084685100E1,-4.603305757E-1,9.010436535E-1,2.432988957E-2
3.086685100E1,-6.272713095E-2,2.260026783E-1,7.642796636E-2
3.088685100E1,5.034925938E-1,-6.529451013E-1,-9.971065819E-2
3.090685100E1,8.206537962E-1,-1.309764862E0,-3.049962819E-1
3.092685100E1,8.950746655E-1,-1.603852868E0,-4.781154990E-1
3.094685100E1,7.363369465E-1,-1.442741513E0,-6.048438549E-1
3.096685100E1,4.067140818E-1,-9.690067768E-1,-6.528927684E-1
3.098685100E1,6.630505621E-2,-4.741536081E-1,-6.175498366E-1
3.100685100E1,-2.673146129E-1,-2.237163037E-1,-3.388731182E-1
3.102685100E1,-5.747718215E-1,1.440071166E-1,-1.086467430E-1
3.104685100E1,-8.282110691E-1,5.406332016E-1,-1.081580520E-1
3.106685100E1,-1.024857283E0,8.130790591E-1,-2.765125036E-1
3.108685100E1,-1.004105330E0,7.748563886E-1,-3.608293831E-1
3.110685100E1,-8.101992607E-1,5.677730441E-1,-3.495545387E-1
3.112685100E1,-5.855928659E-1,5.997474790E-1,-3.364471197E-1
3.114885100E1,-4.206941724E-1,9.076235890E-1,-3.938859105E-1
3.116885413E1,-3.048042953E-1,9.423207045E-1,-4.256508946E-1
3.118885413E1,-2.073625624E-1,7.371048927E-1,-4.386186898E-1
3.121085100E1,-1.361356825E-1,3.656464815E-1,-3.354173601E-1
3.123085100E1,-8.688248694E-2,-1.413542181E-1,-1.744631082E-1
3.125085100E1,7.686430216E-2,-4.874006510E-1,-2.008699477E-1
3.127085100E1,3.868173063E-1,-5.043652654E-1,-2.673320770E-1
3.129085100E1,4.012511969E-1,-3.076840937E-1,-3.190985322E-1
3.131085100E1,1.174432039E-1,-5.164429173E-2,-1.664171368E-1
3.133085100E1,1.536936909E-1,-3.260275126E-1,-4.660028964E-2
3.135085100E1,4.312883019E-1,-1.147379428E-1,-2.014109865E-2
3.137085100E1,6.342177391E-1,9.870535135E-1,-1.862091720E-1
3.139085100E1,2.887298167E-1,1.780183434E0,-7.819075137E-3
3.141085100E1,-2.483603507E-1,1.707123995E0,3.212278485E-1
3.143284944E1,-5.525014400E-1,1.088160396E0,5.999220014E-1
3.145284944E1,-7.129495144E-1,4.562290609E-1,7.103315592E-1
3.147284944E1,-7.287971377E-1,2.807536721E-1,9.478185177E-1
3.149284944E1,-3.782303035E-1,6.746570468E-1,1.037179351E0
3.151284944E1,-8.637634665E-2,8.793841600E-1,9.020210505E-1
3.153285100E1,1.355946362E-1,6.393664479E-1,8.948477507E-1
3.155285100E1,3.828205168E-1,4.903677106E-1,8.501498699E-1
3.157285100E1,6.516885161E-1,5.092521906E-1,6.262764931E-1
3.159285100E1,3.821049333E-1,3.100577295E-1,3.772005439E-1
3.161285100E1,-7.833037525E-2,-9.712757170E-2,1.746201962E-1
3.163285100E1,-2.516590357E-1,-1.977632642E-1,-6.386159360E-2
3.165285100E1,-2.680651248E-1,-3.872536421E-1,-2.559176385E-1
3.167286038E1,5.340707488E-3,-4.531922042E-1,-3.459940553E-1
3.169485100E1,4.799655639E-3,-4.423885942E-1,-5.031260848E-1
3.171485100E1,-3.859097362E-1,-4.089480937E-1,-6.298369765E-1
3.173485100E1,-1.914277077E-1,-5.122017860E-1,-5.562713146E-1
3.175485100E1,-3.509508073E-1,-4.603305757E-1,-8.640601635E-1
3.177485100E1,-1.001819015E0,-2.853962481E-1,-9.540318847E-1
3.179485100E1,-1.089469433E0,6.107255816E-1,-7.254635692E-1
3.181485100E1,-5.886995792E-1,3.322059810E-1,-4.906294942E-1
3.183685100E1,-5.253441166E-3,-2.111848444E-3,-2.384992391E-1
3.185685100E1,1.760862619E-1,-4.644321278E-2,-2.286904901E-1
3.187685100E1,1.425061375E-1,-2.871241271E-1,-5.282064676E-1
3.189685100E1,2.807187438E-1,-3.299370408E-1,-5.983163118E-1
3.191685100E1,5.857325196E-1,-3.238807619E-1,-4.931776822E-1
3.193885100E1,7.783994079E-1,-4.231725335E-1,-4.996528625E-1
3.195886663E1,6.824063063E-1,-6.019117236E-1,-6.586174369E-1
3.198085100E1,4.082325101E-1,-7.081324458E-1,-7.069979906E-1
3.200085100E1,2.466150224E-1,-5.634097457E-1,-6.510252357E-1
3.202085100E1,2.111150324E-1,-3.391000330E-1,-5.774421692E-1
3.204085100E1,2.801078856E-1,-2.611536086E-1,-5.247157812E-1
3.206086975E1,3.308446109E-1,-2.842268646E-1,-4.286528528E-1
3.208285100E1,2.219535261E-1,-3.383669853E-1,-3.551570475E-1
3.210484944E1,1.126784533E-1,-1.636071652E-1,-3.968006074E-1
3.212485100E1,1.164134592E-1,7.152359188E-2,-4.074122012E-1
3.214485100E1,1.263443828E-1,1.973443776E-1,-3.058864176E-1
3.216684944E1,3.607595712E-2,8.346164227E-2,-1.646194607E-1
3.218684944E1,-3.223622963E-2,-1.101128235E-1,-8.829620481E-2
3.220684944E1,-5.208062381E-2,-3.101275563E-1,-1.016130671E-1
3.222685100E1,-4.174827412E-2,-3.679153919E-1,-3.092723340E-2
3.224884944E1,4.637339711E-2,-1.009323895E-1,1.665916741E-1
3.226886662E1,1.201659217E-1,2.406983525E-1,3.059562147E-1
3.229084944E1,1.570621729E-1,3.257831633E-1,3.540574908E-1
3.231085100E1,1.584060788E-1,7.658504695E-2,2.847679257E-1
3.233284944E1,-1.495747175E-2,-5.204746127E-1,-8.726646192E-4
3.235284944E1,-3.707079217E-2,-6.675011516E-1,-2.104867101E-1
3.237284944E1,2.447126210E-1,-2.363524884E-1,-5.328490213E-2
3.239284944E1,4.744852185E-1,3.406708241E-1,3.751410544E-1
3.241284944E1,4.178318083E-1,6.108303070E-1,6.638360023E-1
3.243284944E1,2.975611687E-1,6.159092188E-1,7.118150592E-1
3.245284944E1,1.876403540E-1,2.743483186E-1,5.374042988E-1
3.247284944E1,-6.213372201E-2,-4.220555127E-1,2.636668980E-1
3.249284944E1,-3.478790224E-1,-1.096014380E0,8.442157507E-2
3.251285100E1,-3.778812289E-1,-1.463476062E0,-1.085594762E-2
3.253484944E1,4.323180392E-2,-1.096537948E0,2.200860158E-2
3.255484944E1,3.468318284E-1,-2.000670880E-1,1.545139998E-1
3.257484944E1,2.691472173E-1,7.021983266E-1,3.770609200E-1
3.259484944E1,-4.927064478E-2,1.413803935E0,5.599015951E-1
3.261484944E1,-2.219360620E-1,1.506603122E0,6.593853831E-1
3.263484944E1,4.956734926E-2,8.598539233E-1,6.116331816E-1
3.265484944E1,5.395510793E-1,1.439896598E-2,3.699574471E-1
3.267484944E1,8.108450770E-1,-5.768138766E-1,9.871581942E-2
3.269484944E1,6.639057994E-1,-7.102268338E-1,-3.668681905E-2
3.271484944E1,2.800729871E-1,-4.460887015E-1,-1.156455129E-1
3.273484944E1,-1.008974835E-1,-6.143558770E-3,-1.074250117E-1
3.275484944E1,-4.671722651E-1,3.873409331E-1,-9.316567332E-2
3.277484944E1,-7.442781925E-1,6.534163356E-1,-6.192428246E-2
3.279484944E1,-8.945161700E-1,6.287897825E-1,-1.068665087E-1
3.281484944E1,-8.688423634E-1,1.526464969E-1,-2.929535210E-1
3.283485100E1,-7.217983603E-1,-3.208613396E-1,-5.205444694E-1
3.285485100E1,-6.400471330E-1,-5.392020345E-1,-6.355616450E-1
3.287485100E1,-6.997025013E-1,-4.543091953E-1,-5.577898026E-1
3.289685100E1,-8.701862693E-1,-3.311936855E-1,-2.990098000E-1
3.291885100E1,-8.673064709E-1,-4.467519224E-1,4.159119725E-2
3.293885725E1,-5.821371078E-1,-5.120970607E-1,1.939235330E-1
3.296086819E1,-1.480213702E-1,-4.248305857E-1,8.560840040E-2
3.298285100E1,1.240580007E-1,-3.656988442E-1,-1.924400032E-1
3.300484944E1,3.747920096E-1,-1.835911870E-1,-3.993487954E-1
3.302484944E1,7.182902694E-1,9.327039123E-2,-4.282165170E-1
3.304485100E1,8.980242610E-1,1.515469402E-1,-4.460712373E-1
3.306485256E1,5.773374438E-1,8.911651373E-2,-6.742381454E-1
3.308684944E1,5.771803856E-2,2.138551921E-1,-1.071195841E0
3.310684944E1,-1.866629571E-1,4.587074220E-1,-1.392999649E0
3.312685100E1,-2.311863154E-1,6.273760796E-1,-1.527040958E0
3.314885412E1,-3.033207655E-1,5.473178029E-1,-1.544075370E0
3.317085100E1,-4.654444158E-1,2.407856286E-1,-1.547723055E0
3.319085725E1,-5.136154890E-1,-4.953244328E-2,-1.532730699E0
3.321285100E1,-3.787539005E-1,-2.089857310E-1,-1.520251632E0
3.323285100E1,-2.677684128E-1,-2.887647152E-1,-1.446092606E0
3.325285100E1,-3.181386292E-1,-3.909188509E-1,-1.343816280E0
3.327285100E1,-4.477816820E-1,-3.908315897E-1,-1.245397091E0
3.329285100E1,-5.316621661E-1,-2.889043391E-1,-1.122630715E0
3.331285100E1,-5.588718653E-1,-1.781457514E-1,-9.434551597E-1
3.333285100E1,-5.550495982E-1,-1.485624313E-1,-7.600734234E-1
3.335285100E1,-4.350582063E-1,-1.526639462E-1,-5.492027402E-1
3.337485100E1,-2.882585824E-1,-1.597325355E-1,-2.787639797E-1
3.339485100E1,-1.723512560E-1,-1.104793400E-1,2.268928103E-3
3.341485100E1,-9.936159104E-2,-7.068583276E-3,2.656914592E-1
3.343684944E1,-7.791149616E-2,-2.928662486E-2,4.190186560E-1
3.345685100E1,-1.836086437E-2,-6.887069345E-2,4.071504176E-1
3.347685256E1,4.785692692E-2,4.970697686E-2,3.601835966E-1
3.349885256E1,8.203047328E-3,-5.515240598E-3,3.322408795E-1
3.352084944E1,1.460840553E-2,-2.148849368E-1,2.286206782E-1
3.354085100E1,3.598694503E-1,6.787585467E-2,2.670877278E-1
3.356087131E1,8.284030557E-1,5.507735610E-1,4.757243991E-1
3.358285100E1,8.570963144E-1,6.705904007E-1,7.319212556E-1
3.360285100E1,3.788760602E-1,3.068986833E-1,8.127649426E-1
3.362285100E1,-1.351583004E-1,-1.822821796E-1,6.291213632E-1
3.364285100E1,-3.766420484E-1,-6.075316668E-1,2.471037209E-1
3.366285100E1,-2.776993215E-1,-7.737219334E-1,-2.134537697E-2
3.368285100E1,4.241149873E-3,-6.436076164E-1,-5.883504823E-2
3.370285100E1,1.390678287E-1,-3.649308980E-1,1.013512686E-1
3.372285100E1,9.279915690E-2,-7.963937521E-2,3.266732693E-1
3.374285100E1,1.413716655E-2,1.527337581E-1,4.567177594E-1
3.376484944E1,3.579670191E-2,2.152689099E-1,4.728969634E-1
3.378484944E1,1.107760444E-1,1.458222568E-1,4.057541490E-1
3.380485256E1,1.577952206E-1,-3.532546386E-2,2.848202884E-1
3.382685100E1,1.781806648E-1,-1.523323357E-1,1.683893651E-1
3.384685100E1,1.201310083E-1,-1.796990931E-1,4.672246426E-2
3.386685100E1,-1.176351868E-2,-1.495572627E-1,-8.115781099E-2
3.388685100E1,-1.960353851E-1,-1.132020578E-1,-2.497217059E-1
3.390685100E1,-3.055373430E-1,-6.148795038E-2,-4.181285203E-1
3.392685100E1,-2.523047924E-1,-9.250245057E-4,-4.390201271E-1
3.394685100E1,-1.457524449E-1,5.742133129E-3,-2.656914592E-1
3.396685100E1,-3.190461993E-1,-1.040216237E-1,-7.635815442E-2
3.398685100E1,-7.581012249E-1,-3.306875229E-1,-1.126086414E-1
3.400885100E1,-9.622698426E-1,-2.152863592E-1,-2.194227874E-1
3.402886350E1,-6.735399961E-1,2.559001744E-1,-1.591914743E-1
3.405085100E1,-3.371801674E-1,4.456174672E-1,9.372418374E-2
3.407085100E1,-4.020540416E-1,4.337143153E-2,1.762607992E-1
3.409085100E1,-4.318991899E-1,-3.634822667E-1,1.858775690E-2
3.411085100E1,6.272713095E-2,-3.716329634E-1,-1.170068756E-1
3.413085100E1,9.237155318E-1,-1.054702476E-1,-9.721484035E-2
3.415085100E1,1.392441154E0,-1.314232964E-2,3.433062509E-2
3.417085100E1,1.199355364E0,2.607521974E-2,-2.094395168E-4
3.419086194E1,7.343123555E-1,1.842544079E-1,-3.002664447E-1
3.421285100E1,4.268377125E-1,4.368559122E-1,-6.991963387E-1
3.423484944E1,3.639883995E-1,7.176444530E-1,-9.409419298E-1
3.425484944E1,3.041934371E-1,8.249472976E-1,-1.019097805E0
3.427484944E1,1.910437346E-1,7.945087552E-1,-1.046028137E0
3.429484944E1,8.454374969E-2,6.578494906E-1,-9.955183268E-1
3.431484944E1,6.147049740E-2,4.418649971E-1,-9.161581993E-1
3.433484944E1,1.413367689E-1,5.625196174E-2,-7.855377793E-1
3.435484944E1,3.630459309E-1,-4.657061994E-1,-5.383991599E-1
3.437484944E1,6.642199755E-1,-8.475318551E-1,-3.390476704E-1
3.439484944E1,8.739212751E-1,-9.548172951E-1,-3.226415515E-1
3.441484944E1,8.831017017E-1,-8.117875457E-1,-3.409675360E-1
3.443484944E1,5.406332016E-1,-6.699271798E-1,-2.587101460E-1
3.445484944E1,8.185594529E-2,-5.480159521E-1,2.686061710E-2
3.447484944E1,-2.078163475E-1,-3.288025856E-1,4.295429885E-1
3.449485100E1,-2.497915179E-1,-4.211479425E-2,7.099126577E-1
3.451684944E1,-1.775523424E-1,5.427974090E-2,7.491825819E-1
3.453685100E1,-3.096214123E-2,-7.651523501E-2,6.794915795E-1
3.455685100E1,1.006356850E-1,-3.796440065E-1,5.290092826E-1
3.457885100E1,1.842020452E-1,-5.563935041E-1,3.301464915E-1
3.459885100E1,2.943323255E-1,-1.921782047E-1,2.482032776E-1
3.461886662E1,2.083399594E-1,1.649510711E-1,2.294409871E-1
3.464084944E1,2.659881860E-2,3.240901828E-1,1.918814927E-1
3.466086975E1,3.217689097E-1,7.352374196E-1,3.232873380E-1
3.468285100E1,8.722631931E-1,1.259185195E0,6.354918480E-1
3.470285256E1,9.399296045E-1,1.226146102E0,8.864876032E-1
3.472485256E1,4.085641205E-1,4.545186460E-1,9.317265749E-1
3.474685100E1,-1.541649252E-1,-4.489336014E-1,8.466417789E-1
3.476685100E1,-3.849847317E-1,-8.424704075E-1,7.585026622E-1
3.478885100E1,-3.198315799E-1,-8.900132179E-1,7.141887546E-1
3.480885100E1,-8.677776903E-2,-5.997474790E-1,7.000864744E-1
3.482885412E1,-5.038765445E-2,-1.380031854E-1,7.264060378E-1
3.485085100E1,-2.103994340E-1,2.045351416E-1,7.773172855E-1
3.487085100E1,-2.056346983E-1,2.826386094E-1,8.157668710E-1
3.489085100E1,-6.834709644E-2,3.306700885E-1,8.116653562E-1
3.491284944E1,-1.314232964E-2,3.715980351E-1,7.240672708E-1
3.493284944E1,-1.729446799E-1,3.901683390E-1,5.673716068E-1
3.495284944E1,-4.034503102E-1,3.693640232E-1,3.215245605E-1
3.497284944E1,-5.326570272E-1,3.232349753E-1,1.210036799E-1
3.499285256E1,-6.020862460E-1,2.634225488E-1,-1.638864167E-2
3.501484944E1,-7.027218938E-1,1.919513047E-1,-1.110552996E-1
3.503485100E1,-6.309016347E-1,1.901885271E-1,-1.435009688E-1
3.505485256E1,-4.765272439E-1,8.892452717E-2,-1.880417764E-1
3.507685100E1,-4.513944983E-1,-2.253220044E-2,-2.037846446E-1
3.509685100E1,-6.199933290E-1,-1.114218161E-1,-2.107310593E-1
3.511685100E1,-7.915068269E-1,-6.965608895E-2,-1.682846397E-1
3.513685100E1,-8.204094768E-1,8.562584966E-2,-6.349507719E-2
3.515685100E1,-6.960896850E-1,3.213325739E-1,2.822197415E-2
3.517685100E1,-6.940127015E-1,3.489785790E-1,-1.466076542E-2
3.519685100E1,-7.463027835E-1,6.300638430E-3,-2.349387705E-1
3.521885100E1,-4.561592638E-1,-3.605850339E-1,-4.742583036E-1
3.523886038E1,1.821076572E-1,-2.396337092E-1,-5.477541089E-1
3.526086975E1,8.003905416E-1,4.101523757E-2,-3.810228407E-1
3.528285100E1,7.725700140E-1,9.255480766E-2,-3.383669853E-1
3.530485100E1,3.733084798E-1,1.417381912E-1,-5.988573432E-1
3.532485100E1,2.038370073E-1,2.225643843E-1,-9.116029143E-1
3.534485100E1,2.450965792E-1,3.216816187E-1,-1.093937516E0
3.536485100E1,2.715732455E-1,3.204075396E-1,-1.112350702E0
3.538485100E1,1.384918690E-1,2.264564633E-1,-1.045033336E0
3.540485100E1,-1.973967440E-2,1.400452256E-1,-9.673836231E-1
3.542485100E1,-9.527752548E-2,1.262920201E-1,-9.029635191E-1
3.544485100E1,-1.290147305E-1,1.432915330E-1,-8.387005329E-1
3.546485100E1,-2.011317462E-1,1.090481728E-1,-7.857995629E-1
3.548485100E1,-3.072128594E-1,4.279547185E-2,-7.171208858E-1
3.550684944E1,-3.742334843E-1,-4.382521659E-2,-6.313728690E-1
3.552684944E1,-4.321958721E-1,-9.962339699E-2,-5.496391058E-1
3.554684944E1,-5.057265759E-1,-2.261248529E-1,-4.991990626E-1
3.556685100E1,-5.639857054E-1,-3.463082314E-1,-4.416555762E-1
3.558686506E1,-5.373868942E-1,-3.698178232E-1,-3.255911767E-1
3.560884944E1,-4.072376788E-1,-2.143438905E-1,-1.236740276E-1
3.562886662E1,-2.483603507E-1,-4.246386141E-2,6.906268001E-2
3.565084944E1,-3.104940802E-2,5.260422453E-2,2.416757345E-1
3.567085100E1,8.850564808E-2,-1.603957638E-2,3.263416588E-1
3.569284944E1,1.020144969E-1,-1.666265875E-1,3.279473782E-1
3.571284944E1,6.764896214E-2,-8.307766914E-2,2.568426430E-1
3.573284944E1,-6.091198884E-3,8.894197643E-2,1.203579083E-1
3.575284944E1,-1.340238303E-1,-8.429939859E-3,-7.407177240E-2
3.577284944E1,-4.358087108E-2,-8.293804526E-2,-1.906946748E-1
3.579284944E1,4.163657427E-1,2.360732406E-1,-7.435102761E-2
3.581284944E1,9.362120628E-1,6.424207687E-1,2.384294271E-1
3.583284944E1,9.541714787E-1,5.932199359E-1,4.962843657E-1
3.585284944E1,4.423013330E-1,5.593780056E-2,5.387133360E-1
3.587284944E1,-2.387610450E-2,-4.513247013E-1,3.930132389E-1
3.589284944E1,-1.085769311E-1,-6.723706126E-1,1.701870561E-1
3.591285100E1,5.290092900E-2,-6.388603449E-1,6.951646507E-2
3.593285100E1,2.486570626E-1,-4.046720266E-1,2.088111937E-1
3.595285100E1,2.871764600E-1,-7.813838869E-2,4.351280332E-1
3.597285100E1,2.138901055E-1,2.273116857E-1,5.620134473E-1
3.599285100E1,1.471312493E-1,4.847826660E-1,5.906543136E-1
3.601285100E1,6.859143823E-2,5.442809463E-1,5.326570272E-1
3.603285100E1,-2.234021388E-2,3.465700150E-1,3.752981424E-1
3.605285100E1,-9.354964644E-2,1.247910410E-2,1.452812105E-1
3.607285100E1,-7.096508890E-2,-2.774026394E-1,-5.614724010E-2
3.609285100E1,-5.818927661E-2,-2.959729433E-1,-2.161066681E-1
3.611484944E1,-2.284985036E-1,-2.601064146E-1,-3.418751061E-1
3.613485100E1,-3.213325739E-1,-2.402620167E-1,-4.342029989E-1
3.615485100E1,-3.199188411E-1,-1.773429066E-1,-5.268276334E-1
3.617485100E1,-4.135906696E-1,-1.218065247E-1,-6.174625754E-1
3.619685100E1,-4.670675695E-1,-2.560223341E-1,-5.857150555E-1
3.621685100E1,-4.801575243E-1,-4.831769466E-1,-4.570319057E-1
3.623685100E1,-6.126803756E-1,-5.670225620E-1,-2.553242147E-1
3.625685100E1,-7.644018531E-1,-3.773401976E-1,-4.886921868E-2
3.627685100E1,-7.442258596E-1,4.550073296E-2,1.147728488E-1
3.629685100E1,-7.073993683E-1,2.504721880E-1,2.882760167E-1
3.631685100E1,-8.385260105E-1,-4.900884628E-2,3.132167757E-1
3.633685100E1,-7.596894503E-1,-3.824889064E-1,1.562767774E-1
3.635685100E1,-4.509930685E-2,-2.753256857E-1,-9.845402092E-2
3.637685100E1,1.016392469E0,1.387187690E-1,-1.064825356E-1
3.639685256E1,1.488067746E0,1.940806061E-1,2.630211227E-2
3.641885100E1,9.670171142E-1,-7.906341925E-3,-1.933824830E-2
3.643885100E1,2.575756907E-1,1.110203937E-1,-4.151614606E-1
3.645885100E1,-5.263913050E-2,3.981096148E-1,-9.107477069E-1
3.647885100E1,1.937315450E-3,5.847027302E-1,-1.093658209E0
3.649885100E1,1.536064297E-1,5.585053563E-1,-9.755517840E-1
3.651885100E1,2.500009537E-1,4.327718318E-1,-7.622027397E-1
3.653885100E1,2.535788715E-1,2.973168492E-1,-6.397329569E-1
3.655885100E1,2.143787891E-1,2.212204784E-1,-6.038141251E-1
3.657885100E1,1.305855364E-1,1.695761830E-1,-6.024702191E-1
3.659885100E1,-3.361504152E-2,6.714281440E-2,-5.978276134E-1
3.661885256E1,-2.315179259E-1,-6.845181435E-2,-5.626592636E-1
3.663885256E1,-3.934495747E-1,-2.345198840E-1,-5.671272874E-1
3.665885256E1,-5.125508308E-1,-3.994185925E-1,-5.937610269E-1
3.668085100E1,-5.914920568E-1,-5.169315934E-1,-6.167470217E-1
3.670285100E1,-6.756867766E-1,-6.591759324E-1,-5.688726306E-1
3.672285100E1,-7.063521743E-1,-8.684932590E-1,-4.300316870E-1
3.674285100E1,-5.752605200E-1,-8.943590522E-1,-1.998402029E-1
3.676485100E1,-2.904402316E-1,-4.476071298E-1,1.862964481E-1
3.678485412E1,-7.923794538E-2,-2.434734255E-2,4.502251446E-1
3.680685100E1,3.918264061E-2,1.350012124E-1,5.526235700E-1
3.682685256E1,8.281587064E-2,1.991246194E-1,5.179264545E-1
3.684885100E1,6.850416958E-2,3.631157577E-1,3.174230158E-1
3.686885569E1,-7.272786647E-2,3.048915565E-1,9.447467327E-2
3.689085100E1,-1.815142483E-1,3.199188411E-2,-1.922131032E-1
3.691085100E1,1.046324894E-1,8.321730047E-2,-3.300417662E-1
3.693085100E1,7.444353104E-1,3.766595125E-1,-2.347293347E-1
3.695085100E1,1.238625288E0,6.311110258E-1,-4.406956211E-2
3.697085100E1,1.095682740E0,4.315675497E-1,1.158374995E-1
3.699285100E1,4.127703607E-1,-8.970992640E-3,1.206022501E-1
3.701285100E1,-9.239772707E-2,-1.683719158E-1,-6.976080686E-2
3.703285100E1,-1.431344450E-1,-2.787290886E-2,-2.560397983E-1
3.705285100E1,1.576032341E-1,1.612684280E-1,-2.139075547E-1
3.707484944E1,5.129348040E-1,2.612408698E-1,5.302310362E-2
3.709484944E1,6.014928222E-1,3.029542565E-1,2.750813365E-1
3.711484944E1,4.539601505E-1,3.704810441E-1,3.665540516E-1
3.713484944E1,2.028072625E-1,3.840422332E-1,2.937563658E-1
3.715485100E1,3.630284918E-3,3.233920634E-1,1.480213702E-1
3.717684944E1,-1.215272769E-1,9.913469851E-2,-5.953317881E-2
3.719685100E1,-1.725432426E-1,-1.449496001E-1,-2.700722516E-1
3.721885100E1,-3.976558149E-1,-2.889916301E-1,-6.042504311E-1
3.723885100E1,-7.609984875E-1,-3.879517913E-1,-1.014158487E0
3.726086819E1,-8.923868537E-1,-6.172182560E-1,-1.294458389E0
3.728284944E1,-6.989345551E-1,-7.784168720E-1,-1.303411841E0
3.730284944E1,-4.466122985E-1,-7.793418765E-1,-1.090778470E0
3.732284944E1,-2.327396572E-1,-4.956909716E-1,-7.916115522E-1
3.734284944E1,-2.660405338E-1,-3.969402313E-1,-5.424658060E-1
3.736284944E1,-4.716403186E-1,-5.124810338E-1,-3.186622262E-1
3.738284944E1,-5.785766244E-1,-4.072551131E-1,-2.096140385E-2
3.740284944E1,-4.512723386E-1,-5.035274848E-2,2.428800166E-1
3.742284944E1,-1.963320822E-1,4.236437678E-1,4.228060246E-1
3.744284944E1,-1.075646430E-1,6.074444056E-1,2.494250089E-1
3.746284944E1,-1.423839629E-1,3.494498134E-1,-2.768790424E-1
3.748284944E1,9.149015695E-2,2.626371384E-1,-8.607439995E-1
3.750285100E1,7.465994954E-1,5.712288022E-1,-1.028941393E0
3.752484944E1,1.571372271E0,8.630653024E-1,-7.820122242E-1
3.754485100E1,1.792278647E0,6.600311399E-1,-5.748067498E-1
3.756485100E1,1.437296033E0,3.424336016E-1,-4.699473381E-1
3.758485100E1,8.466766477E-1,2.939832509E-1,-5.072101355E-1
3.760485100E1,3.908664882E-1,4.104839861E-1,-6.139195561E-1
3.762685100E1,1.898918152E-1,4.511327147E-1,-6.293832064E-1
3.764885100E1,2.384992391E-1,2.975611687E-1,-5.389401913E-1
3.767085100E1,3.255562782E-1,5.080653355E-2,-4.355294704E-1
3.769285100E1,2.883807421E-1,-5.688028038E-2,-4.197516739E-1
3.771484944E1,1.238136590E-1,-4.358087108E-2,-4.599815309E-1
3.773484944E1,-6.318091881E-3,-9.826203808E-3,-4.271693230E-1
3.775485100E1,-7.407177240E-2,-3.349286690E-2,-3.623129129E-1
3.777485100E1,-4.712389037E-2,-9.834930301E-2,-2.757271230E-1
3.779485100E1,-4.495968297E-2,-1.480737329E-1,-1.425759494E-1
3.781485100E1,-9.145525098E-2,-2.135410309E-1,7.661995292E-2
3.783685100E1,-1.977458000E-1,-2.233148813E-1,3.146130443E-1
3.785685100E1,-3.807784915E-1,-1.010720134E-1,4.182157815E-1
3.787685100E1,-4.716403186E-1,1.539729387E-1,5.989271998E-1
3.789685100E1,-1.846732944E-1,2.774026394E-1,8.080525398E-1
3.791685100E1,5.037020445E-1,1.284213215E-1,6.616194248E-1
3.793885100E1,1.218274713E0,-3.939208090E-1,2.223200351E-1
3.795885100E1,1.380084157E0,-1.019150138E0,-2.502627671E-1
3.797886194E1,1.140485406E0,-1.211834431E0,-5.847551227E-1
3.800085100E1,9.608386755E-1,-1.023653030E0,-4.170638621E-1
3.802085100E1,1.137343764E0,-8.070751429E-1,5.110324174E-2
3.804085256E1,1.402651310E0,-4.540823102E-1,2.867750525E-1
3.806091350E1,1.350553274E0,-3.071953952E-1,2.001543641E-1
3.808284944E1,1.005553961E0,-5.766567588E-1,1.670803726E-1
3.810285100E1,9.235060811E-1,-9.440835118E-1,2.892010510E-1
3.812285100E1,1.075122833E0,-1.164780378E0,4.829325974E-1
3.814285100E1,1.018835902E0,-1.081824899E0,6.101845503E-1
3.816285100E1,4.683241844E-1,-7.451508641E-1,5.453979373E-1
3.818285100E1,6.654940546E-2,-3.784397542E-1,4.258952439E-1
3.820285100E1,2.283588797E-1,-4.106759652E-2,3.380179107E-1
3.822285100E1,5.743005872E-1,2.540850341E-1,3.754901290E-1
3.824285100E1,7.888190150E-1,3.176324666E-1,4.192630053E-1
3.826285100E1,7.979470491E-1,3.854385018E-1,4.118976891E-1
3.828285100E1,5.486267805E-1,4.171511531E-1,4.228234589E-1
3.830485100E1,2.404365540E-1,4.222998619E-1,4.935267568E-1
3.832485100E1,1.024682820E-1,4.153883457E-1,5.547180176E-1
3.834485100E1,4.654793069E-2,3.354697227E-1,5.991017222E-1
3.836485100E1,5.520476401E-2,2.571044564E-1,6.375338435E-1
3.838485100E1,8.873254061E-2,2.129301727E-1,5.983337760E-1
3.840485100E1,2.530727303E-3,1.504473835E-1,4.939281642E-1
3.842685100E1,-1.301143020E-1,4.144284427E-1,4.496317208E-1
3.844685100E1,-2.288999259E-1,4.936140180E-1,4.716228545E-1
3.846685100E1,-3.165154457E-1,2.022662014E-1,3.895924091E-1
3.848685256E1,-3.803945184E-1,-9.894271195E-2,2.419898957E-1
3.850885881E1,-1.781806648E-1,-1.084547564E-1,1.159247681E-1
3.853085256E1,2.416931987E-1,7.215191424E-2,1.669756472E-1
3.855285100E1,2.556209266E-1,-5.222025141E-2,3.396759629E-1
3.857285100E1,-1.610938907E-1,-1.837482601E-1,4.151440263E-1
3.859285100E1,-4.309915900E-1,-8.925613761E-2,4.503298402E-1
3.861285100E1,-1.123642996E-1,3.507937193E-1,5.246983171E-1
3.863285256E1,6.481978297E-1,8.955284357E-1,5.333900452E-1
3.865485100E1,1.262326837E0,1.015258074E0,4.484798014E-1
3.867485100E1,1.228921175E0,6.358059645E-1,2.859372795E-1
3.869485100E1,7.352722883E-1,1.039518118E-1,1.134463996E-1
3.871485256E1,1.182285994E-1,-1.336747706E-1,1.237438433E-2
3.873685100E1,-3.666413128E-1,3.298672382E-3,-2.556907386E-2
3.875685256E1,-4.919734001E-1,1.287703961E-1,-7.679448463E-3
3.877885100E1,-4.332430661E-1,2.662848830E-1,5.740387738E-2
3.879885100E1,-3.328866363E-1,3.338989317E-1,1.328544617E-1
3.882085100E1,-2.133490443E-1,2.623578906E-1,2.208190560E-1
3.884085100E1,-1.489289403E-1,2.673146129E-1,2.298249602E-1
3.886086975E1,-9.632471949E-2,2.118131518E-1,1.757372022E-1
3.888285100E1,5.218534265E-3,1.736079007E-1,1.534668058E-1
3.890285100E1,9.578366578E-2,1.892285943E-1,2.380280048E-1
3.892285100E1,1.023286507E-1,1.534493417E-1,3.852988780E-1
3.894285100E1,3.159045801E-2,2.290221006E-1,4.969825149E-1
3.896285100E1,-5.490805954E-2,4.546757340E-1,4.188441038E-1
3.898285100E1,-9.892526269E-2,6.162931919E-1,2.455154657E-1
3.900285100E1,-3.401646763E-2,6.459289193E-1,1.698379815E-1
3.902285100E1,1.542871073E-2,6.095038652E-1,2.548529804E-1
3.904285256E1,-6.684611086E-3,5.153259039E-1,3.156253397E-1
3.906485100E1,4.696680978E-2,3.921056688E-1,2.508561611E-1
3.908485100E1,1.701521426E-1,2.517637312E-1,1.747074574E-1
3.910485100E1,2.498264313E-1,8.477064222E-2,4.379031062E-2
3.912685100E1,2.233672440E-1,-5.115560070E-2,-1.525068730E-1
3.914685100E1,1.214400083E-1,7.208209950E-3,-2.177821845E-1
3.916685100E1,2.689552307E-2,2.555685639E-1,-1.304808110E-1
3.918685100E1,-1.153662615E-2,5.234416723E-1,1.169370580E-2
3.920685100E1,-2.413790300E-2,7.640178800E-1,1.444259882E-1
3.922685256E1,-1.198517606E-1,8.401665688E-1,3.243694305E-1
3.924885100E1,-2.681523860E-1,5.235813260E-1,6.611830592E-1
3.926885100E1,-5.176472068E-1,-5.417676568E-1,7.586771846E-1
3.928885256E1,-6.080552340E-1,-9.735969901E-1,5.718047619E-1
3.930885256E1,-3.808308542E-1,-3.129724264E-1,3.493974507E-1
3.932885412E1,-3.933623135E-1,-3.153635561E-1,2.869146764E-1
3.935085100E1,-1.134725809E0,-1.048628688E0,2.584832609E-1
3.937085100E1,-1.806625247E0,-1.326467633E0,6.670648605E-2
3.939085100E1,-1.788648367E0,-1.052189231E0,-2.357067168E-1
3.941085256E1,-1.231975555E0,-3.761359155E-1,-4.226314723E-1
3.943284944E1,-5.134409666E-1,4.894601405E-1,-3.380179107E-1
3.945285100E1,-2.560746968E-1,7.556053996E-1,-2.611187100E-1
3.947285100E1,-3.560995162E-1,8.515112400E-1,-2.213950157E-1
3.949285100E1,-5.428148508E-1,8.190131783E-1,-2.913129032E-1
3.951285100E1,-6.582858562E-1,6.222971678E-1,-3.584731817E-1
3.953285256E1,-6.893876195E-1,3.094992340E-1,-4.029616117E-1
3.955485100E1,-6.015975475E-1,-2.061233856E-2,-4.596673548E-1
3.957485100E1,-2.953620553E-1,-2.489712238E-1,-5.289220214E-1
3.959485100E1,1.702917814E-1,-3.133389652E-1,-5.889788270E-1
3.961485100E1,5.613676906E-1,-2.293537110E-1,-5.500579476E-1
3.963485100E1,6.990567446E-1,-2.473131567E-1,-4.903153479E-1
3.965485100E1,7.662519217E-1,-3.669554591E-1,-5.185024142E-1
3.967485100E1,8.378278613E-1,-5.725727081E-1,-6.304129362E-1
3.969485100E1,8.279667497E-1,-8.027118444E-1,-7.474721670E-1
3.971485100E1,7.082895041E-1,-1.011278629E0,-8.517381549E-1
3.973485100E1,7.080800533E-1,-1.037284136E0,-8.830144405E-1
3.975685100E1,8.745495677E-1,-7.951719761E-1,-7.760955691E-1
3.977685100E1,8.497658968E-1,-6.280567050E-1,-6.321582794E-1
3.979685100E1,3.843913078E-1,-7.608239055E-1,-6.700668335E-1
3.981685100E1,-2.464753985E-1,-8.216311932E-1,-8.171457052E-1
3.983685100E1,-6.426826119E-1,-8.088728189E-1,-9.454099536E-1
3.985685100E1,-9.411164522E-1,-9.841039181E-1,-1.085716963E0
3.987685100E1,-1.109680295E0,-6.990741491E-1,-1.054161429E0
3.989685100E1,-1.007159710E0,2.623753548E-1,-9.009040594E-1
3.991884944E1,-9.367880225E-1,1.068315983E0,-7.482924461E-1
3.993885100E1,-1.110710025E0,1.296011686E0,-6.017022729E-1
3.995885100E1,-1.216005802E0,1.131322384E0,-5.024977326E-1
3.997885100E1,-1.025258780E0,5.838300586E-1,-4.117057025E-1
3.999885256E1,-6.051580310E-1,-6.480407715E-2,-3.111049235E-1
4.002085100E1,-1.968731359E-2,-8.798204660E-1,-1.072853878E-1
4.004085256E1,6.005154252E-1,-1.505835176E0,1.346696019E-1
4.006087131E1,9.355313778E-1,-1.767512321E0,2.473829687E-1
4.008284944E1,7.041879892E-1,-1.618880153E0,2.011317462E-1
4.010285100E1,3.193603456E-1,-1.139752388E0,1.946914792E-1
4.012484944E1,7.504915819E-3,-3.798883557E-1,2.818357646E-1
4.014484944E1,-7.857472450E-2,2.275734842E-1,4.423362315E-1
4.016485100E1,8.389797807E-2,4.756895006E-1,5.477890372E-1
4.018685100E1,3.223274052E-1,5.432337523E-1,5.527282953E-1
4.020685100E1,5.251346827E-1,7.725350857E-1,5.067214370E-1
4.022685100E1,8.956854939E-1,1.471504569E0,5.632177591E-1
4.024885100E1,1.187993288E0,2.222868681E0,8.697324991E-1
4.026886975E1,8.610581756E-1,1.771142721E0,1.079049826E0
4.029085100E1,-1.776221544E-1,-5.804790258E-1,8.328187466E-1
4.031085100E1,-4.234168828E-1,-2.075021982E0,7.122164965E-1
4.033085100E1,2.857103944E-1,-2.481107712E0,6.871186495E-1
4.035085100E1,1.155058861E0,-2.065771580E0,8.104436398E-1
4.037085100E1,1.490999818E0,-9.369800091E-1,8.719141483E-1
4.039085100E1,1.169457912E0,3.768689334E-1,7.562511563E-1
4.041085100E1,5.701641440E-1,1.530112743E0,5.537580848E-1
4.043285413E1,8.876744658E-2,2.152409792E0,4.749215543E-1
4.045484944E1,-8.354891092E-2,2.014965057E0,6.037966609E-1
4.047484944E1,-7.192502171E-2,1.544616342E0,6.840294600E-1
4.049485100E1,-3.281218931E-3,1.062399387E0,5.657135844E-1
4.051485100E1,3.092723340E-2,6.591584682E-1,2.400700450E-1
4.053684944E1,-6.544984877E-2,-1.364847459E-2,-2.680302262E-1
4.055684944E1,-1.302713752E-1,-4.734903574E-1,-5.970771313E-1
4.057685100E1,-1.058193147E-1,-6.093817353E-1,-6.436774135E-1
4.059884944E1,-1.071632132E-1,-4.238706529E-1,-4.820075631E-1
4.061885100E1,-3.754726946E-1,-1.956863105E-1,-4.405909181E-1
4.063885100E1,-9.124406576E-1,-7.702138275E-2,-6.739588976E-1
4.065885100E1,-1.354759455E0,5.483824387E-2,-9.413782358E-1
4.068085100E1,-1.421082020E0,3.074921072E-1,-1.011453152E0
4.070285100E1,-1.317234874E0,3.365518451E-1,-7.162656784E-1
4.072484944E1,-1.505695581E0,-3.431317210E-1,-5.526235700E-1
4.074484944E1,-1.889720321E0,-1.248730659E0,-8.915665150E-1
