"Time (s)","Linear Acceleration x (m/s^2)","Linear Acceleration y (m/s^2)","Linear Acceleration z (m/s^2)"
6.000000000E-3,2.360199928E0,-2.575700045E0,-1.920199990E0
2.600468700E-2,2.778100014E0,-2.985100031E0,-1.102900028E0
5.600000000E-2,2.404399872E0,-3.057799816E0,2.698000073E-1
7.600312500E-2,1.929999948E0,-2.959699869E0,7.121999860E-1
1.060015620E-1,1.152699947E0,-2.144199848E0,1.408399940E0
1.260015620E-1,9.373999834E-1,-1.582599998E0,1.175899982E0
1.560000000E-1,9.975000024E-1,-1.142599940E0,5.633999705E-1
1.760046870E-1,9.722999930E-1,-8.436999917E-1,3.634999990E-1
2.059984370E-1,9.610999823E-1,-7.267999649E-1,1.586999893E-1
2.260031250E-1,7.653999925E-1,-5.623999834E-1,1.215000004E-1
2.560000000E-1,5.030999780E-1,-1.551000029E-1,9.950000048E-2
2.760000000E-1,3.466999829E-1,1.220999956E-1,-2.909999900E-2
2.960000000E-1,-5.449999869E-2,4.852999747E-1,2.028999925E-1
3.160015620E-1,-5.393999815E-1,7.075999975E-1,-1.859999895E-1
3.460000000E-1,-5.054999590E-1,4.605000019E-1,-4.296999872E-1
3.660078120E-1,-1.410099983E0,-7.699999958E-3,-1.542999983E0
3.960000000E-1,1.980699897E0,-1.665300012E0,-2.412000000E-1
4.160046870E-1,5.269999802E-2,-2.223999947E-1,2.396800041E0
4.459984370E-1,-5.360999703E-1,-1.820799947E0,6.066999912E0
4.660031250E-1,-1.000599980E0,-1.272999942E-1,6.117399693E0
4.960000000E-1,-7.215999961E-1,-4.614000022E-1,3.902299881E0
5.160000000E-1,-3.659999967E-1,-6.172999740E-1,3.022500038E0
5.360000000E-1,-5.967999697E-1,-5.126999617E-1,3.421000004E0
5.560046870E-1,-6.207999587E-1,-1.379999965E-1,3.660599947E0
5.860000000E-1,-1.918799996E0,1.818899989E0,1.893799901E0
6.060000000E-1,-5.537999868E-1,9.377999902E-1,9.943999648E-1
6.359984370E-1,2.339599848E0,-2.197399855E0,-6.252999902E-1
6.559984370E-1,4.576200008E0,-4.427000046E0,1.300300002E0
6.759984370E-1,5.376999855E0,-5.309400082E0,3.350000083E-2
6.959984370E-1,2.512500048E0,-1.589800000E0,-2.294899940E0
7.159984370E-1,9.336999655E-1,-1.740000024E-2,-2.493000031E0
7.360000000E-1,1.781599998E0,-2.001399994E0,-2.370599985E0
7.560000000E-1,9.795999527E-1,-2.454200029E0,-1.850199938E0
7.860000000E-1,-8.204999566E-1,-1.903999895E-1,-2.910300016E0
8.060000000E-1,-5.814999938E-1,1.968999952E-1,-5.142799854E0
8.260000000E-1,4.267999828E-1,1.784999967E-1,-6.024600029E0
8.560000000E-1,4.860999882E-1,1.431999952E-1,-3.404399872E0
8.860000000E-1,-3.562999964E-1,7.028999925E-1,-3.147999942E-1
9.060000000E-1,-3.463999927E-1,8.951999545E-1,-2.299999893E-1
9.260000000E-1,3.057999909E-1,1.211399913E0,-3.253999949E-1
9.559984370E-1,8.200000040E-3,1.875299931E0,9.138999581E-1
9.759984370E-1,-4.809999838E-2,1.570799947E0,6.290999651E-1
9.959984370E-1,-5.029999614E-1,1.494699955E0,-5.645999908E-1
1.015998437E0,-4.483999908E-1,1.685499907E0,-1.181499958E0
1.036000000E0,-1.696999967E-1,1.587499976E0,-7.468000054E-1
1.066000000E0,1.966999918E-1,1.633399963E0,-8.653999567E-1
1.095998437E0,2.380999923E-1,1.612599969E0,9.262999892E-1
1.115998437E0,-1.375999898E-1,1.395099998E0,1.220899940E0
1.136000000E0,-3.506999910E-1,1.258899927E0,7.394999862E-1
1.156000000E0,-2.820999920E-1,1.395799994E0,3.826999962E-1
1.176000000E0,1.046999991E-1,1.122099996E0,6.854999661E-1
1.196000000E0,1.608999968E-1,8.046999574E-1,9.246999621E-1
1.216001562E0,2.233999968E-1,2.377999872E-1,1.398800015E0
1.246001562E0,4.479999840E-1,-8.824999928E-1,2.521999836E0
1.275998437E0,-2.242999971E-1,-1.672599912E0,3.356299877E0
1.295998437E0,-6.665999889E-1,-1.883399963E0,1.674600005E0
1.315998437E0,-1.008199930E0,-1.535200000E0,-1.802999973E-1
1.335998437E0,-1.020900011E0,-1.192099929E0,-1.174199939E0
1.355998437E0,-1.000100017E0,-1.111899972E0,-1.916799903E0
1.375998437E0,-1.288900018E0,-1.101199985E0,-1.944499969E0
1.395998437E0,-1.753899932E0,-1.434700012E0,-1.519400001E0
1.415998437E0,-2.022399902E0,-1.755399942E0,-9.122999907E-1
1.435998437E0,-2.099799871E0,-1.923099995E0,-3.070999980E-1
1.455998437E0,-1.845600009E0,-1.764599919E0,2.371999919E-1
1.475998437E0,-1.187399983E0,-1.654799938E0,3.669999838E-1
1.496000000E0,-6.372999549E-1,-1.418299913E0,3.475999832E-1
1.526000000E0,-9.156999588E-1,-1.204999924E0,4.175999761E-1
1.555998437E0,-1.142699957E0,-7.652999759E-1,-9.853999615E-1
1.575998437E0,-8.418999910E-1,-5.471999645E-1,-2.122400045E0
1.596000000E0,-5.170999765E-1,-4.463999867E-1,-2.502099991E0
1.625998437E0,-1.419000030E-1,-4.727999866E-1,-1.911700010E0
1.646000000E0,-4.030000046E-2,-3.958999813E-1,-1.648800015E0
1.666000000E0,4.319999740E-2,-3.096999824E-1,-1.591899991E0
1.695998437E0,1.153999940E-1,-7.310000062E-2,-1.216899991E0
1.715998437E0,1.727999896E-1,1.136999950E-1,-8.021000028E-1
1.736000000E0,1.407999992E-1,2.919999957E-1,-2.886999846E-1
1.765998437E0,4.690000042E-2,3.628000021E-1,-3.342999816E-1
1.785998437E0,1.085999981E-1,4.113999903E-1,-7.659999728E-1
1.806000000E0,1.431999952E-1,4.068999887E-1,-9.738999605E-1
1.826000000E0,-1.513999999E-1,4.026999772E-1,-9.957000017E-1
1.855998437E0,-6.845999956E-1,6.276999712E-1,-8.190000057E-1
1.875998437E0,-8.041999936E-1,8.511999846E-1,-3.111999929E-1
1.895998437E0,-6.696999669E-1,1.190099955E0,8.989999443E-2
1.915998437E0,-1.266999990E-1,1.198499918E0,8.676999807E-1
1.935998437E0,4.068999887E-1,8.333999515E-1,1.459900022E0
1.955998437E0,6.208999753E-1,2.357999980E-1,1.706799984E0
1.975998437E0,8.683999777E-1,-6.049000025E-1,1.931499958E0
1.996000000E0,9.957999587E-1,-1.298299909E0,2.336799860E0
2.016000000E0,5.862999558E-1,-1.719799995E0,2.703799963E0
2.046000000E0,4.733999968E-1,-1.935599923E0,2.284199953E0
2.075998437E0,2.345999956E0,-2.079699993E0,1.560999990E0
2.096000000E0,3.334599972E0,-1.950099945E0,9.880999923E-1
2.116000000E0,3.348099947E0,-1.702499986E0,5.191999674E-1
2.145998437E0,1.829100013E0,-8.467999697E-1,1.649999917E-1
2.166000000E0,1.082999945E0,-2.016000003E-1,2.422999889E-1
2.195998437E0,7.895999551E-1,5.884000063E-1,2.400000021E-2
2.215998437E0,6.072999835E-1,8.833999634E-1,-4.168999791E-1
2.236000000E0,1.058999971E-1,1.220999956E0,-9.205999970E-1
2.265998437E0,-1.331099987E0,2.111199856E0,-1.061200023E0
2.285998437E0,-1.851899981E0,1.985699892E0,-8.323999643E-1
2.306000000E0,-2.016099930E0,1.221300006E0,-5.748999715E-1
2.326000000E0,-2.141599894E0,4.986999929E-1,1.788999885E-1
2.355998437E0,-2.338000059E0,-2.105000019E-1,1.535099983E0
2.376000000E0,-2.649999857E0,-2.784999907E-1,1.997799993E0
2.405998437E0,-2.475100040E0,-1.376999915E-1,1.126999974E0
2.425998437E0,-1.842799902E0,2.009999938E-2,7.044000030E-1
2.445998437E0,-1.021000028E0,1.946000010E-1,6.746000051E-1
2.465998437E0,-5.540999770E-1,5.291999578E-1,1.146299958E0
2.485998437E0,-3.902999759E-1,9.182999730E-1,1.726399899E0
2.505998437E0,-1.671999991E-1,1.106099963E0,2.589999914E0
2.526000000E0,1.112999991E-1,6.949999928E-1,2.611399889E0
2.555998437E0,-3.228999972E-1,-8.009999990E-2,1.086199999E0
2.575998437E0,-1.326399922E0,-3.564999998E-1,5.835999846E-1
2.595998437E0,-1.290300012E0,-1.330999970E0,1.151299953E0
2.616000000E0,-5.781999826E-1,-2.346299887E0,2.091899872E0
2.645998437E0,-3.965999782E-1,-3.401999950E0,2.967000008E0
2.666000000E0,-8.262000084E-1,-3.459999800E0,2.064899921E0
2.696000000E0,-6.886999607E-1,-3.152599812E0,6.309999526E-2
2.725998437E0,-2.296999991E-1,-2.841799974E0,-1.200799942E0
2.745998437E0,1.937000006E-1,-2.595299959E0,-1.777799964E0
2.765998437E0,5.565999746E-1,-2.263599873E0,-2.077800035E0
2.785998437E0,6.231999993E-1,-2.024100065E0,-2.106999874E0
2.806000000E0,6.803999543E-1,-1.934099913E0,-2.243199825E0
2.826000000E0,8.877999783E-1,-1.836099982E0,-2.669699907E0
2.855998437E0,8.897999525E-1,-1.555400014E0,-3.032699823E0
2.875998437E0,9.281999469E-1,-1.392799973E0,-3.341699839E0
2.895998437E0,1.182600021E0,-1.197999954E0,-3.596699953E0
2.915998437E0,1.251099944E0,-7.876999974E-1,-3.528499842E0
2.935998437E0,1.026799917E0,-3.035999835E-1,-3.280499935E0
2.956000000E0,1.038399935E0,4.189999774E-2,-2.111700058E0
2.976000000E0,1.215699911E0,-1.481999904E-1,-3.953999877E-1
3.005998437E0,9.014999866E-1,-1.863999963E-1,2.000999928E0
3.026000000E0,7.583000064E-1,2.292999923E-1,2.808300018E0
3.046000000E0,9.781000018E-1,3.725999892E-1,3.208099842E0
3.066000000E0,7.166999578E-1,4.944999814E-1,2.590699911E0
3.086000000E0,3.265999854E-1,7.542999983E-1,2.510399818E0
3.106000000E0,4.703999758E-1,8.127999902E-1,2.730799913E0
3.126000000E0,5.496999621E-1,1.079399943E0,2.831099987E0
3.146000000E0,1.011799932E0,8.810999990E-1,2.859699965E0
3.166000000E0,1.750199914E0,2.779999934E-2,3.081300020E0
3.186000000E0,1.291000009E0,-2.656999826E-1,4.016799927E0
3.206000000E0,5.102999806E-1,-8.854999542E-1,5.554699898E0
3.226000000E0,1.767999977E-1,-1.430899978E0,5.738599777E0
3.246000000E0,3.213000000E-1,-1.576099992E0,4.149300098E0
3.266000000E0,8.277999759E-1,-1.455799937E0,1.992799997E0
3.286000000E0,1.678699970E0,-1.524999976E0,1.406999975E-1
3.306000000E0,2.155599833E0,-1.547699928E0,-7.750999928E-1
3.326000000E0,2.197000027E0,-1.488399982E0,-1.513099909E0
3.356000000E0,1.432600021E0,-1.179700017E0,-2.569900036E0
3.376000000E0,9.120999575E-1,-1.138199925E0,-3.129799843E0
3.396000000E0,4.478999972E-1,-9.770999551E-1,-3.288100004E0
3.416000000E0,-1.000999957E-1,-6.259999871E-1,-3.259799957E0
3.436000000E0,-3.544999957E-1,-2.426999956E-1,-3.429600000E0
3.456000000E0,-3.366000056E-1,-1.421999931E-1,-3.434299946E0
3.476000000E0,-3.375000060E-1,-2.539999969E-2,-3.324599981E0
3.496000000E0,-5.022999644E-1,3.590000048E-2,-2.720399857E0
3.516000000E0,-8.960999846E-1,2.277999967E-1,-1.936399937E0
3.536001562E0,-1.076099992E0,2.645999789E-1,-1.283399940E0
3.566003125E0,-1.224799991E0,4.438000023E-1,-5.378999710E-1
3.596000000E0,-9.217000008E-1,5.249999762E-1,4.684999883E-1
3.616000000E0,-1.196499944E0,6.656999588E-1,1.616199970E0
3.646000000E0,-1.169000030E0,6.822999716E-1,2.747900009E0
3.666000000E0,-1.183699965E0,8.112999797E-1,2.808099985E0
3.686000000E0,-1.260200024E0,6.645999551E-1,2.647099972E0
3.706000000E0,-1.754099965E0,9.904999733E-1,2.241699934E0
3.726000000E0,-1.016999960E0,2.820999920E-1,2.254400015E0
3.746000000E0,-5.435999632E-1,-1.334999949E-1,2.764799833E0
3.766000000E0,-9.552999735E-1,-7.959999889E-2,2.993899822E0
3.786000000E0,-2.250499964E0,2.760999799E-1,1.732800007E0
3.806000000E0,-2.941699982E0,5.157999992E-1,2.303999960E-1
3.826000000E0,-2.685699940E0,3.989999741E-2,-7.786999941E-1
3.856000000E0,-2.246000051E0,-6.322000027E-1,-7.838000059E-1
3.876000000E0,-2.385299921E0,-8.837999701E-1,-7.346999645E-1
3.896000000E0,-2.343699932E0,-1.137899995E0,-8.899999857E-1
3.916000000E0,-1.848999977E0,-1.258899927E0,-1.201099992E0
3.936000000E0,-1.284099936E0,-1.213799953E0,-1.472700000E0
3.956001562E0,-8.817999959E-1,-1.214100003E0,-1.997099996E0
3.986000000E0,-2.921999991E-1,-1.079200029E0,-2.792599916E0
4.006000000E0,-3.599999938E-3,-1.007699966E0,-2.690299988E0
4.026000000E0,1.612000018E-1,-1.049999952E0,-2.776899815E0
4.046000000E0,2.786999941E-1,-9.501000047E-1,-2.708600044E0
4.066001562E0,4.806999862E-1,-9.775999784E-1,-2.488499880E0
4.096000000E0,7.536999583E-1,-9.796999693E-1,-2.502499819E0
4.116000000E0,4.072999954E-1,-6.994999647E-1,-1.956599951E0
4.136000000E0,-1.946000010E-1,-2.768999934E-1,-6.643999815E-1
4.156000000E0,-4.514999986E-1,-1.010999978E-1,1.331300020E0
4.176000000E0,-5.252000093E-1,1.889999956E-2,1.968999982E0
4.196000000E0,-3.477999866E-1,1.247999966E-1,1.582199931E0
4.216000000E0,9.629999846E-2,4.549999908E-2,2.071899891E0
4.236000000E0,8.359999955E-2,3.225999773E-1,2.704299927E0
4.256000000E0,-7.959999889E-2,3.650999963E-1,3.508999825E0
4.276000000E0,1.055500031E0,-4.736000001E-1,3.706599951E0
4.296000000E0,2.033499956E0,-1.097899914E0,4.814199924E0
4.316000000E0,2.540599823E0,-1.511999965E0,5.883699894E0
4.346000000E0,2.319599867E0,-1.317999959E0,4.103099823E0
4.375998437E0,2.014899969E0,-8.115999699E-1,7.322999835E-1
4.396000000E0,2.388299942E0,-6.924999952E-1,-2.311999947E-1
4.425998437E0,3.075699806E0,-8.896999955E-1,-9.708999991E-1
4.445998437E0,2.741699934E0,-9.807999730E-1,-7.278999686E-1
4.465998437E0,1.848599911E0,-9.210000038E-1,-7.014999986E-1
4.485998437E0,1.211199999E0,-7.008000016E-1,-1.104499936E0
4.505998437E0,1.041499972E0,-4.245999753E-1,-1.995799899E0
4.526000000E0,8.104999661E-1,-1.959999949E-1,-2.619899988E0
4.546000000E0,6.062999964E-1,-2.620000020E-2,-2.970799923E0
4.566000000E0,3.817999959E-1,3.049999848E-2,-3.349900007E0
4.595998437E0,2.769999951E-2,7.169999927E-2,-3.099200010E0
4.615998437E0,-2.247999907E-1,8.949999511E-2,-2.352799892E0
4.635998437E0,-4.157999754E-1,1.847999990E-1,-1.674799919E0
4.655998437E0,-3.966999948E-1,2.741999924E-1,-1.064499974E0
4.675998437E0,-3.770999908E-1,1.616999954E-1,-5.331999660E-1
4.696000000E0,-5.317999721E-1,1.077999994E-1,-3.199999779E-2
4.716000000E0,-5.898999572E-1,9.269999713E-2,1.447999924E-1
4.736001562E0,-7.518999577E-1,3.790999949E-1,1.838999987E-1
4.766000000E0,-7.170999646E-1,6.234999895E-1,3.779000044E-1
4.786000000E0,-9.203999639E-1,7.095999718E-1,6.890000105E-1
4.806000000E0,-7.748000026E-1,6.028999686E-1,1.322700024E0
4.826000000E0,-7.522999644E-1,6.719999909E-1,1.885999918E0
4.855998437E0,-9.339999557E-1,7.213000059E-1,1.951099992E0
4.875998437E0,-1.089100003E0,5.554999709E-1,1.776399970E0
4.895998437E0,-2.894999981E-1,-4.357999861E-1,2.532999992E0
4.915998437E0,2.060000040E-2,-9.048999548E-1,3.283999920E0
4.935998437E0,-1.063999981E-1,-8.501999974E-1,3.720099926E0
4.955998437E0,-6.207999587E-1,-7.148999572E-1,2.897199869E0
4.975998437E0,-5.515999794E-1,-7.163000107E-1,1.304700017E0
4.996009375E0,-1.393000036E-1,-8.375999928E-1,-3.267999887E-1
5.026000000E0,-3.949999809E-2,-6.236999631E-1,-2.030900002E0
5.055998437E0,-4.326999784E-1,-4.267999828E-1,-2.040799856E0
5.076000000E0,-3.340999782E-1,-4.760999978E-1,-2.443099976E0
5.096000000E0,-1.288999915E-1,-1.987999976E-1,-2.454699993E0
5.116000000E0,1.322999895E-1,-1.442999989E-1,-2.184700012E0
5.145998437E0,1.184000000E-1,9.250000119E-2,-1.800399899E0
5.166000000E0,-2.109999955E-2,6.619999558E-2,-1.793299913E0
5.195998437E0,3.219999745E-2,1.592999995E-1,-1.787099957E0
5.215998437E0,2.924999893E-1,3.393999934E-1,-2.503700018E0
5.236000000E0,5.110999942E-1,3.194999993E-1,-3.160599947E0
5.265998437E0,4.160999954E-1,5.487999916E-1,-1.936399937E0
5.285998437E0,2.656999826E-1,6.632999778E-1,-4.084999859E-1
5.305998437E0,2.574999928E-1,4.143999815E-1,3.551999927E-1
5.326000000E0,5.706999898E-1,1.930999905E-1,6.692000031E-1
5.355998437E0,9.638999701E-1,2.302999943E-1,2.190999985E0
5.375998437E0,5.594999790E-1,1.990999877E-1,3.320199966E0
5.396000000E0,4.889999703E-2,9.669999778E-2,3.586799860E0
5.416000000E0,2.116999924E-1,-2.795999944E-1,3.804999828E0
5.445998437E0,-4.360000044E-2,1.077999994E-1,3.517699957E0
5.465998437E0,2.821999788E-1,-6.260000169E-2,3.228600025E0
5.485998437E0,8.748999834E-1,-8.047999740E-1,4.295799732E0
5.505998437E0,7.566999793E-1,-1.362900019E0,6.009099960E0
5.526000000E0,-1.388999969E-1,-1.227399945E0,5.787899971E0
5.546000000E0,-6.150000095E-1,-9.152999520E-1,2.799999952E0
5.576004687E0,2.987999916E-1,-8.669999987E-2,-2.132200003E0
5.606000000E0,7.509999871E-1,2.450999916E-1,-2.787799835E0
5.626000000E0,1.013700008E0,1.640000008E-2,-2.221499920E0
5.646000000E0,9.095000029E-1,-1.875000000E-1,-2.026499987E0
5.666000000E0,6.323999763E-1,-1.750999987E-1,-2.174700022E0
5.686001562E0,3.729999959E-1,-5.829999968E-2,-2.901499987E0
5.716000000E0,-3.901999891E-1,6.635999680E-1,-3.931999922E0
5.736000000E0,-5.309999585E-1,9.669999480E-1,-4.567800045E0
5.756000000E0,-4.943999946E-1,9.455999732E-1,-4.739399910E0
5.776000000E0,-7.256999612E-1,1.011199951E0,-3.889699936E0
5.796000000E0,-1.009400010E0,8.504999876E-1,-2.425499916E0
5.816000000E0,-1.444000006E0,6.991999745E-1,-1.709499955E0
5.836000000E0,-1.905900002E0,7.755999565E-1,-1.208999991E0
5.856000000E0,-1.474999905E0,3.987999856E-1,-3.858000040E-1
5.876000000E0,-9.981999993E-1,1.834999919E-1,7.782999873E-1
5.896000000E0,-5.988000035E-1,-2.342000008E-1,2.421200037E0
5.925998437E0,-3.937000036E-1,-4.255999923E-1,5.062099934E0
5.945998437E0,-1.642999947E-1,-5.227000117E-1,6.021699905E0
5.966000000E0,6.269999593E-2,-2.000999898E-1,5.815599918E0
5.995998437E0,-1.218999997E-1,5.855000019E-1,3.209100008E0
6.015998437E0,-2.496999949E-1,7.317999601E-1,1.997299910E0
6.036000000E0,2.441999912E-1,9.409999847E-2,2.042599916E0
6.056000000E0,4.475999773E-1,-2.820999920E-1,3.080899954E0
6.085998437E0,-4.064999819E-1,-4.118999839E-1,2.284800053E0
6.106000000E0,-1.432899952E0,-2.380999923E-1,2.310999930E-1
6.135998437E0,-1.786399961E0,-2.894999981E-1,-2.323799849E0
6.155998437E0,-1.425899982E0,-1.289999932E-1,-1.896299958E0
6.175998437E0,-6.049999595E-1,-3.471999764E-1,-9.580000043E-1
6.195998437E0,-1.735999882E-1,-6.292999983E-1,-8.653999567E-1
6.215998437E0,-1.718000025E-1,-5.863999724E-1,-1.348099947E0
6.235998437E0,-2.967000008E-1,-6.416000128E-1,-2.112400055E0
6.255998437E0,-2.836000025E-1,-6.179999709E-1,-2.619599819E0
6.275998437E0,-2.234999985E-1,-5.504999757E-1,-2.871599913E0
6.295998437E0,-7.599999756E-2,-5.393999815E-1,-3.064299822E0
6.316000000E0,8.159999549E-2,-4.982999861E-1,-3.206899881E0
6.345998437E0,2.232999951E-1,-3.492999971E-1,-3.257299900E0
6.365998437E0,2.685999870E-1,-2.689999938E-1,-3.506500006E0
6.385998437E0,3.015999794E-1,-1.617999971E-1,-3.559199810E0
6.406000000E0,6.556000113E-1,-2.687999904E-1,-3.017899990E0
6.426000000E0,8.330999613E-1,-3.461000025E-1,-1.865099907E0
6.455998437E0,5.123999715E-1,-6.581000090E-1,6.705999970E-1
6.475998437E0,1.525999904E-1,-6.328999996E-1,2.044399977E0
6.495998437E0,2.628000081E-1,-6.327999830E-1,2.266199827E0
6.515998437E0,4.849999845E-1,-3.382000029E-1,2.322000027E0
6.536000000E0,5.902000070E-1,-6.999999750E-4,2.876899958E0
6.566000000E0,5.904999971E-1,2.545000017E-1,3.372399807E0
6.596000000E0,8.791999817E-1,1.419999897E-1,3.047199965E0
6.616000000E0,1.488699913E0,-3.734999895E-1,4.186399937E0
6.645998437E0,1.087899923E0,-9.817999601E-1,6.871899605E0
6.666000000E0,1.600999981E-1,-9.666000009E-1,5.618499756E0
6.686000000E0,-4.309999943E-2,-6.743999720E-1,2.696699858E0
6.706000000E0,5.338000059E-1,-4.277999997E-1,2.342000008E-1
6.726000000E0,1.406799912E0,-4.132999778E-1,-1.261799932E0
6.746000000E0,1.862100005E0,-2.080999911E-1,-2.203999996E0
6.766000000E0,1.469499946E0,4.529999942E-2,-2.642799854E0
6.786000000E0,9.702999592E-1,5.829999968E-2,-3.216099977E0
6.816001562E0,3.594999909E-1,4.030000046E-2,-4.382999897E0
6.845998437E0,1.049999986E-2,1.430999935E-1,-4.803599834E0
6.865998437E0,-1.237999946E-1,1.885999888E-1,-4.496099949E0
6.885998437E0,-1.944999993E-1,2.653000057E-1,-3.730499983E0
6.905998437E0,-3.218999803E-1,2.926000059E-1,-3.250399828E0
6.926000000E0,-3.551000059E-1,2.217999995E-1,-2.544699907E0
6.955998437E0,-7.588999867E-1,1.112999991E-1,-1.437699914E0
6.975998437E0,-6.133999825E-1,1.379999984E-2,-4.772999883E-1
6.995998437E0,-1.737999916E-1,-2.063999921E-1,4.632000029E-1
7.015998437E0,1.404999942E-1,-3.809999824E-1,1.707599998E0
7.035998437E0,3.761000037E-1,-5.212999582E-1,3.148200035E0
7.056000000E0,3.811999857E-1,-6.854000092E-1,4.254600048E0
7.085998437E0,3.399999812E-2,-4.700999856E-1,4.356699944E0
7.105998437E0,-1.643999964E-1,-1.743000001E-1,3.633699894E0
7.125998437E0,-4.079999924E-1,2.260999978E-1,2.821699858E0
7.145998437E0,-6.721000075E-1,5.439000130E-1,2.042000055E0
7.166000000E0,-3.502999842E-1,2.885999978E-1,1.473299980E0
7.196000000E0,-1.705999970E-1,-3.299999982E-3,1.798799992E0
7.225998437E0,-5.712000132E-1,-5.072999597E-1,1.495700002E0
7.246000000E0,-5.018999577E-1,-6.485999823E-1,5.468999743E-1
7.275998437E0,-5.969999731E-2,-8.779000044E-1,1.481000036E-1
7.295998437E0,-2.557999790E-1,-8.800999522E-1,2.176999897E-1
7.316000000E0,-4.691999853E-1,-8.563999534E-1,-1.829999983E-1
7.346000000E0,-5.019999743E-1,-6.915999651E-1,-1.718400002E0
7.375998437E0,-2.213999927E-1,-5.148999691E-1,-3.222699881E0
7.395998437E0,-1.941999942E-1,-3.188999891E-1,-3.815699816E0
7.415998437E0,-3.500999808E-1,-2.432999909E-1,-3.851199865E0
7.435998437E0,-4.043999910E-1,-2.716999948E-1,-4.003600121E0
7.455998437E0,-2.956999838E-1,-2.113999873E-1,-4.303800106E0
7.476000000E0,-1.525999904E-1,-2.889999934E-2,-4.176199913E0
7.505998437E0,-5.959999934E-2,-5.219999701E-2,-3.397699833E0
7.526000000E0,1.178999990E-1,-3.130000085E-2,-2.553099871E0
7.546000000E0,-3.899999894E-3,-4.930000007E-2,-1.518800020E0
7.575998437E0,-3.691000044E-1,-1.639999896E-1,-1.250000000E-1
7.596000000E0,-3.181999922E-1,-9.999999776E-3,5.482999682E-1
7.626000000E0,5.939999968E-2,6.480000168E-2,1.802199960E0
7.655998437E0,7.449999452E-2,6.072999835E-1,2.861699820E0
7.675998437E0,1.089999974E-1,8.868999481E-1,2.823099852E0
7.695998437E0,1.298999935E-1,1.184599996E0,2.598299980E0
7.715998437E0,4.354999959E-1,1.082299948E0,2.687899828E0
7.735998437E0,8.391999602E-1,8.793999553E-1,2.601199865E0
7.755998437E0,1.932299972E0,2.289000005E-1,2.612599850E0
7.776000000E0,2.548099995E0,-3.597999811E-1,3.676199913E0
7.805998437E0,1.983399987E0,-1.253399968E0,5.247299671E0
7.826000000E0,1.887699962E0,-1.783399940E0,5.076099873E0
7.855998437E0,2.903199911E0,-2.399899960E0,3.126199961E0
7.875998437E0,2.702899933E0,-2.123600006E0,1.937399983E0
7.895998437E0,1.994199991E0,-1.848399997E0,9.115999937E-1
7.915998437E0,1.610799909E0,-1.709199905E0,-4.817999899E-1
7.935998437E0,1.615199924E0,-1.464800000E0,-2.009199858E0
7.955998437E0,1.598999977E0,-9.530999660E-1,-2.710000038E0
7.975998437E0,1.289999962E0,-4.986999929E-1,-2.878700018E0
7.995998437E0,7.475000024E-1,-1.653999984E-1,-3.184099913E0
8.015998437E0,2.723000050E-1,2.869999968E-2,-3.558300018E0
8.035998437E0,3.680000082E-2,2.088999897E-1,-4.137700081E0
8.056000000E0,3.539999947E-2,3.768999875E-1,-4.598799706E0
8.076000000E0,-6.409999728E-2,4.918999970E-1,-4.598599911E0
8.096000000E0,-2.608999908E-1,5.515999794E-1,-3.872799873E0
8.116000000E0,-5.945999622E-1,5.654000044E-1,-3.097999811E0
8.146000000E0,-1.009199977E0,5.928999782E-1,-2.313099861E0
8.166000000E0,-1.135800004E0,6.822999716E-1,-1.557399988E0
8.186000000E0,-1.058300018E0,7.346000075E-1,-4.483999908E-1
8.206000000E0,-1.109499931E0,8.492999673E-1,7.881999612E-1
8.226000000E0,-1.277599931E0,8.465999961E-1,2.211899996E0
8.246000000E0,-1.089699984E0,7.827000022E-1,3.743799925E0
8.266000000E0,-8.014000058E-1,7.462999821E-1,4.501100063E0
8.286000000E0,-9.857999682E-1,8.611999750E-1,4.902299881E0
8.316000000E0,-1.685599923E0,7.534999847E-1,4.456200123E0
8.336000000E0,-2.052399874E0,7.346999645E-1,3.011199951E0
8.365998437E0,-1.652300000E0,2.278999984E-1,1.404699922E0
8.385998437E0,-5.703999996E-1,-5.250999928E-1,2.593899965E0
8.405998437E0,-2.823999822E-1,-1.492699981E0,5.715199947E0
8.425998437E0,-7.042999864E-1,-1.889299989E0,6.386199951E0
8.445998437E0,-1.655200005E0,-1.473500013E0,3.092299938E0
8.465998437E0,-1.537599921E0,-8.694999814E-1,-6.287999749E-1
8.485998437E0,-9.351999760E-1,-5.981999636E-1,-2.912600040E0
8.505998437E0,-2.554000020E-1,-3.786999881E-1,-3.241600037E0
8.526000000E0,3.122999966E-1,-3.953000009E-1,-2.909299850E0
8.546000000E0,3.227999806E-1,-4.314000010E-1,-2.821300030E0
8.566000000E0,-6.560000032E-2,-6.997999549E-1,-2.757499933E0
8.595998437E0,-8.378999829E-1,-7.856999636E-1,-2.543499947E0
8.615998437E0,-1.145499945E0,-6.827999949E-1,-2.627799988E0
8.635998437E0,-1.122699976E0,-5.999000072E-1,-2.894500017E0
8.655998437E0,-9.361000061E-1,-4.621999860E-1,-3.227900028E0
8.675998437E0,-6.945999861E-1,-3.143999875E-1,-3.482100010E0
8.696000000E0,-4.020999968E-1,-2.921999991E-1,-3.737299919E0
8.725998437E0,-2.419999987E-2,-1.683999896E-1,-3.269999981E0
8.745998437E0,2.184000015E-1,-2.430000007E-1,-2.460799932E0
8.765998437E0,4.876999855E-1,-2.071999907E-1,-1.514499903E0
8.785998437E0,1.024099946E0,-3.443000019E-1,-6.290000081E-1
8.806000000E0,9.536999464E-1,-3.369999826E-1,6.502999663E-1
8.826000000E0,5.291999578E-1,-2.495999932E-1,2.010599852E0
8.855998437E0,-1.284999996E-1,2.195999920E-1,2.572499990E0
8.875998437E0,1.689999998E-1,3.111999929E-1,2.761600018E0
8.895998437E0,8.193999529E-1,4.475999773E-1,3.453199863E0
8.915998437E0,6.341999769E-1,5.661999583E-1,4.689599991E0
8.935998437E0,-1.123999953E-1,4.515999854E-1,5.837899685E0
8.956000000E0,2.832999825E-1,-4.129999876E-1,4.305799961E0
8.976000000E0,7.701999545E-1,-5.529999733E-1,2.332900047E0
9.005998437E0,1.484200001E0,-1.591699958E0,2.149999857E0
9.026000000E0,1.542999983E0,-2.014199972E0,2.921399832E0
9.055998437E0,1.047199965E0,-1.609499931E0,2.096699953E0
9.075998437E0,1.335399985E0,-1.106500030E0,2.259999886E-2
9.095998437E0,1.868600011E0,-6.164000034E-1,-1.932500005E0
9.115998437E0,2.434099913E0,-3.991999924E-1,-2.981699944E0
9.135998437E0,2.456599951E0,-2.457999885E-1,-2.980499983E0
9.155998437E0,1.853199959E0,-3.868999779E-1,-2.401099920E0
9.175998437E0,9.488999844E-1,-2.973999977E-1,-2.223299980E0
9.195998437E0,2.497999966E-1,1.171000004E-1,-1.966799974E0
9.215998437E0,3.929999843E-2,2.997999787E-1,-2.289399862E0
9.235998437E0,1.924999952E-1,4.767999947E-1,-3.025099993E0
9.255998437E0,2.937999964E-1,7.351999879E-1,-3.643599987E0
9.276000000E0,8.049999923E-2,8.827999830E-1,-3.604699850E0
9.305998437E0,-6.841999888E-1,9.084999561E-1,-2.899099827E0
9.326000000E0,-8.841999769E-1,8.606999516E-1,-2.674700022E0
9.355998437E0,-7.542999983E-1,9.960999489E-1,-1.058599949E0
9.375998437E0,-9.927999973E-1,7.953999639E-1,9.606999755E-1
9.395998437E0,-1.018899918E0,1.960999966E-1,2.734899998E0
9.415998437E0,-6.252999902E-1,-4.315999746E-1,3.941999912E0
9.435998437E0,-6.629999876E-1,-4.612999856E-1,6.024899960E0
9.456000000E0,-7.414999604E-1,-3.486000001E-1,7.911899567E0
9.485998437E0,-1.516199946E0,2.741000056E-1,4.990699768E0
9.505998437E0,-1.431199908E0,6.832999587E-1,2.327100039E0
9.526000000E0,-6.116999984E-1,4.350000024E-1,1.937799931E0
9.546000000E0,4.072999954E-1,-2.187999934E-1,2.842499971E0
9.566000000E0,3.468999863E-1,-5.302999616E-1,3.578599930E0
9.586000000E0,-7.172999978E-1,-6.739999652E-1,1.764099956E0
9.606000000E0,-1.557799935E0,-3.048999906E-1,-8.606999516E-1
9.626000000E0,-1.363499999E0,-2.249999940E-1,-3.056599855E0
9.646000000E0,-7.064999938E-1,-3.700000001E-3,-3.359099865E0
9.666000000E0,1.744999886E-1,-1.888999939E-1,-2.607800007E0
9.686000000E0,4.314000010E-1,-4.561999738E-1,-2.013499975E0
9.706000000E0,-7.999999821E-2,-7.037000060E-1,-1.992899895E0
9.726000000E0,-8.446999788E-1,-6.689999700E-1,-2.233899832E0
9.746000000E0,-1.472100019E0,-5.683000088E-1,-2.079900026E0
9.766000000E0,-1.374799967E0,-5.569999814E-1,-2.187099934E0
9.786000000E0,-1.007099986E0,-2.939999998E-1,-2.783200026E0
9.806000000E0,-5.401999950E-1,-2.719999850E-2,-3.457299948E0
9.826000000E0,-4.100999832E-1,1.190999970E-1,-3.827399969E0
9.856000000E0,-3.146999776E-1,2.362999916E-1,-3.354699850E0
9.876000000E0,-7.369999588E-2,1.879999936E-1,-2.609999895E0
9.896000000E0,2.404999882E-1,1.030999944E-1,-1.161800027E0
9.916000000E0,1.616999954E-1,-1.288999915E-1,3.312000036E-1
9.936000000E0,7.779999822E-2,-4.713999927E-1,1.509099960E0
9.956000000E0,1.724999994E-1,-9.503999949E-1,2.749500036E0
9.976000000E0,4.846999943E-1,-8.894000053E-1,4.269199848E0
9.996000000E0,9.941999912E-1,-5.256000161E-1,4.652999878E0
1.002600000E1,8.395999670E-1,-1.741999984E-1,3.743299961E0
1.004600000E1,3.242999911E-1,7.549999654E-2,2.850899935E0
1.006600000E1,9.203999639E-1,-3.127999902E-1,2.114799976E0
1.008600000E1,2.234200001E0,-9.619999528E-1,2.487799883E0
1.010600000E1,2.524299860E0,-1.863299966E0,3.903699875E0
1.012600000E1,1.540799975E0,-2.135400057E0,5.057799816E0
1.014600000E1,4.300999939E-1,-2.067199945E0,3.530299902E0
1.016600000E1,2.471999973E-1,-1.517899990E0,8.295999765E-1
1.018600000E1,9.950999618E-1,-9.030999541E-1,-1.153399944E0
1.021600000E1,2.352499962E0,-5.254999995E-1,-2.298099995E0
1.023600000E1,1.853199959E0,-2.436999977E-1,-2.640599966E0
1.025600000E1,9.607999921E-1,-1.262999922E-1,-2.729199886E0
1.027600000E1,3.744999766E-1,-9.999999776E-3,-3.023799896E0
1.029600000E1,2.064999938E-1,1.394999921E-1,-3.406299829E0
1.032600156E1,3.985999823E-1,4.082999825E-1,-3.248399973E0
1.035600000E1,2.696999907E-1,5.880999565E-1,-3.501999855E0
1.037600000E1,1.975999922E-1,6.876999736E-1,-3.746699810E0
1.039600156E1,1.488000005E-1,6.900999546E-1,-3.404299974E0
1.042600000E1,7.199999876E-3,6.642999649E-1,-2.289399862E0
1.044600000E1,-2.675999999E-1,6.836000085E-1,-1.202700019E0
1.046600000E1,-2.578999996E-1,6.250999570E-1,3.832999766E-1
1.048600000E1,2.766000032E-1,3.567999899E-1,1.899499893E0
1.050600000E1,8.513000011E-1,2.295999974E-1,2.719599962E0
1.052600000E1,7.701999545E-1,3.499999940E-1,3.316399813E0
1.054600000E1,1.064999998E-1,4.540999830E-1,4.190499783E0
1.057600000E1,-1.345299959E0,6.317999959E-1,4.233200073E0
1.059600156E1,-1.702600002E0,5.809000134E-1,3.754999876E0
1.062599844E1,-1.819700003E0,6.529999971E-1,3.023699999E0
1.064599844E1,-1.227699995E0,-1.488000005E-1,2.523799896E0
1.066599844E1,-1.238399982E0,-4.443999827E-1,2.236599922E0
1.068599844E1,-1.886500001E0,-5.981000066E-1,1.263299942E0
1.070599844E1,-2.453899860E0,-3.563999832E-1,-1.884000003E-1
1.072599844E1,-2.551199913E0,-3.755999804E-1,-1.685699940E0
1.074599844E1,-2.095399857E0,-2.374999970E-1,-2.132099867E0
1.076599844E1,-1.353199959E0,-1.462000012E-1,-1.424899936E0
1.078599844E1,-1.203799963E0,-3.916999996E-1,-6.328999996E-1
1.080599844E1,-1.651099920E0,-4.702000022E-1,-5.177000165E-1
1.082600000E1,-1.964899898E0,-5.217999816E-1,-8.824999928E-1
1.085599844E1,-2.097499847E0,-3.671999872E-1,-1.145799994E0
1.087599844E1,-1.886099935E0,-3.346999884E-1,-1.689999938E0
1.089599844E1,-1.404199958E0,-1.506000012E-1,-2.280599833E0
1.091599844E1,-9.269999862E-1,-6.579999626E-2,-2.693199873E0
1.093599844E1,-5.137000084E-1,2.209999971E-2,-2.834399939E0
1.095600000E1,-3.393999934E-1,1.413999945E-1,-2.575000048E0
1.098599844E1,-9.939999878E-2,4.809999838E-2,-1.946599960E0
1.100599844E1,-3.570000082E-2,5.859999731E-2,-1.701499939E0
1.102600000E1,4.513999820E-1,-1.181999967E-1,-1.260399938E0
1.104600000E1,7.705999613E-1,-2.250999957E-1,-1.338000000E-1
1.107599844E1,4.898999929E-1,-6.354999542E-1,2.046200037E0
1.109600000E1,2.226999998E-1,-6.664999723E-1,2.531299829E0
1.112599844E1,3.985999823E-1,-5.758999586E-1,1.940799952E0
1.114599844E1,4.746999741E-1,-6.491999626E-1,1.999199986E0
1.116599844E1,4.843999743E-1,-4.671999812E-1,2.409600019E0
1.118599844E1,1.238299966E0,-8.765999675E-1,2.778100014E0
1.120600000E1,1.470999956E0,-1.389699936E0,3.703299999E0
1.122600000E1,9.915999770E-1,-1.590699911E0,4.579400063E0
1.124600000E1,1.991999894E-1,-1.610700011E0,3.666699886E0
1.127599844E1,9.376999736E-1,-1.412500024E0,1.067499995E0
1.129599844E1,2.134799957E0,-1.464399934E0,-3.224999905E-1
1.131599844E1,2.751199961E0,-1.206399918E0,-1.289799929E0
1.133600000E1,2.542999983E0,-1.062699914E0,-1.865499973E0
1.136599844E1,1.786999941E0,-9.279999733E-1,-2.765100002E0
1.138600000E1,1.606199980E0,-8.644999862E-1,-3.388899803E0
1.140600000E1,1.675499916E0,-6.137999892E-1,-3.780799866E0
1.142600000E1,1.748999953E0,-3.265999854E-1,-3.878999949E0
1.144600000E1,1.592799902E0,-4.939999804E-2,-3.597499847E0
1.146600000E1,1.286800027E0,1.922999918E-1,-3.524499893E0
1.148600000E1,8.179999590E-1,5.206999779E-1,-3.152400017E0
1.150600000E1,3.920999765E-1,6.204000115E-1,-2.150599957E0
1.152600000E1,1.384999901E-1,5.888999701E-1,-1.126299977E0
1.154600156E1,-8.129999787E-2,7.595999837E-1,-2.939999849E-2
1.156600156E1,1.539999992E-1,4.768999815E-1,1.354799986E0
1.159600000E1,-1.005999967E-1,4.230999947E-1,2.748100042E0
1.161600000E1,-4.372999966E-1,4.603999853E-1,3.219300032E0
1.163600000E1,-6.545999646E-1,5.485999584E-1,3.526899815E0
1.165600000E1,-6.538000107E-1,4.668999910E-1,3.808199883E0
1.167600000E1,-7.073999643E-1,1.289999932E-1,4.111299992E0
1.169600000E1,-6.514999866E-1,-2.699999809E-1,4.131199837E0
1.171600000E1,-7.055999637E-1,-3.061999977E-1,3.701999903E0
1.173600000E1,-5.083999634E-1,-6.179999709E-1,2.529399872E0
1.175600000E1,-5.157999992E-1,-7.770000100E-1,7.912999988E-1
1.178600000E1,-7.713999748E-1,-6.176999807E-1,-1.208500028E0
1.180600000E1,-6.861000061E-1,-4.056999981E-1,-1.483199954E0
1.182600000E1,1.451999992E-1,-3.486999869E-1,-1.266600013E0
1.184600000E1,7.217999697E-1,-5.852000117E-1,-6.177999973E-1
1.186600000E1,4.964999855E-1,-6.633999944E-1,-1.114999950E-1
1.188600000E1,-1.114000008E-1,-7.117999792E-1,-5.999999703E-4
1.190600000E1,-7.148000002E-1,-8.057000041E-1,-6.360999942E-1
1.192600000E1,-8.022999763E-1,-7.421000004E-1,-2.018800020E0
1.194600000E1,-6.173999906E-1,-4.822999835E-1,-3.286499977E0
1.196600000E1,-6.213999987E-1,-3.289999813E-2,-3.862999916E0
1.198600000E1,-3.527999818E-1,-1.856999993E-1,-3.735899925E0
1.200600000E1,4.199999850E-3,-2.003999949E-1,-2.797999859E0
1.202600000E1,2.877999842E-1,-2.511000037E-1,-2.228199959E0
1.204600156E1,3.048999906E-1,-8.069999516E-2,-1.946399927E0
1.207600000E1,6.800000072E-1,1.727999896E-1,-1.617599964E0
1.209600000E1,8.682999611E-1,4.510999918E-1,-1.941199899E0
1.211600000E1,1.150499940E0,6.376000047E-1,-2.019099951E0
1.214600000E1,1.307199955E0,9.215999842E-1,-1.673399925E0
1.216600000E1,1.350099921E0,9.236999750E-1,-1.181800008E0
1.219599844E1,1.184999943E0,7.294999957E-1,-3.517999947E-1
1.221599844E1,7.662999630E-1,6.617999673E-1,4.686999917E-1
1.223599844E1,3.049999848E-2,5.153999925E-1,8.129000068E-1
1.225600000E1,-6.134999990E-1,6.323999763E-1,6.509999633E-1
1.227600000E1,-7.508999705E-1,7.624999881E-1,8.020000160E-2
1.230599844E1,-7.998999953E-1,1.201099992E0,-7.031999826E-1
1.232600000E1,-8.987999558E-1,1.383099914E0,-1.025099993E0
1.235599844E1,-7.044000030E-1,1.472299933E0,-7.900999784E-1
1.237599844E1,-8.828999996E-1,1.735999942E0,-4.990999997E-1
1.239599844E1,-9.918999672E-1,1.723500013E0,-3.561999798E-1
1.241599844E1,-1.177899957E0,1.775999904E0,-3.793999851E-1
1.243599844E1,-1.604099989E0,1.814000010E0,-1.448999941E-1
1.245599844E1,-1.709599972E0,1.771099925E0,3.549000025E-1
1.247599844E1,-1.379199982E0,1.597199917E0,1.400900006E0
1.249599844E1,-6.076999903E-1,9.523999691E-1,2.766299963E0
1.251599844E1,-3.454999924E-1,4.950999916E-1,3.359299898E0
1.253600000E1,-7.236999869E-1,4.842000008E-1,3.338199854E0
1.256599844E1,-1.074999928E0,9.109999537E-1,1.821699977E0
1.258599844E1,-7.655999660E-1,1.051900029E0,6.182000041E-1
1.260599844E1,-3.673000038E-1,8.039000034E-1,7.581999898E-1
1.262599844E1,-5.134999752E-1,6.588000059E-1,1.302500010E0
1.264599844E1,-6.154999733E-1,4.127999842E-1,1.707399964E0
1.266599844E1,-4.481999874E-1,1.799999969E-3,8.222999573E-1
1.268600000E1,1.021999940E-1,-4.878000021E-1,-6.448999643E-1
1.271599844E1,1.295899987E0,-1.055299997E0,-1.377699971E0
1.273599844E1,1.525299907E0,-1.430699944E0,-6.144999862E-1
1.275599844E1,8.364999890E-1,-1.587899923E0,-8.215000033E-1
1.277599844E1,-1.600999981E-1,-1.239899993E0,-1.852199912E0
1.279599844E1,-9.380999804E-1,-7.436000109E-1,-2.017699957E0
1.281599844E1,-9.203999639E-1,-6.387999654E-1,-1.534099936E0
1.283599844E1,-4.816999733E-1,-3.721999824E-1,-4.837999940E-1
1.285599844E1,-4.219000041E-1,-1.070000008E-1,-6.269999593E-2
1.287599844E1,-7.204999924E-1,4.445999861E-1,-1.035099983E0
1.289600000E1,-8.879999518E-1,8.626999855E-1,-1.860099912E0
1.291600000E1,-7.893999815E-1,1.184899926E0,-1.713400006E0
1.294599844E1,-7.583999634E-1,1.655200005E0,-9.480999708E-1
1.296600000E1,-5.065999627E-1,1.575899959E0,-7.225999832E-1
1.298600000E1,-1.762999892E-1,1.445400000E0,-1.343999952E-1
1.301599844E1,-3.919999897E-1,1.483500004E0,5.924999714E-1
1.303599844E1,-8.599999547E-1,1.542599916E0,1.124300003E0
1.305599844E1,-1.052299976E0,1.501699924E0,1.224399924E0
1.307599844E1,-8.675999641E-1,1.644299984E0,7.354999781E-1
1.309599844E1,-3.631999791E-1,1.728099942E0,3.979999945E-2
1.311599844E1,2.175999880E-1,1.669600010E0,-4.011999965E-1
1.313599844E1,4.728999734E-1,1.401399970E0,-1.754999906E-1
1.315599844E1,3.053999841E-1,7.405999899E-1,9.414999485E-1
1.317600000E1,-2.809999883E-2,-9.979999810E-2,1.792099953E0
1.319600000E1,-6.319000125E-1,-9.250000119E-2,2.288899899E0
1.322599844E1,-4.237999916E-1,2.054999918E-1,1.709100008E0
1.324600000E1,-2.009999938E-2,-4.769999906E-2,2.043400049E0
1.327599844E1,-3.486000001E-1,-7.504000068E-1,2.788899899E0
1.329600000E1,-1.229900002E0,-9.822999835E-1,1.437399983E0
1.331600000E1,-1.489899993E0,-8.886999488E-1,3.999999911E-2
1.333600000E1,-9.734999537E-1,-9.843999743E-1,-6.887999773E-1
1.335600000E1,-1.603000015E-1,-1.018399954E0,9.799999744E-2
1.337600000E1,-1.750000007E-2,-1.270499945E0,9.311999679E-1
1.339600000E1,-6.186999679E-1,-1.185599923E0,9.504999518E-1
1.342599844E1,-1.312799931E0,-1.171599984E0,3.019999899E-2
1.344599844E1,-1.041000009E0,-9.558999538E-1,-8.300999999E-1
1.346599844E1,-6.667000055E-1,-6.333000064E-1,-1.806800008E0
1.348599844E1,-3.470000029E-1,-3.743999898E-1,-2.557499886E0
1.350599844E1,-2.462999970E-1,-1.713999957E-1,-2.769999981E0
1.352600000E1,-5.767999887E-1,-1.572999954E-1,-2.552700043E0
1.354600000E1,-1.051800013E0,-5.141000152E-1,-2.581699848E0
1.356600000E1,-2.155400038E0,-5.724999905E-1,-2.405200005E0
1.359600000E1,-2.646899939E0,-6.969000101E-1,-1.965299964E0
1.361600000E1,-1.587599993E0,-5.011999607E-1,-1.573199987E0
1.364599844E1,1.586000025E-1,-9.039999545E-2,-1.042899966E0
1.366599844E1,2.960000038E-1,1.409000009E-1,-2.789999843E-1
1.368600000E1,2.838999927E-1,-5.590000004E-2,1.099599957E0
1.370600000E1,2.207999974E-1,-1.165999994E-1,2.310799837E0
1.372600000E1,1.615999937E-1,2.504000068E-1,2.807699919E0
1.374600000E1,9.253999591E-1,-2.600000007E-3,3.138899803E0
1.376600000E1,1.582399964E0,-9.255999923E-1,3.919799805E0
1.378600000E1,5.281000137E-1,-1.387399912E0,4.279500008E0
1.380600000E1,-5.009999871E-1,-1.413499951E0,3.261699915E0
1.382600000E1,1.960000023E-2,-1.325799942E0,1.086599946E0
1.385599844E1,1.759199977E0,-3.628999889E-1,-1.418099999E0
1.387599844E1,2.288899899E0,-1.783999950E-1,-1.605499983E0
1.389600000E1,1.590299964E0,-7.869999856E-2,-1.504899979E0
1.392600000E1,-4.669999704E-2,-2.983999848E-1,-1.195799947E0
1.395599844E1,-3.084000051E-1,-5.442000031E-1,-4.131000042E-1
1.397599844E1,-1.287000030E-1,-4.369999766E-1,2.545000017E-1
1.399599844E1,-1.869999990E-2,-2.037999928E-1,6.096000075E-1
1.401599844E1,-3.159999847E-2,-1.609999873E-2,-2.352999896E-1
1.403599844E1,-7.099999487E-2,3.449999988E-1,-1.243899941E0
1.405599844E1,5.599999800E-3,5.130999684E-1,-1.635899901E0
1.407599844E1,-6.279999763E-2,7.402999997E-1,-1.548200011E0
1.409599844E1,-1.479000002E-1,8.303999901E-1,-1.303099990E0
1.411600000E1,-1.150000002E-2,7.415999770E-1,-1.175300002E0
1.414599844E1,2.777999938E-1,5.724999905E-1,-1.067399979E0
1.416599844E1,1.375000030E-1,4.587000012E-1,-6.261999607E-1
1.418600000E1,-7.809999585E-2,3.506999910E-1,-4.481000006E-1
1.420600000E1,2.861999869E-1,1.216999963E-1,-3.282999992E-1
1.422600000E1,8.626999855E-1,6.899999827E-2,7.105999589E-1
1.424600000E1,1.147300005E0,-2.527999878E-1,1.951399922E0
1.426600000E1,1.193099976E0,-7.721999884E-1,2.838199854E0
1.429599844E1,1.043599963E0,-1.003499985E0,3.195799828E0
1.431599844E1,-3.830000013E-2,-6.819999963E-2,2.558199883E0
1.433600000E1,-1.080299973E0,8.751999736E-1,1.702999920E-1
1.436599844E1,-1.387599945E0,1.210500002E0,-3.544399977E0
1.438599844E1,-1.073400021E0,1.174799919E0,-3.148099899E0
1.440599844E1,-7.182999849E-1,6.031000018E-1,-1.217100024E0
1.442600000E1,-1.084800005E0,1.150999963E-1,4.551999867E-1
1.445599844E1,-1.771399975E0,-4.513999820E-1,4.517000020E-1
1.447600156E1,-2.042500019E0,-2.647999823E-1,-1.480000000E-2
1.450600469E1,-1.505899906E0,3.337000012E-1,-1.326999962E-1
1.453600000E1,-8.439999819E-1,9.705999494E-1,-2.031999975E-1
1.456600781E1,-2.248999923E-1,1.215199947E0,-1.303799987E0
1.459600938E1,-2.657999992E-1,1.156399965E0,-1.756199956E0
1.462599844E1,-1.091599941E0,1.408100009E0,-1.461399913E0
1.464600000E1,-1.248999953E0,1.547299981E0,-1.377799988E0
1.466600000E1,-9.735999703E-1,1.671800017E0,-6.542999744E-1
1.468600000E1,-5.292999744E-1,1.685599923E0,6.003000140E-1
1.470600000E1,-4.368999898E-1,1.798999906E0,1.601499915E0
1.472600000E1,-6.821999550E-1,1.880899906E0,1.709999919E0
1.474600000E1,-1.072700024E0,2.043999910E0,1.435199976E0
1.476600000E1,-9.045999646E-1,1.933099985E0,1.571699977E0
1.478600000E1,-6.759999990E-1,1.900999904E0,1.530299902E0
1.480600000E1,-6.942999959E-1,1.904299974E0,1.272799969E0
1.482600000E1,-8.612999916E-1,1.911700010E0,9.958999753E-1
1.484600000E1,-9.533999562E-1,2.025399923E0,7.784999609E-1
1.486600000E1,-6.010000110E-1,1.867699981E0,1.111599922E0
1.488600000E1,7.970000058E-2,1.463099957E0,1.985399961E0
1.491599844E1,3.545999825E-1,9.154999852E-1,2.565799952E0
1.493599844E1,4.599999785E-1,2.762999833E-1,2.526700020E0
1.495600000E1,5.924000144E-1,-5.839999914E-1,2.643199921E0
1.497600000E1,5.970000029E-1,-1.369699955E0,2.120800018E0
1.500599844E1,9.540999532E-1,-2.053299904E0,3.298999965E-1
1.502599844E1,1.670300007E0,-2.349799871E0,-4.262999892E-1
1.504600000E1,2.517999887E0,-2.468199968E0,-6.607999802E-1
1.507599844E1,2.496399879E0,-2.293799877E0,-1.254299998E0
1.509599844E1,1.617299914E0,-1.937899947E0,-1.798399925E0
1.511600000E1,9.706999660E-1,-1.561999917E0,-2.193399906E0
1.513600000E1,6.629999876E-1,-1.146999955E0,-2.295399904E0
1.516603750E1,6.873999834E-1,-3.076999784E-1,-2.248600006E0
1.519599844E1,7.771999836E-1,5.731999874E-1,-2.636800051E0
1.521599844E1,8.736999631E-1,9.758999944E-1,-2.635699987E0
1.523599844E1,7.728999853E-1,1.321099997E0,-2.146399975E0
1.525600000E1,5.557999611E-1,1.447999954E0,-1.756999969E0
1.528599844E1,1.413999945E-1,1.662799954E0,-1.387699962E0
1.530599844E1,-6.300000008E-3,1.778499961E0,-6.711999774E-1
1.532600000E1,-2.805999815E-1,1.845099926E0,3.638999760E-1
1.535599844E1,-3.245999813E-1,1.735799909E0,1.135999918E0
1.537599844E1,-5.978999734E-1,1.938099980E0,1.342899919E0
1.539600000E1,-1.036899924E0,1.849399924E0,2.167399883E0
1.542601250E1,-1.377300024E0,1.302399993E0,2.863199949E0
1.545600000E1,-9.617999792E-1,7.064999938E-1,2.367899895E0
1.548599844E1,-2.983999848E-1,1.493999958E-1,2.493599892E0
1.550599844E1,-5.782999992E-1,1.587999910E-1,2.503999949E0
1.552599844E1,-9.891999960E-1,2.505999804E-1,2.483299971E0
1.554600000E1,-1.028800011E0,1.177999973E-1,2.519399881E0
1.557599844E1,-1.064499974E0,-5.239999890E-1,9.382999539E-1
1.559599844E1,-9.590999484E-1,-9.243999720E-1,-6.209999919E-1
1.561600156E1,-7.186999917E-1,-7.608000040E-1,-1.955099940E0
1.563603438E1,-6.535999775E-1,-8.465999961E-1,-2.832999945E0
1.566600000E1,-1.834999919E-1,-1.922199965E0,-6.746000051E-1
1.568600000E1,-5.947999954E-1,-2.072399855E0,1.826599956E0
1.570600000E1,-1.424399972E0,-1.490799904E0,2.454599857E0
1.572600000E1,-7.705000043E-1,-6.214999557E-1,6.565999985E-1
1.574600000E1,9.735999703E-1,3.055999875E-1,-1.661999941E0
1.577599844E1,1.889299989E0,1.067799926E0,-2.236500025E0
1.579599844E1,1.788499951E0,6.287999749E-1,-2.004999876E0
1.581600000E1,1.294999957E0,-1.759999990E-2,-2.255599976E0
1.584599844E1,-1.344999969E-1,-2.861999869E-1,-2.624399900E0
1.586599844E1,-5.213999748E-1,-2.056999952E-1,-3.022599936E0
1.588600000E1,-1.322999895E-1,-2.184999883E-1,-2.790899992E0
1.591599844E1,4.544999897E-1,-2.290000021E-2,-6.334999800E-1
1.593599844E1,5.263999701E-1,3.351999819E-1,1.006999984E-1
1.595600000E1,4.034000039E-1,9.962999821E-1,5.590000004E-2
1.597600000E1,4.369999841E-2,1.551399946E0,-3.762999773E-1
1.600599844E1,-2.545999885E-1,1.903899908E0,-1.820999980E-1
1.602599844E1,-2.069999874E-1,1.844799995E0,6.256999969E-1
1.604600000E1,8.599999361E-3,1.632399917E0,1.275799990E0
1.607599844E1,-5.277000070E-1,1.664799929E0,1.603599906E0
1.609599844E1,-7.739999890E-1,1.441900015E0,1.684499979E0
1.611599844E1,-3.525999784E-1,8.431999683E-1,2.392999887E0
1.613599844E1,-1.264999956E-1,2.885999978E-1,3.755100012E0
1.615600000E1,-3.842999935E-1,-2.669000030E-1,4.376499653E0
1.617600000E1,-1.224200010E0,-6.951000094E-1,2.749699831E0
1.619600469E1,-9.984999895E-1,-8.987999558E-1,2.090999931E-1
1.622600000E1,7.437999845E-1,-1.099200010E0,-1.551800013E0
1.625600000E1,1.656700015E0,-1.412799954E0,-6.796000004E-1
1.628599844E1,4.526000023E-1,-1.824599981E0,-3.649999946E-2
1.630599844E1,-4.397999942E-1,-1.697299957E0,1.640999913E-1
1.632600000E1,-6.297999620E-1,-1.254199982E0,4.369999841E-2
1.634600000E1,-7.033999562E-1,-6.183999777E-1,-6.439999491E-2
1.637599844E1,-8.506999612E-1,-1.758999974E-1,-4.728999734E-1
1.639600000E1,-8.650999665E-1,-9.730000049E-2,-2.679600000E0
1.642599844E1,-1.360700011E0,6.291999817E-1,-4.916599751E0
1.644599844E1,-1.104900002E0,7.436999679E-1,-5.209899902E0
1.646600000E1,-6.349999905E-1,8.053999543E-1,-4.251999855E0
1.649600000E1,1.560000032E-1,1.079100013E0,-1.821599960E0
1.652599844E1,-2.922999859E-1,1.491199970E0,-6.920999885E-1
1.654600000E1,-4.493999779E-1,1.542500019E0,-4.540999830E-1
1.657600000E1,-2.055999935E-1,1.769099951E0,8.381999731E-1
1.659600000E1,3.779999912E-2,1.735099912E0,1.498199940E0
1.661600000E1,3.044999838E-1,1.800899982E0,2.345900059E0
1.663600000E1,8.238999844E-1,1.284299970E0,3.892599821E0
1.665600000E1,1.263199925E0,3.371999860E-1,5.617699623E0
1.668600156E1,1.935499907E0,-5.464999676E-1,4.242099762E0
1.671599844E1,1.519599915E0,-1.722999960E-1,1.516399980E0
1.673600000E1,1.487399936E0,-3.316999972E-1,1.587999940E0
1.675600000E1,1.404500008E0,-5.945000052E-1,1.449000001E0
1.677600000E1,2.325999886E-1,-9.339999408E-2,4.578999877E-1
1.680599844E1,-6.371999979E-1,3.064000010E-1,-1.130900025E0
1.682600000E1,-2.035999894E-1,1.797999889E-1,-8.768000007E-1
1.685599844E1,-5.320000052E-1,-3.183999956E-1,3.175999820E-1
1.687599844E1,-1.007799983E0,-6.620000005E-1,-1.894999892E-1
1.689599844E1,-1.451399922E0,-5.067999959E-1,-3.502999842E-1
1.691599844E1,-1.751500010E0,-3.057000041E-1,2.169999927E-1
1.693599844E1,-1.524999976E0,-3.484999835E-1,8.370000124E-2
1.695600000E1,-1.050199986E0,-6.419999897E-2,-1.220999956E0
1.698599844E1,-3.638999760E-1,2.319999933E-1,-2.580199957E0
1.700599844E1,1.445000023E-1,1.862999946E-1,-2.754999876E0
1.702599844E1,3.583000004E-1,3.673999906E-1,-2.960700035E0
1.704600000E1,2.035999894E-1,5.180000067E-1,-2.677199841E0
1.706600000E1,3.460000083E-2,5.766999722E-1,-1.963599920E0
1.708600000E1,-1.703999937E-1,6.233999729E-1,-1.464999914E0
1.710600000E1,-5.260000005E-2,6.584999561E-1,-1.446399927E0
1.712600000E1,2.009999901E-1,8.355000019E-1,-1.143399954E0
1.714600000E1,1.332999915E-1,8.488000035E-1,1.109999977E-2
1.716600000E1,1.685999930E-1,7.191999555E-1,9.406999946E-1
1.718600000E1,5.643000007E-1,5.317999721E-1,1.233399987E0
1.720600000E1,7.270999551E-1,7.270000130E-2,9.975000024E-1
1.722600000E1,5.522999763E-1,-6.740000099E-2,1.536299944E0
1.724600000E1,2.926000059E-1,2.644000053E-1,2.075000048E0
1.726600000E1,1.381899953E0,-5.819999799E-2,2.829799891E0
1.729599844E1,1.974599957E0,-1.105299950E0,5.062200069E0
1.731600000E1,3.881999850E-1,-1.313499928E0,5.480299950E0
1.734599844E1,2.953000069E-1,-1.378000021E0,3.239899874E0
1.736599844E1,1.968199968E0,-1.202999949E0,1.794299960E0
1.738599844E1,2.695999861E0,-5.500000119E-1,1.155599952E0
1.740599844E1,1.959800005E0,-9.659999609E-2,3.911999762E-1
1.742599844E1,6.334999800E-1,-7.679999620E-2,-5.295999646E-1
1.744599844E1,-1.437999904E-1,-9.079999477E-2,-1.705999970E0
1.746600000E1,-3.727999926E-1,2.869999968E-2,-2.500499964E0
1.749599844E1,-4.660999775E-1,3.008999825E-1,-3.656699896E0
1.751599844E1,-3.867000043E-1,4.858999848E-1,-4.655399799E0
1.753600000E1,-4.111999869E-1,5.321999788E-1,-4.870399952E0
1.756600000E1,-7.436000109E-1,5.558999777E-1,-3.177099943E0
1.758600000E1,-7.178999782E-1,5.956000090E-1,-2.699499846E0
1.760600000E1,-8.567999601E-1,7.843999863E-1,-2.339299917E0
1.762600000E1,-9.325999618E-1,8.129000068E-1,-1.302099943E0
1.764600000E1,-9.281999469E-1,9.053999782E-1,-5.385999680E-1
1.766600000E1,-8.424999714E-1,9.746999741E-1,2.158999890E-1
1.768600000E1,-6.270999908E-1,8.878999949E-1,6.962999701E-1
1.770600000E1,-1.306999922E-1,8.330000043E-1,1.431800008E0
1.772600000E1,5.996999741E-1,4.211999774E-1,2.383199930E0
1.774600000E1,1.001799941E0,3.757999837E-1,2.599999905E0
1.776600000E1,1.197899938E0,3.321999907E-1,2.640699863E0
1.778600000E1,1.214100003E0,-4.494999945E-1,3.604099989E0
1.780600000E1,7.249000072E-1,-1.197999954E0,4.549200058E0
1.782600000E1,-8.495000005E-1,-9.411000013E-1,3.691299915E0
1.784600000E1,-1.916099906E0,-7.038999796E-1,1.447299957E0
1.787599844E1,-1.471699953E0,-1.132300019E0,-5.737999678E-1
1.789599844E1,-2.471999973E-1,-1.308300018E0,5.133999586E-1
1.791599844E1,6.650000066E-2,-1.375100017E0,1.531199932E0
1.793599844E1,-6.013000011E-1,-1.367100000E0,1.281399965E0
1.795599844E1,-1.096699953E0,-1.197899938E0,2.236000001E-1
1.797599844E1,-1.005100012E0,-9.503999949E-1,-8.255999684E-1
1.799600000E1,-6.782000065E-1,-6.481999755E-1,-9.814999700E-1
1.801600000E1,-1.513999999E-1,-6.335999966E-1,-8.704999685E-1
1.803600000E1,2.356999964E-1,-5.059999824E-1,-1.087700009E0
1.805600000E1,3.502999842E-1,-4.743999839E-1,-9.606999755E-1
1.807600000E1,4.160000011E-2,-7.379999757E-1,-7.217999697E-1
1.809600000E1,4.429999739E-2,-1.107599974E0,-5.708000064E-1
1.811600000E1,3.553999960E-1,-1.343199968E0,-6.499999762E-1
1.813600000E1,8.439999819E-1,-1.428799987E0,-9.476999640E-1
1.815600000E1,1.286599994E0,-1.257399917E0,-1.522300005E0
1.817600000E1,1.610799909E0,-1.019299984E0,-2.138399839E0
1.819600000E1,1.551599979E0,-6.724999547E-1,-2.334100008E0
1.821600000E1,1.394999981E0,-4.943999946E-1,-2.703299999E0
1.824600000E1,7.586999536E-1,1.999999881E-1,-3.725299835E0
1.827600000E1,4.810999930E-1,2.746999860E-1,-2.712599993E0
1.830599844E1,-2.612999976E-1,6.173999906E-1,-3.533999920E0
1.832599844E1,-1.377999932E-1,9.123999476E-1,-4.006899834E0
1.834599844E1,4.743999839E-1,7.143999934E-1,-2.687799931E0
1.836599844E1,1.354499936E0,-2.815999985E-1,-1.553999931E-1
1.838600000E1,5.320000052E-1,-4.764999747E-1,1.703799963E0
1.841600000E1,-2.122499943E0,-3.603000045E-1,1.163200021E0
1.844599844E1,-2.237099886E0,4.514999986E-1,-4.147000015E-1
1.846600000E1,-5.194999576E-1,1.136999950E-1,3.300999999E-1
1.849599844E1,8.658999801E-1,1.762999892E-1,1.539299965E0
1.851599844E1,5.662999749E-1,1.036499977E0,1.744499922E0
1.853600000E1,7.328000069E-1,9.176999927E-1,5.769999698E-2
1.855600000E1,1.003700018E0,8.687999845E-1,-9.630999565E-1
1.858599844E1,4.048999846E-1,7.554999590E-1,8.898999691E-1
1.860600000E1,5.080000162E-1,4.629999772E-2,2.113100052E0
1.863599844E1,1.290300012E0,-3.678999841E-1,3.369599819E0
1.865599844E1,9.644999504E-1,-8.309999853E-2,3.214200020E0
1.867600156E1,-4.204999804E-1,6.128999591E-1,1.560699940E0
1.870600000E1,-9.049999714E-1,1.235499978E0,-7.588999867E-1
1.872600000E1,-4.609999955E-1,1.146799922E0,-1.445699930E0
1.874600000E1,-1.588999927E-1,1.185599923E0,-1.186699986E0
1.877599844E1,-3.113999963E-1,9.611999989E-1,-8.290999532E-1
1.879599844E1,-2.214999944E-1,8.983999491E-1,-1.049000025E0
1.881600000E1,7.479999959E-2,9.509999752E-1,-1.163299918E0
1.884599844E1,7.245000005E-1,1.022799969E0,-9.220999479E-1
1.886599844E1,8.973999619E-1,8.384999633E-1,-9.870999455E-1
1.888599844E1,1.005499959E0,6.290999651E-1,-1.169000030E0
1.890599844E1,1.068799973E0,5.224999785E-1,-1.158999920E0
1.892600000E1,7.980999947E-1,6.396999955E-1,-4.898999929E-1
1.895599844E1,5.557000041E-1,8.575999737E-1,1.174899936E0
1.897599844E1,1.164199948E0,2.122000009E-1,7.633000016E-1
1.899599844E1,9.179999828E-1,4.810999930E-1,2.545999885E-1
1.901599844E1,9.042999744E-1,-7.090000063E-2,1.033999994E-1
1.903599844E1,9.576999545E-1,-8.089999557E-1,1.114999950E-1
1.905599844E1,9.388999939E-1,-1.367299914E0,7.313999534E-1
1.907599844E1,8.514999747E-1,-1.454299927E0,1.797199965E0
1.909599844E1,6.631999612E-1,-1.168399930E0,2.571099997E0
1.911599844E1,4.756999910E-1,-7.624999881E-1,2.408999920E0
1.913600000E1,3.111999929E-1,-8.789999783E-2,1.292999983E0
1.916599844E1,2.301999927E-1,8.696999550E-1,-1.032999977E-1
1.918599844E1,1.291999966E-1,1.441200018E0,-4.281999767E-1
1.920599844E1,9.609999508E-2,1.808999896E0,-6.428999901E-1
1.922599844E1,1.138999984E-1,2.087300062E0,-6.162999868E-1
1.924600000E1,-6.289999932E-2,2.313099861E0,-6.965999603E-1
1.927599844E1,-1.263999939E-1,1.872699976E0,-7.277999520E-1
1.929599844E1,-2.671000063E-1,1.449499965E0,-4.096999764E-1
1.931600000E1,-5.239999890E-1,1.146299958E0,3.242000043E-1
1.934600000E1,-1.256299973E0,1.046700001E0,3.051299810E0
1.937599844E1,-2.234200001E0,7.051999569E-1,4.581399918E0
1.939599844E1,-2.202999830E0,8.466999531E-1,3.302399874E0
1.941599844E1,3.449999988E-1,-7.066999674E-1,1.772499919E0
1.943600000E1,1.488499999E0,-9.628999829E-1,2.278899908E0
1.946600000E1,-3.536999822E-1,-5.983999968E-1,3.207399845E0
1.949599844E1,-2.507900000E0,-8.154000044E-1,1.248299956E0
1.951599844E1,-2.449499846E0,-1.085099936E0,-8.669999987E-2
1.953600000E1,-2.053799868E0,-1.074999928E0,-5.271999836E-1
1.955600000E1,-1.388199925E0,-1.202999949E0,-3.603999913E-1
1.957600000E1,-1.325299978E0,-1.319399953E0,-4.612999856E-1
1.959600000E1,-1.424700022E0,-1.133399963E0,-1.238499999E0
1.961600000E1,-1.276899934E0,-6.241999865E-1,-1.460299969E0
1.963600000E1,1.079999935E-2,-6.306999922E-1,-3.055399895E0
1.965600000E1,7.049999833E-1,-6.176999807E-1,-3.464099884E0
1.967600000E1,6.329999566E-1,-5.868999958E-1,-2.669399977E0
1.969600000E1,2.072999924E-1,-1.844999939E-1,-2.364300013E0
1.971600000E1,-6.329999864E-2,-3.088999987E-1,-9.821999669E-1
1.973600000E1,5.216999650E-1,-4.452999830E-1,-1.793999970E-1
1.975600000E1,8.083999753E-1,-2.556999922E-1,2.460999936E-1
1.977600000E1,8.902999759E-1,6.219999865E-2,-4.630999863E-1
1.979600000E1,1.249099970E0,-1.516000032E-1,-8.967999816E-1
1.981600781E1,1.454499960E0,-1.953999996E-1,-3.980999887E-1
1.984600000E1,7.278999686E-1,7.109999657E-2,8.693000078E-1
1.986600156E1,-9.099999443E-3,5.972999930E-1,6.811999679E-1
1.989600000E1,-2.201000005E-1,1.610899925E0,5.000000000E-1
1.992600000E1,2.050199986E0,2.671000063E-1,1.590899944E0
1.994600000E1,2.335000038E0,-4.845999777E-1,2.701200008E0
1.996600000E1,1.643299937E0,-6.567999721E-1,3.203099966E0
1.998600000E1,1.548699975E0,-8.932999969E-1,2.284999847E0
2.000600000E1,2.227699995E0,-1.087100029E0,8.811999559E-1
2.002600000E1,2.062799931E0,-8.871999979E-1,6.153999567E-1
2.004600000E1,1.045199990E0,-4.725999832E-1,8.899999857E-1
2.006600000E1,2.287999988E-1,-2.283999920E-1,8.779999614E-2
2.008600000E1,-1.753000021E-1,-8.599999361E-3,-1.210399985E0
2.010600469E1,-2.267999947E-1,2.459999919E-2,-2.197900057E0
2.013600000E1,-1.052000001E-1,1.547999978E-1,-2.259599924E0
2.015600000E1,-3.402999938E-1,2.962999940E-1,-2.208400011E0
2.017600000E1,-5.849999785E-1,3.892999887E-1,-2.435499907E0
2.019600000E1,-6.074000001E-1,3.181000054E-1,-2.863199949E0
2.022600000E1,-4.096999764E-1,2.205999941E-1,-2.134399891E0
2.024600312E1,-3.928000033E-1,7.849999517E-2,-1.174299955E0
2.027600000E1,-5.891999602E-1,2.089999914E-1,-5.489000082E-1
2.029600000E1,-5.461999774E-1,5.579999685E-1,-2.646999955E-1
2.031600000E1,-3.199999779E-2,6.459999681E-1,-1.224999949E-1
2.034599844E1,5.521000028E-1,1.040899992E0,3.592000008E-1
2.036599844E1,7.441999912E-1,1.152999997E0,8.233999610E-1
2.038599844E1,7.910000086E-1,9.437999725E-1,1.258299947E0
2.040599844E1,2.703000009E-1,8.666999936E-1,1.750800014E0
2.042599844E1,-9.882999659E-1,1.474499941E0,2.243700027E0
2.044599844E1,-1.253299952E0,1.193099976E0,2.201499939E0
2.046599844E1,-9.760999680E-1,3.765999973E-1,2.197599888E0
2.048600000E1,-1.330799937E0,1.658999920E-1,2.631500006E0
2.051599844E1,-2.200599909E0,8.320000023E-2,1.205099940E0
2.053600000E1,-2.113399982E0,-3.125999868E-1,-6.462000012E-1
2.056599844E1,-1.073899984E0,-1.324999928E0,-4.501999915E-1
2.058599844E1,-1.177099943E0,-1.841499925E0,8.998000026E-1
2.060600000E1,-1.751999974E0,-1.827499986E0,1.502399921E0
2.063599844E1,-1.786199927E0,-1.549799919E0,1.266999990E-1
2.065599844E1,-1.179899931E0,-1.112800002E0,-1.198599935E0
2.067600000E1,-5.058999658E-1,-6.480999589E-1,-2.210299969E0
2.070601563E1,2.028999925E-1,-2.307999879E-1,-3.177299976E0
2.073599844E1,9.006999731E-1,-1.932999939E-1,-3.253399849E0
2.075600000E1,1.180899978E0,-2.974999845E-1,-2.859400034E0
2.078599844E1,3.916999996E-1,-9.479999542E-2,-1.782299995E0
2.080599844E1,-2.569999993E-1,8.049999923E-2,-8.732999563E-1
2.082600000E1,-5.406999588E-1,4.073999822E-1,-4.238999784E-1
2.084600000E1,-6.315000057E-1,8.366999626E-1,1.240999997E-1
2.087599844E1,-6.771999598E-1,1.066900015E0,6.347999573E-1
2.089599844E1,-1.230299950E0,1.295499921E0,5.521999598E-1
2.091599844E1,-1.429799914E0,1.274899960E0,5.078999996E-1
2.093599844E1,-1.485299945E0,1.298200011E0,6.554999948E-1
2.095599844E1,-1.971199989E0,2.071699858E0,1.100399971E0
2.097599844E1,-1.649699926E0,1.850299954E0,1.855099916E0
2.099600000E1,-1.481999904E-1,-2.134999931E-1,2.231199980E0
2.102599844E1,-3.735999763E-1,-1.339399934E0,3.909899950E0
2.104600000E1,-1.067099929E0,-1.561299920E0,4.423699856E0
2.107600000E1,-4.398999810E-1,-1.515200019E0,1.293299913E0
2.109600000E1,7.177000046E-1,-1.089999914E0,-3.892000020E-1
2.111600000E1,1.177899957E0,-8.073999882E-1,-2.716000080E-1
2.113600000E1,3.674999774E-1,-6.085000038E-1,4.427999854E-1
2.115600000E1,-4.347999990E-1,-5.144999623E-1,4.054999948E-1
2.117600000E1,-9.970999956E-1,-2.224999964E-1,-4.414999783E-1
2.119600000E1,-1.273499966E0,-3.790000081E-2,-1.074999928E0
2.122600000E1,-1.097599983E0,1.019999944E-2,-8.301999569E-1
2.124600000E1,-7.583000064E-1,1.433999985E-1,-1.246699929E0
2.126600000E1,-5.209000111E-1,2.588000000E-1,-1.998199940E0
2.129599844E1,-5.385000110E-1,5.141999722E-1,-2.780400038E0
2.131600000E1,-3.863999844E-1,5.047000051E-1,-2.753000021E0
2.133600000E1,4.789999872E-2,3.524000049E-1,-2.284999847E0
2.136600000E1,3.032999933E-1,3.948999941E-1,-8.323999643E-1
2.138600000E1,4.588999748E-1,4.600999951E-1,-5.051000118E-1
2.140600000E1,5.320000052E-1,7.945999503E-1,-1.264999956E-1
2.142600000E1,7.382999659E-1,8.610000014E-1,4.300999939E-1
2.144600000E1,1.114599943E0,6.676999927E-1,9.267999530E-1
2.146600000E1,1.048699975E0,2.621999979E-1,1.373899937E0
2.148600000E1,-5.920000002E-2,3.689999878E-1,1.896299958E0
2.150600000E1,-1.248799920E0,1.211199999E0,2.403100014E0
2.152600000E1,-7.232999802E-1,9.959999919E-1,2.155099869E0
2.154600000E1,-5.130000040E-2,8.678999543E-1,1.904599905E0
2.156600000E1,-7.189999521E-2,7.386999726E-1,2.000299931E0
2.158600000E1,-7.052999735E-1,4.107999802E-1,9.472999573E-1
2.160600000E1,-1.427099943E0,-1.118000001E-1,-4.481000006E-1
2.162600000E1,-1.658399940E0,-1.150799990E0,-5.941999555E-1
2.164600000E1,-1.791499972E0,-1.896499991E0,5.500000119E-1
2.166600000E1,-2.084100008E0,-1.982499957E0,1.813499928E0
2.168600000E1,-1.827600002E0,-1.945799947E0,1.881099939E0
2.170600000E1,-7.349999547E-1,-1.674600005E0,8.678999543E-1
2.172600000E1,2.421000004E-1,-1.165300012E0,-7.267999649E-1
2.174600000E1,9.224999547E-1,-8.335999846E-1,-1.770299911E0
2.176600000E1,1.144199967E0,-5.300999880E-1,-2.414099932E0
2.179600938E1,8.962999582E-1,-7.199999690E-2,-2.865099907E0
2.182600000E1,1.102699995E0,-3.949999809E-2,-3.091499805E0
2.184600000E1,1.152300000E0,-1.796000004E-1,-2.664700031E0
2.186600000E1,9.384999871E-1,-1.727999896E-1,-2.229399920E0
2.188600000E1,8.014999628E-1,-1.177999973E-1,-1.761699915E0
2.190600000E1,7.468000054E-1,-1.916999966E-1,-1.202799916E0
2.192600000E1,6.265999675E-1,-1.278999895E-1,-6.732999682E-1
2.194600000E1,6.031000018E-1,-1.261000037E-1,-2.836000025E-1
2.196600000E1,5.605999827E-1,-1.985999942E-1,2.119999975E-1
2.198600000E1,9.849999845E-2,2.018999904E-1,6.403999925E-1
2.200600000E1,-7.760999799E-1,1.191399932E0,1.122099996E0
2.202600000E1,-1.091599941E0,2.069700003E0,1.333499908E0
2.204600000E1,4.610999823E-1,7.674999833E-1,1.913800001E0
2.207600000E1,1.836399913E0,-1.304799914E0,4.589399815E0
2.209600000E1,1.034600019E0,-1.442699909E0,6.858099937E0
2.211600000E1,8.499999642E-1,-1.463199973E0,5.856999874E0
2.213600000E1,1.728500009E0,-1.171800017E0,2.929699898E0
2.216599844E1,2.061599970E0,-5.792999864E-1,1.403999925E0
2.218599844E1,1.133099914E0,-1.498999894E-1,1.429600000E0
2.220599844E1,2.360999882E-1,2.918999791E-1,3.992999792E-1
2.222599844E1,9.969999641E-2,9.589999914E-2,-1.031800032E0
2.224599844E1,-2.604999840E-1,-8.519999683E-2,-2.198899984E0
2.226599844E1,-3.357000053E-1,-5.681999922E-1,-3.241099834E0
2.228599844E1,-1.790999919E-1,-7.544999719E-1,-4.390599728E0
2.230599844E1,4.697999954E-1,-7.809000015E-1,-4.436100006E0
2.232600000E1,1.320999980E0,-8.001999855E-1,-2.673899889E0
2.235599844E1,1.161999941E0,4.339999706E-2,-1.054999977E-1
2.237599844E1,6.297999620E-1,8.682000041E-1,-1.208999977E-1
2.239600000E1,4.579999745E-1,1.118000031E0,-7.652999759E-1
2.242599844E1,3.718000054E-1,1.249899983E0,-1.107299924E0
2.244599844E1,4.131000042E-1,1.275799990E0,-8.068999648E-1
2.246599844E1,2.644999921E-1,1.400499940E0,-4.341000021E-1
2.248599844E1,9.319999814E-2,1.444999933E0,-1.459999941E-2
2.250599844E1,1.485999972E-1,1.021899939E0,5.178999901E-1
2.252599844E1,3.073000014E-1,5.051000118E-1,3.388999999E-1
2.254600000E1,-2.208999991E-1,1.037799954E0,-1.057999954E-1
2.256600000E1,-9.711999893E-1,1.663199902E0,-3.455999792E-1
2.259599844E1,-1.359599948E0,1.117699981E0,6.419999599E-1
2.261600156E1,-2.108399868E0,9.873999953E-1,1.477699995E0
2.264599844E1,-3.076599836E0,3.123999834E-1,3.944000006E-1
2.266599844E1,-2.731499910E0,-5.600000024E-1,-7.729999721E-2
2.268600000E1,-1.382300019E0,-1.385900021E0,1.147199988E0
2.271599844E1,6.600999832E-1,-2.549099922E0,2.970199823E0
2.273599844E1,1.261799932E0,-2.603899956E0,2.102299929E0
2.275600000E1,1.761799932E0,-2.276200056E0,3.088999987E-1
2.278599844E1,1.470499992E0,-7.804999948E-1,-1.290599942E0
2.280599844E1,1.204699993E0,-3.328999877E-1,-1.639999986E0
2.282600000E1,1.070999980E0,-1.577999890E-1,-2.440599918E0
2.285599844E1,1.445299983E0,-2.252999991E-1,-3.218699932E0
2.287599844E1,1.599999905E0,-2.673999965E-1,-2.522699833E0
2.289599844E1,1.053099990E0,-1.501999944E-1,-1.865000010E0
2.291599844E1,3.989999890E-1,2.005999982E-1,-1.425499916E0
2.293599844E1,1.288999915E-1,5.414999723E-1,-4.743999839E-1
2.295599844E1,-5.089999735E-2,9.143999815E-1,1.446999907E-1
2.297599844E1,-1.268000007E-1,1.007499933E0,-6.439999491E-2
2.299599844E1,-8.869999647E-2,7.274000049E-1,-5.749999732E-2
2.301599844E1,-1.879999973E-2,4.962999821E-1,4.898999929E-1
2.303600000E1,-2.856999934E-1,4.170999825E-1,1.010599971E0
2.305600000E1,-8.057999611E-1,6.777999997E-1,1.319599986E0
2.307600000E1,-1.330399990E0,1.572399974E0,2.041399956E0
2.309600000E1,-1.352199912E0,2.579299927E0,2.714299917E0
2.311600156E1,1.110999957E-1,1.388099909E0,2.862599850E0
2.314599844E1,1.648099899E0,-5.252999663E-1,2.941799879E0
2.316599844E1,1.797099948E0,-1.051100016E0,3.985199928E0
2.318600000E1,1.641099930E0,-1.179600000E0,4.173699856E0
2.321599844E1,2.881500006E0,-1.754099965E0,1.023499966E0
2.323599844E1,3.202999830E0,-1.718699932E0,-5.264999866E-1
2.325599844E1,2.067800045E0,-1.367100000E0,-4.715999961E-1
2.327599844E1,8.858999610E-1,-9.038999677E-1,-7.754999995E-1
2.329599844E1,5.150000006E-2,-3.226999938E-1,-1.503399968E0
2.331600000E1,-1.574999988E-1,1.138999984E-1,-2.534800053E0
2.334599844E1,-6.929999590E-2,2.691999972E-1,-2.844300032E0
2.336599844E1,1.101999953E-1,6.960000098E-2,-2.923399925E0
2.338599844E1,1.753999889E-1,4.979999736E-2,-3.129799843E0
2.340599844E1,2.470999956E-1,-4.160000011E-2,-3.063400030E0
2.342599844E1,3.443000019E-1,-1.823000014E-1,-2.852799892E0
2.344599844E1,3.811999857E-1,-1.048999950E-1,-2.908200026E0
2.346599844E1,5.083000064E-1,9.730000049E-2,-2.902899981E0
2.348600000E1,6.352999806E-1,3.409999907E-1,-2.642499924E0
2.351599844E1,6.324999928E-1,1.076499939E0,-1.948699951E0
2.353600000E1,1.110800028E0,1.028999925E0,-1.568899989E0
2.355600000E1,1.402599931E0,6.083999872E-1,-2.935000062E-1
2.357600000E1,1.338999987E0,1.449999958E-1,2.442100048E0
2.359600000E1,9.305999875E-1,-4.775999784E-1,4.401499748E0
2.361600000E1,-6.193999648E-1,-2.839999795E-1,4.075799942E0
2.363600000E1,-2.184799910E0,5.748999715E-1,3.421399832E0
2.365600000E1,-1.450500011E0,-3.026999831E-1,3.668200016E0
2.367600000E1,-1.146700025E0,-1.180000007E-1,4.626699924E0
2.370599844E1,-1.317299962E0,-5.549999699E-2,3.121099949E0
2.372599844E1,-1.201099992E0,-6.232999563E-1,8.281999826E-1
2.374599844E1,-6.920999885E-1,-1.272099972E0,2.529999986E-2
2.376599844E1,-7.382000089E-1,-1.526199937E0,8.287999630E-1
2.378599844E1,-1.260100007E0,-1.515200019E0,1.400399923E0
2.380599844E1,-1.261399984E0,-1.593199968E0,4.811999798E-1
2.382600000E1,-5.292999744E-1,-1.237100005E0,-6.690999866E-1
2.384600000E1,4.565999806E-1,-5.291999578E-1,-8.828999996E-1
2.387599844E1,1.434099913E0,1.642999947E-1,-1.097999960E-1
2.389599844E1,2.052399874E0,1.299999934E-2,-5.855999589E-1
2.391599844E1,2.378599882E0,-9.059999883E-2,-1.490299940E0
2.393599844E1,2.390799999E0,-4.082999825E-1,-2.379199982E0
2.395599844E1,1.963599920E0,-5.238000154E-1,-2.416199923E0
2.397600000E1,1.387399912E0,-5.582000017E-1,-1.828599930E0
2.400599844E1,4.649999738E-1,-2.245000005E-1,-1.027500033E0
2.402599844E1,3.037999868E-1,-1.011999995E-1,-1.557799935E0
2.404600000E1,4.720000029E-1,-7.979999483E-2,-2.134000063E0
2.407600000E1,8.604999781E-1,-8.259999752E-2,-2.093999982E-1
2.409600000E1,5.011000037E-1,2.210999876E-1,1.556399941E0
2.411600000E1,-7.678999901E-1,1.525999904E0,2.098299980E0
2.414600000E1,6.549999863E-2,2.885999978E-1,1.615499973E0
2.417599844E1,6.453999877E-1,-5.457000136E-1,4.076399803E0
2.419599844E1,1.339200020E0,-8.544999957E-1,4.607699871E0
2.421599844E1,2.720999956E0,-1.385900021E0,2.539999962E0
2.423599844E1,3.745399952E0,-1.686199903E0,1.975999922E-1
2.425600000E1,3.287999868E0,-1.356799960E0,-5.645999908E-1
2.427600000E1,2.015599966E0,-1.054799914E0,-7.670999765E-1
2.430599844E1,1.151799917E0,-7.178999782E-1,-2.402799845E0
2.432600000E1,1.384199977E0,-6.937999725E-1,-3.728799820E0
2.435599844E1,1.004199982E0,1.865999997E-1,-4.343599796E0
2.437599844E1,4.237999916E-1,7.762999535E-1,-3.668799877E0
2.439600000E1,4.099999741E-2,9.454999566E-1,-2.976599932E0
2.442599844E1,-5.841999650E-1,1.172799945E0,-2.104799986E0
2.444599844E1,-1.048200011E0,1.143199921E0,-9.447000027E-1
2.446599844E1,-1.337700009E0,1.214599967E0,4.429999739E-2
2.448599844E1,-1.258000016E0,1.294600010E0,4.377999902E-1
2.450599844E1,-7.368999720E-1,1.491699934E0,1.004999995E0
2.452600000E1,-2.300999910E-1,1.558599949E0,2.553799868E0
2.454600000E1,1.053999960E-1,1.420499921E0,3.717499971E0
2.456600000E1,1.689999998E-1,1.080500007E0,3.552199841E0
2.459599844E1,-8.959999681E-2,7.540999651E-1,2.884500027E0
2.461600000E1,-7.109999657E-2,2.401999980E-1,3.737299919E0
2.464599844E1,-1.374199986E0,2.644999921E-1,4.431600094E0
2.466599844E1,-8.253999949E-1,-4.880999923E-1,4.021299839E0
2.468600000E1,-3.005999923E-1,-1.063699961E0,3.303499937E0
2.470600000E1,-9.062999487E-1,-7.515999675E-1,1.383299947E0
2.472600156E1,-1.643599987E0,-3.551000059E-1,-9.353999496E-1
2.475600000E1,-5.388999581E-1,-7.301999927E-1,-1.687999964E0
2.477600000E1,3.199999928E-1,-1.629699945E0,9.619999677E-2
2.479600000E1,2.220999897E-1,-2.085000038E0,1.220899940E0
2.481600000E1,-3.990999758E-1,-1.963699937E0,1.211599946E0
2.483600000E1,-7.364999652E-1,-2.017400026E0,7.907999754E-1
2.485600000E1,-5.015999675E-1,-1.825999975E0,-1.063899994E0
2.487600000E1,-1.612000018E-1,-1.423599958E0,-3.125599861E0
2.489600000E1,2.956999838E-1,-1.052299976E0,-4.359399796E0
2.491600000E1,1.503499985E0,-7.573999763E-1,-4.528999805E0
2.493600000E1,2.728099823E0,-3.375000060E-1,-3.510900021E0
2.495600000E1,3.247200012E0,-3.344999850E-1,-1.891499996E0
2.497600000E1,2.736299992E0,-2.113000005E-1,-1.261500001E0
2.500600000E1,1.407699943E0,1.435000002E-1,-9.435999990E-1
2.502600000E1,1.378199935E0,1.528999954E-1,-7.996999621E-1
2.504600000E1,9.341999888E-1,3.565999866E-1,-7.712000012E-1
2.506600000E1,-2.326999903E-1,4.426999986E-1,-2.610000074E-1
2.508604219E1,-1.242900014E0,2.201999873E-1,1.366000026E-1
2.511600000E1,-3.269000053E-1,-2.479999885E-2,2.108999938E-1
2.513600000E1,1.188999936E-1,2.303999960E-1,1.046299934E0
2.515600000E1,-4.624999762E-1,8.226999640E-1,2.092999935E0
2.517600000E1,-9.922999740E-1,1.099699974E0,2.854300022E0
2.519600000E1,-4.102999866E-1,7.928999662E-1,3.359499931E0
2.521600000E1,1.383000016E0,-2.316000015E-1,2.705299854E0
2.523600312E1,2.295399904E0,-8.887999654E-1,3.230199814E0
2.526600000E1,1.988599896E0,-9.171999693E-1,2.899999857E0
2.528600000E1,2.016099930E0,-1.230099916E0,1.861099958E0
2.531599844E1,1.666799903E0,-8.945999742E-1,-1.055999994E-1
2.533600000E1,1.144400001E0,-4.041000009E-1,-6.926000118E-1
2.536600000E1,4.627999961E-1,-3.008999825E-1,-1.352599978E0
2.538600000E1,-1.160999984E-1,-2.175999880E-1,-1.513199925E0
2.540600000E1,-3.938999772E-1,-2.085999995E-1,-1.793799996E0
2.542600000E1,-5.644999743E-1,-2.139999904E-2,-1.879999995E0
2.544600000E1,-6.692000031E-1,2.128999978E-1,-1.260800004E0
2.546600000E1,-4.035999775E-1,2.189999968E-1,-1.408199906E0
2.549600000E1,-2.601000071E-1,2.551999986E-1,-1.786899924E0
2.551600000E1,-2.087000012E-1,4.298000038E-1,-1.481099963E0
2.553600000E1,3.667999804E-1,3.784999847E-1,-7.586999536E-1
2.555600000E1,9.993000031E-1,1.999999881E-1,-6.639999747E-1
2.558600000E1,7.448999882E-1,2.863999903E-1,-5.464999676E-1
2.560600000E1,5.180000067E-1,4.226999879E-1,-2.201000005E-1
2.562600000E1,8.025999665E-1,4.029999971E-1,3.023999929E-1
2.565599844E1,1.158800006E0,8.289999962E-1,2.199999988E-1
2.567599844E1,9.677999616E-1,1.396099925E0,-3.290999830E-1
2.569600000E1,1.082099915E0,1.846499920E0,2.630000003E-2
2.571600000E1,1.049199939E0,1.533599973E0,1.308200002E0
2.573600000E1,-1.816999912E-1,1.630100012E0,2.860699892E0
2.575600000E1,-6.329999566E-1,1.135800004E0,3.544899940E0
2.577600000E1,-4.639999941E-2,-8.370000124E-2,3.828699827E0
2.579600000E1,-3.287999928E-1,-8.371999860E-1,2.981099844E0
2.581600000E1,-1.327499986E0,-8.823999763E-1,2.367499828E0
2.583600000E1,-1.663599968E0,-1.266499996E0,1.004599929E0
2.586599844E1,-1.701999903E-1,-1.783800006E0,-8.434000015E-1
2.588600000E1,1.026199937E0,-1.638099909E0,-1.175199986E0
2.590600000E1,1.816100001E0,-1.810299993E0,-9.188999534E-1
2.592600000E1,2.024899960E0,-1.873699903E0,-3.569999933E-1
2.595599844E1,1.463999987E0,-1.780399919E0,-4.495999813E-1
2.597599844E1,1.126999974E0,-1.623199940E0,-1.027500033E0
2.599599844E1,8.414999843E-1,-1.244199991E0,-1.865899920E0
2.601599844E1,7.224999666E-1,-8.152999878E-1,-2.620199919E0
2.603599844E1,8.168999553E-1,-5.979999900E-1,-3.015100002E0
2.605599844E1,8.500999808E-1,-2.392999977E-1,-2.878799915E0
2.607599844E1,1.016899943E0,1.356000006E-1,-2.844699860E0
2.609600000E1,4.778999984E-1,8.313999772E-1,-3.230999947E0
2.612599844E1,-4.491999745E-1,2.179999828E0,-1.589199901E0
2.614599844E1,-3.132999837E-1,2.220099926E0,3.252999783E-1
2.616599844E1,-4.997999966E-1,1.693799973E0,2.197700024E0
2.618599844E1,-8.186999559E-1,1.336799979E0,2.377899885E0
2.620599844E1,-9.670999646E-1,1.217100024E0,1.490000010E0
2.622599844E1,-8.409999609E-1,1.427199960E0,5.383999944E-1
2.624600000E1,-5.350000039E-2,1.298799992E0,2.590999901E-1
2.627599844E1,4.785999954E-1,1.033200026E0,1.752299905E0
2.629599844E1,1.507999897E-1,9.012999535E-1,2.768299818E0
2.631599844E1,-4.510999918E-1,1.055599928E0,2.667799950E0
2.633599844E1,1.176999956E-1,3.454000056E-1,1.868899941E0
2.635599844E1,1.460999966E0,-1.359799981E0,2.576099873E0
2.637599844E1,1.115000010E0,-1.759400010E0,4.698699951E0
2.639600000E1,-3.464999795E-1,-5.931000113E-1,6.430599689E0
2.641600000E1,-3.999999724E-3,-5.837999582E-1,4.613399982E0
2.644599844E1,1.242499948E0,-5.636000037E-1,1.429999918E-1
2.646599844E1,1.162199974E0,-8.053999543E-1,-9.975999594E-1
2.648599844E1,6.283999681E-1,-1.116999984E0,-3.513000011E-1
2.650599844E1,1.631999910E-1,-1.028599977E0,-9.899999946E-2
2.652599844E1,-1.929000020E-1,-8.269999623E-1,-3.986999989E-1
2.654600156E1,8.379999548E-2,-6.565999985E-1,-1.515100002E0
2.657599844E1,7.274000049E-1,-2.687999904E-1,-2.801599979E0
2.659600000E1,1.020499945E0,-2.203999907E-1,-3.203799963E0
2.661600000E1,1.038900018E0,-7.589999586E-2,-3.448299885E0
2.664599844E1,5.880999565E-1,3.025999963E-1,-2.901299953E0
2.666599844E1,5.909999609E-1,3.314999938E-1,-2.207299948E0
2.668599844E1,7.070999742E-1,3.307999969E-1,-1.705299973E0
2.670599844E1,4.959999919E-1,5.234000087E-1,-7.308999896E-1
2.672599844E1,3.184999824E-1,6.168000102E-1,-2.814999819E-1
2.674599844E1,4.147000015E-1,4.625999928E-1,3.480000049E-2
2.676599844E1,7.651999593E-1,2.626000047E-1,7.062000036E-1
2.678599844E1,1.319700003E0,-2.017000020E-1,1.208899975E0
2.680599844E1,1.458099961E0,-6.316999793E-1,1.519699931E0
2.682600000E1,8.874999881E-1,-6.723999977E-1,1.468599916E0
2.685599844E1,-6.563000083E-1,-1.664000005E-1,1.222299933E0
2.687599844E1,-7.233999968E-1,-3.079999983E-1,2.354699850E0
2.689599844E1,-4.317999780E-1,-1.076999977E-1,3.318399906E0
2.691599844E1,-4.291999936E-1,5.205999613E-1,3.040599823E0
2.693599844E1,-2.434999943E-1,6.193000078E-1,2.226999998E-1
2.695599844E1,2.788999975E-1,3.060999811E-1,-1.844599962E0
2.697600000E1,6.608999968E-1,-4.208999872E-1,-1.268499970E0
2.699600000E1,1.152999997E-1,-1.149299979E0,7.472999692E-1
2.702599844E1,-9.612999558E-1,-1.570299983E0,1.565999985E0
2.704599844E1,-6.161999702E-1,-1.736199975E0,9.271999598E-1
2.706599844E1,3.698999882E-1,-1.634299994E0,-2.179999948E-1
2.708599844E1,1.089299917E0,-1.208199978E0,-1.341799974E0
2.710600000E1,1.214699984E0,-8.083999753E-1,-1.848699927E0
2.712600000E1,1.150900006E0,-4.289999902E-1,-2.141700029E0
2.715599844E1,1.462099910E0,-1.359999925E-1,-2.744699955E0
2.717599844E1,1.383799911E0,3.616999984E-1,-2.778499842E0
2.719599844E1,1.092499971E0,7.455999851E-1,-2.623999834E0
2.721599844E1,7.239999771E-1,8.868999481E-1,-2.345199823E0
2.723599844E1,3.996999860E-1,9.249999523E-1,-1.514400005E0
2.725600000E1,2.474000007E-1,9.465000033E-1,-6.272999644E-1
2.727600000E1,4.729999974E-2,8.615999818E-1,4.289999977E-2
2.730599844E1,3.467999995E-1,-3.039999865E-2,-1.218999997E-1
2.732600000E1,5.083000064E-1,-2.267999947E-1,-1.198999956E-1
2.735599844E1,3.158999979E-1,-3.189999983E-2,8.459999561E-1
2.737599844E1,-4.306999743E-1,7.701999545E-1,1.348799944E0
2.739600000E1,-9.885999560E-1,1.761399984E0,1.052999973E0
2.742600000E1,1.211899996E0,6.615999937E-1,-1.579999924E-1
2.745599844E1,2.320899963E0,-9.585999846E-1,2.702399969E0
2.747599844E1,1.801800013E0,-1.322700024E0,5.978999615E0
2.749599844E1,1.605299950E0,-1.440699935E0,5.328899860E0
2.751599844E1,2.062199831E0,-1.599499941E0,2.166800022E0
2.753600000E1,2.489199877E0,-1.702399969E0,-7.092999816E-1
2.755600000E1,2.248899937E0,-1.569899917E0,-2.068899870E0
2.757600000E1,1.145299911E0,-9.978999496E-1,-1.795099974E0
2.759600000E1,9.479999542E-2,-4.746999741E-1,-1.454999924E0
2.761600000E1,-5.740999579E-1,-1.582999974E-1,-1.681800008E0
2.763600000E1,-8.136999607E-1,-4.140000045E-2,-1.942999959E0
2.765600000E1,-9.875999689E-1,-7.849999517E-2,-1.837199926E0
2.767600000E1,-1.080999970E0,-1.142999977E-1,-1.598699927E0
2.769600000E1,-1.156299949E0,-9.279999882E-2,-1.310199976E0
2.771600000E1,-8.277999759E-1,-2.791999876E-1,-1.265999913E0
2.773600000E1,-4.554999769E-1,-2.588000000E-1,-1.362100005E0
2.775600000E1,-3.428999782E-1,-1.180000007E-1,-1.366799951E0
2.777600000E1,-4.122999907E-1,-7.959999889E-2,-1.448699951E0
2.779600000E1,-3.650999963E-1,-9.299999475E-2,-1.641399980E0
2.781600000E1,-1.451999992E-1,-2.225999981E-1,-1.782199979E0
2.783600000E1,-4.189999774E-2,-6.051999927E-1,-1.322299957E0
2.785600000E1,3.141999841E-1,-6.290999651E-1,-8.458999991E-1
2.787600000E1,8.675000072E-1,-7.154999971E-1,-8.684999943E-1
2.789600000E1,8.265999556E-1,-4.154999852E-1,-5.205999613E-1
2.791600000E1,8.083999753E-1,-1.017999947E-1,-3.449999914E-2
2.793600000E1,8.921999931E-1,1.890999973E-1,3.245999813E-1
2.795600000E1,7.953999639E-1,6.028000116E-1,6.517999768E-1
2.797600000E1,9.900999665E-1,8.550999761E-1,8.741999865E-1
2.799600000E1,1.476300001E0,3.258999884E-1,1.259899974E0
2.801600000E1,9.103999734E-1,4.299999680E-3,2.000299931E0
2.803600000E1,-5.579999685E-1,4.456999898E-1,2.433300018E0
2.805600000E1,-1.605999947E0,6.380999684E-1,1.853399992E0
2.808600000E1,-1.881199956E0,9.702000022E-1,7.384999990E-1
2.810600000E1,-1.410200000E0,9.092999697E-1,1.317199945E0
2.812600000E1,-7.761999965E-1,5.354999900E-1,2.018300056E0
2.815600000E1,-3.619999886E-1,-1.323999912E-1,2.145499945E0
2.817600000E1,-4.177999794E-1,-3.025999963E-1,2.299499989E0
2.819600000E1,-3.403999805E-1,-2.578999996E-1,2.571799994E0
2.821600000E1,-1.476999968E-1,-7.930000126E-2,1.882399917E0
2.823600469E1,8.769999444E-2,4.781000018E-1,6.523000002E-1
2.826600000E1,1.313399911E0,7.125999928E-1,-9.881999493E-1
2.829600000E1,1.729299903E0,8.086000085E-1,-1.916899920E0
2.831600000E1,1.427599907E0,9.448999763E-1,-2.030699968E0
2.833600000E1,1.101300001E0,9.394999743E-1,-1.742599964E0
2.835600000E1,9.338999987E-1,7.396000028E-1,-1.522699952E0
2.837600000E1,8.728999496E-1,4.734999835E-1,-1.528199911E0
2.839600000E1,4.736999869E-1,3.184999824E-1,-1.211499929E0
2.841600000E1,-3.185999990E-1,5.250999928E-1,-3.278000057E-1
2.843600000E1,-5.483999848E-1,3.409999907E-1,3.224000037E-1
2.845600000E1,-2.094999999E-1,1.897999942E-1,8.878999949E-1
2.847600000E1,1.988999993E-1,3.604999781E-1,2.325500011E0
2.849600000E1,1.418000013E-1,5.196999907E-1,3.205899954E0
2.851600000E1,-4.504999816E-1,9.534999728E-1,2.931900024E0
2.853600000E1,-2.330999970E-1,2.169999853E-2,2.304699898E0
2.855600000E1,-1.069999952E-2,-6.800999641E-1,3.636899948E0
2.857600000E1,-2.125999928E-1,-8.826999664E-1,5.022999763E0
2.859600000E1,-5.260999799E-1,-6.822999716E-1,3.812699795E0
2.861600000E1,7.213999629E-1,-1.328199983E0,1.721499920E0
2.863600000E1,1.906099916E0,-1.708199978E0,-3.059999831E-2
2.865600000E1,1.939999938E0,-1.246399999E0,-6.947000027E-1
2.867600000E1,1.425699949E0,-6.746999621E-1,-2.602999806E-1
2.869600000E1,9.338999987E-1,-7.186999917E-1,-8.665999770E-1
2.871600000E1,6.008999944E-1,-6.785999537E-1,-9.039999843E-1
2.873600000E1,2.965999842E-1,-5.098999739E-1,-1.147799969E0
2.875600000E1,4.186999798E-1,-7.312999964E-1,-8.904999495E-1
2.877600000E1,1.762000024E-1,-6.352999806E-1,-1.612299919E0
2.879600000E1,-1.757999957E-1,-6.735999584E-1,-2.081099987E0
2.881600000E1,-8.005999923E-1,-1.912999898E-1,-2.274499893E0
2.883600000E1,-4.960999787E-1,-6.099999882E-3,-3.585599899E0
2.886600000E1,4.255999923E-1,-8.169999719E-2,-3.115900040E0
2.888600000E1,3.877999783E-1,1.521999985E-1,-1.936699986E0
2.890600000E1,3.476999998E-1,1.015999988E-1,-1.978599906E0
2.892600000E1,1.550000012E-1,1.229999959E-1,-1.439199924E0
2.894600000E1,2.476999909E-1,4.258999825E-1,-6.229000092E-1
2.896600000E1,6.053999662E-1,3.515000045E-1,-1.961999983E-1
2.898600000E1,6.220999956E-1,6.484000087E-1,-3.398999870E-1
2.900600000E1,5.907999873E-1,6.589999795E-1,4.466999769E-1
2.903600000E1,5.766000152E-1,5.920999646E-1,2.005399942E0
2.905600000E1,2.195999920E-1,7.802000046E-1,1.574899912E0
2.907600000E1,5.388999581E-1,3.264999986E-1,4.809999764E-1
2.909600000E1,7.543999553E-1,-2.082999945E-1,1.070000008E-1
2.911600000E1,-5.900000036E-2,-3.200999796E-1,7.595999837E-1
2.913600000E1,-1.392899990E0,3.468999863E-1,9.720999599E-1
2.915600000E1,-1.307399988E0,2.804999948E-1,2.502999902E-1
2.917600000E1,-8.203999996E-1,4.619999975E-2,-2.245000005E-1
2.919600000E1,-1.567000002E-1,-2.870000005E-1,-3.332999945E-1
2.922600000E1,2.184999883E-1,-8.320999742E-1,1.395099998E0
2.924600000E1,3.115999997E-1,-9.576999545E-1,2.012799978E0
2.926600000E1,5.306000113E-1,-9.578999877E-1,1.468899965E0
2.929600000E1,6.469999552E-1,-3.931999803E-1,-4.892999828E-1
2.931600000E1,9.414999485E-1,-7.299999706E-3,-1.468199968E0
2.933600000E1,1.116699934E0,3.441999853E-1,-1.909299970E0
2.936600000E1,1.037699938E0,5.760999918E-1,-1.373799920E0
2.938600000E1,8.048999906E-1,6.992999911E-1,-4.211999774E-1
2.940600000E1,6.505999565E-1,6.715999842E-1,-4.375999868E-1
2.942600000E1,6.254999638E-1,7.744999528E-1,-1.133199930E0
2.944600000E1,5.339999795E-1,1.004999995E0,-1.808200002E0
2.946600000E1,2.890999913E-1,9.923999906E-1,-2.581300020E0
2.948600000E1,-3.519999981E-2,9.979999661E-1,-2.592299938E0
2.951600000E1,7.400000002E-3,1.003000021E0,-1.351300001E0
2.953600000E1,6.209999695E-2,8.422999978E-1,-1.264099956E0
2.955600000E1,9.699999355E-3,5.249999762E-1,-2.955999970E-1
2.958600000E1,-3.140999973E-1,4.642999768E-1,1.108500004E0
2.960600000E1,-1.098199964E0,4.772999883E-1,1.486499906E0
2.962600000E1,-1.286599994E0,2.834999859E-1,1.540499926E0
2.965600000E1,-2.448999882E-1,-4.589999914E-1,2.701200008E0
2.967600000E1,8.905999660E-1,-8.272999525E-1,3.757699966E0
2.969600000E1,1.234699965E0,-1.039600015E0,4.111199856E0
2.971600000E1,1.426499963E0,-1.296700001E0,3.006700039E0
2.973600000E1,1.343199968E0,-1.119300008E0,1.692600012E0
2.975600156E1,8.612999916E-1,-1.040699959E0,8.716999888E-1
2.978600000E1,1.100999951E0,-6.480000019E-1,1.797000021E-1
2.980600000E1,1.336300015E0,-9.882999659E-1,-1.120999977E-1
2.982600156E1,6.664999723E-1,-6.229000092E-1,-4.083999991E-1
2.985599844E1,1.465799928E0,-1.482999921E0,-5.539999604E-1
2.987599844E1,7.495999932E-1,8.361999989E-1,1.478299975E0
2.989599844E1,7.692999840E-1,-4.469999969E-1,7.659999728E-1
2.991599844E1,-1.381699920E0,2.949000001E-1,1.707599998E0
2.993599844E1,-1.451399922E0,-3.570999801E-1,1.083999991E0
2.995599844E1,-1.832299948E0,-7.505999804E-1,-8.195999861E-1
2.997599844E1,-1.296800017E0,9.778999686E-1,-1.671150017E1
2.999600000E1,-4.135999978E-1,-4.138999879E-1,1.403399944E0
3.001600000E1,9.651999474E-1,1.379699945E0,-2.477200031E0
3.003600000E1,1.963299990E0,1.373399973E0,-3.924999833E-1
3.006599844E1,-1.219200015E0,5.633999705E-1,1.551699996E0
3.008599844E1,-2.343400002E0,6.621999741E-1,-9.299999475E-1
3.010599844E1,-4.271999896E-1,3.686999977E-1,-1.759999990E0
3.012600000E1,2.970000029E0,-9.706999660E-1,-1.468199968E0
3.015599844E1,3.216799974E0,-1.339999959E-2,-1.542799950E0
3.017599844E1,-2.292399883E0,4.041199684E0,1.152999997E-1
3.019599844E1,-3.275300026E0,2.726799965E0,-1.423999906E0
3.021599844E1,-2.732999921E-1,1.065299988E0,-6.879999638E-1
3.023599844E1,2.384500027E0,-1.349099994E0,4.667999744E-1
3.025600000E1,2.794199944E0,-2.343600035E0,-1.947999895E-1
3.027600000E1,1.329699993E0,-1.800699949E0,-4.860000014E-1
3.029600000E1,-2.567999959E-1,-9.918999672E-1,-5.087000132E-1
3.031600000E1,-9.165999889E-1,3.420999944E-1,1.837999970E-1
3.033600000E1,-2.481999993E-1,6.367999911E-1,6.218000054E-1
3.036600000E1,1.373099923E0,2.285999954E-1,4.014999866E-1
3.038600000E1,1.941599965E0,7.009999454E-2,7.310000062E-2
3.040600156E1,1.860799909E0,-1.050999984E-1,-2.351999879E-1
3.043600000E1,8.042999506E-1,4.699999839E-2,-1.177699924E0
3.045600000E1,-1.358000040E-1,2.045999914E-1,-1.043900013E0
3.048600000E1,-6.331999898E-1,8.129999787E-2,-1.180299997E0
3.051599844E1,-3.907999992E-1,-4.949999973E-2,-1.489699960E0
3.053600000E1,-9.119999409E-2,-3.842999935E-1,-1.150699973E0
3.055600000E1,6.650000066E-2,-2.102999985E-1,-6.606999636E-1
3.057600000E1,4.275999963E-1,1.753999889E-1,-5.023999810E-1
3.059600000E1,3.398000002E-1,2.958000004E-1,-3.486999869E-1
3.061600000E1,8.169999719E-2,3.820999861E-1,8.669999987E-2
3.063600000E1,-1.747999936E-1,6.789999604E-1,4.239999950E-1
3.065600000E1,-4.504999816E-1,7.792999744E-1,8.320999742E-1
3.067600000E1,-1.300999969E-1,6.096999645E-1,1.467899919E0
3.069600000E1,4.262000024E-1,1.186999977E-1,1.890899897E0
3.072600000E1,1.030599952E0,-4.732999802E-1,9.761999846E-1
3.074600000E1,1.377499938E0,-5.364999771E-1,1.024999976E0
3.076600000E1,1.799099922E0,-8.998000026E-1,1.647099972E0
3.078600000E1,1.805299997E0,-1.722399950E0,1.458199978E0
3.080600000E1,9.997999668E-1,-1.987199903E0,4.402999878E-1
3.082600000E1,-1.169999968E-2,-1.955799937E0,6.829999685E-1
3.084600000E1,-2.053999901E-1,-1.680299997E0,2.582099915E0
3.086600000E1,3.647999763E-1,-1.774500012E0,3.529699802E0
3.088600000E1,1.167500019E0,-1.365199924E0,2.250299931E0
3.090600000E1,1.585199952E0,-4.946999848E-1,-2.733999789E-1
3.092600000E1,1.810400009E0,3.170999885E-1,-2.645099878E0
3.094600000E1,1.818799973E0,8.292999864E-1,-4.737799644E0
3.096600000E1,1.387799978E0,7.737999558E-1,-5.805199623E0
3.098600000E1,2.737999856E-1,7.067999840E-1,-5.308799744E0
3.100600000E1,-2.491999865E-1,7.795999646E-1,-4.493199825E0
3.102600000E1,4.247999787E-1,3.452999890E-1,-3.802999973E0
3.104600000E1,1.353299975E0,-3.790999949E-1,-2.435999870E0
3.106600000E1,1.225299954E0,-5.194999576E-1,-6.456999779E-1
3.108600000E1,7.793999910E-1,-1.740000024E-2,1.272400022E0
3.110600000E1,7.595999837E-1,6.830999851E-1,2.228999853E0
3.112600000E1,1.161999941E0,1.084299922E0,1.982299924E0
3.115600000E1,1.154799938E0,1.507200003E0,2.232699871E0
3.117600000E1,1.136699915E0,1.638099909E0,2.885200024E0
3.119600000E1,1.128600001E0,1.844699979E0,3.063899994E0
3.121600000E1,9.394999743E-1,2.017499924E0,3.556599855E0
3.123600000E1,1.494699955E0,1.410099983E0,3.091699839E0
3.125600156E1,1.581699967E0,6.766999960E-1,2.553599834E0
3.128599844E1,3.872999847E-1,1.012799978E0,9.546999931E-1
3.130600000E1,-5.559999868E-2,1.746500015E0,7.258999944E-1
3.132600156E1,6.260000169E-2,3.186999857E-1,2.967000008E0
3.135600000E1,-3.200999796E-1,-7.306999564E-1,1.021000028E0
3.137600000E1,-8.190000057E-1,-6.010999680E-1,-2.068099976E0
3.139600000E1,-2.493700027E0,-5.935999751E-1,-7.299999595E-1
3.141600000E1,-3.170699835E0,-1.432999969E-1,4.949999750E-1
3.144599844E1,-7.080000043E-1,-6.233999729E-1,2.730999887E-1
3.146600000E1,5.139999837E-2,5.389999971E-2,-5.917999744E-1
3.149600000E1,2.249999940E-1,-1.219099998E0,-1.391899943E0
3.152600000E1,-1.296899915E0,7.497999668E-1,-1.190599918E0
3.154600156E1,-2.422999889E-1,6.991999745E-1,-1.512499928E0
3.157599844E1,1.255699992E0,-1.023999974E-1,-2.554600000E0
3.159600000E1,5.891000032E-1,5.680000037E-2,-2.673699856E0
3.161600000E1,8.599999547E-1,1.163999960E-1,-2.461099863E0
3.163600000E1,1.644999981E0,-4.341000021E-1,-1.293499947E0
3.165600000E1,1.067700028E0,2.922999859E-1,2.872999907E-1
3.167600000E1,9.903999567E-1,4.212999940E-1,8.003999591E-1
3.169600000E1,8.324999809E-1,-1.713999957E-1,-5.863999724E-1
3.171600000E1,1.470499992E0,1.937500000E0,1.045099974E0
3.173600000E1,1.028699994E0,3.021000028E-1,-6.125000119E-1
3.175600000E1,1.067399979E0,1.290699959E0,-2.536999881E-1
3.177600000E1,-2.074999958E-1,1.738499999E0,-3.559999764E-1
3.179600000E1,2.759999968E-2,1.586499929E0,2.706499815E0
3.181600000E1,-4.517999887E-1,1.336799979E0,4.761399746E0
3.183600000E1,-2.034000009E-1,1.454399943E0,3.835299969E0
3.185600000E1,1.111799955E0,2.705999911E-1,3.541999817E0
3.187600000E1,1.375899911E0,-7.288999557E-1,3.534600019E0
3.189600000E1,6.322000027E-1,-1.122599959E0,3.366299868E0
3.191600000E1,5.133999586E-1,-1.316999912E0,2.751399994E0
3.194600000E1,1.156399965E0,-1.580599904E0,7.620999813E-1
3.196600000E1,7.254999876E-1,-1.447799921E0,-2.734999955E-1
3.198600000E1,2.237999886E-1,-1.200299978E0,-9.003999829E-1
3.200600000E1,6.780000031E-2,-1.040899992E0,-1.200099945E0
3.202600000E1,-2.599999867E-2,-8.851999640E-1,-1.084599972E0
3.204600156E1,-2.491999865E-1,-5.849999785E-1,-1.365199924E0
3.207599844E1,-3.804000020E-1,-2.567999959E-1,-2.615700006E0
3.209600000E1,-2.502999902E-1,1.172999963E-1,-2.852599859E0
3.211600000E1,-4.479999840E-1,3.413999975E-1,-2.564299822E0
3.213600000E1,-9.177999496E-1,4.976999760E-1,-2.687399864E0
3.216599844E1,-1.188699961E0,4.451999962E-1,-2.767599821E0
3.218599844E1,-9.826999903E-1,6.008999944E-1,-2.129699945E0
3.220599844E1,-4.981999993E-1,4.310999811E-1,-1.513899922E0
3.222600000E1,-4.007999897E-1,4.230999947E-1,-1.154600024E0
3.225600000E1,-2.090999931E-1,4.729999900E-1,-8.121999502E-1
3.228600000E1,-6.790000200E-2,8.629999757E-1,8.689999580E-2
3.231599844E1,1.283299923E0,-1.259000003E-1,9.506999850E-1
3.233599844E1,1.768899918E0,-8.506999612E-1,1.846499920E0
3.235599844E1,8.082999587E-1,-5.958999991E-1,2.756000042E0
3.237599844E1,-2.646999955E-1,-4.438999891E-1,2.465699911E0
3.239599844E1,-1.043799996E0,-1.226999983E-1,1.400299907E0
3.241600000E1,-1.211199999E0,3.172000051E-1,5.667999983E-1
3.244599844E1,-9.174999595E-1,1.465999931E-1,4.342999756E-1
3.246600000E1,-6.108999848E-1,-6.841999888E-1,4.434999824E-1
3.249599844E1,1.090000011E-2,-2.021699905E0,1.679899931E0
3.251600000E1,4.533999860E-1,-2.211699963E0,3.018899918E0
3.253600000E1,7.864999771E-1,-2.156599998E0,2.362900019E0
3.256599844E1,4.030999839E-1,-1.521199942E0,-7.592999935E-1
3.258600000E1,3.202999830E-1,-1.038800001E0,-2.499899864E0
3.260600000E1,4.043999910E-1,-6.078999639E-1,-2.544299841E0
3.262600000E1,6.922000051E-1,-1.327999979E-1,-1.405799985E0
3.265599844E1,1.293999910E0,-2.265999913E-1,-1.340399981E0
3.267599844E1,1.501599908E0,-4.280000031E-1,-2.528599977E0
3.269599844E1,1.609699965E0,-6.480999589E-1,-3.752599955E0
3.271599844E1,1.390799999E0,-5.080000162E-1,-3.946199894E0
3.273599844E1,1.043099999E0,-2.549999952E-1,-3.817799807E0
3.275600000E1,7.671999931E-1,7.819999754E-2,-3.467000008E0
3.278599844E1,4.479999840E-1,1.202799916E0,-2.447199821E0
3.280599844E1,3.798999786E-1,1.608799934E0,-8.652999997E-1
3.282600000E1,3.991999924E-1,1.577399969E0,2.687999904E-1
3.285600000E1,-4.666000009E-1,1.376099944E0,9.545999765E-1
3.287600000E1,-1.360799909E0,1.302899957E0,1.068799973E0
3.289600000E1,-1.656700015E0,1.241299987E0,1.995299935E0
3.292600000E1,-2.971999943E-1,7.789999843E-1,4.338299751E0
3.294600000E1,1.405900002E0,2.979999781E-1,5.284599781E0
3.296600000E1,2.703599930E0,-4.364999831E-1,5.281499863E0
3.299599844E1,3.348799944E0,-1.405200005E0,4.298699856E0
3.301599844E1,2.989599943E0,-1.531199932E0,3.348399878E0
3.303600000E1,3.356400013E0,-1.840699911E0,1.934099913E0
3.305600000E1,4.305999756E0,-2.293400049E0,-9.349999577E-2
3.308599844E1,4.371500015E0,-1.798999906E0,-1.421199918E0
3.310599844E1,3.043599844E0,-1.364300013E0,-1.621099949E0
3.312600000E1,1.420400023E0,-7.398999929E-1,-2.091300011E0
3.315599844E1,2.816999853E-1,-4.280999899E-1,-2.871799946E0
3.317600000E1,-1.146999970E-1,-7.509999722E-2,-2.787699938E0
3.319600156E1,-3.615999818E-1,1.538999975E-1,-2.467700005E0
3.322600313E1,-7.105999589E-1,3.229999840E-1,-2.565999985E0
3.325600000E1,-9.116999507E-1,5.426999927E-1,-2.695099831E0
3.327600000E1,-1.174499989E0,7.743999958E-1,-2.381399870E0
3.329600000E1,-1.472000003E0,8.409999609E-1,-1.990700006E0
3.331600000E1,-1.664499998E0,8.402000070E-1,-1.501799941E0
3.333600000E1,-1.885899901E0,9.214999676E-1,-6.295999885E-1
3.335600000E1,-2.033599854E0,1.081200004E0,2.536999881E-1
3.337600000E1,-2.065399885E0,1.057500005E0,9.648999572E-1
3.339600000E1,-1.946299911E0,1.008700013E0,1.657999992E0
3.341600000E1,-1.697299957E0,1.055899978E0,2.352599859E0
3.344600000E1,-5.591999888E-1,7.195999622E-1,3.567099810E0
3.346600000E1,-4.930000007E-2,7.468999624E-1,4.037600040E0
3.348600000E1,2.779999934E-2,8.689999580E-1,4.155600071E0
3.350600000E1,6.608999968E-1,4.769999906E-2,4.440400124E0
3.353600000E1,1.827999949E-1,-3.233000040E-1,4.087899685E0
3.355600000E1,-9.327999949E-1,-1.739999950E-1,2.297299862E0
3.357600000E1,-1.187199950E0,-3.035999835E-1,-7.469999790E-2
3.359600000E1,-6.663999557E-1,-4.948000014E-1,-1.412199974E0
3.361600000E1,3.155999780E-1,-6.595999599E-1,-1.245700002E0
3.363600000E1,9.948999882E-1,-9.639999866E-1,-2.087999880E-1
3.365600000E1,8.106999993E-1,-1.107499957E0,7.452999949E-1
3.367600000E1,1.510999948E-1,-1.305499911E0,8.098999858E-1
3.369600156E1,-4.849999845E-1,-1.313300014E0,-3.540999889E-1
3.372600000E1,-4.944999814E-1,-9.663999677E-1,-1.926099896E0
3.374600000E1,-1.397999972E-1,-7.189999819E-1,-2.200000048E0
3.376600156E1,2.578999996E-1,-4.530999959E-1,-2.416800022E0
3.379600000E1,6.444000006E-1,-2.964999974E-1,-2.700799942E0
3.381600000E1,7.049999833E-1,-7.660000026E-2,-2.962699890E0
3.383600000E1,7.738999724E-1,6.619999558E-2,-3.085599899E0
3.385600000E1,7.465999722E-1,2.056999952E-1,-3.159600019E0
3.387600000E1,8.919999599E-1,2.386999875E-1,-3.030099869E0
3.389600000E1,8.418999910E-1,2.439000010E-1,-2.521999836E0
3.391600000E1,2.061999887E-1,3.403999805E-1,-1.801899910E0
3.394600000E1,-8.723999858E-1,3.064999878E-1,-9.260999560E-1
3.396600000E1,-7.339999676E-1,1.573999971E-1,-3.696999848E-1
3.398600000E1,-1.043999940E-1,1.272999942E-1,1.133700013E0
3.401600000E1,-2.520999908E-1,6.225999594E-1,3.877299786E0
3.403600000E1,-1.236699939E0,1.192299962E0,4.652899742E0
3.405600000E1,-1.346400023E0,1.266099930E0,4.507999897E0
3.408600000E1,8.768000007E-1,4.689999819E-1,5.582299709E0
3.410600000E1,1.454599977E0,-4.799999762E-3,6.732299805E0
3.412600000E1,1.270200014E0,-4.873999953E-1,6.197099686E0
3.415600000E1,1.957399964E0,-1.002900004E0,2.088500023E0
3.418600000E1,3.317199945E0,-1.274500012E0,-7.391999960E-1
3.420600000E1,3.016199827E0,-1.156199932E0,-1.130999923E0
3.423599844E1,1.524799943E0,-8.190000057E-1,-2.371000051E0
3.425600000E1,6.554999948E-1,-5.112999678E-1,-3.358399868E0
3.427600000E1,4.609999806E-2,-2.637999952E-1,-4.128799915E0
3.430599844E1,-5.728999972E-1,3.572999835E-1,-4.229899883E0
3.432600000E1,-9.307000041E-1,6.251999736E-1,-3.735899925E0
3.435599844E1,-1.207000017E0,9.009000063E-1,-2.405699968E0
3.437599844E1,-7.455999851E-1,5.469999909E-1,-1.866899967E0
3.439600000E1,-4.605999887E-1,3.170000017E-1,-1.926599979E0
3.442600000E1,-1.586499929E0,3.364000022E-1,-2.377599955E0
3.445599844E1,-2.586299896E0,4.479999840E-1,-1.640799999E0
3.447599844E1,-2.252500057E0,5.257999897E-1,-3.242000043E-1
3.449599844E1,-1.448699951E0,6.003000140E-1,7.777999640E-1
3.451599844E1,-8.866999745E-1,8.786000013E-1,1.759400010E0
3.453600000E1,-2.789999843E-1,9.420999885E-1,2.909399986E0
3.455600000E1,4.113000035E-1,7.421000004E-1,3.685699940E0
3.458600000E1,6.006999612E-1,7.858999968E-1,4.215399742E0
3.461600000E1,3.542999923E-1,6.549999714E-1,3.686199903E0
3.464599844E1,7.699999958E-3,3.649999946E-2,3.541199923E0
3.466600000E1,-9.594999552E-1,1.769999973E-2,2.558300018E0
3.468600156E1,-1.534199953E0,2.749999985E-2,4.632000029E-1
3.470600156E1,-1.140999913E0,-4.152999818E-1,-1.349399924E0
3.472600156E1,-6.172999740E-1,-7.069000006E-1,-2.028100014E0
3.475600000E1,1.102999970E-1,-1.207199931E0,-1.285599947E0
3.477600000E1,8.410000056E-2,-1.389699936E0,-5.891000032E-1
3.479600000E1,5.419999734E-2,-1.437099934E0,-1.455999911E-1
3.481600000E1,1.061000004E-1,-1.500499964E0,-9.861999750E-1
3.483600000E1,4.319999740E-2,-1.382799983E0,-1.894400001E0
3.485600000E1,-1.022999957E-1,-1.049000025E0,-1.911499977E0
3.488599844E1,8.909999579E-2,-8.980000019E-1,-2.108700037E0
3.490599844E1,2.105999887E-1,-6.628999710E-1,-2.755499840E0
3.492599844E1,4.041999876E-1,-5.119000077E-1,-3.369699955E0
3.494599844E1,5.392999649E-1,-2.712999880E-1,-3.383800030E0
3.496600000E1,3.910000026E-1,-8.240000159E-2,-2.904599905E0
3.498600000E1,2.155999988E-1,-3.700000001E-3,-2.488399982E0
3.501599844E1,5.899999756E-3,3.159999847E-1,-1.433099985E0
3.503600156E1,-1.349999942E-2,4.473999739E-1,-2.949000001E-1
3.505600156E1,-1.517999917E-1,6.825000048E-1,3.572999835E-1
3.508600000E1,-3.015999794E-1,1.005200028E0,7.202999592E-1
3.511600000E1,-1.067999974E-1,7.985000014E-1,1.829299927E0
3.513600000E1,6.399999559E-2,7.087999582E-1,2.921700001E0
3.515600000E1,1.005999967E-1,9.619999528E-1,3.259799957E0
3.517600000E1,6.280999780E-1,9.812999964E-1,3.569299936E0
3.519600000E1,1.405799985E0,4.486999810E-1,4.462199688E0
3.522600000E1,1.830500007E0,-5.625000000E-1,5.642999649E0
3.524600000E1,1.332199931E0,-8.172000051E-1,4.792500019E0
3.526600000E1,1.610199928E0,-1.246999979E0,2.630300045E0
3.528600000E1,2.697199821E0,-1.546899915E0,5.877999663E-1
3.530600000E1,3.216399908E0,-1.534199953E0,-1.595999897E-1
3.532600000E1,2.685899973E0,-1.463799953E0,-3.725999892E-1
3.534600000E1,1.680599928E0,-1.360000014E0,-1.135999918E0
3.536600000E1,7.942999601E-1,-1.124400020E0,-2.172800064E0
3.538600000E1,1.846999973E-1,-8.605999947E-1,-3.091599941E0
3.540600000E1,-2.210999876E-1,-4.061999917E-1,-3.345700026E0
3.542600000E1,-4.131000042E-1,-1.418000013E-1,-3.376499891E0
3.544600000E1,-6.358999610E-1,1.332999915E-1,-3.564999819E0
3.546600000E1,-7.706999779E-1,3.386999965E-1,-3.616699934E0
3.548600000E1,-9.296999574E-1,5.385000110E-1,-3.394899845E0
3.551599844E1,-8.865999579E-1,6.995999813E-1,-2.932600021E0
3.553599844E1,-9.125999808E-1,8.465999961E-1,-2.370199919E0
3.555599844E1,-7.646999955E-1,7.949000001E-1,-1.571599960E0
3.557599844E1,-7.639999986E-1,8.636999726E-1,-5.769999623E-1
3.559599844E1,-8.501999974E-1,1.089900017E0,3.795999885E-1
3.561599844E1,-7.597000003E-1,1.129499912E0,1.240700006E0
3.563599844E1,-7.227999568E-1,1.220399976E0,2.112400055E0
3.565599844E1,-3.651999831E-1,1.058499932E0,2.651199818E0
3.567599844E1,2.091999948E-1,9.147999883E-1,3.072899818E0
3.569599844E1,8.662999868E-1,7.186999917E-1,3.426699877E0
3.571599844E1,1.078499913E0,9.472000003E-1,3.643499851E0
3.573599844E1,9.806999564E-1,1.066799998E0,3.937899828E0
3.575600000E1,9.060999751E-1,4.997999966E-1,4.545300007E0
3.578601406E1,-3.680999875E-1,-2.430000007E-1,4.290299892E0
3.581599844E1,-1.748199940E0,-2.617999911E-1,1.301699996E0
3.583599844E1,-1.235700011E0,-8.607999682E-1,-6.613000035E-1
3.585599844E1,-4.147000015E-1,-1.214900017E0,-1.259799957E0
3.587599844E1,1.437999904E-1,-1.260800004E0,-1.483999938E-1
3.589600156E1,1.261000037E-1,-1.744300008E0,8.118000031E-1
3.592600156E1,-6.671000123E-1,-1.781899929E0,4.723999798E-1
3.595600000E1,-5.586999655E-1,-1.451699972E0,-1.185299993E0
3.597600000E1,-2.153999954E-1,-1.018100023E0,-2.181599855E0
3.599600000E1,8.639999479E-2,-5.493000150E-1,-3.063599825E0
3.601600000E1,4.460999966E-1,-2.567999959E-1,-3.555199862E0
3.603600000E1,6.933000088E-1,-2.869999968E-2,-3.742599964E0
3.605600156E1,6.577000022E-1,2.463999987E-1,-3.381199837E0
3.608600000E1,4.811999798E-1,3.306999803E-1,-3.274699926E0
3.610600000E1,1.229999959E-1,4.997999966E-1,-3.372699976E0
3.612600000E1,-3.559999913E-2,5.146999955E-1,-2.629299879E0
3.614600000E1,-1.013000011E-1,4.912999868E-1,-1.809399962E0
3.616600000E1,-3.152000010E-1,5.637999773E-1,-1.410399914E0
3.618600000E1,-7.947999835E-1,7.432999611E-1,-5.816000104E-1
3.620600000E1,-8.558999896E-1,4.578000009E-1,4.739999771E-1
3.622600000E1,-8.069999814E-1,3.391999900E-1,1.247799993E0
3.624600000E1,-6.985999942E-1,4.669999778E-1,2.063099861E0
3.626600000E1,-7.732999921E-1,6.247000098E-1,2.878799915E0
3.628600000E1,-1.124499917E0,1.028900027E0,3.456199884E0
3.630600000E1,-3.042999804E-1,4.742999971E-1,4.002699852E0
3.632600000E1,1.584899902E0,-4.226000011E-1,5.329299927E0
3.634600000E1,2.560999870E0,-1.008999944E0,6.672800064E0
3.636600000E1,1.810599923E0,-8.686999679E-1,6.257799625E0
3.638600000E1,1.252200007E0,-1.136399984E0,3.475399971E0
3.640600000E1,2.161900043E0,-1.516600013E0,5.652999878E-1
3.642600000E1,3.662299871E0,-1.625000000E0,-1.061200023E0
3.644600000E1,3.923699856E0,-1.531599998E0,-9.023999572E-1
3.646600000E1,2.424499989E0,-1.173499942E0,-5.634999871E-1
3.648600000E1,8.083999753E-1,-9.139999747E-1,-9.417999983E-1
3.650600000E1,-2.029999904E-2,-5.644999743E-1,-1.780499935E0
3.652600000E1,-7.000000030E-2,-3.655000031E-1,-2.723599911E0
3.654600000E1,-1.193999946E-1,4.800000042E-2,-3.468499899E0
3.656600000E1,-2.531999946E-1,3.730999827E-1,-3.986899853E0
3.658600000E1,-4.851000011E-1,5.350999832E-1,-4.358399868E0
3.660600000E1,-6.058999896E-1,6.176999807E-1,-4.397599697E0
3.662600156E1,-6.055999994E-1,5.230999589E-1,-3.958099842E0
3.665600000E1,-5.992999673E-1,3.691999912E-1,-2.863799810E0
3.667600000E1,-7.050999999E-1,3.616999984E-1,-2.169699907E0
3.669600156E1,-1.118299961E0,3.768000007E-1,-1.473500013E0
3.672600000E1,-1.398800015E0,5.597000122E-1,5.338000059E-1
3.675600000E1,-9.675999880E-1,5.412999988E-1,2.073299885E0
3.677600000E1,-7.356999516E-1,6.272999644E-1,2.750399828E0
3.679600000E1,-3.403999805E-1,8.626999855E-1,3.282199860E0
3.681600000E1,6.164999604E-1,6.326000094E-1,3.534999847E0
3.683600000E1,1.418599963E0,6.173999906E-1,3.531599998E0
3.685600000E1,1.518399954E0,8.220999837E-1,3.584299803E0
3.687600000E1,1.680199981E0,4.438000023E-1,4.069900036E0
3.689600000E1,1.600699902E0,-2.221999913E-1,4.588500023E0
3.691600000E1,5.044999719E-1,-3.470999897E-1,4.578899860E0
3.693600000E1,-5.733000040E-1,-3.807999790E-1,3.122499943E0
3.695600000E1,-8.431999683E-1,-8.689999580E-1,8.385999799E-1
3.697600000E1,-6.035999656E-1,-1.158900023E0,-9.199000001E-1
3.699600000E1,6.859999895E-2,-1.504599929E0,-1.240100026E0
3.701600000E1,5.360000134E-1,-1.714299917E0,-3.066000044E-1
3.704600000E1,-4.936999977E-1,-1.766199946E0,5.364999771E-1
3.707599844E1,-1.067899942E0,-1.595299959E0,-7.673000097E-1
3.709599844E1,-6.861999631E-1,-1.344099998E0,-2.253799915E0
3.711600000E1,-1.229999959E-1,-1.031000018E0,-3.416199923E0
3.714600000E1,4.790999889E-1,-6.535999775E-1,-3.872900009E0
3.717599844E1,7.351999879E-1,-3.080999851E-1,-3.422899961E0
3.719600000E1,9.412999749E-1,-7.669999450E-2,-3.572000027E0
3.722599844E1,1.125499964E0,5.138999820E-1,-4.067299843E0
3.724599844E1,4.705999792E-1,8.068000078E-1,-2.985399961E0
3.726599844E1,-1.525000036E-1,6.505999565E-1,-1.715699911E0
3.728599844E1,-5.931000113E-1,6.003999710E-1,-8.721999526E-1
3.730599844E1,-8.702999949E-1,8.206999898E-1,-3.556999862E-1
3.732600000E1,-9.359999895E-1,7.214999795E-1,4.339999706E-2
3.735599844E1,-1.242699981E0,8.177999854E-1,1.601799965E0
3.737599844E1,-1.085699916E0,5.884999633E-1,2.875799894E0
3.739600000E1,-9.420999885E-1,6.004999876E-1,4.013099670E0
3.742600000E1,1.938000023E-1,1.116299987E0,4.642499924E0
3.745599844E1,2.244999886E0,6.775000095E-1,5.316199780E0
3.747599844E1,2.601799965E0,2.397999913E-1,5.772299767E0
3.749599844E1,1.696299911E0,-4.215999842E-1,5.552299976E0
3.751599844E1,8.228999972E-1,-1.133999944E0,4.227399826E0
3.753599844E1,1.035499930E0,-2.024499893E0,2.186100006E0
3.755600156E1,1.646199942E0,-2.495699883E0,-5.539999902E-2
3.758600156E1,2.197700024E0,-2.470299959E0,-1.778199911E0
3.761599844E1,1.115899920E0,-1.827099919E0,-1.726300001E0
3.763599844E1,4.129999876E-1,-1.282899976E0,-1.623799920E0
3.765599844E1,-1.527999938E-1,-7.933999896E-1,-1.981599927E0
3.767599844E1,-3.664000034E-1,-2.797999978E-1,-2.504299879E0
3.769599844E1,-3.707999885E-1,4.559999704E-2,-2.976899862E0
3.771599844E1,-6.773999929E-1,3.272999823E-1,-3.197299957E0
3.773599844E1,-1.044299960E0,4.253999889E-1,-2.911599874E0
3.775600000E1,-1.379400015E0,5.116999745E-1,-2.422099829E0
3.777600000E1,-1.617999911E0,4.287999868E-1,-2.169100046E0
3.779600000E1,-1.917899966E0,4.667999744E-1,-2.121399879E0
3.781600000E1,-1.998199940E0,5.661999583E-1,-1.936999917E0
3.783600000E1,-1.588499904E0,7.184999585E-1,-1.607100010E0
3.785600000E1,-9.544000030E-1,1.131899953E0,-9.649999738E-1
3.787600000E1,-8.075000048E-1,2.526099920E0,4.576999843E-1
3.789600000E1,1.792999953E-1,3.736599922E0,2.567600012E0
3.791600000E1,1.264500022E0,3.942999840E0,3.792699814E0
3.794600000E1,1.179999948E0,3.169699907E0,3.263799906E0
3.796600000E1,1.640000008E-2,2.037600040E0,1.983299971E0
3.798600469E1,-2.445600033E0,1.600699902E0,1.525499940E0
3.801600156E1,-4.120199680E0,2.899999917E-1,2.079200029E0
3.804600000E1,-1.926199913E0,-1.974900007E0,1.069700003E0
3.806600000E1,-2.757400036E0,-2.305500031E0,4.593999982E-1
3.808600000E1,-4.159100056E0,-2.235399961E0,1.315199971E0
3.810600000E1,-4.106100082E0,-2.639600039E0,2.474400043E0
3.812600000E1,-2.757499933E0,-3.214599848E0,2.297799826E0
3.814600000E1,-4.344999790E-1,-3.760699987E0,7.857999802E-1
3.816600000E1,3.585999906E-1,-3.417500019E0,4.090999961E-1
3.818600000E1,4.440999925E-1,-3.113699913E0,1.740899920E0
3.820600000E1,6.453999877E-1,-3.067899942E0,1.636399984E0
3.822600000E1,8.269999623E-1,-2.796599865E0,1.027999967E-1
3.824600000E1,5.643000007E-1,-2.146499872E0,-1.059800029E0
3.826600000E1,4.500999749E-1,-1.923900008E0,-2.567299843E0
3.828600000E1,1.526999921E-1,-1.568899989E0,-3.317899942E0
3.830600000E1,-3.070000000E-2,-1.185899973E0,-3.036299944E0
3.832600156E1,9.139999747E-2,-1.079499960E0,-2.606999874E0
3.835600000E1,3.127999902E-1,-7.714999914E-1,-2.069299936E0
3.837600000E1,7.515000105E-1,-4.921999872E-1,-1.820299983E0
3.839600156E1,1.094599962E0,1.579999924E-2,-1.586399913E0
3.842600000E1,5.417999625E-1,7.536999583E-1,-1.707700014E0
3.844600000E1,3.838000000E-1,8.284999728E-1,-1.011799932E0
3.846600000E1,9.930999875E-1,6.640999913E-1,-1.638000011E-1
3.848600156E1,1.651699901E0,3.944000006E-1,9.835000038E-1
3.851600156E1,1.119199991E0,4.034000039E-1,2.517299891E0
3.854600156E1,6.255999804E-1,1.422999948E-1,2.334300041E0
3.857600000E1,1.655699968E0,-2.595999837E-1,2.570299864E0
3.859600156E1,2.356499910E0,-4.425999820E-1,3.721799850E0
3.861600156E1,2.619400024E0,-1.929999888E-1,4.477999687E0
3.864600000E1,2.792199850E0,-2.066999972E-1,1.702999949E0
3.866600000E1,2.582700014E0,-6.309999824E-1,-8.568999767E-1
3.868600000E1,1.671599984E0,-8.912999630E-1,-2.468400002E0
3.870600000E1,7.015999556E-1,-8.152999878E-1,-2.985499859E0
3.872600156E1,3.260999918E-1,-7.677999735E-1,-2.554899931E0
3.875600156E1,-3.091999888E-1,-5.468999743E-1,-1.045400023E0
3.878601094E1,-7.089999914E-1,-1.089999974E-1,-9.099999666E-1
3.881600000E1,-8.269999623E-1,2.897999883E-1,-1.012699962E0
3.883600156E1,-4.272999763E-1,5.156999826E-1,-1.475600004E0
3.886600000E1,-3.726999760E-1,7.394999862E-1,-1.238099933E0
3.888600000E1,-7.152999640E-1,7.123999596E-1,-1.334599972E0
3.890600156E1,-1.098500013E0,6.879000068E-1,-1.423599958E0
3.892600156E1,-9.645999670E-1,6.779999733E-1,-1.518499970E0
3.894600156E1,-1.242999956E-1,6.667999625E-1,-1.762599945E0
3.897600156E1,6.588000059E-1,6.414999962E-1,-1.897399902E0
3.900600000E1,1.323999912E-1,9.296000004E-1,-1.951499939E0
3.902600000E1,3.299999982E-2,1.268899918E0,-2.107499838E0
3.904600000E1,4.315999746E-1,1.419699907E0,-1.800300002E0
3.906600000E1,9.535999894E-1,1.276600003E0,-1.288499951E0
3.908600000E1,1.448599935E0,1.125999928E0,-1.003000021E0
3.910600000E1,2.139799833E0,7.577999830E-1,-8.926999569E-1
3.912600000E1,2.204699993E0,5.008999705E-1,-8.464999795E-1
3.914600000E1,1.905399919E0,2.620999813E-1,-9.954999685E-1
3.916600000E1,1.236999989E0,4.684999883E-1,-1.146600008E0
3.918600000E1,3.613999784E-1,8.478999734E-1,-1.170599937E0
3.920600000E1,-4.781999886E-1,1.085699916E0,-1.482699990E0
3.922600156E1,-1.650499940E0,1.253399968E0,-1.515999913E0
3.925600156E1,-2.105599880E0,7.942999601E-1,-2.005999982E-1
3.928600000E1,6.664999723E-1,-1.026899934E0,1.365800023E0
3.930600469E1,2.290999889E-1,-1.427099943E0,1.022400022E0
3.933600156E1,-1.164499998E0,-1.603500009E0,6.306999922E-1
3.936600000E1,2.531999946E-1,-1.407499909E0,1.821299911E0
3.938601250E1,1.460399985E0,-1.387499928E0,4.325799942E0
3.941600156E1,1.657400012E0,-1.039199948E0,4.438600063E0
3.944600000E1,6.438999772E-1,-1.881999969E-1,1.902300000E0
3.946600000E1,4.451999962E-1,4.824000001E-1,-7.239999622E-2
3.948600000E1,4.219999909E-1,9.201999903E-1,-9.192000031E-1
3.950600000E1,4.593999982E-1,1.113799930E0,-1.237800002E0
3.952600000E1,5.916000009E-1,1.269199967E0,-1.285599947E0
3.954600000E1,7.785999775E-1,1.445299983E0,-1.021999955E0
3.956600000E1,9.522999525E-1,1.604299903E0,-1.587999910E-1
3.958601094E1,1.168499947E0,1.295199990E0,1.757999957E-1
3.961600000E1,1.065999985E0,9.988999963E-1,-8.273999691E-1
3.963600000E1,9.533999562E-1,9.393999577E-1,-1.360799909E0
3.965600156E1,1.159999967E0,5.819999576E-1,-1.168499947E0
3.968600156E1,1.408399940E0,-3.533999920E-1,-8.186999559E-1
3.971600000E1,8.985999823E-1,-9.733999968E-1,-1.816999912E-1
3.973600000E1,2.373999953E-1,-1.341499925E0,6.247999668E-1
3.975600000E1,-6.856999993E-1,-1.279600024E0,6.143999696E-1
3.977600000E1,-1.160899997E0,-1.153499961E0,4.229999781E-1
3.979600000E1,-8.186999559E-1,-1.114099979E0,6.444000006E-1
3.981600000E1,-3.687999845E-1,-7.667999864E-1,1.474299908E0
3.983600000E1,7.032999992E-1,-1.480399966E0,2.697799921E0
3.985600000E1,1.924999952E0,-2.131899834E0,3.606499910E0
3.987600000E1,1.901299953E0,-1.238999963E0,3.173399925E0
3.989600000E1,1.422899961E0,-6.283999681E-1,1.955199957E0
3.992599844E1,8.159999549E-2,4.862999916E-1,-8.838999867E-1
3.994599844E1,-7.706999779E-1,1.403800011E0,-1.976899981E0
3.996600000E1,-1.342499971E0,2.066999912E0,-1.692799926E0
3.998601875E1,-1.774699926E0,2.247599840E0,-1.256999969E0
4.001600000E1,-2.396899939E0,2.547899961E0,-7.807999849E-1
4.004600000E1,-2.400399923E0,2.122599840E0,-1.235299945E0
4.006600000E1,-2.507699966E0,1.967499971E0,-2.241999865E0
4.008600000E1,-2.239500046E0,1.865199924E0,-2.092499971E0
4.010600000E1,-1.618099928E0,1.483799934E0,-1.097599983E0
4.012600000E1,-7.450000048E-1,8.868999481E-1,3.899999894E-3
4.014600000E1,-5.212000012E-1,6.401000023E-1,1.596899986E0
4.016600000E1,-9.129999578E-2,3.542000055E-1,2.649099827E0
4.018600000E1,7.774999738E-1,-6.289999932E-2,2.787600040E0
4.020600000E1,1.085600019E0,-2.319999933E-1,2.433199883E0
4.022600000E1,-1.399999950E-2,1.981000006E-1,9.782999754E-1
4.025600000E1,-1.733500004E0,6.406999826E-1,-7.471999526E-1
4.027600000E1,-2.958000004E-1,-9.080999494E-1,4.680999815E-1
4.029600000E1,7.410999537E-1,-1.410799980E0,2.920899868E0
4.031600000E1,9.388999939E-1,-1.821399927E0,5.570699692E0
4.033600000E1,8.287000060E-1,-2.565199852E0,5.839499950E0
4.035600000E1,1.143899918E0,-2.381599903E0,3.813799858E0
4.037600000E1,1.738199949E0,-2.223599911E0,7.418000102E-1
4.039600000E1,1.655699968E0,-1.965699911E0,-2.004999876E0
4.041600000E1,9.876999855E-1,-1.477299929E0,-3.188499928E0
4.043600000E1,2.962999940E-1,-1.300400019E0,-3.414199829E0
4.046599844E1,4.960999787E-1,-1.072600007E0,-3.303599834E0
4.048600000E1,1.268599987E0,-7.030000091E-1,-3.217199802E0
4.051599844E1,2.203099966E0,-6.352999806E-1,-3.379799843E0
4.053599844E1,2.265399933E0,-8.210999966E-1,-2.769500017E0
4.055599844E1,2.085700035E0,-1.218500018E0,-2.496000051E0
4.057600000E1,1.608199954E0,-1.487999916E0,-1.694000006E0
4.060599844E1,1.522499919E0,-1.528199911E0,-1.794699907E0
4.062599844E1,2.125999928E0,-1.491400003E0,-1.949799895E0
4.064599844E1,2.000299931E0,-1.197000027E0,-1.611699939E0
4.066599844E1,9.082999825E-1,-9.668999910E-1,-7.192999721E-1
4.068600000E1,-3.041000068E-1,-6.972999573E-1,-1.067999974E-1
4.071599844E1,-6.972000003E-1,-3.427000046E-1,1.125299931E0
4.073599844E1,1.134799957E0,-1.311599970E0,2.774499893E0
4.075599844E1,1.121099949E0,-7.501999736E-1,5.195499897E0
4.077599844E1,5.350999832E-1,-7.218999863E-1,6.283199787E0
4.079599844E1,-2.351000011E-1,-9.549999833E-1,4.846499920E0
4.081599844E1,-8.399999700E-3,-1.321099997E0,2.685299873E0
4.083600000E1,5.169000030E-1,-7.451999784E-1,1.463799953E0
4.086599844E1,4.615999758E-1,-2.513999939E-1,1.328499913E0
4.088599844E1,-4.230000079E-2,-3.599999938E-3,5.809999704E-1
4.090599844E1,-5.278999805E-1,1.844999939E-1,-7.249999642E-1
4.092599844E1,-8.666999936E-1,5.148999691E-1,-1.975099921E0
4.094599844E1,-1.014199972E0,7.160999775E-1,-2.754400015E0
4.096599844E1,-9.896000028E-1,8.277999759E-1,-3.251499891E0
4.098600000E1,-9.379999638E-1,8.446999788E-1,-3.543900013E0
4.100600000E1,-1.128399968E0,1.049600005E0,-3.409399986E0
4.103599844E1,-1.392799973E0,1.197399974E0,-2.386600018E0
4.105600000E1,-1.639699936E0,1.191399932E0,-1.556399941E0
4.107600000E1,-1.824899912E0,1.094900012E0,-6.216999888E-1
4.109600000E1,-2.355099916E0,1.254099965E0,2.497999966E-1
4.111600000E1,-2.746799946E0,1.265299916E0,1.193099976E0
4.113600000E1,-2.584899902E0,9.196999669E-1,2.011199951E0
4.115600000E1,-1.916499972E0,5.250999928E-1,2.562000036E0
4.117600000E1,-8.373999596E-1,9.529999644E-2,3.107699871E0
4.119600000E1,-1.056999937E-1,-5.199999735E-2,3.819399834E0
4.121600000E1,-2.324999869E-1,-4.299999680E-3,4.487699986E0
4.123600000E1,-4.156999886E-1,-3.673999906E-1,4.520199776E0
4.125600000E1,-9.404000044E-1,-2.335999906E-1,3.583400011E0
4.127600000E1,-1.675399899E0,3.046999872E-1,2.002599955E0
4.130600000E1,-1.272199988E0,-6.629999727E-2,-6.269999593E-2
4.132600000E1,-4.203999937E-1,-4.519999921E-1,-5.819000006E-1
4.134600000E1,4.381999969E-1,-7.874000072E-1,4.833000004E-1
4.136600000E1,7.109000087E-1,-1.430199981E0,1.740700006E0
4.138600000E1,8.138999939E-1,-1.953599930E0,2.357699871E0
4.140600000E1,1.393000007E0,-2.664999962E0,1.786199927E0
4.142600000E1,1.623600006E0,-2.798499823E0,2.008999884E-1
4.144600000E1,1.039499998E0,-2.115099907E0,-1.260299921E0
4.146600000E1,7.670999765E-1,-1.672799945E0,-2.045199871E0
4.148600000E1,8.500999808E-1,-1.355399966E0,-2.822399855E0
4.151600156E1,1.609300017E0,-1.276600003E0,-3.370399952E0
4.154600000E1,1.953199983E0,-1.189299941E0,-4.378499985E0
4.156600000E1,1.387099981E0,-8.912999630E-1,-4.721899986E0
4.158600000E1,9.562999606E-1,-7.188000083E-1,-4.800999641E0
4.160600000E1,4.957999885E-1,-4.007000029E-1,-3.866099834E0
4.162600000E1,3.549000025E-1,1.395999938E-1,-2.418999910E0
4.164600000E1,5.297999978E-1,5.770999789E-1,-1.128299952E0
4.166600000E1,5.582999587E-1,9.741999507E-1,-3.788000047E-1
4.168600000E1,9.728999734E-1,1.118499994E0,5.079999939E-2
4.170600000E1,1.302500010E0,8.714999557E-1,8.578000069E-1
4.172600000E1,5.142999887E-1,1.186900020E0,2.056599855E0
4.174600000E1,-9.739999771E-1,1.286299944E0,2.843099833E0
4.176600000E1,-2.331399918E0,1.354699969E0,2.808199883E0
4.178600000E1,-2.417999983E0,1.325899959E0,2.920799971E0
4.180600000E1,-1.426399946E0,9.422000051E-1,3.980700016E0
4.182600000E1,-5.213999748E-1,5.005999804E-1,5.401299953E0
4.184600000E1,-1.499999966E-2,3.030999899E-1,6.297199726E0
4.187600000E1,-2.466999888E-1,-3.145000041E-1,5.315199852E0
4.190600000E1,1.194800019E0,-1.773099899E0,2.976899862E0
4.192600000E1,2.336899996E0,-2.306799889E0,1.874899983E0
4.194600000E1,3.309899807E0,-2.400399923E0,1.180999994E0
4.196600000E1,3.398199797E0,-2.176300049E0,3.278999925E-1
4.198600000E1,2.325799942E0,-1.384999990E0,-6.923999786E-1
4.201600000E1,1.134500027E0,-6.760999560E-1,-2.440599918E0
4.204600156E1,7.502999902E-1,-2.746999860E-1,-3.640699863E0
4.207600000E1,6.682999730E-1,7.710000128E-2,-3.844399929E0
4.209600000E1,6.502000093E-1,1.903999895E-1,-3.813599825E0
4.211600000E1,2.988999784E-1,1.563999951E-1,-3.910699844E0
4.213600000E1,-1.601999998E-1,2.149999887E-1,-3.783399820E0
4.215600000E1,-6.060999632E-1,2.842999995E-1,-3.265599966E0
4.217600000E1,-8.792999983E-1,3.075000048E-1,-2.396499872E0
4.219600000E1,-9.685999751E-1,2.173999995E-1,-1.487599969E0
4.221600000E1,-1.042699933E0,3.172999918E-1,-9.498999715E-1
4.223600000E1,-1.210999966E0,6.895999908E-1,-5.291999578E-1
4.225600000E1,-1.085299969E0,1.045599937E0,-6.849999726E-2
4.227600000E1,-7.308999896E-1,1.200299978E0,6.572999954E-1
4.230600000E1,-6.513999701E-1,1.369899988E0,1.088899970E0
4.232600000E1,-5.162000060E-1,1.106899977E0,1.471399903E0
4.234600000E1,-3.362999856E-1,9.117999673E-1,2.324800014E0
4.236600000E1,-9.739999473E-2,1.016000032E0,2.972599983E0
4.238600000E1,2.507999837E-1,1.645900011E0,3.405200005E0
4.240600000E1,1.143800020E0,1.582299948E0,3.799499989E0
4.242600000E1,1.397899985E0,8.630999923E-1,4.556699753E0
4.244600000E1,2.692999840E-1,4.666000009E-1,4.969599724E0
4.246600000E1,-8.865000010E-1,-1.946000010E-1,3.497999907E0
4.248600000E1,-1.053799987E0,-8.053999543E-1,1.222899914E0
4.250600000E1,-1.235999987E-1,-1.204599977E0,-5.467999578E-1
4.252600000E1,1.290599942E0,-1.486899972E0,-6.383000016E-1
4.254600000E1,2.131999969E0,-1.788399935E0,4.117999971E-1
4.256600000E1,1.679299951E0,-1.833999991E0,9.900999665E-1
4.258600000E1,6.675999761E-1,-1.843499899E0,3.651999831E-1
4.260600000E1,9.259999543E-2,-1.775299907E0,-1.079699993E0
4.262600000E1,1.938000023E-1,-1.490799904E0,-2.356299877E0
4.264600000E1,5.069000125E-1,-1.161100030E0,-2.918099880E0
4.266600000E1,7.146999836E-1,-8.743999600E-1,-3.431900024E0
4.268600000E1,6.317999959E-1,-5.155000091E-1,-3.955399990E0
4.270600000E1,6.146000028E-1,-3.260999918E-1,-4.274899960E0
4.272600000E1,5.166000128E-1,-1.788000017E-1,-4.206500053E0
4.274600000E1,2.985999882E-1,-9.789999574E-2,-3.623999834E0
4.276600000E1,6.939999759E-2,-7.459999621E-2,-2.700799942E0
4.278600000E1,-6.069999933E-2,-7.109999657E-2,-1.780499935E0
4.280600000E1,-7.091999650E-1,2.696999907E-1,-1.171100020E0
4.282600156E1,-1.278900027E0,7.102999687E-1,-9.808999896E-1
4.285600000E1,-1.276700020E0,1.172500014E0,-6.530999541E-1
4.287600000E1,-9.294999838E-1,1.272699952E0,1.569999903E-1
4.289600000E1,-5.993999839E-1,1.116599917E0,1.683599949E0
4.292600000E1,-1.448999941E-1,9.319999814E-1,3.855399847E0
4.294600000E1,-1.424999982E-1,1.026799917E0,4.511300087E0
4.296600000E1,4.708999991E-1,7.949999571E-1,4.708199978E0
4.298600000E1,1.480899930E0,2.924000025E-1,4.906099796E0
4.300600000E1,2.641299963E0,-6.133999825E-1,4.957299709E0
4.302600000E1,3.170499802E0,-1.682699919E0,4.115299702E0
4.304600000E1,2.433599949E0,-1.856299996E0,2.034800053E0
4.306600000E1,1.768399954E0,-1.753600001E0,-5.810000002E-2
4.308600000E1,2.249899864E0,-1.972499967E0,-1.839800000E0
4.310600000E1,3.341099977E0,-2.029799938E0,-2.186699867E0
4.312600000E1,3.394899845E0,-1.599099994E0,-1.646600008E0
4.314600156E1,2.142699957E0,-1.103799939E0,-8.355999589E-1
4.317600000E1,5.317999721E-1,-6.624000072E-1,-2.412000000E-1
4.319600000E1,1.667999923E-1,-7.499999832E-3,-6.351999640E-1
4.321600781E1,3.911999762E-1,1.494999975E-1,-1.714399934E0
4.324600000E1,-3.058999777E-1,3.185999990E-1,-3.548300028E0
4.326600000E1,-1.373499990E0,7.993999720E-1,-3.675999880E0
4.328600000E1,-2.151999950E0,9.660999775E-1,-3.127199888E0
4.330600000E1,-2.164499998E0,1.050400019E0,-2.421599865E0
4.332600000E1,-1.308799982E0,9.044999480E-1,-1.500299931E0
4.334600000E1,-5.690000057E-1,9.386000037E-1,-1.656999886E-1
4.336600000E1,-2.126999944E-1,9.400999546E-1,1.269699931E0
4.338600000E1,-5.941999555E-1,1.207399964E0,1.697699904E0
4.340600000E1,-1.057399988E0,1.406499982E0,1.594099998E0
4.342600000E1,-7.935999632E-1,1.253600001E0,1.328400016E0
4.344600000E1,2.466999888E-1,9.969999790E-1,1.246899962E0
4.346600000E1,1.023699999E0,5.942999721E-1,1.860599995E0
4.348600000E1,1.214399934E0,-1.035999954E-1,2.927700043E0
4.350600000E1,5.115999579E-1,-4.673999846E-1,3.309700012E0
4.352600000E1,-7.766999602E-1,1.208999977E-1,2.858199835E0
4.354600156E1,-1.221300006E0,3.770000041E-1,2.239500046E0
4.357600000E1,-8.496999741E-1,3.594999909E-1,1.895299911E0
4.359600000E1,-9.400999546E-1,-3.130000085E-2,1.268599987E0
4.361600000E1,-8.923999667E-1,-5.564000010E-1,2.028999925E-1
4.363600000E1,-4.251999855E-1,-1.097100019E0,-6.423000097E-1
4.365600000E1,5.607999563E-1,-1.473099947E0,-3.865999877E-1
4.367600000E1,1.133800030E0,-1.834800005E0,4.669999778E-1
4.369600000E1,5.713999867E-1,-1.868199944E0,1.495700002E0
4.371600000E1,-4.690999985E-1,-1.811699986E0,1.364899993E0
4.373600000E1,-1.121999979E0,-1.470699906E0,1.204999983E-1
4.375600000E1,-9.264000058E-1,-1.145099998E0,-1.469499946E0
4.377600000E1,-5.188999772E-1,-7.400000095E-1,-2.708199978E0
4.379600000E1,-2.066999972E-1,-5.457000136E-1,-3.261799812E0
4.381600000E1,-8.599999547E-2,-4.804999828E-1,-3.323599815E0
4.383600000E1,-1.092000008E-1,-4.563999772E-1,-3.227499962E0
4.385600000E1,-2.374999970E-1,-3.799999952E-1,-3.041299820E0
4.387600000E1,-3.428999782E-1,-3.310999870E-1,-2.971699953E0
4.389600000E1,-2.407999933E-1,-1.816999912E-1,-2.687000036E0
4.391600000E1,1.989999972E-2,-9.479999542E-2,-2.080699921E0
4.393600000E1,4.334999919E-1,8.499999531E-3,-1.348199964E0
4.395600000E1,4.181999862E-1,2.728999853E-1,-6.750999689E-1
4.397600000E1,-6.399999838E-3,5.220999718E-1,-7.019999623E-2
4.399600000E1,-3.046999872E-1,5.879999995E-1,2.113999873E-1
4.401600000E1,-2.074999958E-1,6.299999952E-1,5.430999994E-1
4.404600000E1,4.659999907E-2,5.881999731E-1,1.961899996E0
4.406600000E1,-4.141999781E-1,8.409000039E-1,2.892699957E0
4.408600000E1,-9.470999837E-1,1.054700017E0,3.344300032E0
4.410600000E1,-5.062000155E-1,8.812999725E-1,3.767499924E0
4.412600000E1,7.985000014E-1,2.739000022E-1,4.409199715E0
4.414600000E1,1.672299981E0,-2.523999810E-1,5.319099903E0
4.416600000E1,1.571599960E0,-8.592999578E-1,5.285999775E0
4.418600000E1,1.188199997E0,-1.318699956E0,3.458499908E0
4.420600000E1,1.544499993E0,-1.551299930E0,1.262899995E0
4.422600000E1,2.600600004E0,-1.717499971E0,-4.663999975E-1
4.424600000E1,3.230199814E0,-1.649599910E0,-9.457999468E-1
4.426600000E1,2.494599819E0,-1.397099972E0,-7.884999514E-1
4.428600000E1,1.127200007E0,-9.113999605E-1,-1.290199995E0
4.430600000E1,3.955999911E-1,-5.873000026E-1,-2.263000011E0
4.432600000E1,8.209999651E-2,-2.927999794E-1,-3.086799860E0
4.434600000E1,-7.159999758E-2,3.460000083E-2,-3.507399797E0
4.436600000E1,-2.608000040E-1,2.457999885E-1,-3.614099979E0
4.438600000E1,-6.031000018E-1,3.112999797E-1,-3.740499973E0
4.440600000E1,-9.598999619E-1,3.504999876E-1,-3.788999796E0
4.442600000E1,-1.262499928E0,3.759000003E-1,-3.357999802E0
