"Time (s)","Acceleration x (m/s^2)","Acceleration y (m/s^2)","Acceleration z (m/s^2)"
0.000000000E0,-5.556042194E0,4.419562340E0,6.736852646E0
2.000000000E-2,-4.872698307E0,4.025419235E0,6.724699497E0
4.000000000E-2,-4.180697918E0,3.696973085E0,6.742148399E0
6.199843700E-2,-3.757105827E0,3.045051098E0,7.335020065E0
8.200000000E-2,-3.731842279E0,2.425240278E0,8.029778481E0
1.020000000E-1,-3.905938864E0,2.443186998E0,8.827728271E0
1.239984370E-1,-3.717400312E0,2.087820530E0,1.259822273E1
1.440187500E-1,-3.083913803E0,2.515597343E0,1.319267368E1
1.660000000E-1,-3.187860250E0,2.837234259E0,1.080386448E1
1.879984370E-1,-9.617029428E-1,1.732042074E0,8.777430534E0
2.079984370E-1,-6.881414652E-1,1.155508757E0,9.658218384E0
2.280015620E-1,-7.302315533E-2,6.696486473E-1,1.011721706E1
2.500000000E-1,8.046624660E-1,1.995614916E-1,9.286927223E0
2.700000000E-1,1.708004355E0,-6.953911185E-1,9.475982666E0
2.919984370E-1,2.749702454E0,-1.999167919E0,1.013455963E1
3.120000000E-1,3.159829140E0,-3.762277365E0,1.059541512E1
3.340000000E-1,2.244104385E0,-3.001256466E0,1.032984066E1
3.540125000E-1,1.218265593E-1,1.066185907E-1,9.831549644E0
3.760140620E-1,-5.932544470E-1,1.735173702E0,1.295743847E1
3.979984370E-1,-7.757788301E-1,2.574283838E0,7.385757923E0
4.180062500E-1,2.570893764E-1,2.533295155E0,6.644091606E0
4.399984370E-1,-2.533639967E-1,2.849119186E0,8.321699142E0
4.599984370E-1,-1.636092067E0,3.808523655E0,1.013297939E1
4.799984370E-1,-2.143672466E0,3.814442158E0,1.172663689E1
4.999984370E-1,-2.226157427E0,3.386368513E0,1.255005074E1
5.199984370E-1,-1.706433773E0,2.853965044E0,1.255449390E1
5.399984370E-1,-8.808746934E-1,1.981039047E0,1.217955303E1
5.599984370E-1,2.442660332E-1,1.130168557E0,1.270823097E1
5.799984370E-1,5.693507791E-1,4.938759208E-1,1.255948448E1
5.999984370E-1,-3.805823028E-1,-1.845354885E-1,1.154807758E1
6.199984370E-1,-8.533892781E-2,3.587759137E-1,1.053870106E1
6.399984370E-1,3.689943552E-1,5.939535424E-2,9.151050568E0
6.599984370E-1,8.133486509E-1,5.110854506E-1,8.655824661E0
6.799984370E-1,5.474677086E-1,5.123304725E-1,7.894956589E0
6.999984370E-1,3.717237413E-1,7.867538333E-1,7.160454273E0
7.199984370E-1,-1.609956920E-1,7.137785554E-1,7.164064407E0
7.399984370E-1,-8.069512844E-1,9.111661315E-1,6.927076817E0
7.599984370E-1,-9.837583303E-1,9.940438271E-1,6.364535332E0
7.799984370E-1,-1.099312186E0,1.325315237E0,6.269159794E0
8.000000000E-1,-1.244831681E0,1.955334902E0,6.528499603E0
8.219984370E-1,-1.052835822E0,1.944388628E0,6.417418480E0
8.419984370E-1,-8.048539758E-1,1.690459609E0,6.488650322E0
8.619984370E-1,-7.565773129E-1,1.701367497E0,6.878426552E0
8.820000000E-1,-7.479773760E-1,1.651750088E0,8.098961830E0
9.039984370E-1,-9.289789796E-1,1.932637930E0,9.661657333E0
9.240000000E-1,-8.329140544E-1,1.999196768E0,1.094627190E1
9.459984370E-1,-3.573298156E-1,1.916491508E0,1.160929298E1
9.659984370E-1,-9.493488073E-2,2.048871517E0,1.222566509E1
9.859984370E-1,-5.399403721E-2,2.188242912E0,1.288857269E1
1.005998437E0,-8.877700195E-3,2.012489319E0,1.296608734E1
1.025998437E0,-4.877563417E-1,2.009788752E0,1.270400810E1
1.045998437E0,-9.659550190E-1,1.911214590E0,1.254423809E1
1.065998437E0,-6.779325604E-1,1.244889140E0,1.292627525E1
1.085998437E0,-6.673980951E-1,4.225191474E-1,1.398151588E1
1.105998437E0,-1.132974625E0,-9.086474776E-2,1.447507477E1
1.125998437E0,-1.293433905E0,-3.629035056E-1,1.360252285E1
1.145998437E0,-7.198981047E-1,-3.959818184E-1,1.248287010E1
1.165998437E0,1.446289420E-1,-8.833646029E-2,1.152309227E1
1.185998437E0,6.637684703E-1,-1.006905437E-1,1.056205940E1
1.205998437E0,4.707479179E-1,6.023811176E-2,9.440586090E0
1.225998437E0,6.298665702E-2,2.784648240E-1,8.219505310E0
1.245998437E0,-2.241547406E-1,4.601368308E-1,7.822594166E0
1.265998437E0,-7.601111382E-2,3.324301243E-1,7.821751595E0
1.285998437E0,2.165986300E-1,2.517167926E-1,7.767594814E0
1.305998437E0,4.964137971E-1,3.251613081E-1,7.212206841E0
1.325998437E0,7.913794518E-1,5.391837955E-1,6.651695728E0
1.345998437E0,8.601983786E-1,7.273776531E-1,6.196251392E0
1.365998437E0,7.513675690E-1,9.191532135E-1,5.825820923E0
1.386000000E0,5.178179145E-1,1.368439436E0,5.794226646E0
1.407998437E0,2.029325366E-1,2.011550665E0,6.658839703E0
1.427998437E0,-1.496854872E-1,2.225113630E0,8.288792610E0
1.447998437E0,-3.760524690E-1,2.145932674E0,9.298246384E0
1.467998437E0,-7.452000976E-1,2.171636820E0,9.969886780E0
1.487998437E0,-6.718130112E-1,2.111331463E0,1.102227211E1
1.507998437E0,-3.347189724E-1,1.770732403E0,1.286434269E1
1.527998437E0,-2.903113067E-1,1.073129058E0,1.379369545E1
1.547998437E0,-7.019990683E-1,9.271402359E-1,1.362876320E1
1.567998437E0,-2.960861325E-1,4.980035424E-1,1.346020222E1
1.587998437E0,6.620255113E-1,2.177765779E-2,1.383990288E1
1.607998437E0,1.354332924E0,-9.432196617E-2,1.394157028E1
1.627998437E0,1.671162367E0,-3.456078172E-1,1.305704689E1
1.647998437E0,2.195693493E0,-2.676909268E-1,1.187886047E1
1.668000000E0,2.816165209E0,-3.185437620E-1,1.101394081E1
1.689998437E0,2.616929531E0,-4.136414528E-1,1.022509956E1
1.709998437E0,1.739234209E0,-1.955009252E-1,8.873715401E0
1.729998437E0,6.654922962E-1,3.094553649E-1,7.515772343E0
1.749998437E0,-2.642145157E-1,5.867900848E-1,6.697482586E0
1.769998437E0,-7.499693036E-1,7.463971376E-1,5.926740646E0
1.789998437E0,-5.087008476E-1,5.964435339E-1,5.454326630E0
1.810000000E0,-3.721547127E-1,6.580511332E-1,5.479810715E0
1.830000000E0,-4.380239844E-1,8.903844357E-1,6.016571522E0
1.851998437E0,-9.468876123E-1,1.003103495E0,6.395449162E0
1.871998437E0,-1.306343555E0,9.133496881E-1,6.138608932E0
1.891998437E0,-1.269032240E0,1.068331003E0,5.894323349E0
1.911998437E0,-1.067172408E0,1.580881834E0,6.041116714E0
1.931998437E0,-1.066607356E0,2.222403288E0,7.557029247E0
1.951998437E0,-5.861101747E-1,1.882867336E0,9.291619301E0
1.971998437E0,-5.161898956E-2,1.616814017E0,9.957101822E0
1.991998437E0,-2.972257733E-1,1.338330030E0,1.094753551E1
2.011998437E0,-1.265862286E-1,5.339835882E-1,1.272922325E1
2.031998437E0,3.415855467E-1,2.514773607E-1,1.471567345E1
2.051998437E0,7.923083305E-1,4.263211489E-1,1.567845917E1
2.071998437E0,5.776825547E-1,2.105556726E-1,1.537862778E1
2.091998437E0,-6.133370399E-1,-1.357033551E-1,1.446299934E1
2.111998437E0,-1.756204486E0,-6.050147414E-1,1.390900040E1
2.131998437E0,-2.307426214E0,-1.107921600E0,1.352746964E1
2.151998437E0,-1.712074518E0,-1.197608352E0,1.296996498E1
2.171998437E0,-1.237898022E-1,-1.251372576E0,1.243280220E1
2.191998437E0,8.708382249E-1,-1.143461227E0,1.176175499E1
2.211998437E0,8.264784813E-1,-1.026336789E0,1.094555283E1
2.231998437E0,7.621510029E-1,-8.774175048E-1,9.978669167E0
2.252000000E0,8.142679930E-1,-7.253282070E-1,8.947840691E0
2.274000000E0,9.229838848E-1,-3.762344420E-1,8.215913773E0
2.294004687E0,6.068535447E-1,-6.257485598E-2,7.929825783E0
2.315998437E0,1.995423436E-1,2.543216944E-1,6.918898106E0
2.335998437E0,4.642836004E-2,3.531926274E-1,5.993501186E0
2.356000000E0,8.657433093E-2,6.568635702E-1,5.415722847E0
2.376000000E0,4.905240536E-1,8.520485163E-1,5.362312317E0
2.398000000E0,7.370310426E-1,9.386036992E-1,5.441005230E0
2.419998437E0,3.681133091E-1,1.121740937E0,5.625176907E0
2.440000000E0,1.495035291E-1,1.225323677E0,6.594388008E0
2.460000000E0,-5.739380419E-2,1.247991920E0,8.728915215E0
2.480000000E0,-2.768367529E-1,9.812970757E-1,1.103469372E1
2.500000000E0,-1.764239371E-1,7.120643258E-1,1.246280670E1
2.522000000E0,1.240771115E-1,7.824347019E-1,1.290669155E1
2.542000000E0,5.323076844E-1,9.664817452E-1,1.276385307E1
2.564000000E0,8.843894005E-1,1.104224920E0,1.255456161E1
2.585998437E0,1.195578098E0,9.143838882E-1,1.313655376E1
2.605998437E0,1.740594268E0,4.969500601E-1,1.479307365E1
2.625998437E0,1.803657413E0,-2.656414807E-1,1.616066933E1
2.645998437E0,1.249093413E0,-8.704455495E-1,1.583115101E1
2.665998437E0,1.418535709E0,-1.127659440E0,1.395704651E1
2.685998437E0,2.500207186E0,-8.351166844E-1,1.162486458E1
2.705998437E0,3.095319748E0,-4.128178358E-1,9.407449722E0
2.725998437E0,2.850278139E0,-3.007117286E-2,7.494014263E0
2.745998437E0,1.469589710E0,3.995252252E-1,6.748775959E0
2.765998437E0,-1.002021357E-1,7.446829081E-1,6.864769936E0
2.785998437E0,-1.091669798E0,7.882095575E-1,6.607537270E0
2.805998437E0,-1.633391500E0,9.312965870E-1,6.486821175E0
2.825998437E0,-1.941869974E0,1.098517179E0,7.245533943E0
2.845998437E0,-1.411362767E0,8.561090827E-1,6.981894493E0
2.865998437E0,-9.041942358E-1,8.531306982E-1,5.397775173E0
2.885998437E0,-7.633193731E-1,1.292428374E0,3.778500557E0
2.905998437E0,-1.072927952E0,1.916836143E0,3.382269621E0
2.925998437E0,-9.552385807E-1,1.831880331E0,5.184260845E0
2.945998437E0,-6.028025746E-1,1.716163874E0,8.929088593E0
2.965998437E0,5.868092775E-1,1.661327004E0,1.230510426E1
2.985998437E0,1.637538195E0,1.626745105E0,1.331284332E1
3.005998437E0,1.313526154E0,2.200462818E0,1.320481777E1
3.025998437E0,1.186001301E0,2.203834057E0,1.298875523E1
3.045998437E0,1.069499493E0,2.308297873E0,1.306224728E1
3.065998437E0,9.319190383E-1,2.433380365E0,1.356509686E1
3.085998437E0,6.335920095E-1,2.450130463E0,1.399416637E1
3.105998437E0,3.174136877E-1,2.229748726E0,1.439741707E1
3.125998437E0,2.049915493E-1,1.272747993E0,1.361376572E1
3.145998437E0,-2.475796044E-1,5.331503749E-1,1.236283398E1
3.165998437E0,-3.847003281E-1,2.579991817E-1,1.124500942E1
3.185998437E0,-3.786669672E-2,6.366661191E-2,1.117172813E1
3.205998437E0,1.083136816E-2,-2.269703196E-3,1.105163479E1
3.225998437E0,-4.757949114E-1,1.245272234E-1,1.006055069E1
3.245998437E0,-4.137372077E-1,3.548494279E-1,8.341131210E0
3.265998437E0,4.722993672E-1,6.564134955E-1,7.028715134E0
3.285998437E0,7.265348434E-1,9.100264907E-1,7.532024384E0
3.305998437E0,4.760343432E-1,9.029204845E-1,8.279944420E0
3.325998437E0,-2.751416527E-2,7.985907793E-1,8.058289528E0
3.345998437E0,-3.095223904E-1,8.162695169E-1,6.590298653E0
3.365998437E0,-9.153512120E-2,1.005124211E0,5.453570366E0
3.385998437E0,5.642462969E-1,1.112681270E0,4.778721333E0
3.405998437E0,9.692494273E-1,1.238147140E0,5.014779568E0
3.425998437E0,6.883138418E-1,1.370287895E0,5.489885330E0
3.445998437E0,8.066544682E-2,1.700812101E0,6.383171558E0
3.465998437E0,-3.495534360E-1,2.043824673E0,7.797857285E0
3.485998437E0,1.237514988E-1,2.143049955E0,1.010537052E1
3.505998437E0,8.292940259E-1,1.843066096E0,1.225296879E1
3.525998437E0,1.185321450E0,1.822035432E0,1.320363998E1
3.545998437E0,7.136061788E-1,2.479109526E0,1.358970928E1
3.565998437E0,-9.142115712E-1,3.124672651E0,1.340743351E1
3.585998437E0,-1.106781960E0,3.311401129E0,1.348575306E1
3.605998437E0,7.939842939E-1,2.298596382E0,1.398479080E1
3.625998437E0,1.719103932E0,1.298950195E0,1.539907455E1
3.645998437E0,8.737974167E-1,1.698446721E-1,1.611039162E1
3.665998437E0,5.854110718E-1,-3.264445961E-1,1.423135567E1
3.685998437E0,2.278370142E0,-3.254773617E-1,1.117335606E1
3.706000000E0,3.981796980E0,3.122805059E-1,8.786864281E0
3.727998437E0,3.992283344E0,4.383400381E-1,8.332444191E0
3.747998437E0,2.199878693E0,2.364034802E-1,8.089145660E0
3.767998437E0,4.673289955E-1,2.692902088E-1,7.628290653E0
3.787998437E0,-9.517621994E-1,8.694878817E-1,8.098684311E0
3.807998437E0,-1.588428378E0,1.142014980E0,7.951402187E0
3.827998437E0,-1.749960303E0,1.463470221E0,6.836662292E0
3.847998437E0,-1.505981565E0,1.630173564E0,4.381887436E0
3.867998437E0,-1.295224905E0,2.105288506E0,2.170746088E0
3.887998437E0,-1.043737888E0,2.853648901E0,1.764335036E0
3.907998437E0,-5.689772367E-1,2.882168770E0,3.578718424E0
3.927998437E0,9.385270532E-4,2.898870707E0,6.827583313E0
3.947998437E0,3.725952506E-1,2.668615580E0,9.808594704E0
3.967998437E0,6.143330336E-1,2.556633949E0,1.112242699E1
3.987998437E0,8.993770480E-1,2.942291975E0,1.149937057E1
4.007998437E0,1.558366656E0,3.280630827E0,1.213966560E1
4.027998437E0,2.451892376E0,3.465626240E0,1.362826538E1
4.047998437E0,3.001955271E0,3.549298525E0,1.466082668E1
4.067998437E0,2.696761608E0,3.321638823E0,1.423071384E1
4.087998437E0,1.456546187E0,3.471899033E0,1.278524780E1
4.107998437E0,6.669000983E-1,3.327499866E0,1.217050266E1
4.127998437E0,-5.068046227E-2,2.575978994E0,1.292600822E1
4.147998437E0,-1.111330986E0,1.573431015E0,1.324588299E1
4.167998437E0,-2.188530207E0,1.099168420E0,1.176989555E1
4.187998437E0,-1.890634060E0,1.410730720E0,9.682840347E0
4.208006250E0,-3.603656590E-1,1.739272594E0,8.941806793E0
4.230000000E0,9.498085380E-1,1.493637085E0,9.840341568E0
4.250000000E0,4.897866249E-1,1.093115807E0,1.098478889E1
4.270000000E0,-2.640804350E-1,8.847053647E-1,1.059879589E1
4.290000000E0,-4.773750901E-1,1.077438593E0,8.705374718E0
4.310000000E0,8.107724786E-2,1.370594263E0,6.541791916E0
4.331998437E0,7.816590071E-1,1.715426445E0,5.319963932E0
4.351998437E0,9.452882409E-1,1.803590417E0,5.397612572E0
4.371998437E0,1.001437187E0,1.494087100E0,5.446243763E0
4.392000000E0,7.657710314E-1,1.455444813E0,5.505505085E0
4.414000000E0,4.343369007E-1,1.509256840E0,5.559442043E0
4.435998437E0,1.397735029E-1,1.790154219E0,5.871377468E0
4.455998437E0,-4.786488041E-2,2.063581467E0,6.242833138E0
4.475998437E0,-2.453290522E-1,2.419063091E0,7.632465839E0
4.495998437E0,-3.252858222E-1,2.548101187E0,9.515878677E0
4.515998437E0,-5.768493414E-1,2.750353575E0,1.146318817E1
4.535998437E0,-7.143052816E-1,2.816682577E0,1.278153229E1
4.556000000E0,-8.413991332E-1,2.591378689E0,1.325838947E1
4.577998437E0,-5.621010661E-1,2.470107317E0,1.305108070E1
4.597998437E0,-2.736189663E-1,2.563261032E0,1.322004414E1
4.617998437E0,3.954550922E-1,2.511623144E0,1.370778084E1
4.637998437E0,1.565348268E0,2.140033245E0,1.448337746E1
4.657998437E0,2.192945004E0,1.263544679E0,1.514297199E1
4.677998437E0,1.595294952E0,5.358127356E-1,1.459021664E1
4.697998437E0,1.131605148E0,6.887735128E-1,1.213083553E1
4.717998437E0,2.264091253E0,6.677715778E-1,9.523061752E0
4.737998437E0,2.773222923E0,9.729173779E-1,8.340354919E0
4.757998437E0,2.102166414E0,5.680195689E-1,8.592407227E0
4.777998437E0,7.759416103E-1,5.314936638E-1,8.515333176E0
4.797998437E0,-1.223915964E-1,9.820728302E-1,8.358963013E0
4.817998437E0,-2.509506345E-1,1.295033336E0,7.615256310E0
4.837998437E0,-1.884332597E-1,1.689396620E0,6.382041454E0
4.857998437E0,1.310107112E-2,2.013332129E0,5.074931622E0
4.877998437E0,9.914868325E-2,2.308977842E0,4.645077229E0
4.897998437E0,-6.092764810E-2,2.373563766E0,4.798161983E0
4.917998437E0,-2.932705581E-1,2.423496962E0,4.953728199E0
4.937998437E0,-3.057491481E-1,2.539759636E0,5.469936848E0
4.957998437E0,-3.078847528E-1,2.676660061E0,6.563608170E0
4.977998437E0,-2.015151680E-1,2.568049669E0,8.318902016E0
4.997998437E0,1.745564640E-1,2.342956305E0,9.987680435E0
5.017998437E0,1.603349000E-1,2.113026619E0,1.133503246E1
5.037998437E0,-1.708215028E-1,2.039419413E0,1.219179153E1
5.057998437E0,-2.729772925E-1,2.353030920E0,1.274023628E1
5.077998437E0,2.722111642E-1,2.254629374E0,1.351552773E1
5.097998437E0,4.360798895E-1,2.124241114E0,1.402213097E1
5.117998437E0,-2.378878742E-1,2.332239628E0,1.413263798E1
5.137998437E0,-4.122049212E-1,1.823768854E0,1.461006069E1
5.157998437E0,-6.941556931E-1,1.098756552E0,1.504300880E1
5.177998437E0,-1.137523532E0,6.300677061E-1,1.461390972E1
5.197998437E0,-1.402925491E0,4.488840997E-1,1.260378647E1
5.217998437E0,-7.744284868E-1,7.468281388E-1,1.089873123E1
5.237998437E0,2.865093350E-1,1.066444516E0,1.051236534E1
5.258000000E0,8.538393378E-1,9.433251023E-1,1.077931881E1
5.279998437E0,1.879831403E-1,1.002241611E0,1.009809208E1
5.300000000E0,-4.138137996E-1,1.050345778E0,9.564079285E0
5.321998437E0,-5.956487060E-1,1.031584859E0,8.544043541E0
5.341998437E0,-4.264934957E-1,1.067890644E0,7.116007805E0
5.361998437E0,-7.652826607E-2,1.179661512E0,5.685175896E0
5.381998437E0,2.847088873E-1,1.325841904E0,4.747385979E0
5.401998437E0,4.464228451E-1,1.516506433E0,4.345801830E0
5.421998437E0,5.780369043E-1,1.474301457E0,4.190935135E0
5.441998437E0,6.592960954E-1,1.537977695E0,4.608972073E0
5.461998437E0,8.061085939E-1,1.624619126E0,5.344748974E0
5.481998437E0,5.061821342E-1,1.770770788E0,6.454700470E0
5.501998437E0,3.529532254E-1,1.816289306E0,7.601772308E0
5.521998437E0,1.882033944E-1,1.881277442E0,8.878303528E0
5.541998437E0,4.137851000E-1,1.994216800E0,1.050241470E1
5.561998437E0,4.420270920E-1,1.991573572E0,1.209613895E1
5.581998437E0,3.822486699E-1,1.840987921E0,1.281758881E1
5.601998437E0,-2.996582724E-2,2.027678013E0,1.258828163E1
5.621998437E0,-2.610254586E-1,2.424493074E0,1.242142487E1
5.641998437E0,5.272606611E-1,2.066014051E0,1.300075531E1
5.661998437E0,1.877178550E0,1.590947032E0,1.460237026E1
5.681998437E0,2.103995562E0,1.029027820E0,1.579119587E1
5.701998437E0,1.413967609E0,5.669277906E-1,1.505683804E1
5.721998437E0,1.224624634E0,5.304114223E-1,1.279533195E1
5.741998437E0,1.838718176E0,8.648431301E-1,1.011895943E1
5.762000000E0,2.296259880E0,1.008476019E0,8.304699898E0
5.782000000E0,1.613193989E0,1.189458609E0,7.395526409E0
5.802000000E0,5.723482370E-1,1.048823118E0,7.456262112E0
5.823998437E0,-5.143990517E-1,8.125346303E-1,7.895052433E0
5.844000000E0,-1.170592308E0,9.609847069E-1,8.087096214E0
5.866000000E0,-1.359475613E0,1.169490933E0,7.867212772E0
5.887998437E0,-1.310787082E0,1.253096461E0,6.940388680E0
5.907998437E0,-9.835380912E-1,1.425095916E0,5.672083855E0
5.927998437E0,-6.224158406E-1,1.809077978E0,4.824287415E0
5.947998437E0,-3.250368237E-1,1.989131451E0,4.757633209E0
5.967998437E0,-1.551825702E-1,2.125725508E0,5.651082039E0
5.988000000E0,6.100425497E-3,2.046716690E0,7.323537827E0
6.009998437E0,-2.922458351E-1,2.016454220E0,9.164314270E0
6.029998437E0,-3.790787458E-1,1.833517909E0,1.054193878E1
6.049998437E0,-2.586312592E-1,1.704537511E0,1.147650051E1
6.070000000E0,9.067991376E-1,1.475010276E0,1.275746536E1
6.091998437E0,1.989246488E0,1.493646741E0,1.396000576E1
6.111998437E0,2.127104521E0,1.541482806E0,1.454903698E1
6.132000000E0,1.147119522E0,1.383446455E0,1.402163315E1
6.153998437E0,9.648633003E-2,1.443770647E0,1.340532684E1
6.174007812E0,-1.310107112E-1,1.064596176E0,1.393605423E1
6.195998437E0,-6.477752328E-1,1.656691730E-1,1.422285080E1
6.215998437E0,-1.276933074E0,-2.689167485E-2,1.283977795E1
6.235998437E0,-6.526976824E-1,1.383178234E-1,1.104991150E1
6.255998437E0,5.862250924E-1,2.996104062E-1,1.050380325E1
6.275998437E0,1.373496056E0,3.825742900E-1,1.109297848E1
6.296000000E0,1.008638859E0,3.887704909E-1,1.174670029E1
6.316000000E0,2.779093683E-1,2.203144431E-1,1.083318806E1
6.336000000E0,-4.587864876E-1,3.597527444E-1,8.878953934E0
6.356000000E0,-5.819059610E-1,6.767737865E-1,7.176169395E0
6.376000000E0,-3.601549566E-1,9.369469285E-1,6.326697350E0
6.398000000E0,-2.227469534E-1,1.081853509E0,6.123027325E0
6.418000000E0,-1.336347610E-1,1.039706111E0,5.750891685E0
6.440000000E0,-2.428678125E-1,1.120361924E0,5.302639484E0
6.462000000E0,-1.333857775E-1,1.280457377E0,4.911599636E0
6.484000000E0,2.382422239E-1,1.682453394E0,5.150464535E0
6.504000000E0,6.962817311E-1,1.973655343E0,5.672064781E0
6.524004687E0,1.195989966E0,2.037800789E0,7.129731655E0
6.545998437E0,1.366888046E0,2.105767250E0,8.528088570E0
6.565998437E0,1.243586659E0,2.028176069E0,9.600902557E0
6.585998437E0,1.236930728E0,1.552534461E0,1.081136227E1
6.605998437E0,1.639721632E0,1.183808208E0,1.213557625E1
6.625998437E0,2.315652847E0,9.656485319E-1,1.285946751E1
6.645998437E0,2.027400494E0,1.316514015E0,1.299079514E1
6.665998437E0,1.680921197E0,1.244879484E0,1.308955097E1
6.685998437E0,2.309130907E0,7.755681276E-1,1.344620991E1
6.705998437E0,2.641283274E0,3.481360674E-1,1.419560432E1
6.725998437E0,1.955382824E0,-1.171243414E-1,1.495776558E1
6.745998437E0,1.170180440E0,-3.739072680E-1,1.461301994E1
6.765998437E0,1.977304220E0,-9.522410035E-1,1.355733013E1
6.786000000E0,3.160250425E0,-8.307017684E-1,1.181737709E1
6.806000000E0,3.114473343E0,-4.032793343E-1,1.052222919E1
6.826000000E0,2.044370413E0,-8.985918015E-2,9.112465858E0
6.846000000E0,4.916924238E-1,6.644005775E-1,7.657892704E0
6.867998437E0,2.716652751E-1,9.626318812E-1,7.072510242E0
6.887998437E0,7.642291784E-1,9.215282798E-1,7.012109280E0
6.908000000E0,5.629246831E-1,1.431761384E0,7.198742390E0
6.929998437E0,4.402170777E-1,1.310107231E0,7.326180458E0
6.949998437E0,1.879639924E-1,1.147971749E0,6.084509373E0
6.969998437E0,-4.991527498E-1,1.363785148E0,4.901505470E0
6.989998437E0,-1.008284569E0,1.668183923E0,4.575434685E0
7.010000000E0,-9.721704125E-1,1.602822304E0,5.334156513E0
7.032000000E0,-7.189213037E-1,1.883911133E0,7.220854759E0
7.054000000E0,-7.396742702E-1,2.088797331E0,9.389810562E0
7.075998437E0,-1.322193146E0,2.087772608E0,1.061791134E1
7.096000000E0,-1.483437777E0,2.048162937E0,1.131250668E1
7.117998437E0,-1.255203366E0,2.000336409E0,1.183700943E1
7.137998437E0,-4.493054748E-1,1.722704768E0,1.266597843E1
7.157998437E0,-6.509356201E-2,1.781065822E0,1.367760563E1
7.177998437E0,-2.372175008E-1,2.007815838E0,1.428112602E1
7.197998437E0,-6.002168059E-1,1.968857408E0,1.435888004E1
7.217998437E0,-1.123407364E0,1.926566243E0,1.450198650E1
7.238000000E0,-1.666977286E0,1.500685692E0,1.410728836E1
7.258000000E0,-1.990184903E0,1.294947147E0,1.318563461E1
7.279998437E0,-1.101284862E0,8.958145380E-1,1.224785423E1
7.299998437E0,7.322426885E-2,7.318595648E-1,1.238865376E1
7.319998437E0,4.880819619E-1,6.108470559E-1,1.203859138E1
7.339998437E0,1.485266984E-1,5.300762057E-1,1.018989468E1
7.359998437E0,-3.688986003E-1,8.754637837E-1,8.270856857E0
7.379998437E0,-3.163698018E-1,9.744305611E-1,7.616482258E0
7.399998437E0,2.019557059E-1,8.284033537E-1,7.436323166E0
7.419998437E0,4.606731236E-1,1.017593145E0,7.125689983E0
7.439998437E0,5.012788177E-1,1.179058075E0,6.246127605E0
7.459998437E0,5.048030615E-1,1.364580035E0,5.138033867E0
7.479998437E0,2.755247056E-1,1.709211111E0,4.521986485E0
7.500000000E0,3.138894439E-1,1.783871770E0,4.486791611E0
7.521998437E0,4.133062363E-1,1.845996618E0,5.070880890E0
7.541998437E0,5.797032714E-1,1.781017900E0,5.745030880E0
7.561998437E0,1.063025594E-1,2.192140579E0,7.019042969E0
7.581998437E0,-4.385028481E-1,2.273102999E0,8.979108810E0
7.601998437E0,-6.190639734E-1,2.115373135E0,1.029999065E1
7.621998437E0,-1.539759040E-1,1.694539309E0,1.129559517E1
7.641998437E0,2.832819335E-2,1.674696207E0,1.245687771E1
7.661998437E0,1.382124722E-1,1.682070255E0,1.327230453E1
7.681998437E0,4.311574101E-1,2.128617764E0,1.308815193E1
7.701998437E0,3.871424198E-1,2.890079021E0,1.250201321E1
7.721998437E0,1.135655999E0,2.939572096E0,1.289183807E1
7.741998437E0,1.990251899E0,2.235064030E0,1.411260223E1
7.761998437E0,1.376943707E0,1.583237648E0,1.464110851E1
7.781998437E0,1.819880456E-1,1.519120932E0,1.384225845E1
7.801998437E0,4.642835855E-1,1.084870219E0,1.230018234E1
7.821998437E0,1.516592622E0,8.175815344E-1,1.042464161E1
7.841998437E0,1.828423142E0,1.018091202E0,8.945771217E0
7.861998437E0,1.398232937E0,1.284565806E0,7.825572968E0
7.881998437E0,6.211038232E-1,1.607754230E0,7.070623398E0
7.901998437E0,1.615032703E-1,1.774419427E0,6.961888790E0
7.921998437E0,-2.215115428E-1,1.889216661E0,7.547050476E0
7.941998437E0,-5.122729540E-1,1.890892625E0,7.459968567E0
7.962000000E0,-6.215922236E-1,2.130657434E0,6.777668953E0
7.984000000E0,-4.772889018E-1,2.430143595E0,6.062980652E0
8.004003125E0,-4.467867613E-1,2.660226345E0,5.648410320E0
8.025998437E0,-4.006073773E-1,2.804625273E0,5.430269718E0
8.045998437E0,-4.174242914E-1,3.083118916E0,6.444683552E0
8.065998437E0,-1.877149940E-1,3.134105682E0,8.354815483E0
8.085998437E0,1.085626855E-1,2.951868534E0,9.970221519E0
8.105998437E0,-2.191364914E-1,2.843229532E0,1.031156826E1
8.125998437E0,-8.563771844E-1,2.982878447E0,1.029884052E1
8.145998437E0,-7.357573509E-1,3.027266741E0,1.098960686E1
8.165998437E0,-2.159091085E-1,2.513126373E0,1.149448490E1
8.185998437E0,-6.894151568E-1,2.443895817E0,1.152634811E1
8.206000000E0,-1.983222604E0,3.433821440E0,1.139441776E1
8.227998437E0,-1.460003257E0,3.601070881E0,1.180946636E1
8.247998437E0,-6.575435400E-2,2.872745037E0,1.245850563E1
8.267998437E0,-2.938164398E-2,2.537384510E0,1.236521912E1
8.287998437E0,-1.282612205E0,2.072880507E0,1.172453976E1
8.307998437E0,-2.089649677E0,1.659938335E0,1.104440403E1
8.327998437E0,-1.715378523E0,1.335227132E0,1.118993378E1
8.347998437E0,-9.596247673E-1,1.333311796E0,1.145104504E1
8.367998437E0,-6.680493355E-1,1.558816910E0,1.113723278E1
8.387998437E0,-6.286503077E-1,1.848773837E0,9.903327942E0
8.407998437E0,-5.443265438E-1,2.147225380E0,8.524669647E0
8.427998437E0,-2.938164473E-1,2.198786974E0,7.510917187E0
8.447998437E0,-2.043499053E-1,2.229988337E0,7.195437908E0
8.468000000E0,4.616978392E-2,2.044523716E0,6.960021019E0
8.489998437E0,1.024814099E-1,1.924009204E0,6.656369209E0
8.510000000E0,-2.412589043E-1,2.004109621E0,6.172108173E0
8.531998437E0,-2.991890311E-1,2.148068190E0,5.844725132E0
8.551998437E0,3.195780516E-2,2.142973423E0,5.924682140E0
8.571998437E0,8.015787601E-2,2.400579929E0,6.424035549E0
8.591998437E0,-1.662820876E-1,2.681419611E0,7.520743370E0
8.611998437E0,-5.191587210E-1,2.811089516E0,8.940619469E0
8.631998437E0,-7.894065976E-1,2.939054966E0,1.002574825E1
8.651998437E0,-5.616222620E-1,2.744789600E0,1.033195686E1
8.671998437E0,-5.171571374E-1,2.925925016E0,1.050491428E1
8.691998437E0,-7.489637733E-1,3.121684551E0,1.067527676E1
8.711998437E0,-1.650591373E0,4.055193424E0,1.102455139E1
8.731998437E0,-1.462723136E0,3.929890633E0,1.224215603E1
8.751998437E0,2.631993592E-1,2.266092777E0,1.324754906E1
8.771998437E0,8.104085922E-1,1.523047447E0,1.413219738E1
8.791998437E0,-1.946007088E-2,1.136747837E0,1.454331970E1
8.811998437E0,-5.960891843E-1,9.944364429E-1,1.379905891E1
8.831998437E0,5.558474660E-1,5.174826980E-1,1.207496452E1
8.851998437E0,1.466486812E0,8.007551432E-1,1.122933292E1
8.871998437E0,1.183089972E0,1.063427687E0,1.071287537E1
8.891998437E0,3.183905482E-1,1.369062066E0,9.635636330E0
8.911998437E0,-2.592920661E-1,1.598282814E0,8.061717987E0
8.931998437E0,-7.382377386E-1,1.767246485E0,6.787743568E0
8.951998437E0,-1.026528358E0,1.937914848E0,6.155779839E0
8.971998437E0,-1.250759602E0,2.188329220E0,6.346032619E0
8.991998437E0,-1.175409436E0,2.272298574E0,6.463367462E0
9.011998437E0,-9.447232485E-1,2.345723867E0,6.217100143E0
9.031998437E0,-6.092764139E-1,2.424531460E0,5.891383171E0
9.051998437E0,-5.810248256E-1,2.602133274E0,6.233084202E0
9.071998437E0,-8.735388517E-1,2.749079943E0,6.790013790E0
9.091998437E0,-9.354624748E-1,2.756980658E0,7.335479259E0
9.111998437E0,-7.289865017E-1,2.834102869E0,7.744773388E0
9.131998437E0,-5.900653601E-1,3.063907623E0,8.635664940E0
9.151998437E0,-5.078389049E-1,3.144908428E0,9.698498726E0
9.171998437E0,-8.363713026E-1,3.250004292E0,1.066087341E1
9.191998437E0,-1.029209852E0,3.293147802E0,1.160021400E1
9.211998437E0,-8.971552849E-1,3.391712427E0,1.254183388E1
9.231998437E0,-7.264678478E-1,3.504029036E0,1.313646793E1
9.251998437E0,-1.247733355E0,3.733527660E0,1.251976013E1
9.271998437E0,-1.689310431E0,3.558569193E0,1.178410721E1
9.291998437E0,-2.006120682E0,2.931201935E0,1.194674110E1
9.312000000E0,-2.597718477E0,2.278379917E0,1.264825153E1
9.333998437E0,-3.075380802E0,1.742212653E0,1.278674221E1
9.354001562E0,-2.215421915E0,1.278771877E0,1.244007111E1
9.375998437E0,-8.610603213E-1,1.102577806E0,1.242487240E1
9.395998437E0,-3.603464961E-1,1.175495625E0,1.166784477E1
9.415998437E0,-3.708426952E-1,1.279786944E0,1.027713013E1
9.435998437E0,1.046457663E-1,1.132112622E0,8.941778183E0
9.455998437E0,2.300636321E-1,1.295023680E0,7.873303890E0
9.475998437E0,2.106897591E-4,1.370412350E0,7.508340836E0
9.495998437E0,-1.608520448E-1,1.454697728E0,6.787935734E0
9.515998437E0,-2.333963662E-1,1.530929208E0,6.426650524E0
9.535998437E0,2.882618923E-3,1.605264425E0,6.117960930E0
9.556000000E0,1.639357805E-1,1.810859203E0,5.640997410E0
9.577998437E0,-8.995494992E-2,2.088634491E0,5.248329639E0
9.598000000E0,-3.236673176E-1,2.343808651E0,5.106315136E0
9.619998437E0,-7.488775849E-1,2.960890055E0,5.734209061E0
9.640000000E0,-9.103903770E-1,3.110269070E0,7.011812687E0
9.661998437E0,-1.235072851E0,3.275851965E0,8.707203865E0
9.681998437E0,-1.001551986E0,3.190043926E0,9.723399162E0
9.701998437E0,-8.269093633E-1,3.213459253E0,1.045845699E1
9.721998437E0,-1.120879054E0,3.560273647E0,1.163536072E1
9.742000000E0,-1.705016375E0,3.874958038E0,1.275283051E1
9.763998437E0,-2.285035610E0,4.563444138E0,1.296472645E1
9.783998437E0,-6.221093535E-1,3.737923384E0,1.261179256E1
9.803998437E0,1.070916891E0,2.986795425E0,1.271319103E1
9.823998437E0,1.209665656E0,2.375546217E0,1.335478973E1
9.844000000E0,1.750065684E-1,1.978664041E0,1.387254143E1
9.865998437E0,1.076241508E-1,1.674351454E0,1.313078785E1
9.885998437E0,1.596578240E0,1.389479756E0,1.182780647E1
9.905998437E0,2.407877445E0,1.586781144E0,1.083534241E1
9.925998437E0,1.970590830E0,1.853715420E0,1.009217262E1
9.946000000E0,1.104933739E0,2.017258644E0,8.826990128E0
9.968000000E0,1.939303428E-1,2.223533392E0,7.461146355E0
9.989998437E0,-3.581438363E-1,2.419436455E0,6.840062141E0
1.000999844E1,-6.515963674E-1,2.687568188E0,6.784956932E0
1.002999844E1,-7.198598385E-1,2.684340477E0,6.495564938E0
1.004999844E1,-8.694974184E-1,2.861693621E0,5.991173744E0
1.006999844E1,-1.029497147E0,3.138817549E0,5.706177711E0
1.008999844E1,-9.025949240E-1,3.194219589E0,5.904637814E0
1.010999844E1,-8.553333879E-1,3.342056751E0,6.399767876E0
1.012999844E1,-7.521815896E-1,3.315777779E0,7.067999363E0
1.014999844E1,-7.372513413E-1,3.334012032E0,7.846765995E0
1.016999844E1,-7.872996926E-1,3.494164944E0,8.479486465E0
1.018999844E1,-9.407775998E-1,3.635499477E0,9.107140541E0
1.020999844E1,-1.113744259E0,3.648964643E0,9.741815567E0
1.022999844E1,-1.126538992E0,3.571823359E0,1.034422493E1
1.024999844E1,-9.251961708E-1,3.624246836E0,1.111822224E1
1.026999844E1,-1.066722155E0,3.664996147E0,1.188184834E1
1.028999844E1,-1.528372169E0,3.910880566E0,1.161206913E1
1.030999844E1,-1.300290942E0,4.193243027E0,1.127173901E1
1.032999844E1,-4.342603087E-1,3.271734238E0,1.192099762E1
1.034999844E1,-1.193691492E0,2.664985895E0,1.319013596E1
1.036999844E1,-2.027620792E0,2.132525206E0,1.197739601E1
1.038999844E1,-2.954061747E0,2.134680033E0,1.088170433E1
1.040999844E1,-2.765820026E0,2.063495398E0,1.005334854E1
1.043000000E1,-1.770205736E0,1.789598703E0,9.780755043E0
1.045000156E1,-1.633554220E0,2.158382416E0,9.714654922E0
1.047199844E1,-1.776976585E0,2.237036705E0,9.450881958E0
1.049199844E1,-1.827896357E0,1.914365411E0,9.560124397E0
1.051199844E1,-1.992684484E0,1.961933374E0,1.002208042E1
1.053199844E1,-1.724227428E0,1.906598687E0,9.480665207E0
1.055199844E1,-1.192274213E0,2.092427015E0,7.928982735E0
1.057199844E1,-6.956496835E-1,2.259101868E0,6.686076164E0
1.059200469E1,-6.856323481E-1,2.398779392E0,6.591093540E0
1.061400312E1,-6.986567974E-1,2.468201637E0,6.965077400E0
1.063599844E1,-6.168516874E-1,2.545074701E0,7.167866230E0
1.065600000E1,-1.950316727E-1,2.635163784E0,6.822775841E0
1.067799844E1,-3.674620688E-1,2.978894472E0,6.661894798E0
1.069800938E1,-9.550566673E-1,3.162414789E0,7.131608486E0
1.071999844E1,-1.442391634E0,3.463260651E0,7.789056301E0
1.073999844E1,-1.247379065E0,3.536590338E0,8.352028847E0
1.075999844E1,-8.689898849E-1,3.569419384E0,9.354088783E0
1.077999844E1,-7.532541752E-1,3.616096973E0,9.875258446E0
1.079999844E1,-9.151405096E-1,4.132650852E0,9.679948807E0
1.081999844E1,-1.562465549E0,5.190447330E0,9.665641785E0
1.084000156E1,-1.501241088E0,5.006926537E0,1.080576992E1
1.086199844E1,6.494990736E-2,3.108669758E0,1.183007622E1
1.088200781E1,6.997581124E-1,2.099245548E0,1.310901070E1
1.090400000E1,-1.669141650E-1,1.511449933E0,1.442848396E1
1.092400156E1,-2.056810707E-1,1.265230179E0,1.359922886E1
1.094599844E1,9.121525288E-1,1.188855171E0,1.119458771E1
1.096599844E1,1.279882789E0,1.685441375E0,1.006139374E1
1.098599844E1,7.652634978E-1,1.984314322E0,1.002955914E1
1.100600313E1,-4.549557865E-1,2.281731606E0,1.022412205E1
1.102799844E1,-8.966476917E-1,2.247628689E0,9.028563499E0
1.104799844E1,-1.099522710E0,2.409275532E0,7.370645523E0
1.106799844E1,-1.419263721E0,2.473076105E0,6.468654156E0
1.108799844E1,-1.278484464E0,2.572971821E0,6.607383728E0
1.110799844E1,-9.383738637E-1,2.603809357E0,7.079232693E0
1.112799844E1,-7.553323507E-1,2.666355371E0,7.060472012E0
1.114800781E1,-9.719309807E-1,2.664238930E0,6.700470448E0
1.116999844E1,-1.380554199E0,2.700669289E0,6.512247562E0
1.118999844E1,-1.395130038E0,2.751340151E0,6.843892574E0
1.121000000E1,-1.258995771E0,3.047933578E0,7.796689034E0
1.123000313E1,-1.163716078E0,3.302561760E0,8.792935371E0
1.125199844E1,-1.722905874E0,3.604413033E0,8.550527573E0
1.127200156E1,-1.703895926E0,4.067135811E0,9.223077774E0
1.129399844E1,-1.249294400E0,3.928655148E0,9.298332214E0
1.131400625E1,-9.027768373E-1,4.094611645E0,1.036158752E1
1.133600000E1,-1.081575751E0,3.847376823E0,1.130383968E1
1.135600000E1,-2.174117088E0,4.317166805E0,1.116081047E1
1.137600000E1,-2.303806067E0,4.286588192E0,1.122149944E1
1.139600625E1,-1.276004195E0,3.201631784E0,1.196791458E1
1.141800000E1,-1.811778545E0,2.510780334E0,1.316288948E1
1.144000000E1,-3.169300556E0,2.467119455E0,1.320053577E1
1.146200469E1,-3.253385067E0,2.384758949E0,1.167346668E1
1.148400000E1,-1.844272733E0,2.462618351E0,1.045502853E1
1.150400781E1,-7.615572214E-1,2.141795397E0,9.965318680E0
1.152600000E1,-1.190674782E0,1.983327985E0,9.820555687E0
1.154600000E1,-1.669314146E0,1.818827152E0,9.426029205E0
1.156600000E1,-1.761174798E0,1.743045926E0,8.579640388E0
1.158600469E1,-1.237419248E0,1.777072310E0,7.849227428E0
1.160799844E1,-5.258529186E-1,1.952921629E0,7.449568272E0
1.162800000E1,-4.167155921E-1,2.000518322E0,7.017434120E0
1.165000000E1,-5.668032765E-1,2.074403286E0,6.341234684E0
1.167000469E1,-6.505716443E-1,2.125486135E0,5.765869617E0
1.169199844E1,-5.731144547E-1,2.397275925E0,5.559393883E0
1.171200312E1,-3.240695894E-1,2.599490166E0,6.062396526E0
1.173399844E1,-5.196854472E-1,2.884160757E0,6.744964123E0
1.175400000E1,-8.435155749E-1,3.197887182E0,7.328431129E0
1.177401094E1,-1.006943822E0,3.576898813E0,7.577782154E0
1.179599844E1,-7.453532815E-1,3.779065371E0,8.046059608E0
1.181600000E1,-6.542299986E-1,3.629571438E0,8.641305923E0
1.183600625E1,-1.005325317E0,3.465348482E0,9.724069595E0
1.185800000E1,-1.661623955E0,3.634608984E0,1.102203274E1
1.187800000E1,-2.247226477E0,4.038012505E0,1.162787151E1
1.190000000E1,-2.628593922E0,4.607248306E0,1.185596180E1
1.192200000E1,-1.113514543E0,3.537413836E0,1.277662849E1
1.194200000E1,8.524507284E-1,2.709230661E0,1.391932297E1
1.196200000E1,2.552209377E0,9.269678593E-1,1.476164246E1
1.198400000E1,1.840480328E0,-5.521029234E-2,1.426469231E1
1.200400000E1,3.440755010E-1,7.431985140E-1,1.259132671E1
1.202600000E1,-1.232630759E-1,1.453309178E0,9.860126495E0
1.204600000E1,-4.486925602E-1,2.316236734E0,7.895071983E0
1.206600000E1,-6.413012743E-1,2.825177193E0,7.522074223E0
1.208600000E1,-3.406565785E-1,2.712745428E0,8.501436234E0
1.210799844E1,-6.412150860E-1,2.508366585E0,8.988063812E0
1.212800000E1,-1.209205985E0,2.423899412E0,8.769299507E0
1.215000000E1,-1.734704494E0,2.401001215E0,8.208118439E0
1.217199844E1,-1.810543180E0,2.218553543E0,7.373183727E0
1.219199844E1,-1.475575209E0,2.203517914E0,6.222042084E0
1.221200312E1,-1.214626431E0,2.456403017E0,5.535585880E0
1.223399844E1,-8.583787680E-1,2.483677626E0,5.538392067E0
1.225400781E1,-9.793146849E-1,2.714450121E0,5.929240704E0
1.227600000E1,-1.132993698E0,2.802010775E0,6.718694687E0
1.229600000E1,-1.110085964E0,3.038586617E0,7.804168224E0
1.231799844E1,-1.166962624E0,3.275316000E0,9.199633598E0
1.233800000E1,-1.217106819E0,3.549691439E0,1.022770405E1
1.235800000E1,-1.389747977E0,3.597613811E0,1.073627090E1
1.237800000E1,-1.138720632E0,3.587012291E0,1.065503025E1
1.239800000E1,-8.347144723E-1,3.397400856E0,1.099269962E1
1.241800000E1,-1.331607103E0,3.530288935E0,1.145062447E1
1.244000000E1,-1.390284181E0,2.838086605E0,1.247697067E1
1.246000000E1,-8.154938221E-1,1.860524535E0,1.338842392E1
1.248000000E1,-1.420815110E0,1.773423433E0,1.351033688E1
1.250000000E1,-2.221943617E0,1.675567746E0,1.276012802E1
1.252000000E1,-2.068829536E0,1.713884473E0,1.196173859E1
1.254200000E1,-3.455215991E-1,1.548694253E0,1.168111801E1
1.256400000E1,7.964742780E-1,1.604929209E0,1.175067520E1
1.258400312E1,5.447574854E-1,1.550714850E0,1.107873726E1
1.260600000E1,-4.091594815E-1,1.696655869E0,9.909476280E0
1.262800000E1,-6.579170823E-1,1.674188614E0,8.243178368E0
1.265000000E1,-6.064417362E-1,1.778939724E0,6.752884388E0
1.267199844E1,-3.934152126E-1,1.637624383E0,6.051795006E0
1.269199844E1,-3.063524663E-1,1.551251173E0,6.116246700E0
1.271199844E1,-2.641187310E-1,1.516037226E0,6.187603474E0
1.273199844E1,-2.296805531E-1,1.539337635E0,6.044717789E0
1.275199844E1,-2.426858693E-1,1.635986686E0,5.817747593E0
1.277199844E1,-2.862986326E-1,1.844473839E0,5.829632282E0
1.279199844E1,-3.685730100E-1,2.209790707E0,6.404546738E0
1.281200000E1,-2.689454556E-1,2.304850101E0,7.200743675E0
1.283400312E1,-4.117835462E-1,2.560091019E0,7.942227840E0
1.285400312E1,-7.472303510E-1,2.620463371E0,8.596840858E0
1.287599844E1,-8.679555655E-1,2.661289215E0,9.783330917E0
1.289599844E1,-9.063681364E-1,2.927783012E0,1.124088287E1
1.291599844E1,-7.155789733E-1,3.152177334E0,1.223363304E1
1.293599844E1,-8.530636430E-1,3.306804419E0,1.265130711E1
1.295600000E1,-1.503903389E0,3.452151537E0,1.246883965E1
1.297799844E1,-7.228573561E-1,2.414399147E0,1.210727692E1
1.299799844E1,1.314617753E0,1.107969522E0,1.251840878E1
1.301799844E1,2.481168747E0,6.567773968E-2,1.385221863E1
1.303799844E1,1.629579782E0,-3.511814773E-2,1.468104362E1
1.305800000E1,1.447381139E0,2.247006297E-1,1.359467030E1
1.308000000E1,2.588103294E0,5.414056182E-1,1.151431942E1
1.310199844E1,3.036125422E0,7.782688141E-1,9.773256302E0
1.312199844E1,2.155499697E0,9.870240092E-1,8.908556938E0
1.314199844E1,8.645557761E-1,9.237788320E-1,8.749733925E0
1.316199844E1,-1.436616778E-1,1.078951836E0,8.697110176E0
1.318199844E1,-9.104287028E-1,1.273313165E0,8.479477882E0
1.320200313E1,-1.206476569E0,1.404793143E0,7.643086910E0
1.322399844E1,-1.196698666E0,1.644002557E0,6.229770660E0
1.324399844E1,-1.203555703E0,2.109693766E0,5.447115421E0
1.326399844E1,-1.332401991E0,2.342075109E0,5.482262135E0
1.328401094E1,-1.250606418E0,2.317874432E0,5.906562328E0
1.330401094E1,-9.264602661E-1,2.380449533E0,6.465761662E0
1.332599844E1,-5.478125215E-1,2.395571232E0,7.100130081E0
1.334599844E1,-2.497343868E-1,2.328054667E0,7.923888206E0
1.336599844E1,-3.851312995E-1,2.288090467E0,9.492568970E0
1.338599844E1,-3.083156943E-1,2.029152870E0,1.119255733E1
1.340599844E1,-2.373515815E-1,1.753379226E0,1.230183029E1
1.342599844E1,-7.852981798E-4,1.507456422E0,1.276998234E1
1.344599844E1,8.261144757E-1,1.534673691E0,1.276399708E1
1.346599844E1,1.564878941E0,1.714047313E0,1.314794064E1
1.348599844E1,1.620788336E0,1.409045219E0,1.371342182E1
1.350599844E1,8.068555593E-1,8.077366352E-1,1.433494759E1
1.352599844E1,-1.563413739E-1,3.734858930E-1,1.451943588E1
1.354599844E1,-4.378899336E-1,-1.755237132E-1,1.406610775E1
1.356599844E1,-1.721431017E-1,-2.438925356E-1,1.318077946E1
1.358599844E1,5.718119740E-1,-1.330409944E-1,1.225709629E1
1.360599844E1,7.948079109E-1,6.184701994E-2,1.159997463E1
1.362599844E1,2.502228022E-1,8.657433093E-3,1.108084488E1
1.364599844E1,-5.240045786E-1,2.302264422E-2,1.033553886E1
1.366600000E1,-8.886414766E-1,1.958744377E-1,8.972989082E0
1.368799844E1,-9.703412652E-1,5.132306814E-1,7.680618286E0
1.370800000E1,-1.125935555E0,8.226860166E-1,7.197707653E0
1.372999844E1,-8.490509391E-1,6.828263402E-1,6.509077549E0
1.374999844E1,-5.314649343E-1,8.502193689E-1,5.955097675E0
1.376999844E1,-1.725836396E-1,9.581020474E-1,5.484714031E0
1.378999844E1,-4.776911065E-2,9.971849918E-1,5.238781452E0
1.381000000E1,2.853888553E-3,1.094686508E0,5.015440941E0
1.383000000E1,2.564860582E-1,1.210192442E0,5.325489521E0
1.385000000E1,5.072643161E-1,1.340829611E0,6.040618420E0
1.387199844E1,5.695135593E-1,1.401115656E0,7.409709454E0
1.389199844E1,4.297017455E-1,1.459333062E0,8.997755051E0
1.391199844E1,6.478805542E-1,1.442228794E0,1.029580498E1
1.393199844E1,1.030282497E0,1.529971600E0,1.167733574E1
1.395199844E1,1.321359873E0,1.398434043E0,1.290363693E1
1.397199844E1,1.076509595E0,1.046591759E0,1.357795811E1
1.399199844E1,6.876243353E-1,1.277967453E0,1.297677422E1
1.401199844E1,1.018809438E0,1.546309590E0,1.257621479E1
1.403199844E1,2.054608107E0,1.259091496E0,1.354017735E1
1.405199844E1,2.376312256E0,6.029748917E-1,1.485840607E1
1.407199844E1,1.326157928E0,-2.728432417E-1,1.524948406E1
1.409199844E1,2.997923493E-1,-5.816760659E-1,1.398048115E1
1.411199844E1,1.140645623E0,-6.142085195E-1,1.255982876E1
1.413199844E1,2.889111757E0,-4.914721251E-1,1.246246147E1
1.415199844E1,2.807278156E0,8.079952002E-2,1.322109795E1
1.417199844E1,1.787127972E0,4.840979874E-1,1.123468685E1
1.419199844E1,1.087168694E0,8.249461651E-1,8.149431229E0
1.421199844E1,5.979949832E-1,8.989748359E-1,6.270462036E0
1.423199844E1,-8.804916590E-2,1.153468847E0,6.245294571E0
1.425199844E1,-5.105491281E-1,1.336395502E0,6.425702095E0
1.427199844E1,-8.229062557E-1,1.518048286E0,6.139796257E0
1.429199844E1,-9.510343671E-1,1.548521757E0,5.390305519E0
1.431200000E1,-7.033398151E-1,1.488934994E0,4.330335140E0
1.433200000E1,-2.389988005E-1,1.670166373E0,3.689819098E0
1.435200000E1,2.067728490E-1,2.006925106E0,4.022440910E0
1.437399844E1,4.967393875E-1,2.156859636E0,5.557334900E0
1.439399844E1,3.506164849E-1,2.304869175E0,7.563196659E0
1.441400312E1,4.712076187E-1,2.336492062E0,8.986061096E0
1.443599844E1,3.255539536E-1,2.567149162E0,9.679977417E0
1.445600000E1,2.545610964E-1,2.903707027E0,9.831933022E0
1.447799844E1,6.550056934E-1,3.084009409E0,1.066294098E1
1.449799844E1,5.730378628E-1,2.994772911E0,1.287837315E1
1.451799844E1,-6.588938832E-1,2.921165466E0,1.515068054E1
1.453799844E1,-1.233780026E0,2.291490555E0,1.680621338E1
1.455799844E1,3.924096823E-1,8.879136443E-1,1.709397888E1
1.457799844E1,1.346336126E0,1.083136797E-1,1.607808876E1
1.459799844E1,1.933940500E-1,1.336826533E-1,1.393362236E1
1.461799844E1,-1.048583746E0,6.028791666E-1,1.143649769E1
1.463799844E1,-7.958422303E-1,6.879786253E-1,9.977423668E0
1.465799844E1,1.308574826E-1,6.057904959E-1,9.842668533E0
1.467799844E1,4.252293706E-1,4.584321678E-1,1.025793839E1
1.469799844E1,-2.162155658E-1,3.428496718E-1,1.062152195E1
1.471799844E1,-7.956889868E-1,2.998306453E-1,1.076795101E1
1.473799844E1,-9.947333336E-1,3.125295043E-1,1.030910683E1
1.475800000E1,-8.856918216E-1,4.522551298E-1,8.750088692E0
1.477999844E1,-3.731698692E-1,5.821453333E-1,6.488008976E0
1.479999844E1,2.827360630E-1,8.744486570E-1,4.745326996E0
1.481999844E1,6.746286154E-1,1.171751142E0,4.160078526E0
1.483999844E1,5.879775882E-1,1.309408069E0,4.592203140E0
1.485999844E1,3.386837840E-1,1.378217459E0,5.108613491E0
1.487999844E1,1.817294955E-1,1.567522168E0,5.298971653E0
1.489999844E1,2.990357876E-1,1.851464868E0,5.294288635E0
1.491999844E1,7.943482399E-1,2.132276058E0,6.200714588E0
1.493999844E1,5.735741258E-1,2.409093857E0,7.424745083E0
1.495999844E1,2.016588151E-1,2.526706219E0,8.399559021E0
1.497999844E1,3.633919358E-1,2.329797506E0,1.009335041E1
1.500000000E1,6.819069386E-1,2.051907539E0,1.233606625E1
1.502199844E1,7.890809774E-1,2.053142786E0,1.388704967E1
1.504199844E1,5.782380104E-1,2.328782558E0,1.369891262E1
1.506199844E1,5.900174975E-1,2.444767237E0,1.320658875E1
1.508199844E1,1.747537374E0,1.809777141E0,1.420632172E1
1.510199844E1,1.966740966E0,1.042483330E0,1.574769878E1
1.512199844E1,5.562401414E-1,1.742978841E-1,1.676907349E1
1.514199844E1,-2.000020295E-1,-3.984047472E-1,1.581434345E1
1.516199844E1,8.632341623E-1,-5.822506547E-1,1.403832531E1
1.518199844E1,2.283043623E0,-5.797799230E-1,1.159458256E1
1.520200000E1,2.708110332E0,-2.530671358E-1,9.283095360E0
1.522200000E1,2.097358942E0,1.530373693E-1,7.571452141E0
1.524400156E1,6.995282769E-1,4.753831029E-1,6.432233334E0
1.526600000E1,-4.182000160E-1,7.607432008E-1,6.047054291E0
1.528799844E1,-1.007662058E0,1.015390515E0,6.243120193E0
1.530800000E1,-1.001370072E0,1.193911791E0,6.096489906E0
1.533000000E1,-9.070289135E-1,1.160747290E0,5.670762539E0
1.535000000E1,-9.122291207E-1,1.337592602E0,5.098662853E0
1.537000000E1,-6.725791693E-1,1.570127130E0,4.571823597E0
1.539199844E1,-2.257444859E-1,1.912421227E0,4.805143356E0
1.541199844E1,2.572904825E-1,2.098355055E0,5.876452923E0
1.543199844E1,4.422665238E-1,2.089975357E0,7.960672855E0
1.545199844E1,3.978876173E-1,1.897692084E0,1.019910717E1
1.547199844E1,1.845450513E-2,1.852211952E0,1.224073887E1
1.549199844E1,-3.003861010E-1,1.981087089E0,1.279011250E1
1.551199844E1,-2.323237658E-1,1.974929094E0,1.231362820E1
1.553199844E1,-1.366514564E-1,1.767916918E0,1.178078461E1
1.555199844E1,-3.974087536E-1,1.660455465E0,1.245973206E1
1.557199844E1,-5.464717150E-1,1.797719836E0,1.331715298E1
1.559199844E1,-7.636545599E-2,1.769439578E0,1.394119740E1
1.561199844E1,6.110385656E-1,1.156973958E0,1.446926212E1
1.563199844E1,-3.440372050E-1,3.173083365E-1,1.461341190E1
1.565199844E1,-2.124346495E0,-3.418058157E-1,1.315565014E1
1.567199844E1,-2.777733564E0,3.106716089E-2,1.161949253E1
1.569199844E1,-9.495691657E-1,1.903581917E-1,1.086154461E1
1.571199844E1,1.159962058E0,5.012692213E-1,1.135136032E1
1.573199844E1,1.905152440E0,6.365224719E-1,1.184698963E1
1.575199844E1,1.145855308E0,5.683547258E-1,1.097691727E1
1.577199844E1,1.416026652E-1,5.890598297E-1,9.129186630E0
1.579199844E1,-4.180180430E-1,7.452766895E-1,7.959284306E0
1.581200000E1,-3.608636558E-1,8.111938238E-1,7.170595646E0
1.583200000E1,8.119216561E-2,8.105043173E-1,6.154400826E0
1.585401250E1,4.804875553E-1,1.080311656E0,5.089163303E0
1.587600000E1,7.587129474E-1,1.194668293E0,4.456988335E0
1.589799844E1,6.526689529E-1,1.212213039E0,4.468509197E0
1.591799844E1,6.686813831E-1,1.226329207E0,4.881729603E0
1.593799844E1,6.116514802E-1,1.444709182E0,5.872593880E0
1.595799844E1,2.266734540E-1,1.694673419E0,7.198579311E0
1.597799844E1,-7.096414268E-2,1.898822308E0,8.394539833E0
1.599799844E1,-1.895058602E-1,1.898544431E0,9.715373993E0
1.601799844E1,-1.750352979E-1,1.893937945E0,1.122631645E1
1.603799844E1,-3.324684203E-1,1.858934760E0,1.247165489E1
1.605800000E1,-4.107971191E-1,1.811366796E0,1.293536472E1
1.607999844E1,-3.011043668E-1,1.787827015E0,1.297090340E1
1.609999844E1,-3.985675275E-1,2.225391388E0,1.293689632E1
1.611999844E1,3.656807840E-1,2.079737902E0,1.334458065E1
1.613999844E1,2.046247482E0,1.328657508E0,1.415341854E1
1.615999844E1,2.100979090E0,3.171263635E-1,1.489705849E1
1.617999844E1,1.335198432E-1,-1.187715605E-1,1.424234962E1
1.620000000E1,-1.025685549E0,2.298433632E-1,1.244708061E1
1.622000000E1,1.912105232E-1,4.613052011E-1,1.057988167E1
1.624199844E1,1.581552148E0,8.022394776E-1,1.010909557E1
1.626199844E1,1.728891373E0,9.756084681E-1,1.034745216E1
1.628199844E1,9.867558479E-1,8.913996220E-1,1.033106613E1
1.630199844E1,-7.269754261E-2,1.003132224E0,9.078381538E0
1.632200000E1,-7.809215784E-1,1.266657233E0,7.187537193E0
1.634400000E1,-1.298710823E0,1.634578943E0,6.003470421E0
1.636400000E1,-1.425411820E0,1.881325483E0,6.075325012E0
1.638599844E1,-1.338875890E0,2.140722752E0,5.963956356E0
1.640599844E1,-1.532202840E0,2.618749142E0,5.420798302E0
1.642599844E1,-1.418487906E0,2.592384100E0,5.321506023E0
1.644599844E1,-8.462162614E-1,2.278408527E0,5.881481171E0
1.646599844E1,-2.821997702E-1,2.048488617E0,7.221324444E0
1.648599844E1,-3.937695622E-1,1.927284479E0,8.497692108E0
1.650599844E1,-1.110267997E0,1.785873413E0,9.574077606E0
1.652599844E1,-1.834274530E0,1.731189847E0,1.030051613E1
1.654599844E1,-2.107903004E0,1.578516364E0,1.114961529E1
1.656599844E1,-1.959242344E0,1.361716509E0,1.193691540E1
1.658599844E1,-1.008734584E0,1.118168831E0,1.241777611E1
1.660599844E1,-6.876817346E-1,1.323141217E0,1.248769665E1
1.662599844E1,-8.887563944E-1,1.375516772E0,1.264803123E1
1.664599844E1,-6.849332452E-1,6.743699908E-1,1.341935635E1
1.666599844E1,-1.095749497E0,5.526296496E-1,1.373082352E1
1.668599844E1,-1.698513627E0,5.634131432E-1,1.235000134E1
1.670599844E1,-1.736811399E0,9.794966578E-1,1.101494598E1
1.672599844E1,-1.931258887E-1,4.452353120E-1,1.104119587E1
1.674599844E1,1.027897835E0,2.638889253E-1,1.198898411E1
1.676600000E1,1.216158748E0,-6.267062575E-2,1.187246323E1
1.678799844E1,-1.841619797E-2,5.142745096E-3,9.637025833E0
1.680800000E1,-9.798126817E-1,3.267798126E-1,7.344932079E0
1.682999844E1,-1.681888461E0,7.376822233E-1,6.294835091E0
1.684999844E1,-1.448147178E0,8.707807660E-1,5.961198330E0
1.686999844E1,-7.697741985E-1,9.273030162E-1,5.850413799E0
1.688999844E1,1.658702828E-2,1.181902409E0,6.154850960E0
1.690999844E1,5.354871750E-1,1.200127125E0,7.412438869E0
1.692999844E1,4.821443558E-1,1.185043693E0,8.076954842E0
1.694999844E1,1.160900518E-1,1.147033334E0,8.139223099E0
1.696999844E1,1.503846049E-1,1.055641890E0,8.596639633E0
1.698999844E1,5.143224001E-1,8.701391220E-1,1.038064575E1
1.700999844E1,1.201209307E0,5.534628034E-1,1.217985916E1
1.703000000E1,1.458739281E0,6.643239260E-1,1.248601055E1
1.705199844E1,1.827637792E0,7.703679204E-1,1.137969780E1
1.707199844E1,2.135474682E0,1.135809302E0,1.054794312E1
1.709199844E1,2.117422342E0,1.241700053E0,1.053743744E1
1.711199844E1,1.617503524E0,1.436406136E0,1.068551350E1
1.713199844E1,1.090415120E0,1.932216525E0,1.086673546E1
1.715199844E1,1.585220098E0,1.584281564E0,1.145044231E1
1.717199844E1,1.848860025E0,7.954878807E-1,1.233577919E1
1.719199844E1,7.588853240E-1,2.985569537E-1,1.296370220E1
1.721199844E1,-5.660179853E-1,-4.629428312E-2,1.288397503E1
1.723200000E1,-6.347124577E-1,-1.946964860E-1,1.221537018E1
1.725200000E1,1.036401987E0,-1.927619576E-1,1.139250183E1
1.727400000E1,2.249917507E0,1.086009890E-1,1.051270008E1
1.729400312E1,1.791772723E0,4.150204957E-1,9.293860435E0
1.731599844E1,4.790414572E-1,7.022576928E-1,7.454174995E0
1.733599844E1,-5.209782720E-1,7.700710297E-1,6.796277046E0
1.735599844E1,-1.061665654E0,9.173910618E-1,6.883961678E0
1.737600000E1,-1.102175593E0,1.180073261E0,7.117138386E0
1.739799844E1,-7.877689600E-1,1.331750751E0,6.859090805E0
1.741799844E1,-7.773110867E-1,1.575202703E0,6.242871761E0
1.743799844E1,-8.356626034E-1,1.777608514E0,5.919577599E0
1.745799844E1,-6.902675033E-1,1.868913770E0,6.177700996E0
1.747800000E1,-5.372300744E-1,1.951360583E0,7.049679279E0
1.750000000E1,1.145386137E-2,1.859183788E0,8.447633743E0
1.752199844E1,3.877840638E-1,1.758838058E0,9.905358315E0
1.754199844E1,5.223669410E-1,1.685039163E0,1.119850445E1
1.756199844E1,4.936365187E-1,1.449737072E0,1.206723595E1
1.758199844E1,6.432070732E-1,1.314598680E0,1.294232655E1
1.760199844E1,1.307617188E0,1.148057938E0,1.388675308E1
1.762199844E1,1.988260031E0,1.059951425E0,1.443956470E1
1.764200000E1,1.420106292E0,1.014193416E0,1.414442635E1
1.766399844E1,-8.405563235E-2,1.057097554E0,1.269975567E1
1.768399844E1,-9.723715186E-1,8.822537065E-1,1.202113342E1
1.770400000E1,-1.774850488E0,5.387241244E-1,1.172208786E1
1.772599844E1,-2.825971842E0,4.659691155E-1,1.073793793E1
1.774599844E1,-2.901638508E0,4.476295114E-1,9.276353836E0
1.776599844E1,-1.979047060E0,5.929767489E-1,8.553304672E0
1.778599844E1,-5.064885616E-1,4.191480875E-1,9.442223549E0
1.780599844E1,-1.699691564E-1,3.416813016E-1,1.076257801E1
1.782600625E1,-5.421239138E-1,2.319119573E-1,1.188722038E1
1.784602969E1,-7.523730993E-1,5.252878740E-2,1.141876125E1
1.786799844E1,-7.100052834E-1,3.145310581E-1,9.413291931E0
1.788800000E1,-2.000020295E-1,6.259784102E-1,7.406099319E0
1.790999844E1,2.851972878E-1,8.571912050E-1,6.046211243E0
1.792999844E1,5.653572679E-1,1.065314412E0,5.545143604E0
1.794999844E1,7.990600467E-1,1.086967587E0,5.162310600E0
1.796999844E1,8.385260701E-1,1.274739981E0,4.970219135E0
1.798999844E1,7.854034901E-1,1.412588596E0,5.049601078E0
1.800999844E1,5.574180484E-1,1.982418180E0,5.106228828E0
1.802999844E1,4.444308877E-1,2.285198450E0,5.834602356E0
1.804999844E1,5.088540912E-1,2.033088923E0,7.321852207E0
1.806999844E1,8.317073584E-1,1.755763888E0,9.203694344E0
1.808999844E1,4.872200191E-1,1.646990538E0,1.106548309E1
1.810999844E1,-1.359331906E-1,1.452993155E0,1.266480923E1
1.812999844E1,1.786744893E-1,1.183329344E0,1.337342644E1
1.814999844E1,1.210690260E0,1.329710960E0,1.353071594E1
1.816999844E1,2.012221098E0,1.303556681E0,1.349097252E1
1.818999844E1,1.467923284E0,1.410309315E0,1.295844460E1
1.820999844E1,1.000469804E0,1.070868969E0,1.248294640E1
1.822999844E1,1.002404332E0,3.989984989E-1,1.252907848E1
1.824999844E1,8.050934672E-1,-2.279567271E-1,1.322954464E1
1.826999844E1,4.591121078E-1,-4.516039193E-1,1.378707695E1
1.829000156E1,1.236011505E0,-8.735005260E-1,1.333192062E1
1.831200000E1,2.851341009E0,-1.005009294E0,1.194389629E1
1.833200000E1,3.656999588E0,-8.508801460E-1,1.052082157E1
1.835400000E1,3.060259104E0,-5.532425642E-1,9.433135986E0
1.837400156E1,1.548493028E0,-2.978290915E-1,8.712623596E0
1.839599844E1,2.444288284E-1,-6.397306919E-2,8.095073700E0
1.841599844E1,-8.652645350E-2,2.609871626E-1,7.909111500E0
1.843599844E1,-8.138370514E-2,5.682877302E-1,7.607298374E0
1.845600000E1,-4.461834207E-2,7.997208238E-1,7.066745281E0
1.847600000E1,-2.188874930E-1,9.694889188E-1,6.128045559E0
1.849600000E1,-2.208028585E-1,1.086890936E0,5.097887516E0
1.851600000E1,-4.898536578E-2,1.276837349E0,4.712804317E0
1.853799844E1,6.734314561E-1,1.529205322E0,5.600248337E0
1.855799844E1,8.276467919E-1,1.785317898E0,6.846028328E0
1.857799844E1,-1.254465878E-1,2.094399691E0,8.044766426E0
1.859799844E1,-9.401168227E-1,2.010957003E0,9.009974480E0
1.861799844E1,-8.234137893E-1,1.938556433E0,1.024418545E1
1.863799844E1,-2.194812596E-1,1.899846911E0,1.198248100E1
1.865799844E1,5.585384965E-1,1.665358782E0,1.327232456E1
1.867799844E1,8.913325667E-1,1.966080070E0,1.376401615E1
1.869799844E1,1.307377815E0,1.842529774E0,1.390914345E1
1.871799844E1,7.471345663E-1,1.676716924E0,1.389035320E1
1.873799844E1,-3.555485308E-1,1.018627524E0,1.421445179E1
1.875799844E1,-1.543532252E0,-4.493437707E-2,1.482625675E1
1.877799844E1,-2.658866167E0,-8.463981748E-1,1.471027279E1
1.879799844E1,-2.749692917E0,-1.073042870E0,1.358462429E1
1.881799844E1,-1.407484174E0,-1.164434314E0,1.180401802E1
1.883800000E1,4.683058709E-2,-8.228679895E-1,1.054693794E1
1.885999844E1,5.632790327E-1,-3.449661434E-1,9.781826973E0
1.887999844E1,1.664066017E-1,-1.536311358E-1,8.937382698E0
1.889999844E1,-3.511240482E-1,1.146822572E-1,7.858593941E0
1.891999844E1,-7.153396010E-1,4.149821699E-1,7.514843941E0
1.893999844E1,-6.855556965E-1,4.451299608E-1,7.432789326E0
1.895999844E1,-1.024718359E-1,3.909348547E-1,7.143521786E0
1.897999844E1,4.208719134E-1,5.792531967E-1,6.227778435E0
1.899999844E1,6.587980986E-1,8.226380944E-1,5.501693249E0
1.901999844E1,7.186052799E-1,9.294290543E-1,4.929239750E0
1.903999844E1,4.735539556E-1,1.111436248E0,4.741821766E0
1.905999844E1,2.986431718E-1,1.251707792E0,5.163335323E0
1.907999844E1,6.723014116E-1,1.360260844E0,6.563704014E0
1.909999844E1,8.220347762E-1,1.394727826E0,8.207141876E0
1.911999844E1,4.398723245E-1,1.353097439E0,9.700989723E0
1.913999844E1,-3.171838447E-2,1.391021609E0,1.044308662E1
1.915999844E1,1.092713624E-1,1.389834166E0,1.095597267E1
1.917999844E1,9.913814664E-1,9.836434126E-1,1.217154694E1
1.919999844E1,1.806789041E0,3.497545421E-1,1.376054001E1
1.921999844E1,1.206390381E0,3.950145543E-1,1.430815125E1
1.923999844E1,6.790434718E-1,6.134806275E-1,1.357544899E1
1.925999844E1,1.800794125E0,3.052894473E-1,1.295208454E1
1.927999844E1,2.585517645E0,-8.199661970E-2,1.435547066E1
1.929999844E1,1.648446202E0,-7.807204723E-1,1.575700760E1
1.931999844E1,1.240522146E0,-1.371973395E0,1.419733810E1
1.933999844E1,1.932953954E0,-1.121252537E0,1.132057095E1
1.935999844E1,2.790959120E0,-5.933789611E-1,8.527073860E0
1.937999844E1,2.388139725E0,-1.792490929E-1,7.387864590E0
1.940000000E1,1.480038047E0,5.674257874E-2,6.789879322E0
1.942199844E1,1.267586201E-1,4.322778881E-1,6.937611103E0
1.944199844E1,-1.501087904E0,6.846555471E-1,8.292738914E0
1.946200000E1,-1.838306427E0,4.022354782E-1,8.481822968E0
1.948399844E1,-1.403797150E0,5.019395947E-1,7.290085316E0
1.950400000E1,-1.966884583E-1,7.696974874E-1,5.862787247E0
1.952599844E1,1.648455858E-1,1.255279899E0,4.916158199E0
1.954599844E1,-3.773166239E-1,1.353078246E0,5.591533661E0
1.956599844E1,-9.105148911E-1,1.302800059E0,6.971656799E0
1.958599844E1,-7.968956828E-1,1.412262917E0,8.478414536E0
1.960599844E1,-5.796458125E-1,1.477931142E0,9.956995964E0
1.962599844E1,-2.654020488E-1,1.564543843E0,1.152952766E1
1.964599844E1,-1.605455875E-1,1.518488884E0,1.261888027E1
1.966599844E1,-3.541503102E-2,1.425249100E0,1.324244404E1
1.968599844E1,3.378410041E-1,1.390303373E0,1.357689571E1
1.970599844E1,6.153098345E-1,1.433877826E0,1.344116306E1
1.972599844E1,5.085092783E-1,1.571333766E0,1.287463760E1
1.974599844E1,4.014597535E-1,1.137533069E0,1.301784992E1
1.976599844E1,4.539406672E-2,-5.221274868E-2,1.448493004E1
1.978599844E1,-1.304284453E0,-1.118580580E0,1.557954884E1
1.980599844E1,-2.125380516E0,-1.542019129E0,1.415653133E1
1.982599844E1,-2.021539450E0,-8.923093677E-1,1.121345425E1
1.984599844E1,-5.459545851E-1,-2.024441212E-1,8.667929649E0
1.986599844E1,8.205503821E-1,5.370481610E-1,8.631901741E0
1.988599844E1,1.084784031E0,3.314149678E-1,9.797666550E0
1.990599844E1,-1.443895102E-1,1.665981263E-1,1.004487324E1
1.992599844E1,-1.129632235E0,3.007692099E-1,8.700088501E0
1.994599844E1,-1.166656137E0,6.420770288E-1,7.042285442E0
1.996599844E1,-7.274159789E-1,9.715765715E-1,5.876137257E0
1.998599844E1,-3.050213158E-1,1.080598950E0,5.374638081E0
2.000599844E1,1.637825519E-1,1.054588437E0,5.183303356E0
2.002599844E1,3.532883823E-1,1.055086374E0,4.948154449E0
2.004603594E1,1.744415313E-1,1.191172838E0,4.944840431E0
2.006799844E1,1.802067757E-1,1.217844248E0,5.172950745E0
2.008799844E1,4.398435950E-1,1.320143700E0,5.912816525E0
2.010799844E1,9.761639237E-1,1.369224906E0,7.438621998E0
2.012799844E1,7.891958952E-1,1.385208488E0,9.604578972E0
2.014799844E1,4.989516363E-2,1.314589143E0,1.051677990E1
2.016799844E1,-5.192353129E-1,1.687050343E0,1.058650875E1
2.018799844E1,1.463719159E-1,1.951140285E0,1.150845814E1
2.020799844E1,6.448159814E-1,1.810830593E0,1.367097759E1
2.022799844E1,4.109886885E-1,1.454688191E0,1.492992592E1
2.024799844E1,-4.910028726E-2,1.283608198E0,1.411827278E1
2.026799844E1,2.406843156E-1,1.313095093E0,1.304458809E1
2.028799844E1,9.002485871E-1,9.471365809E-1,1.360202408E1
2.030800000E1,1.148460150E0,4.638909400E-1,1.459468937E1
2.033000000E1,1.038901567E0,1.297465861E-1,1.359275532E1
2.035199844E1,2.212050676E0,-3.096277416E-1,1.201130772E1
2.037199844E1,3.307647228E0,-5.648783445E-1,1.093478775E1
2.039199844E1,2.507389784E0,-7.292642593E-1,1.022400761E1
2.041199844E1,5.894524455E-1,-4.528105855E-1,9.517018318E0
2.043199844E1,-8.510237932E-1,-5.225105584E-2,8.098895073E0
2.045199844E1,-1.321168303E0,4.881010950E-1,6.834660530E0
2.047199844E1,-1.429960966E0,1.092273116E0,6.836853504E0
2.049199844E1,-8.953739405E-1,1.369014144E0,6.891355515E0
2.051199844E1,-5.711416006E-1,1.460338473E0,6.474524975E0
2.053199844E1,-2.977907956E-1,1.581552148E0,5.682235241E0
2.055199844E1,-1.197100850E-3,1.951188207E0,4.849148750E0
2.057199844E1,2.052118182E-1,2.122210741E0,4.777476311E0
2.059199844E1,3.144065440E-1,2.246939182E0,5.665849686E0
2.061199844E1,8.841020465E-1,2.204695702E0,7.266699314E0
2.063199844E1,1.196554899E0,2.241068602E0,9.339704514E0
2.065199844E1,1.311821461E0,2.315030336E0,1.053658485E1
2.067199844E1,1.045758486E0,2.255089045E0,1.117107677E1
2.069199844E1,6.912156343E-1,1.992368460E0,1.143711090E1
2.071199844E1,5.858228803E-1,1.693323135E0,1.162678909E1
2.073199844E1,3.831680417E-1,1.416304350E0,1.264463139E1
2.075199844E1,-9.411606789E-1,1.250118017E0,1.399316978E1
2.077199844E1,-1.893631577E0,6.705201268E-1,1.479332256E1
2.079199844E1,-1.318937063E0,-6.149554849E-1,1.497780991E1
2.081200000E1,-1.977332830E0,-9.911995530E-1,1.481554031E1
2.083399844E1,-3.116130114E0,-7.209803462E-1,1.349010086E1
2.085400469E1,-2.659632683E0,-2.653158605E-1,1.097276115E1
2.087600000E1,-9.181858897E-1,1.493790299E-1,9.022291183E0
2.089799844E1,9.493871331E-1,1.371302903E-1,9.558850288E0
2.091799844E1,1.070610404E0,1.467645615E-1,1.060837173E1
2.093799844E1,-8.264783770E-3,3.700765371E-1,9.980976105E0
2.095799844E1,-5.013650060E-1,6.342815161E-1,8.261624336E0
2.097799844E1,-1.280898005E-1,9.467152357E-1,6.762786388E0
2.099799844E1,3.607966304E-1,1.206744790E0,6.531688690E0
2.101799844E1,7.814003825E-1,1.185608625E0,6.196500301E0
2.103799844E1,7.040485144E-1,1.258219957E0,5.563789368E0
2.105800000E1,6.136530638E-1,1.324568152E0,4.732743263E0
2.107999844E1,6.544981003E-1,1.399631143E0,4.962366104E0
2.109999844E1,5.827391148E-1,1.354859591E0,6.093875408E0
2.111999844E1,4.365491569E-1,1.164424777E0,7.095437050E0
2.114000000E1,2.684474885E-1,1.250481963E0,7.837419510E0
2.116000000E1,3.326024860E-2,1.394746900E0,8.739774704E0
2.118200000E1,-5.573126674E-1,1.550379634E0,1.083678913E1
2.120200000E1,-3.410875499E-1,1.277028918E0,1.279601192E1
2.122200000E1,-1.344392151E-1,1.381645918E0,1.382317257E1
2.124200000E1,-1.433264911E-1,1.224270225E0,1.420444393E1
2.126200000E1,-1.301775426E-1,1.015447974E0,1.412364483E1
2.128200000E1,-2.549345978E-2,1.277182102E0,1.340005016E1
2.130200000E1,6.514048576E-1,1.348979354E0,1.302643013E1
2.132399844E1,1.467894673E0,8.412171006E-1,1.399069881E1
2.134400000E1,1.125447154E0,1.723059118E-1,1.471885300E1
2.136400156E1,1.052692175E0,-5.111429095E-1,1.350320244E1
2.138600000E1,3.064645290E0,-1.131126165E0,1.200454712E1
2.140600000E1,4.406758308E0,-1.170391083E0,1.090745640E1
2.142600000E1,3.639387608E0,-1.221483350E0,9.721186638E0
2.144600000E1,1.245061517E0,-5.322501659E-1,9.017904282E0
2.146799844E1,-3.902357221E-1,8.283937350E-3,7.915460587E0
2.148799844E1,-9.442539811E-1,5.523710251E-1,6.634686947E0
2.150799844E1,-8.628319502E-1,1.077476978E0,5.568970680E0
2.152799844E1,-7.624574304E-1,1.366868854E0,4.894945145E0
2.154799844E1,-9.618753195E-1,1.484596610E0,4.593544006E0
2.156799844E1,-1.142781258E0,1.504602551E0,4.408855438E0
2.158799844E1,-8.930180669E-1,1.656136394E0,4.111964703E0
2.160800000E1,-3.393732905E-1,1.737673283E0,4.882093430E0
2.162800000E1,9.632352740E-2,1.697316647E0,6.377818584E0
2.164999844E1,-1.403289437E-1,1.493857384E0,8.431056976E0
2.166999844E1,-3.146555722E-1,1.221837759E0,9.740628242E0
2.168999844E1,-1.448491961E-1,1.052797437E0,1.073967075E1
2.170999844E1,9.135315567E-2,1.083759427E0,1.177175426E1
2.173000000E1,-8.651687950E-2,1.140798807E0,1.325299835E1
2.175199844E1,3.679887950E-1,8.910835385E-1,1.426383018E1
2.177199844E1,1.178541064E0,9.531891346E-1,1.452173328E1
2.179199844E1,1.183243155E0,1.321101308E0,1.428439140E1
2.181200000E1,5.022460818E-1,1.555761814E0,1.368323612E1
2.183200000E1,3.059310913E-1,1.241968155E0,1.350142956E1
2.185401094E1,-3.098575771E-1,2.986239791E-1,1.411479568E1
2.187600000E1,-1.167862892E0,-7.196778655E-1,1.404691505E1
2.189600000E1,-1.008054733E0,-9.938331246E-1,1.280362606E1
2.191799844E1,5.161420107E-1,-8.605718613E-1,1.134192657E1
2.193800000E1,1.774390697E0,-4.486159384E-1,1.096016693E1
2.195999844E1,1.401048541E0,-1.646061540E-1,1.102639103E1
2.197999844E1,3.064290881E-1,1.388637000E-3,1.029937649E1
2.199999844E1,-8.982086927E-2,1.944953799E-1,8.672420502E0
2.201999844E1,-1.236557290E-1,4.918935299E-1,7.234856129E0
2.203999844E1,2.400522530E-1,7.196204066E-1,6.378450394E0
2.205999844E1,6.700508595E-1,7.696880102E-1,6.122673035E0
2.207999844E1,7.552365661E-1,9.505267739E-1,5.995780468E0
2.209999844E1,8.182327747E-1,9.202928543E-1,5.541456699E0
2.211999844E1,9.546926618E-1,1.035272002E0,4.891363621E0
2.214000000E1,1.007030010E0,1.203143835E0,4.416411400E0
2.216199844E1,8.575456142E-1,1.322719812E0,4.427568436E0
2.218199844E1,5.168985724E-1,1.451317191E0,5.039363861E0
2.220199844E1,2.788861990E-1,1.479664564E0,6.095455647E0
2.222199844E1,2.690795362E-1,1.358642459E0,7.704713345E0
2.224199844E1,-1.515242308E-1,1.521199107E0,9.819607735E0
2.226200000E1,-6.828933954E-1,1.359580874E0,1.157768917E1
2.228200000E1,-4.079145193E-1,8.703306317E-1,1.226925850E1
2.230400000E1,2.261275649E-1,6.483785510E-1,1.293409920E1
2.232599844E1,5.739572048E-1,6.155588627E-1,1.423057938E1
2.234599844E1,9.386994839E-1,2.754289508E-1,1.492359543E1
2.236599844E1,2.185523272E0,-2.990357876E-1,1.521010494E1
2.238600000E1,2.178302288E0,-5.599558949E-1,1.561434174E1
2.240799844E1,9.719597101E-1,-8.572391272E-1,1.523538780E1
2.242800000E1,6.959561110E-1,-6.525923610E-1,1.340714645E1
2.244999844E1,1.669323564E0,-5.752500892E-1,1.092017365E1
2.246999844E1,2.299132824E0,-2.280046195E-1,9.762779236E0
2.248999844E1,1.559238315E0,1.342668384E-2,9.717356682E0
2.250999844E1,1.786361784E-1,-1.712333038E-2,9.355027199E0
2.253000000E1,-1.035032630E0,2.779763937E-1,8.364067078E0
2.255199844E1,-1.487632394E0,4.650688767E-1,7.510237217E0
2.257199844E1,-1.336768985E0,8.573540449E-1,6.956621170E0
2.259199844E1,-1.127487063E0,1.172727942E0,6.506089687E0
2.261199844E1,-1.063102126E0,1.322806001E0,5.972642422E0
2.263199844E1,-8.788156509E-1,1.524790406E0,5.383381844E0
2.265199844E1,-6.933895350E-1,1.739406705E0,5.116992950E0
2.267199844E1,-7.123516202E-1,1.863809466E0,5.442212105E0
2.269199844E1,-5.246366858E-1,1.764335036E0,6.690740108E0
2.271199844E1,-1.779370755E-1,1.666737914E0,8.295928001E0
2.273199844E1,1.035635918E-1,1.562551737E0,9.940284729E0
2.275200000E1,4.469878972E-1,1.555924654E0,1.110910511E1
2.277399844E1,4.021780193E-1,1.648168445E0,1.216903782E1
2.279400000E1,6.299623251E-1,1.617484331E0,1.256080532E1
2.281401406E1,1.221234322E0,1.698379636E0,1.258496761E1
2.283402969E1,1.539347172E0,1.633477688E0,1.253899860E1
2.285600000E1,5.956487060E-1,1.580575347E0,1.286850834E1
2.287600000E1,6.804320961E-2,9.154374003E-1,1.417142391E1
2.289600000E1,-1.886439323E-1,-1.688295305E-1,1.540896702E1
2.291600000E1,-8.470685482E-1,-8.789401650E-1,1.610784531E1
2.293600000E1,-1.297389150E0,-1.269578099E0,1.376495552E1
2.295600000E1,-9.675639868E-1,-4.435785413E-1,1.104010487E1
2.297800000E1,6.727610826E-1,1.408748236E-2,9.564922333E0
2.300000000E1,1.008399487E0,2.899473906E-1,1.006000519E1
2.302199844E1,1.530278027E-1,5.913678184E-2,1.007991505E1
2.304199844E1,-6.313030720E-1,2.178340405E-1,9.121975899E0
2.306199844E1,-7.057436705E-1,3.345848918E-1,7.894813061E0
2.308199844E1,-7.307486534E-1,7.872135043E-1,7.365129471E0
2.310199844E1,-4.033176303E-1,6.283055544E-1,7.037621498E0
2.312199844E1,9.392932057E-2,6.190160513E-1,6.368260384E0
2.314199844E1,4.277959466E-1,7.569603920E-1,5.411355495E0
2.316199844E1,5.136808157E-1,9.936128259E-1,4.748582840E0
2.318199844E1,4.418355823E-1,1.186183333E0,4.560274601E0
2.320200312E1,5.377663970E-1,1.360442877E0,5.065536976E0
2.322399844E1,7.068353891E-1,1.536359310E0,6.233121872E0
2.324399844E1,9.346484542E-1,1.688706994E0,7.834287643E0
2.326399844E1,8.314391971E-1,1.753245115E0,8.865767479E0
2.328400000E1,3.550122380E-1,1.894742608E0,9.581297874E0
2.330599844E1,3.006446958E-1,2.019576073E0,1.060787487E1
2.332599844E1,8.821292520E-1,1.839771628E0,1.202004242E1
2.334599844E1,1.220458746E0,1.546941638E0,1.356770134E1
2.336599844E1,5.879489183E-1,1.393454075E0,1.397801971E1
2.338599844E1,4.429655969E-1,1.348452806E0,1.328246593E1
2.340599844E1,1.411228657E0,1.242581010E0,1.316584015E1
2.342599844E1,1.692844272E0,8.169973493E-1,1.439542484E1
2.344600000E1,5.501013994E-1,4.831403196E-1,1.499062443E1
2.346799844E1,1.254561692E-1,4.926884174E-1,1.330520153E1
2.348799844E1,1.688439012E0,6.975746155E-2,1.108749008E1
2.350799844E1,2.827829838E0,2.766356468E-1,9.443727493E0
2.352799844E1,2.178369045E0,2.821806073E-1,8.749638557E0
2.354799844E1,6.076771021E-1,3.063141704E-1,7.938923836E0
2.356799844E1,-4.966340363E-1,4.689475000E-1,7.103749275E0
2.358799844E1,-7.703679204E-1,5.613062382E-1,6.677983761E0
2.360799844E1,-4.839064777E-1,8.465801477E-1,6.827736378E0
2.362799844E1,-2.077305168E-1,9.839977622E-1,6.457133293E0
2.364799844E1,-3.604901731E-1,1.187179327E0,5.583948612E0
2.366799844E1,-6.245036125E-1,1.368353248E0,4.702154636E0
2.368799844E1,-6.412150860E-1,1.613366365E0,4.420079708E0
2.370800000E1,-2.149801701E-1,1.733210444E0,5.076224804E0
2.372999844E1,1.814421862E-1,1.729513764E0,6.866493702E0
2.374999844E1,2.936440408E-1,1.701051593E0,8.757309914E0
2.376999844E1,3.757364452E-1,1.403892875E0,1.082363129E1
2.378999844E1,9.006986767E-2,1.319856286E0,1.211245823E1
2.381000000E1,-2.336740941E-1,1.437086105E0,1.254509926E1
2.383000000E1,3.216370642E-1,1.353988171E0,1.267316151E1
2.385199844E1,1.414858222E0,1.359580874E0,1.365534878E1
2.387199844E1,2.149207830E0,1.279557109E0,1.418568325E1
2.389199844E1,1.612686396E0,1.474876046E0,1.396944809E1
2.391199844E1,7.456980348E-1,1.104454875E0,1.470736980E1
2.393199844E1,1.963053942E-1,-7.254431397E-2,1.586089611E1
2.395199844E1,-3.338666260E-1,-9.458724856E-1,1.573306561E1
2.397199844E1,-3.017268777E-1,-1.294200063E0,1.403018475E1
2.399199844E1,5.140255094E-1,-1.181864142E0,1.170638180E1
2.401199844E1,1.140856266E0,-8.525369167E-1,9.972970963E0
2.403199844E1,8.918305635E-1,-3.232747018E-1,9.505000114E0
2.405199844E1,1.352340877E-1,-2.055278420E-1,9.689449310E0
2.407199844E1,-7.730876803E-1,-1.393329650E-1,9.128679276E0
2.409199844E1,-1.336376309E0,-1.773624681E-2,8.088437080E0
2.411199844E1,-1.556049228E0,1.492736787E-1,6.862701893E0
2.413199844E1,-1.535353661E0,2.592728734E-1,6.291061878E0
2.415199844E1,-1.370967746E0,2.231108695E-1,6.200781345E0
2.417199844E1,-9.775621295E-1,3.527233601E-1,5.979959488E0
2.419199844E1,-6.762374640E-1,6.569018960E-1,5.655976295E0
2.421199844E1,-4.148672819E-1,9.927604795E-1,5.236588478E0
2.423199844E1,-3.285419345E-1,1.271158338E0,5.064723015E0
2.425199844E1,1.042914297E-2,1.471524239E0,5.186846733E0
2.427199844E1,6.825389713E-2,1.661710024E0,5.949332714E0
2.429199844E1,-1.766058952E-1,1.922563076E0,7.340689659E0
2.431200000E1,-2.816539109E-1,1.811606169E0,9.139654160E0
2.433401563E1,-6.176753044E-1,1.665176868E0,1.184612656E1
2.435600000E1,-3.250847161E-1,1.286308885E0,1.388296127E1
2.437600000E1,8.214122653E-1,7.439550757E-1,1.408505917E1
2.439799844E1,1.617120504E0,9.578147531E-1,1.335221386E1
2.441799844E1,1.681926608E0,1.196564555E0,1.275920773E1
2.443799844E1,2.389518499E0,4.364629686E-1,1.298738575E1
2.445799844E1,2.477950811E0,-3.776613772E-1,1.440656281E1
2.447799844E1,1.166330576E0,-8.839105368E-1,1.555062675E1
2.449799844E1,6.613455415E-1,-1.129028916E0,1.455733967E1
2.451799844E1,2.490936995E0,-1.392898679E0,1.303186035E1
2.453799844E1,4.032151699E0,-6.437337995E-1,1.094040012E1
2.455800000E1,3.048508406E0,1.231577396E-1,9.133601189E0
2.457999844E1,3.939898312E-1,6.795701981E-1,8.037248611E0
2.460000000E1,-1.716776729E0,8.610315323E-1,7.536381721E0
2.462000000E1,-2.324089766E0,4.517858624E-1,7.283065796E0
2.464000000E1,-1.951705337E0,2.761376202E-1,7.091443539E0
2.466199844E1,-1.078731537E0,2.512954175E-1,6.718522549E0
2.468199844E1,-1.115104198E0,5.043721199E-1,6.274292946E0
2.470199844E1,-1.343999505E0,6.363021731E-1,5.516422749E0
2.472199844E1,-7.711532116E-1,7.740550041E-1,5.165978432E0
2.474199844E1,1.508059651E-1,8.490892649E-1,5.245562077E0
2.476199844E1,5.078005791E-1,1.030043125E0,5.711731911E0
2.478199844E1,4.634025395E-1,1.175217867E0,6.372187138E0
2.480199844E1,1.798524335E-2,1.428591490E0,7.800596714E0
2.482200000E1,-8.889192343E-2,1.506058216E0,9.330395699E0
2.484399844E1,-1.470423043E-1,1.435333490E0,1.094623280E1
2.486400000E1,9.433154762E-2,1.146698117E0,1.211343479E1
2.488599844E1,5.611434579E-1,5.117749572E-1,1.323856544E1
2.490599844E1,-1.101237014E-1,-2.764153779E-1,1.441509533E1
2.492599844E1,-1.835040689E0,9.582553059E-2,1.584363937E1
2.494599844E1,-1.516037226E0,-3.178254962E-1,1.681291771E1
2.496599844E1,-3.953306079E-1,-9.043857455E-1,1.666461182E1
2.498599844E1,-3.035847843E-1,-1.303029895E0,1.480454636E1
2.500599844E1,-3.699903488E-1,-1.166426420E0,1.260737801E1
2.502599844E1,5.985983014E-1,-1.207616210E0,1.138917828E1
2.504599844E1,1.246881127E0,-9.900981188E-1,1.144427395E1
2.506599844E1,7.007349133E-1,-7.373375297E-1,1.154808712E1
2.508599844E1,-3.929555416E-1,-5.203557611E-1,1.077304554E1
2.510599844E1,-7.758362293E-1,-1.792107821E-1,9.647636414E0
2.512599844E1,-5.662574172E-1,6.164590269E-2,8.299854279E0
2.514599844E1,-1.148737967E-1,4.351892471E-1,6.985629559E0
2.516599844E1,3.280822337E-1,6.621212959E-1,6.121840000E0
2.518599844E1,4.188129306E-1,7.099286914E-1,5.659145832E0
2.520600000E1,1.499823779E-1,6.621786952E-1,5.626536846E0
2.522799844E1,-6.155971438E-2,6.137105227E-1,5.408798218E0
2.524799844E1,-8.227434754E-2,8.074014187E-1,4.672629356E0
2.526799844E1,-3.315490484E-2,1.110421181E0,4.232498646E0
2.528799844E1,1.824381649E-1,1.240541220E0,4.951611519E0
2.530799844E1,3.241940737E-1,1.387095094E0,6.524525166E0
2.532799844E1,1.365652680E-1,1.518833637E0,8.679392815E0
2.534799844E1,3.886076808E-1,1.223781824E0,1.083977699E1
2.536799844E1,1.275477409E0,7.903929949E-1,1.234523106E1
2.538799844E1,7.558303475E-1,5.406203270E-1,1.272114086E1
2.540800000E1,8.018659800E-2,9.367553592E-1,1.274876976E1
2.542999844E1,-1.202655435E-1,1.425230026E0,1.264732265E1
2.544999844E1,2.995816767E-1,1.563011527E0,1.253844452E1
2.546999844E1,1.516247869E0,1.154168010E0,1.287047195E1
2.548999844E1,2.302264452E0,6.196959615E-1,1.381166077E1
2.550999844E1,1.451173544E0,7.681556791E-2,1.434996414E1
2.552999844E1,4.879382998E-2,-2.834734973E-3,1.385827160E1
2.554999844E1,5.146384239E-1,-1.297561526E-1,1.251259613E1
2.556999844E1,2.450695276E0,-6.005615741E-2,1.170173740E1
2.558999844E1,3.454497814E0,1.506718993E-1,1.112977219E1
2.560999844E1,2.687070131E0,1.641368866E-1,1.033947468E1
2.562999844E1,8.604952097E-1,3.242515326E-1,8.769357681E0
2.564999844E1,-3.616010845E-1,5.890310407E-1,7.122146606E0
2.566999844E1,-9.345144033E-1,9.065980315E-1,6.101355076E0
2.568999844E1,-7.152916789E-1,1.033567309E0,5.687243938E0
2.570999844E1,-4.144842029E-1,1.065745354E0,5.841220379E0
2.572999844E1,-4.041412473E-1,1.000067592E0,6.009867668E0
2.574999844E1,-5.824517608E-1,9.454606771E-1,5.996230602E0
2.576999844E1,-4.776623845E-1,8.814588785E-1,5.693335056E0
2.578999844E1,-3.722026050E-1,1.011598110E0,5.537098885E0
2.580999844E1,-1.290091723E-1,1.159502268E0,6.245935917E0
2.582999844E1,1.656500250E-1,1.217901707E0,7.970843315E0
2.584999844E1,9.209536314E-1,1.073780298E0,9.902370453E0
2.587000000E1,1.321743011E0,8.981224895E-1,1.131951714E1
2.589199844E1,8.927403688E-1,9.738846421E-1,1.236549568E1
2.591199844E1,8.851746917E-1,8.628607392E-1,1.291753197E1
2.593199844E1,1.019077539E0,9.028246999E-1,1.322571373E1
2.595199844E1,1.265584588E0,9.931436181E-1,1.327848244E1
2.597199844E1,1.295923948E0,1.282152414E0,1.324247360E1
2.599199844E1,1.276320219E0,1.108151436E0,1.413175678E1
2.601199844E1,7.715362906E-1,3.547728062E-1,1.525236702E1
2.603199844E1,-9.421662986E-2,-3.817889690E-1,1.533370304E1
2.605199844E1,-4.940387309E-1,-8.664711714E-1,1.335570908E1
2.607199844E1,3.948230147E-1,-4.948431849E-1,1.141288185E1
2.609199844E1,1.653991103E0,-2.355128378E-1,1.078470135E1
2.611199844E1,1.965419292E0,-1.260116249E-1,1.121743870E1
2.613199844E1,8.131475449E-1,-1.322269738E-1,1.110931683E1
2.615200000E1,-4.132487774E-1,3.217807040E-2,1.044333458E1
2.617200000E1,-6.029653549E-1,2.707267404E-1,9.269869804E0
2.619399844E1,-3.024355508E-2,6.413300037E-1,7.580387115E0
2.621399844E1,4.238120019E-1,9.063298106E-1,6.033282757E0
2.623399844E1,5.428325534E-1,1.073311090E0,4.889237881E0
2.625401094E1,6.087592840E-1,1.096812487E0,4.255990028E0
2.627599844E1,5.956295133E-1,1.191929340E0,4.180736065E0
2.629599844E1,5.215145946E-1,1.202157378E0,4.452372551E0
2.631600000E1,5.818771720E-1,1.239937901E0,4.667036533E0
2.633600000E1,6.192075610E-1,1.435706973E0,5.277433395E0
2.635799844E1,6.967414618E-1,1.545945525E0,6.396224499E0
2.637799844E1,8.412266970E-1,1.597516775E0,7.558714867E0
2.639799844E1,8.374438286E-1,1.588514566E0,8.978045464E0
2.641799844E1,8.355284929E-1,1.633113742E0,1.064778137E1
2.643799844E1,1.015610814E0,1.466046214E0,1.251257706E1
2.645799844E1,1.992224813E0,5.300858021E-1,1.373882008E1
2.647799844E1,2.800718069E0,-2.647412419E-1,1.344313622E1
2.649799844E1,3.098355532E0,-2.023579180E-1,1.274413490E1
2.651799844E1,3.524140358E0,-6.031472608E-2,1.250753880E1
2.653799844E1,3.431666851E0,-1.900038496E-2,1.308717537E1
2.655799844E1,2.355137825E0,-1.276971400E-1,1.398928261E1
2.657799844E1,1.511507392E0,-5.120909810E-1,1.367199326E1
2.659799844E1,1.943660736E0,-8.628702760E-1,1.244876671E1
2.661799844E1,3.359065056E0,-6.245131493E-1,1.191827869E1
2.663799844E1,3.397966146E0,-5.473432541E-1,1.253746700E1
2.665800000E1,1.646090388E0,-4.337910414E-1,1.282848740E1
2.667999844E1,-2.172019705E-2,-3.433093429E-1,1.076028061E1
2.669999844E1,-2.383667082E-1,-3.781689405E-1,8.717000961E0
2.671999844E1,9.835380316E-2,-1.673547029E-1,7.400697708E0
2.673999844E1,1.030751690E-1,1.001829728E-1,6.227050304E0
2.675999844E1,-1.156495214E-1,2.693476975E-1,5.169301987E0
2.677999844E1,-5.159696341E-1,5.791382194E-1,4.774421215E0
2.680000000E1,-7.924233079E-1,8.008317351E-1,4.766137123E0
2.682000000E1,-8.011764884E-1,9.752445817E-1,4.672342300E0
2.684199844E1,-4.652221203E-1,1.421772718E0,4.578345776E0
2.686199844E1,-2.311362326E-1,1.724093437E0,5.390075684E0
2.688199844E1,5.031941533E-1,1.669744968E0,7.125479698E0
2.690199844E1,1.179536939E0,1.756357670E0,9.258070946E0
2.692199844E1,1.346853375E0,1.380870223E0,1.167599487E1
2.694199844E1,3.760907948E-1,1.210584998E0,1.374067783E1
2.696199844E1,2.267500609E-1,7.456693053E-1,1.392816353E1
2.698199844E1,6.056181192E-1,1.115286112E0,1.360491657E1
2.700199844E1,1.393722296E0,1.378284454E0,1.390426826E1
2.702199844E1,1.587480187E0,1.565951586E0,1.449700546E1
2.704199844E1,1.452744126E0,4.537491202E-1,1.581962967E1
2.706199844E1,5.060959458E-1,-9.847829938E-1,1.707380867E1
2.708199844E1,-7.766694427E-1,-1.914595246E0,1.642830276E1
2.710199844E1,-1.164606690E0,-2.074221373E0,1.378887749E1
2.712199844E1,2.745383382E-1,-1.653167605E0,1.159171867E1
2.714199844E1,1.518728256E0,-1.089687347E0,1.069169044E1
2.716199844E1,1.002931118E0,-6.841958165E-1,1.028979015E1
2.718199844E1,-2.686677277E-1,-3.683239594E-2,9.164535522E0
2.720199844E1,-7.601590753E-1,1.187332571E-1,8.203578949E0
2.722199844E1,-5.480423570E-1,-2.287994772E-1,7.224561214E0
2.724200000E1,-6.306423545E-1,3.754587173E-1,6.072672367E0
2.726200000E1,-1.886822581E-1,9.597684145E-1,5.298579216E0
2.728400625E1,8.235766888E-1,7.335163355E-1,4.567418575E0
2.730600000E1,1.413201571E0,4.601751268E-1,4.361268044E0
2.732600000E1,1.054799080E0,1.226022765E-1,5.234127045E0
2.734600000E1,1.722580194E-1,-1.368429810E-1,6.939689636E0
2.736600000E1,-4.387614131E-1,-1.463910639E-1,7.865766525E0
2.738799844E1,-2.175467312E-1,2.474646866E-1,8.104555130E0
2.740800000E1,2.424751669E-1,7.637599707E-1,8.710890770E0
2.742999844E1,7.389368415E-1,9.507758021E-1,9.524756432E0
2.744999844E1,8.750328422E-1,1.092847824E0,1.027229404E1
2.746999844E1,1.257520914E0,1.083922148E0,1.110682583E1
2.748999844E1,1.357071757E0,1.611498952E0,1.150339222E1
2.750999844E1,1.053515792E0,1.997741103E0,1.148631668E1
2.752999844E1,5.161324739E-1,2.571238518E0,1.149466801E1
2.754999844E1,1.235168695E0,2.123522997E0,1.211371326E1
2.756999844E1,1.597172022E0,1.498674393E0,1.356947327E1
2.758999844E1,8.992334008E-1,2.928491831E-1,1.521929836E1
2.760999844E1,-4.239652306E-2,-2.517263591E-1,1.492987823E1
2.762999844E1,1.085502267E0,-2.159091085E-1,1.359451675E1
2.764999844E1,2.654011011E0,8.123047650E-2,1.173636723E1
2.766999844E1,2.968924999E0,4.595814049E-1,1.047307110E1
2.768999844E1,2.323132277E0,4.393551648E-1,9.519288063E0
2.771000000E1,1.073627114E0,5.131348968E-1,8.011573792E0
2.773000000E1,3.857537806E-1,7.209803462E-1,6.815746784E0
2.775199844E1,3.048297763E-1,1.144811511E0,6.506568909E0
2.777199844E1,2.073187083E-1,1.446346760E0,6.147926807E0
2.779199844E1,-2.756588161E-1,1.670970798E0,6.021924973E0
2.781200000E1,-4.582597911E-1,1.604172587E0,5.846286297E0
2.783200000E1,-4.388380051E-1,1.637423277E0,5.212780476E0
2.785401250E1,-3.963457346E-1,1.787223577E0,4.824575424E0
2.787599844E1,-4.070909023E-1,1.780941248E0,5.036519527E0
2.789600000E1,-4.157004356E-1,1.804165006E0,6.408243656E0
2.791799844E1,-6.933608092E-3,1.942185998E0,8.951278687E0
2.793799844E1,6.977757215E-1,1.806999803E0,1.117874813E1
2.795799844E1,1.036603093E0,1.648254633E0,1.342615604E1
2.797799844E1,9.315646887E-1,1.595764160E0,1.524590302E1
2.799799844E1,1.518651724E0,1.200012207E0,1.578542233E1
2.801799844E1,2.278130770E0,1.075551987E0,1.546767330E1
2.803799844E1,2.079373837E0,1.340647578E0,1.454457378E1
2.805800000E1,1.284680843E0,1.468612909E0,1.402134609E1
2.807804219E1,2.124231607E-1,7.076781392E-1,1.439379692E1
2.809999844E1,-1.429137349E0,-5.827391148E-1,1.399634933E1
2.811999844E1,-2.558712244E0,-8.790838122E-1,1.175701427E1
2.813999844E1,-2.136355639E0,-6.447201967E-1,8.860998154E0
2.815999844E1,-4.143022597E-1,-2.115612328E-1,7.947121620E0
2.817999844E1,9.998090863E-1,1.717025787E-1,9.359480858E0
2.819999844E1,9.556695819E-1,2.243654281E-1,1.094312954E1
2.821999844E1,-9.557653219E-3,4.039209783E-1,1.030383968E1
2.823999844E1,-7.017596364E-1,7.526795864E-1,8.747426987E0
2.825999844E1,-5.558378696E-1,9.101126790E-1,7.983752728E0
2.827999844E1,-1.519647688E-1,1.019451141E0,7.384819508E0
2.829999844E1,1.943708658E-1,1.028539419E0,6.275020599E0
2.831999844E1,3.672513664E-1,1.174623966E0,5.171916008E0
2.833999844E1,5.425452590E-1,1.172536373E0,4.535633087E0
2.836000000E1,7.212484479E-1,1.248068571E0,4.573605061E0
2.838199844E1,8.432856798E-1,1.359877825E0,5.076990604E0
2.840199844E1,9.675160646E-1,1.467932940E0,5.812901497E0
2.842200156E1,1.047942162E0,1.480133772E0,6.923533440E0
2.844399844E1,1.133817315E0,1.483907104E0,8.353025436E0
2.846399844E1,5.221658349E-1,1.583697438E0,9.589964867E0
2.848399844E1,3.748362511E-2,1.860581994E0,1.080570316E1
2.850400000E1,-2.567733526E-1,1.937627435E0,1.219611168E1
2.852599844E1,8.224561065E-2,1.339258909E0,1.450453281E1
2.854599844E1,5.075612068E-1,9.885467291E-1,1.543492985E1
2.856599844E1,5.283715725E-1,1.277862072E0,1.495556259E1
2.858599844E1,9.243150353E-1,1.386108756E0,1.415935612E1
2.860599844E1,1.288942337E0,1.015122414E0,1.465396118E1
2.862599844E1,6.966552138E-1,7.891288958E-3,1.605376434E1
2.864599844E1,1.145769209E-1,-5.956295133E-1,1.589513397E1
2.866599844E1,7.817451954E-1,-9.442731142E-1,1.353864574E1
2.868599844E1,2.262683392E0,-4.833797514E-1,1.102668762E1
2.870599844E1,3.445304155E0,-5.748957023E-2,9.155063629E0
2.872599844E1,2.827035189E0,4.574170113E-1,7.882440090E0
2.874599844E1,1.800219417E0,7.449032068E-1,6.530826569E0
2.876599844E1,1.054961920E0,7.046997547E-1,5.541714668E0
2.878599844E1,6.397498846E-1,9.246502519E-1,4.749387741E0
2.880600000E1,5.353435129E-2,1.177928090E0,4.548293591E0
2.882600000E1,-3.129317462E-1,1.306276441E0,5.270337105E0
2.884799844E1,-1.312980205E-1,1.183415651E0,5.669478893E0
2.886799844E1,-5.946239457E-2,1.358690262E0,5.436054230E0
2.888799844E1,-8.317457139E-2,1.536138892E0,4.944706440E0
2.890799844E1,-1.181777939E-1,1.729216933E0,5.114829063E0
2.892799844E1,1.327345427E-2,1.890653253E0,6.298005104E0
2.894799844E1,1.405109167E-1,1.999819160E0,8.374734879E0
2.896799844E1,-1.829170156E-3,2.047770262E0,1.068715096E1
2.898800000E1,3.810515702E-1,1.830252290E0,1.223787594E1
2.900800000E1,6.311019659E-1,1.823117495E0,1.308069229E1
2.902800000E1,9.808661342E-1,1.974938750E0,1.348287964E1
2.905000000E1,1.427949786E0,1.626534462E0,1.398657227E1
2.907199844E1,4.542087913E-1,1.893689036E0,1.401461315E1
2.909199844E1,-8.695166111E-1,1.982140422E0,1.344805813E1
2.911199844E1,-1.735642910E0,1.733603120E0,1.274886513E1
2.913199844E1,-1.536761522E0,8.614146113E-1,1.233793449E1
2.915199844E1,-6.603974700E-1,-1.641464680E-1,1.157625294E1
2.917199844E1,-5.434263349E-1,-1.055775881E0,1.024940491E1
2.919199844E1,-1.222105861E0,-1.558912635E0,1.082796860E1
2.921199844E1,-1.038068414E0,-1.992799401E0,1.258275604E1
2.923200000E1,-6.669192314E-1,-1.903208375E0,1.358903885E1
2.925400156E1,-2.112356275E-1,-1.325104475E0,1.261911869E1
2.927599844E1,2.127391845E-1,-3.401011229E-1,1.023131466E1
2.929599844E1,8.900684118E-1,5.584523082E-1,8.323605537E0
2.931600000E1,1.423027396E0,1.045279741E0,6.819002628E0
2.933799844E1,1.207482100E0,1.356889844E0,5.313451767E0
2.935799844E1,3.829094470E-1,1.364924788E0,4.828827381E0
2.937799844E1,-1.748437583E-1,1.104588866E0,4.796850204E0
2.939799844E1,-2.397457957E-1,8.958336711E-1,4.939199924E0
2.941799844E1,-2.070601285E-1,1.053084850E0,5.707336426E0
2.943799844E1,-5.751830339E-2,9.868707657E-1,6.266813278E0
2.945799844E1,-5.171858668E-1,1.312175751E0,6.249383926E0
2.947799844E1,-1.312731147E0,1.914097190E0,6.357429028E0
2.949799844E1,-1.821096778E0,2.153498173E0,7.898395061E0
2.951799844E1,-1.519915938E0,1.729724526E0,1.055651379E1
2.953799844E1,-1.056858063E0,1.216675878E0,1.265620995E1
2.955799844E1,-1.176960826E0,1.354553103E0,1.351488590E1
2.957799844E1,-1.500149250E0,1.655427575E0,1.387008858E1
2.959799844E1,-9.949153066E-1,1.577721477E0,1.387466717E1
2.961799844E1,-8.367256075E-2,1.511516929E0,1.421439457E1
2.963799844E1,2.051677704E0,5.105012655E-1,1.552943325E1
2.965799844E1,3.342679024E0,-9.241522551E-1,1.678018379E1
2.967799844E1,2.065554380E0,-1.910170794E0,1.645618248E1
2.969799844E1,8.901354074E-1,-1.814086676E0,1.389655018E1
2.971799844E1,2.359811306E0,-1.882943869E0,1.087006855E1
2.973799844E1,4.721604824E0,-1.292868853E0,1.000218010E1
2.975799844E1,5.107819080E0,-8.832114339E-1,9.995428085E0
2.977799844E1,2.969174147E0,-2.918340564E-1,9.444235802E0
2.979799844E1,1.063964128E0,1.467837244E-1,7.993894577E0
2.981799844E1,1.544068605E-1,6.528700590E-1,6.742761612E0
2.983800000E1,-2.475796044E-1,1.213170767E0,6.309515953E0
2.985999844E1,-4.162463248E-1,1.582126856E0,6.024510860E0
2.987999844E1,-3.937503994E-1,1.611374378E0,5.448168755E0
2.989999844E1,-4.366257489E-1,1.674332261E0,4.609920502E0
2.991999844E1,-3.247878253E-1,1.626515269E0,4.043031216E0
2.993999844E1,-2.223734558E-1,1.686485171E0,3.942991734E0
2.995999844E1,-1.757535487E-1,1.748648286E0,4.252820492E0
2.997999844E1,-2.150471956E-1,1.764584064E0,5.600267410E0
2.999999844E1,-2.980302274E-2,1.749759316E0,7.809139252E0
3.001999844E1,3.007692099E-1,1.868913770E0,1.023003101E1
3.003999844E1,3.604805768E-1,1.710886955E0,1.176436043E1
3.005999844E1,1.401374191E-1,1.701999664E0,1.233351994E1
3.007999844E1,9.149873257E-1,1.749854922E0,1.289114857E1
3.010000000E1,2.326397896E0,1.602764726E0,1.357581329E1
3.012199844E1,2.448703289E0,1.718337774E0,1.448304272E1
3.014199844E1,1.623900890E0,1.464954615E0,1.493450356E1
3.016199844E1,1.307722569E0,8.340249658E-1,1.578777695E1
3.018199844E1,8.466950655E-1,-3.864432871E-1,1.657960701E1
3.020199844E1,-1.453471929E-1,-1.424875617E0,1.658658028E1
3.022199844E1,-2.310979366E-1,-1.502792478E0,1.416345596E1
3.024199844E1,8.872336745E-1,-9.336333275E-1,1.193892574E1
3.026200000E1,2.114932299E0,-6.294643283E-1,1.063421059E1
3.028400000E1,1.812841654E0,-1.707736254E-1,9.522890091E0
3.030599844E1,7.339664698E-1,1.593676507E-1,8.364918709E0
3.032599844E1,2.429731637E-1,3.932428360E-1,7.665036678E0
3.034599844E1,2.480009943E-1,5.503311753E-1,6.850327969E0
3.036599844E1,5.577436686E-1,6.603591442E-1,6.113048553E0
3.038600000E1,1.009405017E0,7.824730277E-1,5.711971760E0
3.040799844E1,1.223906398E0,8.900300860E-1,5.227902412E0
3.042799844E1,8.716139197E-1,1.036689281E0,4.702652931E0
3.044799844E1,7.111641169E-1,1.074929595E0,4.582520962E0
3.046799844E1,9.283852577E-1,1.143030167E0,4.359735966E0
3.048799844E1,9.376268387E-1,1.542316079E0,4.541015148E0
3.050799844E1,8.198991418E-1,1.863761425E0,6.251739025E0
3.052799844E1,4.215518832E-1,1.964911699E0,8.432024002E0
3.054799844E1,-1.752555668E-1,1.935242772E0,1.027654552E1
3.056799844E1,-4.629428387E-1,1.894474387E0,1.136529446E1
3.058799844E1,-9.099882096E-2,2.075705767E0,1.218147755E1
3.060799844E1,6.573424935E-1,2.128790140E0,1.326787090E1
3.062799844E1,8.927307725E-1,1.747489452E0,1.418947601E1
3.064799844E1,4.720503986E-1,1.528285980E0,1.401958275E1
3.066799844E1,3.104034662E-1,1.454467893E0,1.361790371E1
3.068799844E1,1.327795506E0,7.270519733E-1,1.426225948E1
3.070800000E1,1.668423295E0,-5.234682560E-2,1.562399483E1
3.072999844E1,1.195942044E0,-6.603687406E-1,1.456371784E1
3.074999844E1,1.248461246E0,-5.329396725E-1,1.136502647E1
3.076999844E1,2.945136309E0,-3.769431114E-1,9.349443436E0
3.078999844E1,4.280037403E0,-2.684474885E-1,9.257238388E0
3.081000000E1,3.415864944E0,-4.000711143E-1,9.493191719E0
3.083000000E1,1.241249919E0,-1.708981097E-1,8.775065422E0
3.085199844E1,-5.492681861E-1,2.031144947E-1,7.934078217E0
3.087199844E1,-1.332727551E0,6.128485799E-1,7.209764957E0
3.089199844E1,-1.263630986E0,8.476814628E-1,6.478728771E0
3.091199844E1,-6.786795855E-1,1.272115946E0,5.735301018E0
3.093199844E1,-4.952166602E-2,1.407235146E0,5.161104202E0
3.095199844E1,2.106227130E-1,1.437852144E0,4.568366528E0
3.097199844E1,-1.028549019E-2,1.558816910E0,4.430489063E0
3.099199844E1,-1.067718193E-1,1.456019402E0,4.956734657E0
3.101199844E1,2.971874774E-1,1.240761518E0,6.627026081E0
3.103199844E1,7.020661235E-1,9.758957624E-1,9.082978249E0
3.105199844E1,1.299170375E0,9.139626026E-1,1.184962177E1
3.107204219E1,1.509850621E0,7.984758019E-1,1.355633354E1
3.109400000E1,1.142321587E0,1.147215247E0,1.345214748E1
3.111599844E1,1.605915546E0,1.475297451E0,1.258866501E1
3.113599844E1,2.633717537E0,1.385294676E0,1.304248047E1
3.115599844E1,2.363182306E0,1.372595787E0,1.382386208E1
3.117599844E1,1.175859451E0,1.464494824E0,1.391171932E1
3.119599844E1,6.947878003E-1,1.008140922E0,1.389777565E1
3.121599844E1,6.446052790E-1,2.727378905E-1,1.430704117E1
3.123599844E1,1.647210680E-3,-2.972928286E-1,1.378846550E1
3.125600000E1,-4.922287166E-1,-2.382901013E-1,1.202671719E1
3.127799844E1,8.935639858E-1,-1.158123240E-1,1.095522594E1
3.129799844E1,2.682808399E0,3.174328208E-1,1.169120312E1
3.131799844E1,2.936593771E0,3.088711798E-1,1.259137535E1
3.133800000E1,1.420949101E0,3.297198713E-1,1.130754662E1
3.135999844E1,-4.831690788E-1,8.384302855E-1,9.360476494E0
3.138000000E1,-1.250817180E0,9.120280147E-1,8.640711784E0
3.140000000E1,-9.881636500E-1,8.587905765E-1,7.842322826E0
3.142199844E1,-6.115749106E-2,9.602760077E-1,6.748996258E0
3.144200000E1,6.257007122E-1,1.129411936E0,5.497010231E0
3.146399844E1,6.581277251E-1,1.237275481E0,4.502928257E0
3.148400469E1,5.558091402E-1,1.191373944E0,3.964587450E0
3.150599844E1,4.419600666E-1,1.482144952E0,4.359065533E0
3.152599844E1,6.420578361E-1,1.592431426E0,5.556625843E0
3.154599844E1,8.176964521E-1,1.758828521E0,6.394251823E0
3.156599844E1,1.078022838E0,1.951647878E0,7.165750027E0
3.158599844E1,1.067143559E0,1.934151053E0,8.317160606E0
3.160599844E1,3.185724914E-1,1.810370803E0,1.005673885E1
3.162599844E1,-1.180245653E-1,1.740632534E0,1.171690750E1
3.164600000E1,4.690049887E-1,1.506288052E0,1.298501110E1
3.166600000E1,9.088389874E-1,1.700256705E0,1.350419807E1
3.168799844E1,4.349594116E-1,2.379022360E0,1.310774708E1
3.170800000E1,1.381981134E0,1.797490001E0,1.315829277E1
3.172999844E1,2.397055626E0,1.171588302E0,1.416307259E1
3.174999844E1,1.928950787E0,6.944429874E-1,1.516646290E1
3.176999844E1,8.418779373E-1,5.662574172E-1,1.426132107E1
3.178999844E1,1.299524784E0,5.934747458E-1,1.219633198E1
3.181000000E1,2.850115299E0,4.501769841E-1,1.030699062E1
3.183000000E1,3.344517708E0,6.346262693E-1,9.282071114E0
3.185199844E1,2.449670553E0,6.561166644E-1,8.240899086E0
3.187199844E1,1.143758059E0,7.682514787E-1,7.069895744E0
3.189199844E1,4.552335143E-1,7.472207546E-1,6.181704044E0
3.191199844E1,6.155971438E-2,9.784815311E-1,6.097648621E0
3.193199844E1,-3.056629300E-1,1.118389010E0,6.754827976E0
3.195199844E1,-4.482232928E-1,1.143949628E0,7.003260136E0
3.197199844E1,-3.339624107E-1,1.241546750E0,6.827190399E0
3.199200156E1,4.654327873E-3,1.420747995E0,6.807740211E0
3.201399844E1,3.194822669E-1,1.502926588E0,6.750087738E0
3.203400156E1,4.287345111E-1,1.502763748E0,6.454767704E0
3.205400156E1,2.928012908E-1,1.748993039E0,6.762873173E0
3.207400469E1,4.769249633E-2,1.965313911E0,7.367053986E0
3.209400469E1,-2.845652401E-1,2.088605642E0,8.364641190E0
3.211599844E1,-2.407513410E-1,2.086518049E0,9.891567230E0
3.213599844E1,-8.342356235E-2,2.124451876E0,1.101746464E1
3.215599844E1,6.688920856E-1,2.348280907E0,1.176884174E1
3.217599844E1,8.823494911E-1,2.532749176E0,1.249201584E1
3.219599844E1,8.649485111E-1,2.117412806E0,1.324302864E1
3.221599844E1,9.694697261E-1,1.829658628E0,1.337138653E1
3.223600000E1,9.920613766E-1,1.693437934E0,1.344955254E1
3.225600000E1,7.029854655E-1,1.270191073E0,1.405331230E1
3.227600000E1,-3.974662125E-1,9.012541771E-1,1.416615582E1
3.229600000E1,-1.356593013E0,8.949047327E-1,1.332753372E1
3.231600000E1,-1.312702537E0,7.062032819E-1,1.238256264E1
3.233600000E1,-5.501971245E-1,5.920382142E-1,1.130435753E1
3.235799844E1,3.473220468E-1,6.729238629E-1,1.075215912E1
3.237800000E1,7.663360834E-1,8.803192377E-1,1.065450382E1
3.239999844E1,1.094083071E0,9.726780057E-1,1.052264023E1
3.241999844E1,9.505938888E-1,9.487263560E-1,1.002254963E1
3.243999844E1,4.939716756E-1,9.414575696E-1,9.089673042E0
3.245999844E1,6.958315969E-1,9.633884430E-1,7.347450733E0
3.247999844E1,8.985918164E-1,1.218572021E0,6.357209206E0
3.249999844E1,7.975755930E-1,1.424923420E0,6.788711071E0
3.251999844E1,8.373864293E-1,1.267346621E0,6.832342625E0
3.253999844E1,6.772142649E-1,1.456163049E0,6.158978462E0
3.255999844E1,6.142563820E-1,1.662112355E0,5.795481682E0
3.257999844E1,4.891641140E-1,1.676142335E0,5.927162170E0
3.259999844E1,6.589322090E-1,1.669189572E0,6.108996868E0
3.261999844E1,7.270233035E-1,1.786572456E0,6.198472977E0
3.263999844E1,2.963926196E-1,1.901446342E0,7.331151009E0
3.265999844E1,1.554315723E-2,1.660216093E0,9.263932228E0
3.267999844E1,3.144640326E-1,1.362358332E0,1.101653576E1
3.269999844E1,2.417856455E-1,1.151572704E0,1.197415924E1
3.271999844E1,-9.370905161E-2,9.121812582E-1,1.266653347E1
3.273999844E1,-3.884257078E-1,1.177688718E0,1.245423508E1
3.275999844E1,-1.380975544E-2,1.428505301E0,1.213351727E1
3.277999844E1,1.564907670E0,7.184137702E-1,1.316436481E1
3.280000000E1,1.867458105E0,7.140467316E-2,1.437864685E1
3.282000000E1,2.799204588E-1,-4.531074464E-1,1.490836811E1
3.284199844E1,-1.012057781E0,-2.027601451E-1,1.381742668E1
3.286199844E1,1.672589332E-1,-5.260061026E-1,1.242445087E1
3.288199844E1,1.690354228E0,-2.764345407E-1,1.091465855E1
3.290199844E1,1.851972580E0,2.633621916E-3,1.000515842E1
3.292199844E1,8.051412702E-1,5.797798932E-2,9.352489471E0
3.294199844E1,-2.023004591E-1,2.181117684E-1,8.562144279E0
3.296199844E1,-9.497223496E-1,5.076569319E-1,7.444664955E0
3.298199844E1,-1.021902800E0,7.440987825E-1,6.422446251E0
3.300199844E1,-1.060851574E0,1.128061652E0,6.324063301E0
3.302199844E1,-8.035706878E-1,1.122171879E0,6.168823242E0
3.304200000E1,-7.443956137E-1,1.248748541E0,5.611635208E0
3.306399844E1,-7.032536864E-1,1.431799650E0,5.259888649E0
3.308400000E1,-5.024950504E-1,1.371695518E0,5.672064781E0
3.310599844E1,-2.783594728E-1,1.237668157E0,6.929662704E0
3.312599844E1,-1.027304083E-1,1.202262640E0,8.268442154E0
3.314599844E1,-1.098555550E-1,1.244486928E0,9.638959885E0
3.316600000E1,-1.943995953E-1,1.246881127E0,1.060708046E1
3.318799844E1,-7.015010715E-2,1.409236670E0,1.140439606E1
3.320799844E1,2.341625094E-1,1.612197995E0,1.200200844E1
3.322799844E1,7.522773147E-1,1.731649399E0,1.220134926E1
3.324799844E1,1.624743581E0,1.473659873E0,1.245090199E1
3.326799844E1,1.365643024E0,1.618154764E0,1.275941849E1
3.328799844E1,6.449308991E-1,1.180599928E0,1.305199051E1
3.330799844E1,4.615063220E-2,6.689399481E-1,1.355931282E1
3.332799844E1,-5.605496764E-1,2.357426733E-1,1.369808960E1
3.334799844E1,-1.079076290E0,2.414217293E-1,1.240270233E1
3.336799844E1,-5.293675661E-1,4.051755369E-1,1.079150009E1
3.338799844E1,8.831731081E-1,4.509047866E-1,9.956738472E0
3.340799844E1,1.252387643E0,5.418844819E-1,1.024936676E1
3.342799844E1,4.860516787E-1,3.195205629E-1,1.065067291E1
3.344799844E1,-4.680281281E-1,1.455291659E-1,1.115431786E1
3.346799844E1,-5.298655629E-1,3.983951733E-2,1.101263905E1
3.348799844E1,-4.219541326E-2,2.485085577E-1,1.003368759E1
3.350799844E1,6.604740620E-1,5.772228837E-1,8.363166809E0
3.352799844E1,1.097683907E0,8.280107379E-1,6.808247566E0
3.354799844E1,9.927414060E-1,1.052117586E0,6.409526825E0
3.356799844E1,9.243821502E-1,9.968593717E-1,6.329474449E0
3.358799844E1,7.812758684E-1,1.012354732E0,6.454125881E0
3.360799844E1,8.341111541E-1,1.022410393E0,6.070909977E0
3.362799844E1,9.096146822E-1,1.078884721E0,5.605639935E0
3.364799844E1,1.156552553E0,1.122775316E0,5.568367004E0
3.366800313E1,1.116866350E0,1.309503794E0,7.158270359E0
3.368999844E1,1.163716078E0,1.155537486E0,8.956086159E0
3.370999844E1,5.076952577E-1,9.197182059E-1,1.004312134E1
3.373000000E1,3.971980512E-1,5.164771676E-1,1.102450371E1
3.375199844E1,5.167261958E-1,6.157407761E-1,1.247317791E1
3.377199844E1,7.224359512E-1,4.456854165E-1,1.322672844E1
3.379199844E1,7.655698806E-2,3.749798536E-1,1.266398621E1
3.381200000E1,-1.789905131E-2,4.114962518E-1,1.212612438E1
3.383200000E1,9.120855331E-1,3.847098947E-1,1.256982708E1
3.385400625E1,2.243702173E0,-3.018322289E-1,1.393704128E1
3.387599844E1,2.122910023E0,-9.034280181E-1,1.378344822E1
3.389600000E1,1.920896769E0,-7.464163303E-1,1.249721622E1
3.391799844E1,3.070027351E0,-6.694188118E-1,1.083531475E1
3.393799844E1,3.790653229E0,-5.770121813E-1,1.006549263E1
3.395799844E1,3.116426945E0,-2.629503906E-1,9.198389053E0
3.397799844E1,1.715933919E0,-6.110002287E-3,9.176870346E0
3.399799844E1,5.500247478E-1,3.030197322E-1,8.743040085E0
3.401800625E1,-2.633238733E-1,7.215262055E-1,7.775304317E0
3.403999844E1,-5.022939444E-1,1.021040797E0,6.883397102E0
3.406000000E1,-3.582875133E-1,1.237725735E0,6.734879971E0
3.408000000E1,-2.966607213E-1,1.157874227E0,6.498782635E0
3.410000000E1,-6.077632904E-1,1.095672846E0,6.227127075E0
3.412200000E1,-8.085698485E-1,1.077046037E0,6.090791702E0
3.414400313E1,-4.569573402E-1,1.019537330E0,6.636401176E0
3.416599844E1,3.279290199E-1,1.114251971E0,8.552193642E0
3.418600000E1,6.590949893E-1,1.070016623E0,9.745377541E0
3.420600312E1,6.503705382E-1,1.007336378E0,1.089937305E1
3.422602031E1,8.860174417E-1,7.450372577E-1,1.168848324E1
3.424799844E1,1.452906966E0,6.785646081E-1,1.244467735E1
3.426800000E1,1.962728262E0,5.717737079E-1,1.312433434E1
3.428999844E1,1.470413327E0,3.788584769E-1,1.321403027E1
3.431000000E1,2.080944330E-1,6.258730292E-1,1.277986526E1
3.433000000E1,-3.817123771E-1,7.093445063E-1,1.207001400E1
3.435199844E1,-1.054310650E-1,3.090148270E-1,1.266737556E1
3.437200000E1,2.408662736E-1,-5.657306910E-1,1.361724186E1
3.439400000E1,-3.084689379E-1,-1.555129766E0,1.320853329E1
3.441400625E1,-1.014854193E0,-1.575288892E0,1.183547783E1
3.443600000E1,7.096414268E-2,-1.594289303E0,1.072666550E1
3.445600000E1,1.942770123E0,-1.103267312E0,1.062540054E1
3.447600000E1,2.644223452E0,-7.610880136E-1,1.066076756E1
3.449800000E1,1.410749912E0,-3.875350654E-1,9.977414131E0
3.451999844E1,-7.661445416E-4,-2.522339225E-1,9.237051010E0
3.454000000E1,-4.805162549E-1,-4.186022282E-2,8.569872856E0
3.456000000E1,9.029013664E-2,1.467741430E-1,7.315444946E0
3.458000000E1,6.697252989E-1,6.133944988E-1,6.149458885E0
3.460000000E1,9.978266358E-1,8.599110842E-1,5.116581440E0
3.462200000E1,8.645557761E-1,9.844861627E-1,4.796945572E0
3.464400000E1,5.997092128E-1,1.116895199E0,4.924288750E0
3.466599844E1,8.043655753E-1,1.147493005E0,5.424810886E0
3.468599844E1,7.518751025E-1,1.542555451E0,6.211727619E0
3.470599844E1,6.959273815E-1,1.642680883E0,7.291273117E0
3.472599844E1,1.137552261E0,1.294822574E0,8.938981056E0
3.474599844E1,1.190569401E0,1.035080433E0,1.126409626E1
3.476599844E1,1.009788036E0,3.477817476E-1,1.320688534E1
3.478599844E1,1.158803225E0,-5.489808917E-1,1.416384888E1
3.480599844E1,8.708382249E-1,-1.586781144E-1,1.381331825E1
3.482599844E1,1.101428628E0,2.626534998E-1,1.249613380E1
3.484599844E1,1.590142608E0,8.980842233E-1,1.060440826E1
3.486599844E1,2.602928162E0,1.003955841E0,1.091307831E1
3.488599844E1,3.000767708E0,2.235322446E-1,1.332479572E1
3.490599844E1,2.023225069E0,-8.545863628E-1,1.502656555E1
3.492599844E1,9.170271754E-1,-1.345828652E0,1.425957775E1
3.494599844E1,1.033241749E0,-1.007910967E0,1.168364620E1
3.496599844E1,2.556404114E0,-5.682302117E-1,9.751871109E0
3.498599844E1,3.794187307E0,-2.013715208E-1,9.039729118E0
3.500599844E1,3.938950300E0,-2.471390814E-1,8.926494598E0
3.502600000E1,3.119596958E0,-4.132008851E-1,8.700892448E0
3.504799844E1,1.723719835E0,-2.048287541E-1,7.561530590E0
3.506799844E1,4.383783340E-1,2.735136151E-1,7.074971199E0
3.508799844E1,-3.153355122E-1,7.234702706E-1,7.481784821E0
3.510799844E1,-5.681249499E-1,7.536755204E-1,6.858756065E0
3.512799844E1,-6.798096299E-1,9.489945173E-1,6.083896637E0
3.514799844E1,-6.431304216E-1,1.034199357E0,5.691764832E0
3.516799844E1,-8.429217935E-1,1.159349084E0,5.883425236E0
3.518799844E1,-6.799341440E-1,1.128588438E0,7.146931648E0
3.520799844E1,-4.933971167E-2,1.082064152E0,8.698920250E0
3.522799844E1,3.578182459E-1,1.345139146E0,1.024245262E1
3.524799844E1,4.568615854E-1,1.292122006E0,1.163978481E1
3.526799844E1,-1.344775259E-1,1.218706131E0,1.247128105E1
3.528799844E1,-1.986325532E-1,1.211849093E0,1.260094261E1
3.530799844E1,4.291941822E-1,1.184593558E0,1.278371620E1
3.532799844E1,1.011511922E0,1.015476704E0,1.293837070E1
3.534799844E1,8.967147470E-1,7.732983828E-1,1.283219337E1
3.536799844E1,5.573605895E-1,8.010328412E-1,1.240454102E1
3.538799844E1,8.093455434E-1,7.769376040E-1,1.288513374E1
3.540799844E1,1.084314823E0,-1.161475107E-1,1.407264805E1
3.542799844E1,1.154675633E-1,-1.119385004E0,1.468073750E1
3.544799844E1,-4.225287139E-1,-1.759163737E0,1.324625587E1
3.546799844E1,3.404459059E-1,-1.597066641E0,1.141812038E1
3.548799844E1,1.632462502E0,-1.127515793E0,1.044931126E1
3.550799844E1,2.085110426E0,-6.676949263E-1,1.006968689E1
3.552799844E1,1.576419115E0,-5.463855863E-1,9.567708969E0
3.554799844E1,1.012297153E0,-4.615637958E-1,8.053117752E0
3.556800000E1,8.105521798E-1,-2.653062642E-1,6.659452438E0
3.558999844E1,3.688794672E-1,4.405330983E-4,6.133695602E0
3.560999844E1,-1.646061540E-1,1.119528711E-1,6.341972351E0
3.563000000E1,-3.136787415E-1,-1.065707058E-1,6.412256241E0
3.565199844E1,2.669630647E-1,-7.576211542E-2,6.195801258E0
3.567199844E1,9.273988008E-1,6.016149744E-2,6.073629856E0
3.569199844E1,1.126605988E0,4.295197502E-2,5.795394897E0
3.571199844E1,1.189314961E0,2.548962831E-1,5.672122478E0
3.573199844E1,1.444163322E0,3.710629642E-1,6.681344986E0
3.575199844E1,9.724959731E-1,7.281150222E-1,8.471566200E0
3.577199844E1,5.424303561E-2,9.263262153E-1,1.033348942E1
3.579199844E1,-6.589801311E-1,9.662519097E-1,1.191544437E1
3.581200000E1,-6.159036160E-1,9.666828513E-1,1.291840363E1
3.583200156E1,-2.070505731E-2,1.020159841E0,1.339961910E1
3.585400000E1,2.145587802E-1,1.298365951E0,1.304588127E1
3.587400312E1,3.658340313E-3,1.494508505E0,1.222488976E1
3.589400313E1,4.445745349E-1,8.700720072E-1,1.216972733E1
3.591599844E1,8.916198611E-1,-2.392286360E-1,1.375962067E1
3.593599844E1,1.546654291E-2,-1.101830840E0,1.474521732E1
3.595600312E1,-1.167470217E0,-1.168542862E0,1.344561577E1
3.597799844E1,3.109685183E-1,-9.777728319E-1,1.184119511E1
3.599799844E1,2.376733541E0,-6.734601855E-1,1.087637997E1
3.601799844E1,2.872773886E0,-6.151087284E-1,9.862980843E0
3.603799844E1,1.796838760E0,-4.419504702E-1,8.921015739E0
3.605800000E1,3.994199038E-1,-3.388752937E-1,8.262495041E0
3.607999844E1,-7.679832578E-1,3.434243053E-2,7.368481636E0
3.610000000E1,-1.050183058E0,2.930885851E-1,6.239088535E0
3.612199844E1,-8.631575704E-1,6.941365600E-1,5.365118504E0
3.614199844E1,-5.231139064E-1,8.882488608E-1,4.929402828E0
3.616199844E1,-2.927821279E-1,7.982842922E-1,4.901544094E0
3.618199844E1,1.357033569E-2,8.869942427E-1,5.217741013E0
3.620199844E1,2.916808128E-1,8.157523870E-1,6.263547897E0
3.622199844E1,6.154151559E-1,8.966764212E-1,7.503255844E0
3.624199844E1,5.860909820E-1,9.599407911E-1,9.358666420E0
3.626199844E1,2.810984254E-1,9.702741504E-1,1.133414173E1
3.628199844E1,4.646666721E-2,1.005038023E0,1.263413620E1
3.630199844E1,2.023866624E-1,1.169749498E0,1.300743008E1
3.632199844E1,5.691304803E-1,1.406315804E0,1.298396683E1
3.634199844E1,1.138021469E0,1.204082370E0,1.298538399E1
3.636199844E1,1.182649374E0,1.027734995E0,1.299925137E1
3.638199844E1,-7.577169687E-2,1.224844813E0,1.329249287E1
3.640199844E1,-6.229042411E-1,5.508962274E-1,1.361075878E1
3.642199844E1,-1.453826308E0,-5.174157023E-1,1.310576439E1
3.644199844E1,-2.643734932E0,-1.218734860E0,1.237808990E1
3.646199844E1,-2.612073898E0,-1.784570932E0,1.178323650E1
3.648199844E1,-9.933829904E-1,-1.831142902E0,1.187779808E1
3.650199844E1,4.878999889E-1,-1.604718447E0,1.241157055E1
3.652199844E1,8.963220716E-1,-1.264464140E0,1.185756111E1
3.654199844E1,3.070898652E-1,-5.846544504E-1,1.032200718E1
3.656199844E1,-4.447469115E-2,-1.915457100E-1,9.029232979E0
3.658199844E1,-3.321619630E-1,1.482968628E-1,8.294241905E0
3.660199844E1,-1.941027194E-1,3.427443206E-1,7.419085026E0
3.662199844E1,1.385955513E-1,6.050339341E-1,6.428460598E0
3.664199844E1,5.061246753E-1,7.922796607E-1,5.456481457E0
3.666199844E1,6.979002357E-1,9.343228936E-1,4.549203396E0
3.668199844E1,7.837275267E-1,1.022506118E0,4.308518887E0
3.670200000E1,6.542395353E-1,1.088317871E0,4.556022167E0
3.672399844E1,3.313000500E-1,1.168169260E0,5.328248024E0
3.674399844E1,3.991038501E-1,1.075140238E0,6.822785378E0
3.676399844E1,5.774910450E-1,9.121238589E-1,9.028103828E0
3.678400000E1,8.306060433E-1,7.112215757E-1,1.121922016E1
3.680400469E1,4.128274322E-1,6.246567965E-1,1.220440483E1
3.682600312E1,4.940674454E-2,5.082507133E-1,1.279523659E1
3.684799844E1,2.311075032E-1,4.555208087E-1,1.377075863E1
3.686799844E1,4.058555067E-1,3.808695972E-1,1.413666916E1
3.688799844E1,1.945911348E-1,7.669777274E-1,1.343483257E1
3.690799844E1,8.628224134E-1,6.737858057E-1,1.303440762E1
3.692799844E1,1.952241659E0,2.075389922E-1,1.374879837E1
3.694799844E1,1.758512497E0,-8.671894670E-1,1.502723503E1
3.696799844E1,1.000297427E0,-1.575537920E0,1.577082729E1
3.698800000E1,1.748054624E0,-2.171751738E0,1.459013081E1
3.701000000E1,2.927275419E0,-1.487881422E0,1.168741989E1
3.703000000E1,3.142092705E0,-7.125814557E-1,9.121352196E0
3.705200000E1,1.769717336E0,1.989964694E-1,7.311633110E0
3.707400000E1,2.099810690E-1,6.225211620E-1,6.675858021E0
3.709400469E1,-6.517687440E-1,5.817526579E-1,6.427722454E0
3.711400469E1,-1.033184171E0,7.325204015E-1,5.757633686E0
3.713599844E1,-9.254930615E-1,9.567421079E-1,5.120661259E0
3.715599844E1,-9.985927939E-1,1.034343004E0,4.529762745E0
3.717599844E1,-1.196152687E0,1.209818840E0,4.368268967E0
3.719599844E1,-1.202492595E0,1.181979179E0,4.755478382E0
3.721599844E1,-9.638673067E-1,1.166847706E0,5.627696037E0
3.723600000E1,-6.069301367E-1,1.156025887E0,6.910758018E0
3.725600000E1,-6.345496178E-1,1.187389970E0,8.726357460E0
3.727600000E1,-8.022394776E-1,1.238530159E0,1.008591938E1
3.729600000E1,-7.627926469E-1,1.160795212E0,1.106768513E1
3.731600000E1,-6.381122470E-1,1.534396052E0,1.187994194E1
3.733600000E1,1.144428458E-2,1.850066662E0,1.281969547E1
3.735600000E1,6.360532045E-1,1.563164711E0,1.360858536E1
3.737799844E1,6.519315243E-1,1.247608900E0,1.377374744E1
3.739799844E1,-1.956062764E-1,6.894055605E-1,1.377298069E1
3.741799844E1,-8.574498296E-1,2.348999232E-1,1.393199444E1
3.743799844E1,-1.253843427E0,-2.346700728E-1,1.411091709E1
3.745799844E1,-1.723729491E0,-8.335173726E-1,1.344149780E1
3.747799844E1,-2.069921494E0,-6.095541716E-1,1.191844177E1
3.749800000E1,-1.192130446E0,-3.896323740E-1,1.042525482E1
3.752000000E1,4.240131080E-1,-1.325047016E-1,1.017411232E1
3.754200000E1,1.319502115E0,5.485595018E-2,1.072023964E1
3.756400000E1,9.390441775E-1,1.565137506E-1,1.065253162E1
3.758400000E1,-1.346499026E-1,3.705170751E-1,9.725247383E0
3.760600000E1,-7.838137746E-1,6.208451986E-1,8.495096207E0
3.762600000E1,-6.598324180E-1,7.228956819E-1,7.646773815E0
3.764600000E1,5.880159326E-3,9.022980332E-1,6.716099739E0
3.766799844E1,9.113002419E-1,1.051351428E0,5.297094822E0
3.768799844E1,1.083979607E0,1.202990651E0,4.446712494E0
3.770800000E1,9.037153721E-1,1.217805862E0,4.215681553E0
3.773000000E1,5.923925042E-1,1.290560961E0,4.467082500E0
3.775199844E1,6.118429899E-1,1.338502407E0,5.674631119E0
3.777200000E1,3.976002932E-1,1.351689696E0,7.467687607E0
3.779400000E1,-2.894493937E-1,1.329260707E0,9.540136337E0
3.781400000E1,-4.735539556E-1,9.941874146E-1,1.106291676E1
3.783400000E1,-5.855642557E-1,1.012804866E0,1.236378193E1
3.785400000E1,-2.191939503E-1,1.027658463E0,1.333883476E1
3.787400000E1,3.973704576E-1,1.062029600E0,1.395742989E1
3.789400000E1,8.134252429E-1,8.892064691E-1,1.374573421E1
3.791400000E1,7.878551483E-1,1.139419794E0,1.287178421E1
3.793401094E1,8.756457567E-1,1.371159315E0,1.242575359E1
3.795600000E1,1.761088610E0,1.200366616E0,1.388581467E1
3.797600000E1,2.064883947E0,4.318660796E-1,1.520290375E1
3.799600000E1,1.628535986E0,-6.044306159E-1,1.433441067E1
3.801600000E1,1.002988577E0,-5.749244094E-1,1.195157719E1
3.803600000E1,2.189574003E0,-4.638622105E-1,9.631777763E0
3.805600000E1,3.238358974E0,-1.327824295E-1,8.263022423E0
3.807600000E1,2.852748871E0,5.669469386E-2,7.317331314E0
3.809600000E1,1.091593146E0,1.526926160E-1,7.453542709E0
3.811600000E1,-6.031185985E-1,1.947060525E-1,7.507938862E0
3.813600000E1,-1.431636810E0,3.673663139E-1,7.007225037E0
3.815600000E1,-1.286701441E0,6.105693579E-1,6.831098080E0
3.817600000E1,-9.428941011E-1,9.907206297E-1,7.344290733E0
3.819800000E1,-4.113813043E-1,9.612528086E-1,7.262016296E0
3.821800000E1,-5.663532019E-1,9.957197309E-1,6.124099731E0
3.824000000E1,-1.034611225E0,1.223868012E0,4.826892376E0
3.826200000E1,-7.550641298E-1,1.469742894E0,5.271112919E0
3.828400000E1,3.344603777E-1,1.445226312E0,7.724365234E0
3.830400000E1,6.444807649E-1,1.511986256E0,1.015210438E1
3.832400000E1,1.196622029E-1,1.506297588E0,1.169547462E1
3.834400156E1,-3.076453507E-1,1.561268568E0,1.228571224E1
3.836600000E1,7.477571070E-2,1.923932672E0,1.288099670E1
3.838600000E1,5.416354537E-1,1.854347587E0,1.383949089E1
3.840799844E1,1.063475728E0,1.163677692E0,1.405917358E1
3.842800000E1,7.826070786E-1,7.267168760E-1,1.253508186E1
3.845000000E1,6.073610857E-2,5.544587970E-1,1.178292942E1
3.847200000E1,5.852865577E-1,2.636782229E-1,1.339716721E1
3.849200000E1,1.034457922E0,-6.399222612E-1,1.485042858E1
3.851400000E1,-4.986355901E-1,-1.151726007E0,1.300463295E1
3.853400000E1,-1.656509876E0,-4.412992597E-1,9.959869385E0
3.855400000E1,-1.491013050E0,3.195876181E-1,8.388373375E0
3.857401094E1,4.408204183E-2,5.132018924E-1,9.387587547E0
3.859600000E1,1.001523256E0,3.624246716E-1,1.080971527E1
3.861600000E1,2.105269432E-1,3.581247032E-1,1.144720554E1
3.863600000E1,-6.508972645E-1,1.734072417E-1,1.023939705E1
3.865600000E1,-8.544427156E-1,4.527052343E-1,8.189194679E0
3.867600000E1,-4.088721871E-1,6.675513387E-1,6.644742489E0
3.869600000E1,2.871701419E-1,8.111842871E-1,5.690577030E0
3.871600000E1,5.304976106E-1,8.852034211E-1,5.296213150E0
3.873600000E1,1.730912030E-1,9.015988708E-1,5.387106895E0
3.875600000E1,-1.881842464E-1,7.337844968E-1,5.374321938E0
3.877600000E1,-2.824487686E-1,7.969339490E-1,5.300753117E0
3.879600000E1,9.998186491E-3,9.125739336E-1,5.668569565E0
3.881600000E1,5.703563094E-1,9.320244193E-1,7.108988285E0
3.883600000E1,9.166919589E-1,9.592416883E-1,8.938550949E0
3.885600000E1,7.180977464E-1,9.172186852E-1,1.029531670E1
3.887600000E1,-1.312501431E-1,9.242672324E-1,1.138589478E1
3.889600000E1,-2.080082446E-1,5.926319361E-1,1.272997093E1
3.891800000E1,9.678033590E-1,5.072451234E-1,1.369394302E1
3.894000000E1,1.097339272E0,6.953719258E-1,1.360802937E1
3.896000000E1,5.683930516E-1,1.018895626E0,1.257689476E1
3.898000000E1,5.479370356E-1,1.255404472E0,1.173364735E1
3.900000000E1,1.535181284E0,9.501149654E-1,1.226371384E1
3.902000000E1,2.108190536E0,1.793352813E-1,1.434183311E1
3.904000000E1,1.442583084E0,-9.741623402E-1,1.570194054E1
3.906000000E1,7.559739947E-1,-1.616699100E0,1.449521542E1
3.908199844E1,1.622512221E0,-1.453596473E0,1.203364086E1
3.910199844E1,2.920380116E0,-8.320713043E-1,9.867520332E0
3.912200000E1,3.181003332E0,-4.567179382E-1,8.539734840E0
3.914400000E1,2.388695002E0,-1.097885147E-1,7.142219543E0
3.916599844E1,9.055637121E-1,2.164837122E-1,6.161784649E0
3.918599844E1,-6.267924309E-1,7.086358070E-1,6.388189793E0
3.920599844E1,-1.395513177E0,7.920689583E-1,6.697855949E0
3.922599844E1,-1.379347563E0,9.500575662E-1,7.149115086E0
3.924599844E1,-9.295631647E-1,1.069068432E0,6.893845081E0
3.926599844E1,-4.668022990E-1,1.102223396E0,6.048682690E0
3.928599844E1,-5.328343511E-1,1.396719813E0,5.132747173E0
3.930599844E1,-6.691123843E-1,1.506345510E0,4.827849865E0
3.932599844E1,-8.607347012E-1,1.476810694E0,5.719182491E0
3.934599844E1,-7.172070146E-1,1.458394408E0,7.859896183E0
3.936599844E1,-3.399958014E-1,1.317174792E0,1.064327049E1
3.938599844E1,-8.490796387E-2,1.403155446E0,1.246090031E1
3.940599844E1,5.725972727E-2,1.270717740E0,1.279989052E1
3.942599844E1,2.940367162E-1,1.459744692E0,1.269395256E1
3.944599844E1,1.380611539E0,1.278063178E0,1.314185905E1
3.946600000E1,2.400292397E0,8.682045937E-1,1.381555843E1
3.948799844E1,1.611671209E0,9.776483178E-1,1.421959496E1
3.950799844E1,2.466315031E-1,1.091995358E0,1.362178230E1
3.952800156E1,-2.872850597E-1,5.904484391E-1,1.343260193E1
3.954999844E1,-1.013025045E0,-2.275545001E-1,1.366559601E1
3.956999844E1,-1.585689306E0,-8.728110194E-1,1.243674850E1
3.958999844E1,-1.064078927E0,-6.945770979E-1,1.040620613E1
3.960999844E1,1.110574365E0,-5.740433931E-1,9.588452339E0
3.962999844E1,2.170784473E0,-4.426591396E-1,1.037441158E1
3.964999844E1,1.211820483E0,-6.971628070E-1,1.098269176E1
3.966999844E1,-4.387326539E-1,-5.658839345E-1,1.019361019E1
3.968999844E1,-1.013743281E0,-2.760801911E-1,9.017023087E0
3.970999844E1,-7.026407719E-1,-1.436520979E-4,8.126015663E0
3.972999844E1,-3.529819250E-1,3.552516401E-1,7.350745201E0
3.974999844E1,-6.408798695E-2,4.228734672E-1,6.500257969E0
3.976999844E1,1.088404059E-1,4.068706334E-1,5.433343887E0
3.978999844E1,1.133031994E-1,6.632609367E-1,4.761281967E0
3.980999844E1,-2.022813112E-1,8.492233157E-1,4.705534935E0
3.982999844E1,-4.067365825E-1,8.854715824E-1,5.251269341E0
3.984999844E1,-8.758947998E-2,8.776377439E-1,6.396971703E0
3.986999844E1,4.931193590E-1,9.077663422E-1,8.447021484E0
3.988999844E1,3.690805733E-1,9.884318113E-1,1.026884556E1
3.990999844E1,-2.032294124E-1,8.763831854E-1,1.118190861E1
3.992999844E1,-1.630642861E-1,8.440135717E-1,1.122685242E1
3.994999844E1,3.481265008E-1,1.045413852E0,1.098349571E1
3.996999844E1,1.150988579E0,7.902302146E-1,1.185146141E1
3.998999844E1,1.354715943E0,3.753150702E-1,1.261051846E1
4.000999844E1,6.168516874E-1,7.060117722E-1,1.250132465E1
4.002999844E1,2.950997353E-1,6.372886300E-1,1.213144875E1
4.004999844E1,1.192523241E0,4.039976001E-1,1.215734482E1
4.006999844E1,2.440706730E0,-3.310510516E-1,1.343163490E1
4.009000000E1,2.237056017E0,-1.254513741E0,1.417587662E1
4.011000000E1,1.441098809E0,-1.877178550E0,1.355725288E1
4.013000000E1,1.754499793E0,-1.920494556E0,1.202303886E1
4.015199844E1,3.143768787E0,-1.465318441E0,1.000261021E1
4.017199844E1,3.223620176E0,-1.113361239E0,9.060492516E0
4.019199844E1,1.875531316E0,-6.299527884E-1,8.360705376E0
4.021199844E1,7.182509303E-1,-2.340667397E-1,8.200754166E0
4.023199844E1,-1.396202743E-1,3.197216988E-1,8.160828590E0
4.025199844E1,-5.522082448E-1,5.525530577E-1,8.013604164E0
4.027199844E1,-6.788328290E-1,7.902398109E-1,7.838271618E0
4.029199844E1,-6.988291740E-1,1.015562892E0,6.915431023E0
4.031199844E1,-8.084070086E-1,1.372231960E0,5.803401470E0
4.033199844E1,-6.813898087E-1,1.577826738E0,5.435853004E0
4.035199844E1,-4.520252645E-1,1.799280882E0,6.501924038E0
4.037199844E1,-3.916147649E-1,1.631380200E0,8.332472801E0
4.039199844E1,-5.340219140E-1,1.464868426E0,9.769904137E0
4.041199844E1,-2.947070599E-1,1.391337633E0,1.031119442E1
4.043200156E1,4.156813025E-1,1.645640135E0,1.100329113E1
4.045399844E1,6.852013469E-1,1.857421637E0,1.182944393E1
4.047399844E1,6.088837981E-1,1.865887523E0,1.190841389E1
4.049401250E1,6.859100461E-1,1.916797876E0,1.180125046E1
4.051599844E1,7.125335932E-1,1.712323427E0,1.229939747E1
4.053600000E1,-4.993347079E-2,1.757995248E0,1.267685699E1
4.055799844E1,-3.261956275E-1,1.590075612E0,1.302393055E1
4.057799844E1,2.999072969E-1,5.705766082E-1,1.413534737E1
4.059799844E1,-4.033367932E-1,-3.363374770E-1,1.441355324E1
4.061799844E1,-1.267959595E0,-6.592865586E-1,1.272598648E1
4.063799844E1,-8.763735890E-1,-1.301583797E-1,1.070520401E1
4.065799844E1,5.583469868E-1,2.828222513E-1,9.547913551E0
4.067799844E1,1.773126602E0,7.709042430E-1,9.761044502E0
4.069799844E1,2.141469717E0,6.311019659E-1,1.011734104E1
4.071799844E1,9.257037640E-1,6.215156317E-1,9.137643814E0
4.073799844E1,-3.569084406E-1,6.537607312E-1,7.666655064E0
4.075799844E1,-7.581766248E-1,7.157514095E-1,6.549683571E0
4.077799844E1,-6.019693613E-1,8.706945181E-1,6.053652763E0
4.079799844E1,-3.086892068E-1,9.330874681E-1,5.593860626E0
4.081800000E1,6.206728518E-2,1.038441896E0,5.441829205E0
4.083999844E1,3.767803013E-1,1.104521871E0,5.584053993E0
4.085999844E1,3.179116845E-1,1.050786376E0,5.607383251E0
4.087999844E1,-8.597099036E-2,1.088700891E0,5.858506203E0
4.090000000E1,-2.128253728E-1,1.249447584E0,6.011543274E0
4.092199844E1,1.276779920E-1,1.797834873E0,6.815411091E0
4.094199844E1,5.176168084E-1,2.085196495E0,8.380041122E0
4.096199844E1,4.730846882E-1,2.088768482E0,1.007022285E1
4.098199844E1,-7.153874636E-2,1.959328532E0,1.132107830E1
4.100199844E1,-4.238024354E-1,1.959883928E0,1.253789806E1
4.102199844E1,-1.795076579E-1,1.593599796E0,1.441386032E1
4.104199844E1,3.906379342E-1,1.030292034E0,1.479607964E1
4.106199844E1,3.251038492E-1,1.356612206E0,1.333053207E1
4.108199844E1,9.996845722E-1,1.600217462E0,1.220399284E1
4.110199844E1,2.929995298E0,1.127831817E0,1.339674568E1
4.112199844E1,3.520702362E0,5.284290314E-1,1.583500099E1
4.114199844E1,1.945719838E0,-5.647251606E-1,1.684816933E1
4.116200000E1,6.635769606E-1,-9.916304350E-1,1.475660419E1
4.118399844E1,1.580757380E0,-4.973140061E-1,1.118304825E1
4.120399844E1,2.590851784E0,2.224979550E-1,8.788233757E0
4.122399844E1,2.491626501E0,7.645164728E-1,7.270041466E0
4.124399844E1,1.478936672E0,8.522208929E-1,6.199881077E0
4.126399844E1,1.531139761E-1,8.491467237E-1,5.773377895E0
4.128400000E1,-1.000450730E0,1.074690104E0,6.740693092E0
4.130400000E1,-1.199044943E0,1.077275872E0,7.871695042E0
4.132599844E1,-1.215689421E0,1.279451728E0,7.648334980E0
4.134599844E1,-1.167068005E0,1.557878256E0,6.343887806E0
4.136599844E1,-1.249342322E0,1.782272458E0,5.258107185E0
4.138599844E1,-1.141315937E0,1.799424529E0,5.228457451E0
4.140599844E1,-6.816579700E-1,1.899799109E0,5.732322216E0
4.142599844E1,-3.588429689E-1,2.094782829E0,7.114763260E0
4.144599844E1,2.508931756E-1,2.122325659E0,8.940733910E0
4.146599844E1,5.101277828E-1,2.035847187E0,1.034314251E1
4.148599844E1,3.369503915E-1,2.230782986E0,1.126981354E1
4.150599844E1,1.544260085E-1,2.466956854E0,1.184869289E1
4.152599844E1,2.032294124E-1,2.417415857E0,1.216639423E1
4.154600000E1,4.154801965E-1,2.546827078E0,1.241956711E1
4.156600000E1,7.042879462E-1,2.238961697E0,1.262384987E1
4.158799844E1,3.620894849E-1,2.079134226E0,1.225961494E1
4.160800000E1,-2.233119756E-1,1.960698009E0,1.234774113E1
4.162800000E1,-5.931682587E-1,1.341241360E0,1.297835445E1
4.164800000E1,-1.257904053E0,6.700029969E-1,1.347021008E1
4.167000000E1,-1.958725095E0,1.709172726E-1,1.233483124E1
4.169200000E1,-1.825329781E0,4.390870035E-1,1.058765793E1
4.171200000E1,-5.166592002E-1,4.635653496E-1,9.783215523E0
4.173400000E1,1.529607475E-1,7.668053508E-1,1.009632015E1
4.175400000E1,-6.716214865E-2,6.214389801E-1,1.054240704E1
4.177400469E1,-5.263317227E-1,5.926223993E-1,9.857138634E0
4.179600000E1,-5.325757861E-1,6.169857979E-1,8.316910744E0
4.181600156E1,1.463719159E-1,6.161334515E-1,7.013143539E0
4.183800000E1,1.081259727E0,8.243811131E-1,6.054965019E0
4.185800000E1,1.016070485E0,1.099273801E0,6.017682076E0
4.188000000E1,4.225670099E-1,9.238458276E-1,6.302554131E0
4.190000000E1,3.336751163E-1,7.983896732E-1,5.865085602E0
4.192000000E1,4.827285111E-1,8.881817460E-1,5.367455482E0
4.194199844E1,7.046135664E-1,1.232151985E0,5.429963589E0
4.196199844E1,6.862069368E-1,1.410012484E0,6.600488186E0
4.198200000E1,3.609977365E-1,1.632318854E0,8.066400528E0
4.200200000E1,4.963755012E-1,1.534759879E0,9.255074501E0
4.202400000E1,7.131177187E-1,1.461803794E0,1.028583527E1
4.204400000E1,4.578671157E-1,1.636187911E0,1.181725311E1
4.206400000E1,4.196556807E-1,1.410922289E0,1.329539490E1
4.208400000E1,6.021896601E-1,1.194620490E0,1.409614944E1
4.210599844E1,6.711618304E-1,1.534051299E0,1.371138287E1
4.212599844E1,7.134625316E-1,1.700227976E0,1.287079811E1
4.214599844E1,1.658061266E0,1.263803363E0,1.253566742E1
4.216599844E1,2.471582174E0,5.012692213E-1,1.353756332E1
