"Time (s)","Gyroscope x (rad/s)","Gyroscope y (rad/s)","Gyroscope z (rad/s)"
4.851000000E-3,-1.438971639E0,-1.535488367E0,-4.937536418E-1
2.485100000E-2,-1.661117077E0,-1.727491975E0,-5.549274087E-1
4.485100000E-2,-1.900907874E0,-1.769502044E0,-8.157494068E-1
6.485100000E-2,-2.226603746E0,-2.150542259E0,-1.230753779E0
8.485100000E-2,-2.607818604E0,-2.858412981E0,-1.750914335E0
1.048510000E-1,-2.878222466E0,-3.376042604E0,-2.222537279E0
1.268494370E-1,-2.632148504E0,-4.306355476E0,-2.248699665E0
1.468494370E-1,-2.021737099E0,-5.178967953E0,-1.666353106E0
1.668510000E-1,-1.448850155E0,-4.958532810E0,-4.472929835E-1
1.888494370E-1,-1.345858335E0,-3.642816305E0,6.086835861E-1
2.088494370E-1,-1.236234188E0,-2.258141994E0,1.417765856E0
2.288525620E-1,-8.002334833E-1,-1.238782287E0,2.130348921E0
2.508510000E-1,-2.824291885E-1,-1.514073163E-1,2.626109600E0
2.708510000E-1,1.377064735E-1,8.335692286E-1,2.711211920E0
2.928494370E-1,7.802145481E-1,1.332733393E0,2.364502192E0
3.128510000E-1,1.454068661E0,1.259673953E0,1.655357480E0
3.348510000E-1,2.237791300E0,9.422509074E-1,7.202275395E-1
3.548635000E-1,3.018197775E0,1.335421205E0,3.663795292E-1
3.768650620E-1,3.667861700E0,1.199041247E0,4.130496085E-1
3.988494370E-1,2.072054863E0,-1.308612943E0,5.810201168E-2
4.188572500E-1,1.279326320E0,2.577851415E-1,-3.288200125E-2
4.408494370E-1,3.774623573E-1,8.988794684E-1,1.336922217E-2
4.608494370E-1,4.188789986E-3,1.289990306E0,2.839650773E-2
4.808494370E-1,3.122393973E-2,1.170295596E0,7.534586638E-2
5.008494370E-1,1.837482601E-1,6.023480296E-1,1.558404416E-1
5.208494370E-1,2.424262315E-1,-3.083822131E-1,1.237787530E-1
5.408494370E-1,1.227839142E-1,-8.956854939E-1,-1.135336682E-1
5.608494370E-1,1.657190174E-1,-9.302954078E-1,-3.474252522E-1
5.808494370E-1,4.503647685E-1,-4.851666093E-1,-4.823566377E-1
6.008494370E-1,6.596995592E-1,5.082398653E-2,-4.443433583E-1
6.208494370E-1,6.752504110E-1,3.004060686E-1,-1.374970376E-1
6.408494370E-1,3.352079391E-1,2.988876402E-1,-4.584980011E-2
6.608494370E-1,7.033676654E-2,5.515763760E-1,7.942993194E-2
6.808494370E-1,-2.164382786E-1,6.472728252E-1,-2.670353837E-2
7.008494370E-1,-4.294557273E-1,6.599788070E-1,-1.865931451E-1
7.208494370E-1,-5.138074756E-1,4.308345318E-1,-3.796265721E-1
7.408494370E-1,-4.222300649E-1,1.225221157E-1,-4.617617726E-1
7.608494370E-1,-3.081553280E-1,-1.437104046E-1,-3.635869920E-1
7.808494370E-1,-2.461263239E-1,-4.437499642E-1,-2.376789302E-1
8.008510000E-1,-1.788264364E-1,-8.405505419E-1,-8.655087650E-2
8.228494370E-1,-7.239625603E-2,-1.070899129E0,8.874998987E-2
8.428494370E-1,-3.565358520E-1,-3.544938266E-1,2.676462531E-1
8.628494370E-1,-4.822170138E-1,1.283166111E-1,4.993386865E-1
8.828510000E-1,-5.783148408E-1,2.878746092E-1,5.814913511E-1
9.048494370E-1,-5.749463439E-1,2.557081878E-1,6.207088828E-1
9.248510000E-1,-3.879866898E-1,1.143190637E-2,6.415132284E-1
9.468494370E-1,-7.686430216E-2,-2.309245169E-1,6.177592874E-1
9.668494370E-1,1.993165910E-2,-5.481555462E-1,5.230053663E-1
9.868494370E-1,1.699950732E-2,-8.269718885E-1,4.134161472E-1
1.006849437E0,9.513789415E-2,-5.271592736E-1,4.086863101E-1
1.026849437E0,2.360034138E-1,1.789486110E-1,5.627465248E-1
1.046849437E0,1.332907975E-1,6.701017022E-1,7.753624916E-1
1.066849437E0,-1.776047051E-1,5.281366110E-1,8.366759419E-1
1.086849437E0,-3.100228310E-1,7.499679923E-2,6.285628676E-1
1.106849437E0,1.658062823E-2,-3.918787837E-1,4.409574270E-1
1.126849437E0,4.123863876E-1,-6.791250706E-1,4.438895881E-1
1.146849437E0,4.644321203E-1,-9.355139136E-1,5.470908880E-1
1.166849437E0,2.247285992E-1,-9.716945887E-1,5.233544111E-1
1.186849437E0,2.295107953E-2,-5.230228305E-1,3.676710725E-1
1.206849437E0,-1.520879865E-1,6.178465486E-2,2.312735766E-1
1.226849437E0,-3.520503640E-1,6.151064038E-1,1.884955615E-1
1.246849437E0,-4.883431196E-1,8.655436635E-1,2.026676387E-1
1.266849437E0,-4.228583574E-1,7.616617084E-1,2.279923558E-1
1.286849437E0,-2.452187538E-1,4.912403822E-1,1.992467940E-1
1.306849437E0,-1.884955540E-2,4.326845706E-1,1.951627135E-1
1.326849437E0,1.847605556E-1,5.354495645E-1,1.780410409E-1
1.346849437E0,3.800803423E-1,6.006376147E-1,1.760339141E-1
1.366849437E0,4.978551567E-1,4.763527215E-1,1.592089385E-1
1.386851000E0,4.252320230E-1,2.709623575E-1,1.004786044E-1
1.408849437E0,1.973443776E-1,4.127703607E-2,-3.293436393E-2
1.428849437E0,4.637339711E-2,-1.646194607E-1,-1.844813079E-1
1.448849437E0,6.679374725E-2,-1.720720083E-1,-2.651154995E-1
1.468849437E0,7.663740963E-2,-1.015956178E-1,-2.181661576E-1
1.488849437E0,-1.565734893E-1,-1.740442365E-1,-1.349837631E-1
1.508849437E0,-4.147251248E-1,-3.695560098E-1,-1.310393214E-1
1.528849437E0,-3.670252860E-1,-3.442312777E-1,-1.884955615E-1
1.548849437E0,-2.167524397E-1,-1.603084952E-1,-5.387831479E-2
1.568849437E0,-2.000496387E-1,-8.984954655E-2,1.419825405E-1
1.588849437E0,-1.881639510E-1,-1.310916841E-1,1.523323357E-1
1.608849437E0,1.384744197E-1,2.216568217E-3,1.926843449E-2
1.628849437E0,4.992863238E-1,8.293804526E-2,-1.621759981E-1
1.648849437E0,5.412440300E-1,-8.707447350E-2,-3.001791835E-1
1.668851000E0,3.132517040E-1,-3.100053668E-1,-5.662720799E-1
1.690849437E0,6.639232486E-2,-3.821049333E-1,-8.838696480E-1
1.710849437E0,-5.942846090E-2,-1.138129234E-1,-9.941046238E-1
1.730849437E0,-1.792278588E-1,2.376091182E-1,-9.802292585E-1
1.750849437E0,-2.565110326E-1,3.886324763E-1,-9.465444088E-1
1.770849437E0,-2.128079981E-1,4.862836301E-1,-8.346688151E-1
1.790849437E0,-1.352455616E-1,3.821572959E-1,-7.532666326E-1
1.810851000E0,-1.884082854E-1,4.386012256E-2,-7.692189813E-1
1.830851000E0,-2.716779411E-1,-2.709274590E-1,-8.060803413E-1
1.852849437E0,-1.049291939E-1,-2.204176337E-1,-7.516434789E-1
1.872849437E0,2.082701325E-1,-2.399827726E-2,-5.436875224E-1
1.892849437E0,3.135658503E-1,-6.412339956E-2,-3.327993751E-1
1.912849437E0,7.436847687E-2,-2.446078956E-1,-2.131745070E-1
1.932849437E0,-1.208116934E-1,-3.920009434E-1,-2.119353265E-1
1.952849437E0,-4.536110535E-2,-6.202027202E-1,-3.058165908E-1
1.972849437E0,-8.590510488E-2,-8.309163451E-1,-4.624249935E-1
1.992849437E0,-4.135383070E-1,-8.369202614E-1,-4.299618602E-1
2.012849437E0,-6.748141050E-1,-5.216789246E-1,-1.004611477E-1
2.032849437E0,-7.017968893E-1,-2.402620167E-1,2.609441876E-1
2.052849437E0,-4.456698298E-1,1.503077596E-1,3.779161274E-1
2.072849437E0,-8.925613761E-2,4.849920869E-1,2.661452591E-1
2.092849437E0,1.268330812E-1,5.816309452E-1,2.197893113E-1
2.112849437E0,2.259503305E-1,3.198315799E-1,3.484200835E-1
2.132849437E0,3.710395396E-1,-1.170417815E-1,5.914920568E-1
2.152849437E0,4.318293631E-1,-6.060655713E-1,8.541990519E-1
2.172849437E0,2.499835044E-1,-9.444150925E-1,9.125803113E-1
2.192849437E0,1.256637042E-3,-8.609185815E-1,7.065616250E-1
2.212849437E0,-1.305157244E-1,-4.691095948E-1,5.210505724E-1
2.232849437E0,-1.713389754E-1,-1.623679847E-1,5.136504173E-1
2.252851000E0,-3.092723489E-1,-3.986331820E-2,4.828278720E-1
2.274851000E0,-4.338713884E-1,2.082352340E-1,4.158770442E-1
2.294855687E0,-3.160616755E-1,4.675562382E-1,3.689102530E-1
2.316849437E0,6.063273922E-2,6.929829717E-1,3.910410106E-1
2.336849437E0,3.515616655E-1,7.233691812E-1,4.581663907E-1
2.356851000E0,4.640132189E-1,5.447870493E-1,5.091300011E-1
2.376851000E0,5.024453998E-1,3.014532626E-1,4.494571984E-1
2.398851000E0,5.374392271E-1,1.431344450E-1,2.487792373E-1
2.420849437E0,4.526162446E-1,3.764675185E-2,5.951572582E-2
2.440851000E0,1.772032827E-1,-1.702568680E-1,-5.253440887E-2
2.460851000E0,-2.335250564E-2,-5.121319890E-1,-1.795245707E-1
2.480851000E0,3.558726236E-2,-8.192750216E-1,-2.171014994E-1
2.500851000E0,2.666688561E-1,-8.698022962E-1,-5.838126317E-2
2.522851000E0,3.586128056E-1,-6.374117136E-1,2.299122214E-1
2.542851000E0,1.753008664E-1,-3.485248089E-1,3.992964327E-1
2.564851000E0,-1.533795297E-1,1.634849906E-1,3.661177158E-1
2.586849437E0,-5.120621324E-1,4.490557611E-1,2.810852826E-1
2.606849437E0,-7.439814806E-1,3.024830222E-1,5.335471407E-2
2.626849437E0,-5.309116840E-1,1.609717160E-1,-2.964092791E-1
2.646849437E0,3.509857133E-2,1.570621729E-1,-3.268303573E-1
2.666849437E0,4.959352911E-1,1.986184716E-2,-6.438519806E-2
2.686849437E0,4.994434118E-1,-2.791305184E-1,3.152064607E-2
2.706849437E0,1.641656756E-1,-2.743657529E-1,-1.923701912E-1
2.726849437E0,-2.705434859E-1,2.034704834E-1,-5.126555562E-1
2.746849437E0,-6.766641736E-1,7.455348372E-1,-7.903723717E-1
2.766849437E0,-7.412762642E-1,1.016026020E0,-8.855975270E-1
2.786849437E0,-4.657585621E-1,1.024019599E0,-7.506312132E-1
2.806849437E0,-7.627088577E-2,7.071725130E-1,-4.910658300E-1
2.826849437E0,4.072027802E-1,-3.755948693E-2,-2.754304111E-1
2.846849437E0,1.052311420E0,-4.313232303E-1,-1.079835221E-1
2.866849437E0,1.475955129E0,-3.172833920E-1,8.726646047E-5
2.886849437E0,1.222358823E0,-2.762856148E-2,4.241149873E-3
2.906849437E0,4.656364024E-1,2.003288865E-1,2.513274178E-2
2.926849437E0,-2.052332610E-1,2.593908310E-1,1.340587437E-1
2.946849437E0,-4.436627030E-1,3.860668465E-2,3.486818671E-1
2.966849437E0,-1.485624313E-1,-3.080157042E-1,4.834212959E-1
2.986849437E0,3.217689097E-1,-3.709522784E-1,3.453657627E-1
3.006849437E0,4.857600331E-1,-2.537534237E-1,1.908517480E-1
3.026849437E0,4.347265959E-1,-2.757620299E-3,2.187944800E-1
3.046849437E0,3.363249600E-1,2.557605505E-1,3.112096488E-1
3.066849437E0,2.990272641E-1,2.951177359E-1,3.188542128E-1
3.086849437E0,3.552094102E-1,1.461538672E-1,2.761808932E-1
3.106849437E0,5.467418432E-1,-3.996803984E-2,2.721142769E-1
3.126849437E0,7.992036939E-1,-1.182984188E-1,2.149547487E-1
3.146849437E0,8.092044592E-1,-3.033556640E-1,1.160992980E-1
3.166849437E0,4.648509920E-1,-4.723733664E-1,1.517040133E-1
3.186849437E0,1.434660610E-2,-4.829151630E-1,1.737126261E-1
3.206849437E0,-2.546435297E-1,-3.083822131E-1,1.022937447E-1
3.226849437E0,-3.821049333E-1,-2.542944625E-2,1.143539697E-1
3.246849437E0,-5.377708673E-1,3.099181056E-1,2.791654170E-1
3.266849437E0,-7.880336046E-1,5.980719924E-1,3.762406111E-1
3.286849437E0,-9.622349143E-1,6.004106998E-1,2.086366564E-1
3.306849437E0,-7.542265654E-1,4.031535983E-1,-1.076868176E-2
3.326849437E0,-2.241177261E-1,2.472433448E-1,-2.736676298E-2
3.346849437E0,2.860769033E-1,1.976410896E-1,1.265189201E-1
3.366849437E0,5.112418532E-1,1.173210293E-1,2.846283019E-1
3.386849437E0,5.000542998E-1,7.047639787E-2,2.893232405E-1
3.406849437E0,3.885801136E-1,7.784168236E-3,1.167974323E-1
3.426849437E0,2.791305184E-1,-3.963642567E-2,-7.169812173E-2
3.446849437E0,1.263967454E-1,-1.016479731E-1,-1.201659217E-1
3.466849437E0,-3.670427576E-2,-1.581442803E-1,-6.318091601E-2
3.486849437E0,-1.160992980E-1,-3.481757343E-1,-9.190903604E-2
3.506849437E0,1.207767799E-2,-5.653819442E-1,-2.276956588E-1
3.526849437E0,1.746550947E-1,-5.806710124E-1,-3.607944548E-1
3.546849437E0,2.471735328E-1,-3.646341860E-1,-4.558625519E-1
3.566849437E0,1.600117832E-1,-2.136108428E-1,-4.094716907E-1
3.586849437E0,-4.192280769E-2,-2.273291349E-1,-8.300785720E-2
3.606849437E0,-2.402969301E-1,-4.029441774E-1,1.916371472E-2
3.626849437E0,-3.740414977E-1,-6.161361337E-1,-2.280796319E-1
3.646849437E0,6.962118298E-2,-4.542219341E-1,-2.941054404E-1
3.666849437E0,8.163079619E-1,-1.706582904E-1,1.483704448E-1
3.686849437E0,9.567022324E-1,-1.885828227E-1,5.746147633E-1
3.706851000E0,3.099704683E-1,-3.553490341E-1,3.313856721E-1
3.728849437E0,-4.119326174E-1,-1.673770696E-2,-4.002737999E-1
3.748849437E0,-6.426302195E-1,4.020365775E-1,-8.784590960E-1
3.768849437E0,-6.483374834E-1,7.138221860E-1,-9.206960797E-1
3.788849437E0,-3.877947032E-1,5.379802585E-1,-6.909933090E-1
3.808849437E0,1.509535313E-1,1.723861694E-1,-4.872435629E-1
3.828849437E0,7.569143772E-1,-5.715953186E-2,-3.170914054E-1
3.848849437E0,1.081720114E0,1.563815027E-1,-8.127998561E-2
3.868849437E0,8.462752700E-1,5.350481272E-1,1.017003357E-1
3.888849437E0,2.227040082E-1,7.384662628E-1,1.718102098E-1
3.908849437E0,-3.466747403E-1,5.569345355E-1,1.670280099E-1
3.928849437E0,-5.725203753E-1,-1.373574138E-2,6.578145921E-2
3.948849437E0,-3.317172825E-1,-3.916693330E-1,-3.965387866E-2
3.968849437E0,1.151917279E-1,-1.395216137E-1,1.963495463E-2
3.988849437E0,3.316474557E-1,2.293711752E-1,2.131919712E-1
4.008849437E0,2.705609500E-1,3.163409233E-1,3.076840937E-1
4.028849437E0,2.214473784E-1,7.038912922E-2,2.490235716E-1
4.048849437E0,3.722612858E-1,-1.258033365E-1,5.391322076E-2
4.068849437E0,6.058212519E-1,1.464331243E-2,-1.816713214E-1
4.088849437E0,6.125756502E-1,2.415535748E-1,-2.163510174E-1
4.108849437E0,2.525316775E-1,2.291442752E-1,-1.939235330E-1
4.128849437E0,-9.145525284E-3,1.381602585E-1,-2.646966279E-1
4.148849437E0,1.732762903E-1,5.740387738E-2,-2.315353751E-1
4.168849437E0,5.068086982E-1,9.353219718E-2,7.323401421E-2
4.188849437E0,3.767118752E-1,-2.642428502E-2,4.424933195E-1
4.208857250E0,-3.218212724E-1,-4.333652556E-1,4.764225185E-1
4.230851000E0,-1.030145645E0,-6.808529496E-1,4.174827412E-2
4.250851000E0,-1.151760221E0,-4.904724360E-1,-3.177197278E-1
4.270851000E0,-8.188735843E-1,-1.663124263E-1,-2.615201473E-1
4.290851000E0,-3.713013530E-1,1.677610427E-1,7.641051710E-2
4.310851000E0,-9.042550623E-2,3.545461893E-1,3.678281307E-1
4.332849437E0,-5.078908056E-2,2.320415229E-1,3.353300989E-1
4.352849437E0,-4.996877536E-2,-6.832963973E-2,5.436700583E-2
4.372849437E0,7.625343651E-2,-1.517563760E-1,-1.619840115E-1
4.392851000E0,2.007477731E-1,-1.443561763E-1,-2.110452056E-1
4.414851000E0,2.981894910E-1,-9.410814941E-2,-1.647241712E-1
4.436849437E0,2.684316337E-1,-7.539822161E-2,-1.456826329E-1
4.456849437E0,8.590510488E-2,3.682644665E-2,-1.601165086E-1
4.476849437E0,-2.061059326E-1,9.625490755E-2,-1.274788529E-1
4.496849437E0,-2.721491754E-1,1.522101611E-1,-4.693190381E-2
4.516849437E0,-1.834690124E-1,1.377064735E-2,-1.605702937E-2
4.536849437E0,4.328416660E-3,-2.110452056E-1,5.288347602E-3
4.556851000E0,1.045103148E-1,-4.376063943E-1,2.757620299E-3
4.578849437E0,1.073377486E-2,-4.358785152E-1,9.618509561E-2
4.598849437E0,-1.267109066E-1,-1.570970863E-1,2.177472711E-1
4.618849437E0,-1.957386732E-1,1.375319436E-2,2.317622751E-1
4.638849437E0,-3.020641208E-1,-4.827580601E-2,3.384193406E-2
4.658849437E0,-2.339090258E-1,3.857177682E-3,-2.915921509E-1
4.678849437E0,1.735206395E-1,2.731091082E-1,-3.821398318E-1
4.698849437E0,4.734380245E-1,5.047317743E-1,-1.154360771E-1
4.718849437E0,1.847780049E-1,3.232524395E-1,-5.806710571E-2
4.738849437E0,-4.242720902E-1,1.275486648E-1,-4.241499007E-1
4.758849437E0,-7.133160830E-1,8.948303014E-2,-8.410217762E-1
4.778849437E0,-7.039087415E-1,4.469788074E-2,-9.440136552E-1
4.798849437E0,-5.411219001E-1,-6.670648605E-2,-7.430040836E-1
4.818849437E0,-2.461088747E-1,-5.232496932E-2,-4.922177494E-1
4.838849437E0,2.490584925E-2,7.154104859E-2,-3.066543341E-1
4.858849437E0,1.373050511E-1,2.594431937E-1,-2.157401443E-1
4.878849437E0,1.427853853E-1,3.572688997E-1,-2.518684566E-1
4.898849437E0,1.479690075E-1,2.743133903E-1,-3.295007050E-1
4.918849437E0,1.713040620E-1,1.136907488E-1,-3.770783842E-1
4.938849437E0,1.076693609E-1,-1.180191636E-1,-3.843738735E-1
4.958849437E0,-1.546361670E-2,-3.699748814E-1,-4.184252322E-1
4.978849437E0,-9.908234328E-2,-6.601533294E-1,-4.827406108E-1
4.998849437E0,-1.049466506E-1,-7.963413596E-1,-5.462008119E-1
5.018849437E0,-1.692969352E-3,-5.682094097E-1,-4.922875762E-1
5.038849437E0,1.934173852E-1,-9.922196716E-2,-2.445380837E-1
5.058849437E0,2.977531552E-1,1.778839529E-1,7.225662936E-3
5.078849437E0,2.882760167E-1,2.000321895E-1,1.148601174E-1
5.098849437E0,3.125011921E-1,2.218837142E-1,8.073893189E-2
5.118849437E0,3.237062097E-1,1.677785069E-1,1.016305238E-1
5.138849437E0,2.368062735E-1,-2.360383272E-1,1.022588387E-1
5.158849437E0,2.737723589E-1,-5.723283887E-1,6.799802929E-2
5.178849437E0,5.516985655E-1,-4.347964227E-1,1.961226463E-1
5.198849437E0,6.854606271E-1,-1.303761005E-1,4.383045435E-1
5.218849437E0,2.762507200E-1,-1.330289990E-1,6.076363921E-1
5.238849437E0,-3.947934806E-1,-3.064623475E-1,5.281191468E-1
5.258851000E0,-7.873878479E-1,-2.402096689E-1,2.687458098E-1
5.280849437E0,-8.508130908E-1,6.108652428E-2,1.454557329E-1
5.300851000E0,-7.058460712E-1,2.988701761E-1,2.153387219E-1
5.322849437E0,-2.961998284E-1,5.002637506E-1,4.069584310E-1
5.342849437E0,1.658237278E-1,5.434257388E-1,5.856975913E-1
5.362849437E0,5.033704042E-1,4.893379509E-1,6.695781350E-1
5.382849437E0,6.250373125E-1,3.482629955E-1,6.518805027E-1
5.402849437E0,6.164328456E-1,2.444857210E-1,5.296027064E-1
5.422849437E0,5.588718653E-1,1.697681695E-1,3.893131316E-1
5.442849437E0,4.674166143E-1,2.216568217E-3,2.755176723E-1
5.462849437E0,3.377386630E-1,-2.282192558E-1,1.218239814E-1
5.482849437E0,2.076941729E-1,-3.802025318E-1,-2.867575921E-2
5.502849437E0,8.527678996E-2,-4.480085671E-1,-9.676105529E-2
5.522849437E0,-7.510151714E-2,-3.441440165E-1,-5.618214980E-2
5.542849437E0,-2.822372019E-1,-2.139250040E-1,-2.949606394E-3
5.562849437E0,-3.577052355E-1,-1.104967967E-1,2.082177810E-2
5.582849437E0,-2.393369973E-1,4.961971194E-2,1.089434549E-1
5.602849437E0,-1.752136052E-1,1.589820385E-1,2.329840064E-1
5.622849437E0,-3.029716909E-1,2.150071114E-1,3.419100046E-1
5.642849437E0,-5.912477374E-1,2.258456126E-2,3.135658503E-1
5.662849437E0,-7.888015509E-1,-3.573910594E-1,4.747295380E-2
5.682849437E0,-5.523269176E-1,-4.147425890E-1,-3.007725775E-1
5.702849437E0,-1.633628085E-2,-2.712765336E-1,-3.843389452E-1
5.722849437E0,1.543394625E-1,-1.820029318E-1,-1.656841040E-1
5.742849437E0,-1.402546614E-1,8.773770183E-2,1.221730467E-2
5.762851000E0,-5.278573632E-1,6.480233073E-1,-1.233075112E-1
5.782851000E0,-8.879886270E-1,1.001138330E0,-4.453032911E-1
5.802851000E0,-1.069886804E0,9.688671827E-1,-7.175746560E-1
5.824849437E0,-1.016654253E0,5.359033346E-1,-7.522369027E-1
5.844851000E0,-7.639480829E-1,6.496115774E-2,-5.642649531E-1
5.866851000E0,-2.652900517E-1,-1.782330275E-1,-2.764077783E-1
5.888849437E0,2.840348780E-1,-9.070476145E-2,1.265363675E-2
5.908849437E0,5.310164094E-1,6.642723083E-2,2.450442314E-1
5.928849437E0,4.430867434E-1,1.908692122E-1,3.556631804E-1
5.948849437E0,1.762782484E-1,2.849948108E-1,3.612133265E-1
5.968849437E0,-1.070759520E-1,1.637642384E-1,2.729869485E-1
5.988851000E0,-2.718001306E-1,-1.138478294E-1,1.289100200E-1
6.010849437E0,-2.004685104E-1,-3.141418099E-1,9.648180008E-2
6.030849437E0,2.117084339E-2,-4.088084698E-1,1.628043056E-1
6.050849437E0,2.469989955E-1,-4.085117579E-1,3.602534235E-1
6.070851000E0,3.676361442E-1,-5.599015951E-1,5.083795190E-1
6.092849437E0,3.828379810E-1,-6.961245537E-1,4.250574708E-1
6.112849437E0,4.412541389E-1,-5.701641440E-1,1.896998286E-1
6.132851000E0,5.292536616E-1,-1.049291939E-1,6.588617712E-2
6.154849437E0,2.621484399E-1,2.346595228E-1,2.398780584E-1
6.174858812E0,1.956514083E-2,3.193603456E-1,3.852988780E-1
6.196849437E0,2.938261926E-1,2.592163086E-1,4.444306493E-1
6.216849437E0,6.585301757E-1,1.399230510E-1,6.257528663E-1
6.236849437E0,4.855855107E-1,-1.587376893E-1,8.230972886E-1
6.256849437E0,-1.629439443E-1,-4.670152068E-1,7.768460512E-1
6.276849437E0,-7.774918079E-1,-5.819800496E-1,4.379205704E-1
6.296851000E0,-9.876992702E-1,-3.950378299E-1,1.375494003E-1
6.316851000E0,-8.261516094E-1,1.279326342E-2,1.265014708E-1
6.336851000E0,-6.319488287E-1,4.000294507E-1,3.691371381E-1
6.356851000E0,-5.376836061E-1,5.426403284E-1,6.359805465E-1
6.376851000E0,-3.943047822E-1,6.045994759E-1,8.008617759E-1
6.398851000E0,-7.607889920E-2,5.773374438E-1,8.156098127E-1
6.418851000E0,2.869844735E-1,4.613428712E-1,8.376184106E-1
6.440851000E0,6.038839221E-1,2.253743708E-1,9.348856211E-1
6.462851000E0,7.517831326E-1,1.637118869E-2,1.042188406E0
6.484851000E0,7.384837270E-1,-1.331686229E-1,1.007421494E0
6.504851000E0,6.562088728E-1,-2.229309082E-1,8.448789716E-1
6.524855687E0,5.527806878E-1,-4.722511768E-1,5.624846816E-1
6.546849437E0,4.001865387E-1,-8.007221222E-1,2.159146816E-1
6.566849437E0,1.665916741E-1,-8.663640022E-1,-1.034980267E-2
6.586849437E0,-1.071981192E-1,-6.465222836E-1,-5.115560070E-2
6.606849437E0,-3.250675797E-1,-3.069161475E-1,3.857177496E-2
6.626849437E0,-4.447273314E-1,3.026400879E-2,2.925171889E-2
6.646849437E0,-4.801575243E-1,3.868871331E-1,-8.018042892E-2
6.666849437E0,-5.121145248E-1,5.407029986E-1,-1.360658705E-1
6.686849437E0,-6.891083717E-1,3.929608762E-1,-2.959380150E-1
6.706849437E0,-7.968475223E-1,5.008396506E-1,-5.830447078E-1
6.726849437E0,-5.541594625E-1,7.357435226E-1,-7.427248359E-1
6.746849437E0,-3.335324302E-2,5.987875462E-1,-6.137973666E-1
6.766849437E0,2.404016554E-1,-3.333579004E-2,-4.371176958E-1
6.786851000E0,8.185594529E-2,-4.342728257E-1,-5.158495307E-1
6.806851000E0,-1.158025935E-1,-1.806939393E-1,-7.900931239E-1
6.826851000E0,-1.864884347E-1,3.996978402E-1,-1.050286770E0
6.846851000E0,-2.226691097E-1,9.245008826E-1,-1.058699250E0
6.868849437E0,-3.186622262E-1,9.187762141E-1,-8.725773692E-1
6.888849437E0,-2.737374306E-1,5.998871326E-1,-8.602727652E-1
6.908851000E0,1.206022501E-2,3.022386730E-1,-9.476090670E-1
6.930849437E0,5.093045235E-1,-1.415287554E-1,-1.081720114E0
6.950849437E0,8.534659743E-1,-2.567553818E-1,-1.166036963E0
6.970849437E0,7.942818999E-1,-1.475850344E-1,-1.128913879E0
6.990849437E0,5.264959931E-1,8.756317198E-2,-9.650972486E-1
7.010851000E0,2.299122214E-1,1.434137076E-1,-8.038462996E-1
7.032851000E0,4.096287861E-2,-8.559094369E-2,-7.483623028E-1
7.054851000E0,9.011135250E-2,-4.328241944E-1,-7.700916529E-1
7.076849437E0,2.048143893E-1,-7.267725468E-1,-7.020063400E-1
7.096851000E0,2.113419175E-1,-8.039160967E-1,-4.948183000E-1
7.118849437E0,1.914277077E-1,-4.926191866E-1,-1.297477782E-1
7.138849437E0,1.596627235E-1,-1.754055917E-1,1.396088898E-1
7.158849437E0,1.078788042E-1,-1.689478755E-2,1.470439881E-1
7.178849437E0,1.088736355E-1,1.181413382E-1,9.866346419E-2
7.198849437E0,1.408306211E-1,2.417455465E-1,1.584584415E-1
7.218849437E0,2.371378839E-1,3.133040667E-1,2.775771618E-1
7.238851000E0,4.629136622E-1,2.913652658E-1,3.679852188E-1
7.258851000E0,5.688726306E-1,5.248204991E-2,5.352575779E-1
7.280849437E0,4.036597610E-1,-2.383945286E-1,6.798406243E-1
7.300849437E0,6.330309063E-2,-5.123763084E-1,6.006899476E-1
7.320849437E0,-7.475244999E-2,-4.206941724E-1,4.215668142E-1
7.340849437E0,-5.044001341E-2,3.682644805E-3,3.270572424E-1
7.360849437E0,-1.668709219E-1,3.435680568E-1,3.739193380E-1
7.380849437E0,-2.794621289E-1,4.156152606E-1,4.264886677E-1
7.400849437E0,-2.058790326E-1,3.524866998E-1,4.274834991E-1
7.420849437E0,3.366740048E-2,2.636668980E-1,3.849847317E-1
7.440849437E0,3.252595663E-1,2.413092256E-1,3.406358957E-1
7.460849437E0,4.937361777E-1,3.203726411E-1,2.771757245E-1
7.480849437E0,4.725129902E-1,3.378433883E-1,2.197893113E-1
7.500851000E0,3.734481037E-1,3.036698401E-1,1.833119243E-1
7.522849437E0,2.420597076E-1,1.335176826E-1,1.084373072E-1
7.542849437E0,9.019861370E-2,-1.726130582E-2,-4.368559271E-2
7.562849437E0,-3.122393973E-2,-1.071457639E-1,-1.699078083E-1
7.582849437E0,2.082177810E-2,-2.925171852E-1,-2.330712676E-1
7.602849437E0,1.395739764E-1,-5.296376348E-1,-2.665117681E-1
7.622849437E0,1.362753063E-1,-5.871112943E-1,-2.700896859E-1
7.642849437E0,1.063429117E-1,-4.610810876E-1,-1.866106093E-1
7.662849437E0,1.939409822E-1,-2.815914154E-1,-6.850416958E-2
7.682849437E0,2.988701761E-1,8.794713765E-2,6.743951887E-2
7.702849437E0,1.782504767E-1,4.239753783E-1,9.993755072E-2
7.722849437E0,-2.572266161E-1,2.479938269E-1,-3.906046972E-2
7.742849437E0,-4.963890910E-1,1.588947773E-1,-3.749665320E-1
7.762849437E0,-2.258281559E-1,3.528532088E-1,-5.541594625E-1
7.782849437E0,2.147103995E-1,2.875778973E-1,-4.051432908E-1
7.802849437E0,5.003510118E-1,-1.474279612E-1,-1.417381912E-1
7.822849437E0,4.092971683E-1,-5.573359728E-1,-8.288568258E-2
7.842849437E0,1.906946748E-1,-4.619188309E-1,-1.716007739E-1
7.862849437E0,-5.094616115E-2,-2.225120217E-1,-3.030764163E-1
7.882849437E0,-3.313158453E-1,-1.003040746E-1,-3.617543876E-1
7.902849437E0,-5.410520434E-1,-3.258529678E-2,-3.979350626E-1
7.922849437E0,-4.616744816E-1,3.464478627E-2,-4.226489365E-1
7.942849437E0,-1.128704399E-1,1.273915768E-1,-3.400948644E-1
7.962851000E0,2.153910846E-1,1.582315564E-1,-1.879545003E-1
7.984851000E0,4.390724897E-1,2.397035211E-1,-5.084143952E-2
8.004854125E0,5.119050741E-1,3.391174674E-1,-1.000073645E-2
8.026849437E0,3.931353986E-1,3.829077780E-1,-1.008800324E-2
8.046849437E0,1.310393214E-1,1.627170444E-1,-1.776745170E-2
8.066849437E0,-2.131047100E-2,-1.411622316E-1,-9.690067917E-2
8.086849437E0,1.257684231E-1,-1.748470813E-1,-2.197544128E-1
8.106849437E0,3.859272003E-1,1.328893751E-1,-2.395115346E-1
8.126849437E0,4.685336351E-1,4.764748812E-1,2.581341937E-2
8.146849437E0,3.929783404E-1,5.120970607E-1,3.012438416E-1
8.166849437E0,4.201356471E-1,5.350830555E-1,2.755002081E-1
8.186849437E0,4.598069787E-1,5.796238184E-1,8.613199741E-2
8.206851000E0,4.926366210E-1,6.222797036E-1,3.320314288E-1
8.228849437E0,4.400847554E-1,3.537084162E-1,7.719416618E-1
8.248849437E0,3.602708578E-1,-1.267807186E-1,7.204021215E-1
8.268849437E0,2.836160064E-1,-4.358959794E-1,2.753431499E-1
8.288849437E0,1.476373971E-1,-4.268900752E-1,-3.874630854E-2
8.308849437E0,-1.241627261E-1,-3.728546798E-1,3.541272879E-2
8.328849437E0,-5.391671062E-1,-4.487066865E-1,2.570346296E-1
8.348849437E0,-7.633721232E-1,-3.062005639E-1,3.668158352E-1
8.368849437E0,-7.456744909E-1,3.242821619E-2,3.969227672E-1
8.388849437E0,-6.576575041E-1,3.801501691E-1,4.370827973E-1
8.408849437E0,-5.778086782E-1,6.051056385E-1,5.141216516E-1
8.428849437E0,-4.655142128E-1,7.167194486E-1,5.741260648E-1
8.448849437E0,-3.241600096E-1,5.597794652E-1,5.060931444E-1
8.468851000E0,-1.466251165E-1,2.461961508E-1,3.837106228E-1
8.490849437E0,7.358308136E-2,3.518583626E-2,2.203129083E-1
8.510851000E0,2.323731333E-1,9.297368675E-2,1.891238838E-1
8.532849437E0,2.792177796E-1,1.513025910E-1,2.145009637E-1
8.552849437E0,2.099456489E-1,1.554564834E-1,2.036450207E-1
8.572849437E0,7.733553648E-2,1.379159242E-1,9.615018964E-2
8.592849437E0,-1.785471849E-2,7.241371274E-2,-4.771730304E-2
8.612849437E0,2.727949619E-2,-6.459463388E-2,-1.546536237E-1
8.632849437E0,1.860171854E-1,-2.607870996E-1,-1.887399107E-1
8.652849437E0,2.938785255E-1,-4.048465788E-1,-2.212728411E-1
8.672849437E0,2.045874894E-1,-4.048116505E-1,-2.705609500E-1
8.692849437E0,6.639232486E-2,-1.331860721E-1,-2.813994288E-1
8.712849437E0,-8.587019891E-2,2.482381761E-1,-2.105041593E-1
8.732849437E0,-2.697580755E-1,1.992467940E-1,-1.171290427E-1
8.752849437E0,-5.048190355E-1,-1.223126724E-1,-2.437352240E-1
8.772849437E0,-5.355018973E-1,-7.724827528E-2,-3.719645739E-1
8.792849437E0,-1.818633080E-1,1.929985136E-1,-3.540225923E-1
8.812849437E0,2.172411382E-1,2.244493365E-2,-1.722639948E-1
8.832849437E0,2.110626698E-1,-3.761359155E-1,-7.627088577E-3
8.852849437E0,-5.407030135E-2,-3.748094440E-1,-9.044296294E-2
8.872849437E0,-1.655444801E-1,-1.518436428E-2,-2.552543879E-1
8.892849437E0,-1.111076623E-1,3.246836066E-1,-2.676113248E-1
8.912849437E0,-6.173229590E-2,5.939530134E-1,-2.531251013E-1
8.932849437E0,-1.033758521E-1,6.855478883E-1,-2.242573500E-1
8.952849437E0,-2.144137025E-1,4.632278383E-1,-1.962099075E-1
8.972849437E0,-2.563714087E-1,7.391469181E-2,-1.357167959E-1
8.992849437E0,-9.257226437E-2,-6.365215778E-2,-7.946483791E-2
9.012849437E0,1.374970376E-1,-1.064650808E-2,-3.228859045E-3
9.032849437E0,2.228087336E-1,-1.003564335E-2,2.001892589E-2
9.052849437E0,1.509535313E-1,-1.381428093E-1,-8.271115273E-2
9.072849437E0,7.948229462E-2,-2.231054306E-1,-1.442165524E-1
9.092849437E0,3.686135262E-2,-2.188642919E-1,-1.245117858E-1
9.112849437E0,-2.443460934E-2,-8.669050038E-2,-7.192502171E-2
9.132849437E0,-7.703883201E-2,4.782202095E-2,-5.396557972E-2
9.152849437E0,-2.188642882E-2,1.513898522E-1,-8.634144068E-2
9.172849437E0,7.387978584E-2,1.075297371E-1,-1.132893190E-1
9.192849437E0,1.443910897E-1,-8.073893189E-2,-6.613052636E-2
9.212849437E0,2.324953079E-1,-2.798984647E-1,3.349286690E-2
9.232849437E0,4.407829046E-1,-1.772381812E-1,9.510298818E-2
9.252849437E0,5.934817791E-1,2.558303475E-1,1.021017581E-1
9.272849437E0,3.909712136E-1,4.878544211E-1,6.457718462E-2
9.292849437E0,2.792526793E-4,3.871489465E-1,5.050982907E-2
9.312851000E0,-1.063429117E-1,2.404191047E-1,6.614797562E-2
9.334849437E0,4.155628756E-2,-1.157153305E-2,2.097711265E-1
9.354852562E0,3.070034087E-2,-3.415958285E-1,4.619188309E-1
9.376849437E0,-1.364847422E-1,-6.433632374E-1,5.520302057E-1
9.396849437E0,-1.165007278E-1,-4.337317646E-1,4.834736586E-1
9.416849437E0,-6.904522330E-2,7.347836159E-3,4.692666829E-1
9.436849437E0,-1.890889704E-1,2.422167957E-1,4.616570473E-1
9.456849437E0,-3.784222901E-1,3.981096148E-1,3.918787837E-1
9.476849437E0,-4.171860516E-1,4.993736148E-1,3.012263775E-1
9.496849437E0,-2.370506227E-1,5.758364797E-1,2.456550896E-1
9.516849437E0,1.939060725E-2,5.235987902E-1,2.661277950E-1
9.536849437E0,2.877524197E-1,3.850370944E-1,2.921506763E-1
9.556851000E0,5.259724259E-1,2.308721542E-1,2.423564196E-1
9.578849437E0,6.363295913E-1,5.295328796E-2,1.257509738E-1
9.598851000E0,5.417501926E-1,-7.592181861E-2,1.263618376E-2
9.620849437E0,2.714510560E-1,-1.794722080E-1,-8.862782270E-2
9.640851000E0,3.728023171E-2,-3.063750863E-1,-1.707630157E-1
9.662849437E0,-6.085963175E-2,-4.377634823E-1,-2.241875380E-1
9.682849437E0,-9.075712413E-3,-4.731413126E-1,-2.058615834E-1
9.702849437E0,-5.215043947E-2,-5.652248859E-1,-2.133664936E-1
9.722849437E0,-1.836260855E-1,-8.217708468E-1,-2.484127134E-1
9.742851000E0,-9.367182106E-2,-7.885048389E-1,-2.041511685E-1
9.764849437E0,2.086192071E-1,-4.035899341E-1,1.280024499E-1
9.784849437E0,2.047271132E-1,-3.626445234E-1,2.717128694E-1
9.804849437E0,-1.953023374E-1,-4.266631901E-1,9.759881347E-2
9.824849437E0,-3.870092928E-1,2.251474652E-3,-1.277406514E-1
9.844851000E0,-7.101744413E-2,4.557752907E-1,-1.228537261E-1
9.866849437E0,3.548603356E-1,3.293610811E-1,1.134813055E-1
9.886849437E0,3.737622499E-1,-1.708677262E-1,1.750041693E-1
9.906849437E0,1.627519578E-1,-2.771408260E-1,-7.288494706E-2
9.926849437E0,1.523672417E-2,-3.708824515E-2,-4.077263772E-1
9.946851000E0,-3.267256171E-2,2.936691046E-1,-5.384515524E-1
9.968851000E0,-8.004079759E-2,4.428947568E-1,-5.236162543E-1
9.990849437E0,-1.310218722E-1,2.439621240E-1,-4.636816084E-1
1.001084944E1,-6.316346675E-2,4.022983834E-2,-4.178841710E-1
1.003084944E1,1.418429017E-1,5.405284837E-2,-3.911108375E-1
1.005084944E1,2.713637948E-1,1.348790377E-1,-3.033731282E-1
1.007084944E1,2.392497361E-1,7.103490084E-2,-2.142042518E-1
1.009084944E1,1.657190174E-1,-2.480112948E-2,-1.932079494E-1
1.011084944E1,6.204645336E-2,-1.416160166E-1,-1.910437346E-1
1.013084944E1,-7.253587991E-2,-2.210808545E-1,-2.037497312E-1
1.015084944E1,-1.632231921E-1,-1.817934960E-1,-2.125985622E-1
1.017084944E1,-1.913753450E-1,3.455751808E-3,-1.618094742E-1
1.019084944E1,-1.313185692E-1,3.007725775E-1,-6.647959352E-2
1.021084944E1,-2.569124661E-2,3.861191869E-1,-3.926991019E-3
1.023084944E1,5.757841095E-2,2.698977292E-1,2.478367463E-2
1.025084944E1,6.817255914E-2,8.370599151E-2,3.949680179E-2
1.027084944E1,1.760688126E-1,5.914920941E-2,5.438445881E-2
1.029084944E1,3.775496185E-1,3.439694941E-1,1.785471886E-1
1.031084944E1,2.988352776E-1,4.728271365E-1,3.064449131E-1
1.033084944E1,-4.879940674E-2,8.009316027E-2,1.220508739E-1
1.035084944E1,-1.835911870E-1,-1.780410409E-1,-1.288052946E-1
1.037084944E1,1.538856775E-1,1.884606481E-1,-1.017526984E-1
1.039084944E1,3.486295044E-1,3.937637210E-1,4.806636646E-2
1.041084944E1,1.436580569E-1,1.590169519E-1,2.263343036E-1
1.043085100E1,-1.658586413E-1,-1.159422249E-1,2.506118119E-1
1.045085256E1,-3.706381321E-1,-9.377653897E-2,2.084272206E-1
1.047284944E1,-4.938758314E-1,1.403244734E-1,1.956863105E-1
1.049284944E1,-5.651899576E-1,1.661553383E-1,2.075022012E-1
1.051284944E1,-4.319689870E-1,-2.555162087E-2,3.014707267E-1
1.053284944E1,-5.113814492E-3,-5.511749908E-2,4.380950928E-1
1.055284944E1,3.066194355E-1,8.759807795E-2,5.346816182E-1
1.057284944E1,2.603158653E-1,2.979451418E-1,5.043303370E-1
1.059285569E1,1.370258033E-1,3.586128056E-1,4.219333529E-1
1.061485412E1,1.506219208E-1,2.512924969E-1,3.647563457E-1
1.063684944E1,3.169517815E-1,6.173229590E-2,3.347367048E-1
1.065685100E1,4.092448056E-1,-4.694935866E-3,2.355496287E-1
1.067884944E1,2.733534575E-1,5.989969894E-2,1.012465507E-1
1.069886038E1,1.386140436E-1,1.910611987E-1,6.389650702E-2
1.072084944E1,1.433438957E-1,1.927192509E-1,9.410814941E-2
1.074084944E1,8.911651373E-2,-2.761110850E-2,7.051130384E-2
1.076084944E1,6.895796210E-2,-3.334625959E-1,1.991420612E-2
1.078084944E1,4.564036056E-2,-4.359134436E-1,-1.065174416E-1
1.080084944E1,-2.598795295E-2,-1.509535313E-1,-1.834864616E-1
1.082084944E1,-1.887224466E-1,3.271270692E-1,-1.478293836E-1
1.084085256E1,-3.712489903E-1,3.752981424E-1,-1.491558403E-1
1.086284944E1,-5.686107874E-1,-1.361007690E-1,-3.023259342E-1
1.088285881E1,-6.570466757E-1,-4.073074758E-1,-4.309915900E-1
1.090485100E1,-2.949431837E-1,-4.754102230E-1,-4.390899241E-1
1.092485256E1,1.683544517E-1,-3.730466664E-1,-2.221629620E-1
1.094684944E1,2.035752088E-1,-1.415462047E-1,-3.043854237E-2
1.096684944E1,-2.513972223E-1,-8.639379404E-3,-1.799608916E-1
1.098684944E1,-5.263214707E-1,6.185446680E-2,-4.147425890E-1
1.100685412E1,-4.018620551E-1,9.180432186E-3,-4.567526579E-1
1.102884944E1,-1.556833647E-2,7.607889920E-2,-3.591189384E-1
1.104884944E1,8.606218547E-2,2.703514993E-1,-2.887472808E-1
1.106884944E1,-2.787290886E-2,3.721914589E-1,-1.986359209E-1
1.108884944E1,-8.196066320E-2,3.554711938E-1,-7.415904105E-2
1.110884944E1,2.443460934E-2,2.242748141E-1,-6.726498902E-2
1.112884944E1,2.322335094E-1,1.425585002E-1,-1.413018554E-1
1.114885881E1,2.865132391E-1,1.819854826E-1,-2.144311517E-1
1.117084944E1,1.697158217E-1,1.777966917E-1,-1.719498336E-1
1.119084944E1,3.136356547E-2,1.304633617E-1,-8.508480340E-2
1.121085100E1,-3.077015467E-2,3.490658419E-4,-5.766567960E-2
1.123085412E1,3.645992652E-2,-4.850269854E-2,-1.063080058E-1
1.125284944E1,2.006779611E-1,2.685538232E-1,-1.712168008E-1
1.127285256E1,2.786592543E-1,-6.691592187E-2,-3.216641769E-2
1.129484944E1,1.147030368E-1,2.024581879E-1,6.729989499E-2
1.131485725E1,-2.378883772E-2,3.591887653E-2,-3.129375353E-2
1.133685100E1,1.994911395E-2,5.052728206E-2,-1.684417278E-1
1.135685100E1,7.979645580E-2,2.670528293E-1,-5.178391933E-2
1.137685100E1,-2.288126573E-2,3.215245605E-1,1.454906464E-1
1.139685725E1,-3.578622937E-1,8.761553094E-3,3.843215108E-2
1.141885100E1,-4.772253633E-1,-2.439272106E-1,-7.850491256E-2
1.144085100E1,4.715879634E-2,-1.526813954E-1,4.872959107E-2
1.146285569E1,4.486717880E-1,-1.517214775E-1,3.189065456E-1
1.148485100E1,2.044827789E-1,-4.135906696E-1,3.913202584E-1
1.150485881E1,-1.618792862E-1,-3.285756707E-1,1.419999897E-1
1.152685100E1,-3.729070425E-1,3.454006463E-2,-3.485422581E-2
1.154685100E1,-3.432713449E-1,2.697755396E-1,5.044001620E-3
1.156685100E1,-2.220931500E-1,3.222052455E-1,1.588075012E-1
1.158685569E1,-1.557531804E-1,1.981821358E-1,3.105638921E-1
1.160884944E1,-8.986700326E-2,6.017895415E-2,3.187494874E-1
1.162885100E1,9.468410909E-2,5.190609023E-2,2.546784580E-1
1.165085100E1,2.636319697E-1,6.335545331E-2,2.463008612E-1
1.167085569E1,3.032160401E-1,2.143264376E-2,2.789559662E-1
1.169284944E1,1.874309033E-1,-4.413937777E-2,2.798111737E-1
1.171285413E1,6.408849359E-2,-4.150392860E-2,2.142217159E-1
1.173484944E1,5.510004610E-2,-3.567453101E-2,1.128529906E-1
1.175485100E1,1.403070241E-1,-1.516342014E-1,6.684610993E-2
1.177486194E1,1.847954541E-1,-2.440842986E-1,4.150392860E-2
1.179684944E1,7.920303941E-2,-3.193254471E-1,-8.906415105E-2
1.181685100E1,-7.295475900E-2,-3.128153682E-1,-2.893756032E-1
1.183685725E1,-2.825164497E-1,-4.033979475E-1,-4.210955799E-1
1.185885100E1,-4.089829922E-1,-3.769736588E-1,-4.394913614E-1
1.187885100E1,-3.495720029E-1,-1.273043156E-1,-3.126931787E-1
1.190085100E1,-1.956339478E-1,1.450892240E-1,-6.529276818E-2
1.192285100E1,-1.224348471E-1,-7.321656495E-2,8.796459064E-3
1.194285100E1,-1.240929067E-1,-4.786041975E-1,-2.872462869E-1
1.196285100E1,2.439970337E-2,-6.564881206E-1,-8.437794447E-1
1.198485100E1,3.353824615E-1,-5.116956234E-1,-1.273915768E0
1.200485100E1,5.429893732E-1,-1.075995490E-1,-9.986773729E-1
1.202685100E1,4.843986928E-1,2.963219881E-1,-5.109451413E-1
1.204685100E1,2.131047100E-2,3.857875764E-1,-3.415434659E-1
1.206685100E1,-5.073497295E-1,2.233497798E-1,-2.475051433E-1
1.208685100E1,-6.962642074E-1,-1.726479679E-1,-3.062180281E-1
1.210884944E1,-5.304055810E-1,-5.774247050E-1,-5.739864111E-1
1.212885100E1,-2.537010610E-1,-6.698573828E-1,-6.514790654E-1
1.215085100E1,6.829473376E-2,-4.294033647E-1,-5.953667164E-1
1.217284944E1,3.917216957E-1,-3.006155193E-1,-4.766668677E-1
1.219284944E1,4.699997008E-1,-1.904677749E-1,-3.587873280E-1
1.221285413E1,3.085741997E-1,-7.731808349E-3,-2.664594054E-1
1.223484944E1,1.336224079E-1,2.126683742E-1,-2.432814389E-1
1.225485881E1,1.174606569E-2,2.094395161E-1,-2.295456976E-1
1.227685100E1,-1.226268336E-1,-7.504915702E-4,-1.818458587E-1
1.229685100E1,-2.108706832E-1,-2.368062735E-1,-1.571145356E-1
1.231884944E1,-1.854586899E-1,-3.319441676E-1,-1.262920201E-1
1.233885100E1,-3.673918173E-2,-2.284286916E-1,-6.052801758E-2
1.235885100E1,1.817062348E-1,1.783726551E-2,8.599237353E-2
1.237885100E1,2.834938169E-1,1.636595279E-1,1.944296807E-1
1.239885100E1,1.559800804E-1,1.254891753E-1,1.314407438E-1
1.241885100E1,-1.895427518E-2,1.252971888E-1,8.913396299E-2
1.244085100E1,-2.010968328E-1,-2.780309506E-2,1.475326866E-1
1.246085100E1,-2.737548947E-1,-2.845061123E-1,1.530828327E-1
1.248085100E1,-1.158374995E-1,-2.524095178E-1,1.369210780E-1
1.250085100E1,2.005732358E-1,-8.065166324E-2,2.916794121E-1
1.252085100E1,2.088286430E-1,-2.068738788E-1,5.367236733E-1
1.254285100E1,-1.163785532E-1,-5.596223474E-1,6.350554824E-1
1.256485100E1,-3.513347805E-1,-4.588994086E-1,4.026823640E-1
1.258485413E1,-3.896098435E-1,-3.075270168E-2,1.524545103E-1
1.260685100E1,-3.519456387E-1,3.828903437E-1,1.366941929E-1
1.262885100E1,-2.443984598E-1,6.855304241E-1,2.336646765E-1
1.265085100E1,-1.780061275E-1,7.017445564E-1,3.053278923E-1
1.267284944E1,-2.022662014E-1,4.272042513E-1,2.630211115E-1
1.269284944E1,-2.065946162E-1,6.824237108E-2,1.666614860E-1
1.271284944E1,-9.665632993E-2,-1.131147891E-1,9.098401666E-2
1.273284944E1,4.932300374E-2,-9.182177484E-2,7.349581271E-2
1.275284944E1,8.813912421E-2,-3.316125646E-2,6.794566661E-2
1.277284944E1,5.061454722E-4,-5.445427261E-3,7.051130384E-2
1.279284944E1,-1.393819898E-1,-8.613199741E-2,5.270894244E-2
1.281285100E1,-1.907121241E-1,-1.809731871E-1,6.789330859E-3
1.283485413E1,-1.707106531E-1,-1.768542081E-1,-4.900884628E-2
1.285485413E1,-1.381777227E-1,-1.303586364E-1,-4.832816496E-2
1.287684944E1,-2.369808108E-1,-3.369183540E-1,-1.382300723E-2
1.289684944E1,-3.536386192E-1,-7.177666426E-1,-7.452555932E-3
1.291684944E1,-3.168819845E-1,-8.081398010E-1,6.335545331E-3
1.293684944E1,-8.141960949E-2,-4.421966076E-1,1.144237816E-1
1.295685100E1,1.761211753E-1,-3.090978041E-2,3.508111835E-1
1.297884944E1,3.502875939E-2,-8.499753475E-2,5.708273649E-1
1.299884944E1,-5.042780042E-1,-3.966784179E-1,4.078485370E-1
1.301884944E1,-6.528753042E-1,-3.633251786E-1,3.899065405E-2
1.303884944E1,-1.623505205E-1,-2.405238301E-1,-1.111251116E-1
1.305885100E1,3.208613396E-1,-4.211130440E-1,5.281366408E-2
1.308085100E1,3.148050308E-1,-6.156998277E-1,8.313003182E-2
1.310284944E1,-6.473426521E-2,-4.330860078E-1,-2.258630544E-1
1.312284944E1,-4.920781255E-1,-1.124690175E-1,-5.213124156E-1
1.314284944E1,-7.942295074E-1,9.271188825E-2,-5.998172760E-1
1.316284944E1,-8.179834485E-1,1.701172441E-1,-4.829500616E-1
1.318284944E1,-5.908463001E-1,8.964011073E-2,-2.735629082E-1
1.320285412E1,-1.975887269E-1,3.654719517E-2,-2.422516979E-2
1.322484944E1,8.859290928E-2,9.182177484E-2,1.838878840E-1
1.324484944E1,4.939281940E-2,1.477421224E-1,3.060260415E-1
1.326484944E1,-3.632030264E-2,1.502902955E-1,3.656639159E-1
1.328486194E1,-6.365215778E-2,2.609267272E-2,3.908141255E-1
1.330486194E1,-8.806931227E-2,-2.073625624E-1,3.722089231E-1
1.332684944E1,-1.331860721E-1,-3.601137698E-1,2.561619878E-1
1.334684944E1,-2.064200938E-1,-3.628015816E-1,1.171988621E-1
1.336684944E1,-2.822546363E-1,-4.351629317E-1,4.677482415E-3
1.338684944E1,-2.150420099E-1,-5.085889697E-1,-2.670353837E-2
1.340684944E1,3.586651757E-2,-2.987480164E-1,5.708971992E-2
1.342684944E1,3.145257831E-1,7.752752304E-2,2.986781895E-1
1.344684944E1,3.296054304E-1,3.940429986E-1,4.694237411E-1
1.346684944E1,1.509186178E-1,6.809751391E-1,4.259127080E-1
1.348684944E1,2.979277074E-2,8.885121942E-1,2.131221592E-1
1.350684944E1,9.896016680E-3,7.261616588E-1,6.892304868E-2
1.352684944E1,1.362753063E-1,3.666587770E-1,1.341111064E-1
1.354684944E1,3.569198251E-1,-1.352630183E-2,2.977182567E-1
1.356684944E1,4.407130778E-1,-2.846283019E-1,3.718947470E-1
1.358684944E1,2.167524397E-1,-4.738917947E-1,3.159744143E-1
1.360684944E1,-2.625673413E-1,-5.118003488E-1,1.063254550E-1
1.362684944E1,-6.752853394E-1,-2.179218084E-1,-7.457792014E-2
1.364684944E1,-8.400793076E-1,1.806241274E-1,-4.450589418E-2
1.366685100E1,-7.992036939E-1,5.126904845E-1,1.594009250E-1
1.368884944E1,-6.298369765E-1,7.028440833E-1,3.997502029E-1
1.370885100E1,-3.730641305E-1,6.080378294E-1,5.407204628E-1
1.373084944E1,-2.844886621E-3,3.781604767E-1,6.528927684E-1
1.375084944E1,2.524269819E-1,1.423141509E-1,7.280291915E-1
1.377084944E1,4.417602718E-1,4.773475602E-2,7.419045568E-1
1.379084944E1,5.962393880E-1,2.136282995E-2,7.238927484E-1
1.381085100E1,6.422287822E-1,-7.377506793E-2,6.923895478E-1
1.383085100E1,5.113989115E-1,-2.493900955E-1,6.296275258E-1
1.385085100E1,2.767568529E-1,-3.362900317E-1,5.355717540E-1
1.387284944E1,1.063254550E-1,-2.455329150E-1,4.546408057E-1
1.389284944E1,7.716100663E-2,-1.952848881E-1,4.005356133E-1
1.391284944E1,8.325220086E-3,-3.232349753E-1,3.459940553E-1
1.393284944E1,-2.400002182E-1,-6.498907804E-1,2.287777513E-1
1.395284944E1,-4.068711400E-1,-6.838898063E-1,8.639379591E-2
1.397284944E1,-3.489436805E-1,-3.465700150E-1,4.391248524E-2
1.399284944E1,-2.933723927E-1,1.146681309E-1,1.530479193E-1
1.401284944E1,-4.850095510E-1,3.234444261E-1,2.024232894E-1
1.403284944E1,-8.018042445E-1,2.413615882E-1,-4.698426276E-2
1.405284944E1,-7.783295512E-1,1.718625724E-1,-5.218011141E-1
1.407284944E1,-2.794446647E-1,2.186199427E-1,-7.557101250E-1
1.409284944E1,2.793574035E-1,2.084970325E-1,-5.495169163E-1
1.411284944E1,4.211479425E-1,-2.761110850E-2,-1.713040620E-1
1.413284944E1,3.531848192E-1,-5.555906296E-1,-1.970127672E-1
1.415284944E1,6.818303466E-1,-1.489359260E0,-4.742408693E-1
1.417284944E1,1.015013695E0,-1.757930517E0,-8.780402541E-1
1.419284944E1,8.145800829E-1,-9.580286741E-1,-9.528275728E-1
1.421284944E1,2.987654507E-1,2.771931887E-1,-8.191702962E-1
1.423284944E1,-8.290314116E-3,9.600532651E-1,-6.055070758E-1
1.425284944E1,1.027998924E-1,9.805608988E-1,-4.180412591E-1
1.427284944E1,4.336794019E-1,6.165026426E-1,-2.697580755E-1
1.429284944E1,7.392167449E-1,2.826037109E-1,-1.364149302E-1
1.431285100E1,8.169187903E-1,1.929112375E-1,2.951351739E-2
1.433285100E1,5.527632236E-1,2.368586361E-1,1.524894089E-1
1.435285100E1,6.586872786E-2,3.413864076E-1,1.630312055E-1
1.437484944E1,-3.425732255E-1,4.560719728E-1,1.107411385E-1
1.439484944E1,-4.601735175E-1,3.074921072E-1,8.230973035E-2
1.441485413E1,-3.913202584E-1,1.874658167E-1,1.121199504E-1
1.443684944E1,-2.959031165E-1,2.471386194E-1,2.099456489E-1
1.445685100E1,-3.378782868E-1,4.341855645E-1,3.353999257E-1
1.447884944E1,-5.784544945E-1,5.316098332E-1,2.821499407E-1
1.449884944E1,-7.880859971E-1,4.469090104E-1,1.017003357E-1
1.451884944E1,-5.939878821E-1,4.541172087E-1,1.899965405E-1
1.453884944E1,-1.090830788E-1,1.521577984E-1,6.385287046E-1
1.455884944E1,2.822546363E-1,-5.830970407E-1,9.210451245E-1
1.457884944E1,6.705031395E-1,-7.809650302E-1,7.673689127E-1
1.459884944E1,1.042694569E0,-4.068188071E-1,5.760633945E-1
1.461884944E1,9.201026559E-1,-1.523672491E-1,6.312681437E-1
1.463884944E1,2.941752374E-1,-1.123992056E-1,8.022929430E-1
1.465884944E1,-3.971322179E-1,4.136430100E-3,7.598639727E-1
1.467884944E1,-8.259770870E-1,2.773677111E-1,5.010142326E-1
1.469884944E1,-9.584999084E-1,3.970274925E-1,3.090105355E-1
1.471884944E1,-7.572285533E-1,2.934422195E-1,3.243519962E-1
1.473884944E1,-2.596177161E-1,4.557054490E-2,5.052379370E-1
1.475885100E1,3.330262601E-1,-1.305157244E-1,7.283433676E-1
1.478084944E1,7.376459241E-1,-5.825908855E-2,8.432732821E-1
1.480084944E1,7.182728052E-1,1.712168008E-1,7.932870388E-1
1.482084944E1,4.459665418E-1,3.881612122E-1,6.578320265E-1
1.484084944E1,2.706656456E-1,4.660029113E-1,5.057091713E-1
1.486084944E1,3.251024783E-1,4.059984982E-1,3.662049770E-1
1.488084944E1,3.887546360E-1,2.717826664E-1,3.096039593E-1
1.490084944E1,2.959554791E-1,1.959655732E-1,2.648711801E-1
1.492084944E1,5.225515738E-2,5.852089077E-2,1.306553483E-1
1.494084944E1,-9.637708217E-2,-5.719443783E-2,-5.431464687E-2
1.496084944E1,-2.696359158E-1,-2.299994826E-1,-2.023185641E-1
1.498084944E1,-5.574058294E-1,-3.777765036E-1,-2.127207220E-1
1.500085100E1,-7.264409661E-1,-5.187118649E-1,-1.755452156E-1
1.502284944E1,-5.885424614E-1,-4.493001103E-1,-1.715134978E-1
1.504284944E1,-4.151789248E-1,-7.389724255E-2,-1.830326766E-1
1.506284944E1,-5.249950290E-1,1.891587824E-1,-1.165879965E-1
1.508284944E1,-8.400269747E-1,1.430471838E-1,-2.826560736E-1
1.510284944E1,-8.314225078E-1,1.953547001E-1,-6.691417694E-1
1.512284944E1,-2.849599123E-1,1.785471886E-1,-8.052949309E-1
1.514284944E1,4.187219441E-1,-8.812167495E-2,-5.208935142E-1
1.516284944E1,7.460235357E-1,-3.925071061E-1,-1.444783509E-1
1.518284944E1,6.748141050E-1,-3.333579004E-1,-1.267807186E-1
1.520285100E1,4.209385216E-1,1.055924222E-1,-3.441789150E-1
1.522285100E1,9.032078832E-2,6.478836536E-1,-6.465222836E-1
1.524485256E1,-2.029468864E-1,1.055487871E0,-8.031830788E-1
1.526685100E1,-3.050311804E-1,9.507331848E-1,-7.347487211E-1
1.528884944E1,-2.590068579E-1,3.601835966E-1,-6.273062229E-1
1.530885100E1,-6.241297349E-2,-7.576474547E-2,-5.296201706E-1
1.533085100E1,2.190039158E-1,-2.208190560E-1,-4.196469784E-1
1.535085100E1,3.617020249E-1,-2.239431888E-1,-2.800380886E-1
1.537085100E1,3.262892962E-1,-2.210284919E-1,-1.691922098E-1
1.539284944E1,5.684537441E-2,-2.619739175E-1,-1.723687202E-1
1.541284944E1,-2.547657192E-1,-3.051708043E-1,-2.730916739E-1
1.543284944E1,-4.402942061E-1,-4.353549182E-1,-4.096985757E-1
1.545284944E1,-3.662573397E-1,-6.064320803E-1,-4.834387600E-1
1.547284944E1,-6.532767415E-2,-6.955835223E-1,-4.078834355E-1
1.549284944E1,3.422067165E-1,-5.136852860E-1,-1.923527420E-1
1.551284944E1,5.221676230E-1,-8.473573625E-2,2.256710641E-2
1.553284944E1,3.129724264E-1,3.073524833E-1,9.403833747E-2
1.555284944E1,1.384046115E-2,4.984834790E-1,2.008350343E-1
1.557284944E1,-2.975786291E-2,4.459490776E-1,4.118453562E-1
1.559284944E1,-5.201081187E-2,-2.434734255E-2,4.898964763E-1
1.561284944E1,-1.450543106E-1,-4.991292655E-1,2.697580755E-1
1.563284944E1,-9.128072299E-3,-3.830299675E-1,2.083923109E-2
1.565284944E1,3.286454976E-1,7.501424849E-2,1.871167421E-1
1.567284944E1,3.877772391E-1,2.077116370E-1,8.055567145E-1
1.569284944E1,1.404990070E-2,-1.683719158E-1,1.163872838E0
1.571284944E1,-4.374318719E-1,-6.166248322E-1,9.538049698E-1
1.573284944E1,-5.619261861E-1,-6.604151130E-1,4.339412153E-1
1.575284944E1,-4.678005874E-1,-2.876127958E-1,5.235987902E-2
1.577284944E1,-4.272915125E-1,1.899267286E-1,2.687807009E-2
1.579284944E1,-4.075518250E-1,4.815712571E-1,1.959132105E-1
1.581285100E1,-1.529781073E-1,5.056393147E-1,3.966086209E-1
1.583285100E1,2.107834071E-1,4.008846879E-1,4.810127318E-1
1.585486350E1,4.407130778E-1,2.226516455E-1,3.916518688E-1
1.587685100E1,4.528431296E-1,1.294336170E-1,2.219360620E-1
1.589884944E1,3.883706629E-1,7.838273793E-2,8.248426020E-2
1.591884944E1,2.814168930E-1,-6.534512341E-2,-1.790707745E-2
1.593884944E1,1.366941929E-1,-2.586054206E-1,-1.447576135E-1
1.595884944E1,8.253662288E-2,-3.930307031E-1,-2.721317410E-1
1.597884944E1,9.164723754E-2,-4.188092053E-1,-2.753955126E-1
1.599884944E1,2.883283980E-2,-4.806113243E-1,-2.100852877E-1
1.601884944E1,-4.630358517E-2,-5.099154115E-1,-1.252797395E-1
1.603884944E1,-6.712536514E-2,-3.662573397E-1,1.832595677E-3
1.605885100E1,-5.618214980E-2,-1.345823407E-1,1.796990931E-1
1.608084944E1,-6.344271451E-2,6.742206961E-2,3.440567553E-1
1.610084944E1,-9.902998060E-2,1.489987522E-1,4.700346291E-1
1.612084944E1,-2.013760954E-1,9.878563695E-3,4.770333767E-1
1.614084944E1,-3.967657089E-1,-1.128529906E-1,1.737475246E-1
1.616084944E1,-3.098657429E-1,1.642703861E-1,-2.085493952E-1
1.618084944E1,1.803274155E-1,5.770581961E-1,-2.340312004E-1
1.620085100E1,5.988573432E-1,6.131690741E-1,2.769663036E-1
1.622085100E1,5.281540751E-1,2.123891115E-1,6.011961102E-1
1.624284944E1,3.769911081E-2,-4.750786126E-1,4.230852723E-1
1.626284944E1,-2.257059813E-1,-7.224441171E-1,8.442157507E-2
1.628284944E1,-1.732588410E-1,-5.373694301E-1,-1.329068244E-1
1.630284944E1,3.892084118E-3,-1.496270746E-1,-1.203229949E-1
1.632285100E1,1.112647429E-1,3.954218030E-1,7.052875310E-2
1.634485100E1,9.225810319E-2,7.343123555E-1,2.749766111E-1
1.636485100E1,1.476024985E-1,5.748940110E-1,4.651826024E-1
1.638684944E1,3.548952341E-1,2.895675898E-1,6.011786461E-1
1.640684944E1,4.405210912E-1,6.091199070E-2,7.016049027E-1
1.642684944E1,3.276157379E-1,-6.443755329E-2,7.732855678E-1
1.644684944E1,1.143888757E-1,-3.410373256E-2,8.369551897E-1
1.646684944E1,-7.751007378E-2,5.839871615E-2,8.304101825E-1
1.648684944E1,-1.315454692E-1,2.312735766E-1,8.096407652E-1
1.650684944E1,-5.553637818E-2,4.429645538E-1,8.733453155E-1
1.652684944E1,6.981316954E-2,6.110048890E-1,1.114776731E0
1.654684944E1,1.394867152E-1,5.094092488E-1,1.433910131E0
1.656684944E1,2.008699477E-1,3.183829486E-1,1.785384536E0
1.658684944E1,2.472957075E-1,2.122844011E-1,1.994387746E0
1.660684944E1,2.185152173E-1,3.232873380E-1,1.989256501E0
1.662684944E1,9.459684603E-3,2.948384583E-1,1.973129630E0
1.664684944E1,-1.909041107E-1,-1.059938446E-1,1.956601381E0
1.666684944E1,-3.909537569E-3,-2.660056353E-1,1.976288676E0
1.668684944E1,2.877698839E-1,-2.292664498E-1,2.025559425E0
1.670684944E1,5.475097895E-2,-5.310862064E-1,2.129668236E0
1.672684944E1,-5.075417161E-1,-8.441808224E-1,2.055893183E0
1.674684944E1,-7.966380715E-1,-7.676306963E-1,1.719009638E0
1.676685100E1,-6.858620048E-1,-2.788861692E-1,1.318858027E0
1.678884944E1,-4.843812287E-1,4.186172187E-1,1.103536725E0
1.680885100E1,-4.329638183E-1,9.657081366E-1,1.183455348E0
1.683084944E1,-4.117755294E-1,1.156263113E0,1.369821668E0
1.685084944E1,-3.156951666E-1,8.901004791E-1,1.515155196E0
1.687084944E1,-2.321811467E-1,5.157448053E-1,1.517336845E0
1.689084944E1,-1.912008226E-1,1.553517580E-1,1.385616899E0
1.691084944E1,-8.368853480E-2,-1.852143407E-1,1.109662890E0
1.693084944E1,1.611811519E-1,-3.674616218E-1,8.428718448E-1
1.695084944E1,3.205995262E-1,-4.515341222E-1,7.163704038E-1
1.697084944E1,1.924749166E-1,-4.878369868E-1,7.034549713E-1
1.699084944E1,5.518731102E-2,-3.936415613E-1,7.838273644E-1
1.701084944E1,2.459343374E-1,-2.090380788E-1,8.543910384E-1
1.703085100E1,6.082472205E-1,7.923794538E-2,8.104959726E-1
1.705284944E1,6.942570806E-1,2.596177161E-1,7.289193273E-1
1.707284944E1,4.320038855E-1,3.834313750E-1,6.138148308E-1
1.709284944E1,1.461713314E-1,4.525987804E-1,4.291415513E-1
1.711284944E1,-4.312708601E-2,5.191656351E-1,2.768790424E-1
1.713284944E1,-1.989500821E-1,5.073323250E-1,2.251300216E-1
1.715284944E1,-5.124112368E-1,1.903979629E-1,4.558800161E-2
1.717284944E1,-6.925640702E-1,9.192649275E-2,-3.132691383E-1
1.719284944E1,-5.549100041E-1,3.251897395E-1,-5.056219101E-1
1.721284944E1,-1.321214288E-1,3.934495747E-1,-3.556282818E-1
1.723285100E1,2.095616758E-1,8.916886896E-2,4.221951589E-2
1.725285100E1,2.748369873E-1,-2.798984647E-1,2.021440268E-1
1.727485100E1,2.211681157E-1,-2.206445187E-1,-6.775368005E-2
1.729485412E1,1.644449234E-1,6.553710997E-2,-4.154407084E-1
1.731684944E1,-8.511970937E-2,4.810476601E-1,-6.220702529E-1
1.733684944E1,-3.519107401E-1,8.223118782E-1,-5.654517412E-1
1.735684944E1,-4.132765234E-1,8.443030119E-1,-3.911980987E-1
1.737685100E1,-2.624800801E-1,5.794667602E-1,-2.017251551E-1
1.739884944E1,1.544616371E-2,2.390228361E-1,-9.026842564E-2
1.741884944E1,1.549677849E-1,3.001966281E-3,-6.742206961E-2
1.743884944E1,1.165356338E-1,-8.094836771E-2,-2.581341937E-2
1.745884944E1,1.621410809E-2,-3.602359444E-2,3.773401678E-2
1.747885100E1,-7.417649031E-2,-4.886921961E-3,7.316420227E-2
1.750085100E1,-1.255066246E-1,-8.353145421E-2,6.377433240E-2
1.752284944E1,-8.365362883E-2,-2.212553918E-1,-2.816961333E-2
1.754284944E1,-1.694714651E-2,-2.923775613E-1,-1.154535264E-1
1.756284944E1,5.414011329E-2,-2.155307084E-1,-9.347983450E-2
1.758284944E1,8.199556917E-2,-1.462236792E-1,1.092576142E-2
1.760284944E1,7.592181861E-2,-1.426283121E-1,7.206464559E-2
1.762284944E1,1.160469428E-1,-1.097812131E-2,-3.148574010E-2
1.764285100E1,2.544166446E-1,3.831870258E-1,-2.143438905E-1
1.766484944E1,3.090628982E-1,6.364517808E-1,-1.658062786E-1
1.768484944E1,1.707106531E-1,4.425980449E-1,-2.893755957E-2
1.770485100E1,2.259503305E-1,2.854835093E-1,1.017003357E-1
1.772684944E1,5.316272974E-1,2.022138536E-1,3.208787739E-1
1.774684944E1,5.843711495E-1,1.549852360E-2,5.441412926E-1
1.776684944E1,1.235867664E-1,-3.924896419E-1,6.766467094E-1
1.778684944E1,-4.499982297E-1,-6.659652591E-1,5.232846141E-1
1.780684944E1,-7.636339068E-1,-6.976081133E-1,1.741140485E-1
1.782685725E1,-7.009067535E-1,-6.550220847E-1,1.617920212E-2
1.784688069E1,-3.323979676E-1,-3.746523857E-1,8.283332735E-2
1.786884944E1,4.668755829E-2,7.215191424E-2,3.057293296E-1
1.788885100E1,2.341184616E-1,3.992964327E-1,4.484100044E-1
1.791084944E1,2.976658940E-1,5.157273412E-1,4.609763622E-1
1.793084944E1,3.040538132E-1,3.754901290E-1,3.763976991E-1
1.795084944E1,3.721041977E-1,2.187944800E-1,2.571044564E-1
1.797084944E1,4.462457895E-1,8.857546002E-2,1.464854777E-1
1.799084944E1,4.609414637E-1,-9.117600322E-2,1.356120780E-2
1.801084944E1,3.132342398E-1,-2.789210677E-1,-1.185253114E-1
1.803084944E1,-7.417649496E-3,-4.769286811E-1,-2.885552943E-1
1.805084944E1,-3.223274052E-1,-6.159790754E-1,-4.533318281E-1
1.807084944E1,-5.140343904E-1,-6.154379845E-1,-5.704085231E-1
1.809084944E1,-4.927762449E-1,-4.338190258E-1,-6.072174907E-1
1.811084944E1,-2.826735377E-1,-3.125884533E-1,-4.281816185E-1
1.813084944E1,-1.595754474E-1,-3.744952977E-1,-9.904743731E-2
1.815084944E1,-2.105216086E-1,-3.515442312E-1,8.155923337E-2
1.817084944E1,-2.919761240E-1,-1.451066732E-1,-4.171337001E-3
1.819084944E1,-2.572615445E-1,2.452187538E-1,-1.401848495E-1
1.821084944E1,-3.512300551E-1,3.439694941E-1,-2.119353265E-1
1.823084944E1,-5.635319352E-1,1.811302751E-1,-3.740414977E-1
1.825084944E1,-5.208760500E-1,1.061160192E-1,-5.748590827E-1
1.827084944E1,-1.019272283E-1,-3.855432197E-2,-6.132040024E-1
1.829085256E1,4.214271903E-1,-4.103792608E-1,-5.038241744E-1
1.831285100E1,4.649382532E-1,-8.798379302E-1,-6.125407815E-1
1.833285100E1,1.301841140E-1,-7.541393042E-1,-8.853182793E-1
1.835485100E1,-2.271371484E-1,-7.609635592E-2,-1.244960785E0
1.837485256E1,-4.795117676E-1,5.329712033E-1,-1.370519757E0
1.839684944E1,-5.616469383E-1,9.116378427E-1,-1.185497403E0
1.841684944E1,-4.469788074E-1,8.930675387E-1,-9.138544202E-1
1.843684944E1,-1.905201375E-1,6.550744176E-1,-7.004529834E-1
1.845685100E1,1.583362669E-1,3.274586797E-1,-5.611059070E-1
1.847685100E1,4.018795192E-1,1.729621366E-2,-5.114687085E-1
1.849685100E1,4.145506024E-1,-1.313185692E-1,-4.838401675E-1
1.851685100E1,1.994911283E-1,-1.113520041E-1,-4.615872204E-1
1.853884944E1,-6.579891313E-3,-7.504915446E-2,-5.698848963E-1
1.855884944E1,-1.745329238E-2,-1.768542081E-1,-8.458738327E-1
1.857884944E1,5.527457595E-2,-5.288522243E-1,-1.037807703E0
1.859884944E1,1.157676876E-1,-9.151983261E-1,-9.539446235E-1
1.861884944E1,8.346164227E-2,-8.974483013E-1,-6.653369665E-1
1.863884944E1,6.155776232E-2,-4.468915462E-1,-3.502526879E-1
1.865884944E1,1.609368026E-1,8.115781099E-2,-1.305506229E-1
1.867884944E1,1.776745170E-1,3.620510995E-1,-5.810201168E-2
1.869884944E1,5.733406544E-2,5.863782763E-1,-1.976585388E-1
1.871884944E1,-1.072330326E-1,8.271290064E-1,-4.254763722E-1
1.873884944E1,-2.950828075E-1,8.413534164E-1,-5.334773660E-1
1.875884944E1,-2.607172728E-1,7.777885199E-1,-4.560719728E-1
1.877884944E1,1.030616909E-1,5.950874686E-1,-9.286896884E-2
1.879884944E1,5.137900114E-1,2.016902417E-1,4.554785788E-1
1.881884944E1,5.785766244E-1,-1.981297731E-1,7.941946387E-1
1.883885100E1,2.107310593E-1,-4.025427401E-1,7.517307401E-1
1.886084944E1,-2.379232794E-1,-1.560498923E-1,4.528082311E-1
1.888084944E1,-4.828802347E-1,2.367364615E-1,2.422866076E-1
1.890084944E1,-6.354918480E-1,5.884726644E-1,2.203129083E-1
1.892084944E1,-6.381098032E-1,7.489382029E-1,3.079633415E-1
1.894084944E1,-3.373372257E-1,6.363470554E-1,4.673642516E-1
1.896084944E1,9.674359858E-2,3.056071401E-1,5.837253928E-1
1.898084944E1,4.543964565E-1,-8.255407214E-3,6.108129025E-1
1.900084944E1,6.113364697E-1,-1.834515631E-1,5.326570272E-1
1.902084944E1,6.462430358E-1,-1.450019479E-1,4.385837913E-1
1.904084944E1,5.478762984E-1,-1.075122803E-1,3.612831533E-1
1.906084944E1,3.336545825E-1,-1.706582904E-1,3.099181056E-1
1.908084944E1,1.188220158E-1,-3.343178034E-1,2.690948546E-1
1.910084944E1,5.197590590E-2,-4.946961105E-1,1.447925121E-1
1.912084944E1,1.597325355E-1,-4.930555224E-1,6.625270098E-2
1.914084944E1,1.887922585E-1,-5.029166341E-1,1.049466506E-1
1.916084944E1,-3.050835431E-2,-5.109800696E-1,1.662949771E-1
1.918084944E1,-4.162610173E-1,-4.778187871E-1,1.553517580E-1
1.920084944E1,-6.271491647E-1,-3.814591467E-1,-2.101376466E-2
1.922084944E1,-4.858822227E-1,-1.038819999E-1,-1.618269235E-1
1.924084944E1,-3.116459846E-1,1.350884791E-2,-1.340063810E-1
1.926084944E1,-5.418549180E-1,-2.232276089E-2,-2.923600972E-1
1.928084944E1,-7.772649527E-1,-6.387905218E-3,-7.044497728E-1
1.930084944E1,-3.935891986E-1,1.023461074E-1,-9.082693458E-1
1.932084944E1,2.922903001E-1,1.721243709E-1,-7.204195261E-1
1.934084944E1,4.035201073E-1,1.035678387E-1,-4.614824951E-1
1.936084944E1,-2.895501256E-2,3.337942064E-1,-5.782973766E-1
1.938084944E1,-5.081875324E-1,6.575353146E-1,-8.948477507E-1
1.940085100E1,-8.216661215E-1,7.840716839E-1,-1.151515841E0
1.942284944E1,-9.703681469E-1,7.968649864E-1,-1.301945806E0
1.944284944E1,-7.257253528E-1,5.170188546E-1,-1.144464731E0
1.946285100E1,-5.661848187E-2,9.524261951E-2,-6.983585954E-1
1.948484944E1,6.172007918E-1,-1.913229972E-1,-1.842020452E-1
1.950485100E1,7.563733459E-1,-1.355771720E-1,8.656833321E-3
1.952684944E1,4.680798650E-1,2.224596590E-1,-1.028697044E-1
1.954684944E1,1.466949284E-1,5.117305517E-1,-1.964018941E-1
1.956684944E1,3.054326167E-3,5.749288797E-1,-1.010196581E-1
1.958684944E1,2.942625061E-2,4.380601943E-1,4.351105914E-2
1.960684944E1,1.063778177E-1,1.948834658E-1,8.826129884E-2
1.962684944E1,2.144660652E-1,-1.461887807E-1,5.398303270E-2
1.964684944E1,3.588047922E-1,-3.180339038E-1,3.822271153E-2
1.966684944E1,5.110324025E-1,-2.677160501E-1,1.146855876E-1
1.968684944E1,6.257703304E-1,-2.000147291E-2,2.320589721E-1
1.970684944E1,6.704333425E-1,3.522598147E-1,2.633352876E-1
1.972684944E1,5.211727619E-1,6.248976588E-1,1.612858772E-1
1.974684944E1,1.078788042E-1,5.222548842E-1,-5.316272750E-2
1.976684944E1,-1.370432526E-1,3.984586522E-2,-3.348588645E-1
1.978684944E1,1.397834122E-1,-2.948035598E-1,-3.477219343E-1
1.980684944E1,7.653268576E-1,-2.235068679E-1,6.283185631E-2
1.982684944E1,9.949598312E-1,-4.406956211E-2,5.855579376E-1
1.984684944E1,5.120272636E-1,-1.025380939E-1,7.082022429E-1
1.986684944E1,-3.794520199E-1,-4.613952339E-1,3.764151633E-1
1.988684944E1,-8.598364592E-1,-5.099328160E-1,-1.729970276E-1
1.990684944E1,-7.923445702E-1,-2.367713600E-1,-4.072551131E-1
1.992684944E1,-5.161636472E-1,1.493303776E-1,-2.238210291E-1
1.994684944E1,-3.032858670E-1,3.329389989E-1,7.559020817E-2
1.996684944E1,-1.435358822E-1,3.225368559E-1,2.848900855E-1
1.998684944E1,3.274237737E-2,1.640609503E-1,3.004933298E-1
2.000684944E1,2.648013532E-1,-5.597271025E-2,2.301740199E-1
2.002684944E1,4.426504076E-1,-2.070658654E-1,1.474803239E-1
2.004688694E1,5.191830993E-1,-3.042109013E-1,1.005484164E-1
2.006884944E1,5.312433243E-1,-3.909013867E-1,9.412560612E-2
2.008884944E1,4.069584310E-1,-6.249325871E-1,5.030038953E-2
2.010884944E1,1.938188076E-1,-8.819847107E-1,-7.918559015E-2
2.012884944E1,1.656666547E-1,-8.746717572E-1,-2.099281996E-1
2.014884944E1,3.191159964E-1,-5.004731417E-1,-2.174505740E-1
2.016884944E1,9.684831649E-2,-2.567553818E-1,-7.017968595E-2
2.018884944E1,-4.588645101E-1,-2.552893162E-1,1.014036313E-2
2.020884944E1,-7.204195261E-1,-2.157052457E-1,-1.294336170E-1
2.022884944E1,-4.864756167E-1,-1.524021477E-1,-2.726204395E-1
2.024884944E1,-1.818807572E-1,-5.979498103E-2,-2.642952204E-1
2.026884944E1,-2.758492827E-1,1.187347472E-1,-2.304707319E-1
2.028884944E1,-4.634372890E-1,4.401371181E-1,-2.764077783E-1
2.030885100E1,-2.230530828E-1,6.055594087E-1,-3.602184951E-1
2.033085100E1,3.572165370E-1,4.382172525E-1,-3.382447958E-1
2.035284944E1,4.162261188E-1,-2.643126547E-1,-4.068711400E-1
2.037284944E1,7.679448463E-3,-5.647187233E-1,-7.870736718E-1
2.039284944E1,-3.196395934E-1,-7.579965144E-2,-1.163872838E0
2.041284944E1,-4.311486781E-1,5.590987802E-1,-1.218885541E0
2.043284944E1,-3.459591568E-1,9.718865752E-1,-9.588838816E-1
2.045284944E1,-2.729345858E-1,9.281311631E-1,-6.680422425E-1
2.047284944E1,-2.332807034E-1,3.684739172E-1,-4.681845605E-1
2.049284944E1,2.624975145E-2,-1.915673316E-1,-3.273364902E-1
2.051284944E1,4.588470459E-1,-3.967831433E-1,-2.701944113E-1
2.053284944E1,7.114485502E-1,-5.542991161E-1,-2.434385270E-1
2.055284944E1,6.136228442E-1,-5.148372054E-1,-2.749242485E-1
2.057284944E1,3.368659914E-1,-2.901784480E-1,-3.717376888E-1
2.059284944E1,6.464699656E-2,-8.792968839E-2,-4.457745552E-1
2.061284944E1,1.045452245E-2,-3.672172874E-2,-5.094092488E-1
2.063284944E1,1.171988621E-1,-2.919412255E-1,-6.879564524E-1
2.065284944E1,2.654645741E-1,-5.721189380E-1,-9.060353041E-1
2.067284944E1,3.940080702E-1,-6.076014638E-1,-1.106503844E0
2.069284944E1,4.545884430E-1,-2.866528630E-1,-1.140275955E0
2.071284944E1,3.503573835E-1,2.733360231E-1,-8.973785043E-1
2.073284944E1,5.300565064E-2,6.342002749E-1,-7.830768824E-1
2.075284944E1,-4.028219730E-2,7.372270823E-1,-7.850840092E-1
2.077284944E1,2.932153083E-2,4.332954288E-1,-5.992587805E-1
2.079284944E1,-4.415683076E-2,-2.345722541E-2,-4.037819207E-1
2.081285100E1,1.212480217E-1,9.365436435E-2,-2.209761292E-1
2.083484944E1,6.045296788E-1,1.754754037E-1,3.000569940E-1
2.085485569E1,5.934293866E-1,-2.066818923E-1,7.129495144E-1
2.087685100E1,-2.448871434E-1,-5.807932019E-1,8.011060953E-1
2.089884944E1,-1.079678178E0,-3.476346731E-1,5.559222698E-1
2.091884944E1,-1.230526924E0,9.505063295E-2,2.777866125E-1
2.093884944E1,-9.807179570E-1,4.048291147E-1,2.354623675E-1
2.095884944E1,-7.059333324E-1,5.483649969E-1,4.512548745E-1
2.097884944E1,-5.454328656E-1,5.751383305E-1,6.365215778E-1
2.099884944E1,-3.685786426E-1,3.710919023E-1,6.381272674E-1
2.101884944E1,-4.419173673E-2,1.082627699E-1,5.009793043E-1
2.103884944E1,2.978578806E-1,-1.044928655E-1,3.361853063E-1
2.105885100E1,4.336445034E-1,-2.566506565E-1,1.949183643E-1
2.108084944E1,3.022910357E-1,-4.999146461E-1,2.680825815E-2
2.110084944E1,1.596976221E-1,-6.625444293E-1,-1.683021039E-1
2.112084944E1,1.176700965E-1,-6.721786261E-1,-3.055547774E-1
2.114085100E1,7.154104859E-2,-4.606622159E-1,-2.755700350E-1
2.116085100E1,-4.028219730E-2,-2.410474271E-1,-2.371727973E-1
2.118285100E1,-1.976410896E-1,-4.888318181E-1,-2.334901392E-1
2.120285100E1,-2.110452056E-1,-7.263536453E-1,-1.362229437E-1
2.122285100E1,-1.992118806E-1,-7.540171146E-1,-1.067617908E-1
2.124285100E1,-1.551772207E-1,-4.975933731E-1,-4.249876738E-2
2.126285100E1,-9.902998060E-2,-2.316226512E-1,9.000662714E-2
2.128285100E1,-6.166248396E-2,8.079128712E-2,2.232625186E-1
2.130285100E1,-2.379930913E-1,1.673247218E-1,1.830152273E-1
2.132484944E1,-3.776543438E-1,1.642878354E-1,-1.609542668E-1
2.134485100E1,-4.485496134E-2,2.122145891E-1,-3.592760265E-1
2.136485256E1,4.639783204E-1,1.237962022E-1,-2.069087774E-1
2.138685100E1,4.173780382E-1,-4.466122985E-1,-1.731017530E-1
2.140685100E1,-4.040437192E-2,-5.310688019E-1,-5.346816182E-1
2.142685100E1,-3.833092153E-1,8.855800331E-2,-9.577319622E-1
2.144685100E1,-5.220105052E-1,6.159266829E-1,-1.037545919E0
2.146884944E1,-3.727499545E-1,8.084539771E-1,-7.564780712E-1
2.148884944E1,-1.020494029E-1,6.937858462E-1,-4.156850576E-1
2.150884944E1,1.147204936E-1,3.907442987E-1,-2.476098537E-1
2.152884944E1,2.242922634E-1,1.014734432E-1,-2.548704445E-1
2.154884944E1,2.702118754E-1,-1.218937933E-1,-2.919063270E-1
2.156884944E1,2.879444063E-1,-2.003463507E-1,-1.939235330E-1
2.158884944E1,1.407258958E-1,-9.557422996E-2,-1.298350394E-1
2.160885100E1,-1.987929940E-1,-5.019566789E-2,-1.316676438E-1
2.162885100E1,-3.990520835E-1,-4.298745841E-2,-2.357590795E-1
2.165084944E1,-4.032408595E-1,-2.720444798E-1,-3.659257293E-1
2.167084944E1,-2.743483186E-1,-5.098106861E-1,-3.666762114E-1
2.169084944E1,-2.253743708E-1,-5.511924028E-1,-2.645046413E-1
2.171084944E1,-2.786767185E-1,-2.563016117E-1,-8.150687814E-2
2.173085100E1,-2.057219595E-1,9.419541806E-2,7.682939619E-2
2.175284944E1,3.776892647E-2,2.112895548E-1,2.663372457E-1
2.177284944E1,2.505594790E-1,1.748470813E-1,3.170216084E-1
2.179284944E1,4.664916098E-1,3.199537694E-1,2.622706294E-1
2.181285100E1,5.363920331E-1,3.831346631E-1,2.050063759E-1
2.183285100E1,3.454181254E-1,2.664768696E-1,1.484751552E-1
2.185486194E1,3.222575784E-1,2.098583877E-1,7.232644409E-2
2.187685100E1,6.496813297E-1,7.585200667E-2,3.020466864E-1
2.189685100E1,8.646709919E-1,-1.008625776E-1,7.154977322E-1
2.191884944E1,5.627813935E-1,-4.085990191E-1,8.935038447E-1
2.193885100E1,-5.270894151E-3,-5.383468270E-1,6.448817253E-1
2.196084944E1,-3.465002179E-1,-2.223898470E-1,2.565982938E-1
2.198084944E1,-3.799407184E-1,9.114108980E-2,2.041511685E-1
2.200084944E1,-3.446501791E-1,3.851417899E-1,3.681248426E-1
2.202084944E1,-3.212103844E-1,6.018418670E-1,5.360604525E-1
2.204084944E1,-2.179741710E-1,6.467317343E-1,6.188762784E-1
2.206084944E1,-3.412118554E-2,4.768937528E-1,4.911356568E-1
2.208084944E1,2.160717547E-1,1.929636002E-1,3.225717545E-1
2.210084944E1,4.725653529E-1,3.014183603E-2,2.273465842E-1
2.212084944E1,6.070080400E-1,1.745329238E-2,1.484053433E-1
2.214085100E1,5.452757478E-1,4.033455998E-2,3.080506064E-2
2.216284944E1,3.132342398E-1,8.904670179E-2,-8.941321820E-2
2.218284944E1,8.150687814E-2,7.480481267E-2,-1.702394187E-1
2.220284944E1,-1.092401594E-1,1.361356815E-3,-2.278352827E-1
2.222284944E1,-3.118379712E-1,-1.723687202E-1,-2.820975780E-1
2.224284944E1,-4.269948006E-1,-3.312634826E-1,-3.563787639E-1
2.226285100E1,-3.630633950E-1,-4.992688894E-1,-3.533768058E-1
2.228285100E1,-3.398330510E-1,-5.908812284E-1,-2.596526444E-1
2.230485100E1,-5.670923591E-1,-5.414360166E-1,-1.638864130E-1
2.232684944E1,-7.285353541E-1,-2.933898568E-1,-1.909390241E-1
2.234684944E1,-6.428571343E-1,-3.892084211E-2,-2.275909334E-1
2.236684944E1,-6.582858562E-1,9.398598224E-2,-3.687880635E-1
2.238685100E1,-6.083868742E-1,4.172558486E-1,-6.557201743E-1
2.240884944E1,-5.660102889E-2,7.234040499E-1,-5.979498029E-1
2.242885100E1,4.816061556E-1,5.993809700E-1,-3.294483423E-1
2.245084944E1,4.624773562E-1,5.387831479E-2,-2.907544076E-1
2.247084944E1,1.256637042E-3,-2.861467302E-1,-5.791700482E-1
2.249084944E1,-3.336022198E-1,-1.582315564E-1,-9.144129157E-1
2.251084944E1,-3.765024245E-1,1.049466506E-1,-1.037929893E0
2.253085100E1,-2.547482550E-1,3.155729771E-1,-8.384212852E-1
2.255284944E1,-7.431612164E-2,2.875953615E-1,-4.926889837E-1
2.257284944E1,5.255186185E-2,1.178620830E-1,-2.790606916E-1
2.259284944E1,2.269102484E-1,4.412192479E-2,-1.607099175E-1
2.261284944E1,4.042007923E-1,7.679448463E-3,-8.075638115E-2
2.263284944E1,4.578522146E-1,-5.274384841E-2,-2.134537697E-2
2.265284944E1,3.486644328E-1,-1.144761443E-1,-8.901178953E-4
2.267284944E1,1.446179748E-1,-1.825439930E-1,-1.120501384E-2
2.269284944E1,-2.879793197E-2,-3.015579879E-1,-1.635373570E-2
2.271284944E1,-8.532914519E-2,-3.694163859E-1,-3.824016452E-2
2.273284944E1,9.058258496E-3,-3.771831095E-1,-2.338741207E-3
2.275285100E1,1.554215699E-1,-2.310990393E-1,6.311110407E-2
2.277484944E1,3.312285841E-1,1.092227027E-1,2.095093280E-1
2.279485100E1,4.799481034E-1,3.309667706E-1,3.463954926E-1
2.281486506E1,4.511676133E-1,4.817283154E-1,3.564834893E-1
2.283488069E1,2.520255446E-1,6.450737119E-1,1.237089336E-1
2.285685100E1,1.226966456E-2,6.766292453E-1,-1.254368126E-1
2.287685100E1,-2.064899057E-1,1.458746195E-1,-2.552543879E-1
2.289685100E1,-2.360383272E-1,-4.237833917E-1,-3.647912741E-1
2.291685100E1,2.513099611E-1,-5.105786324E-1,-2.334552407E-1
2.293685100E1,9.465793371E-1,-1.566083878E-1,2.370157093E-1
2.295685100E1,8.649328351E-1,-1.769065708E-1,6.428047419E-1
2.297885100E1,7.489208132E-2,-4.172733128E-1,5.421690941E-1
2.300085100E1,-5.803917646E-1,-3.410198689E-1,4.560545459E-2
2.302284944E1,-7.158642411E-1,-1.701696031E-2,-1.775872558E-1
2.304284944E1,-6.139370203E-1,2.979800701E-1,-5.771803856E-2
2.306284944E1,-4.335746765E-1,4.717275798E-1,1.483704448E-1
2.308284944E1,-1.888969839E-1,4.161912203E-1,2.926219106E-1
2.310284944E1,2.146580368E-1,1.638340503E-1,3.924023807E-1
2.312284944E1,6.078632474E-1,-5.928883329E-2,4.616919458E-1
2.314284944E1,7.809999585E-1,-7.489208132E-2,4.277627468E-1
2.316284944E1,7.641400695E-1,8.819148690E-2,3.928387165E-1
2.318284944E1,6.798930168E-1,2.442937344E-1,3.564834893E-1
2.320285412E1,5.371599793E-1,1.440245658E-1,3.133563995E-1
2.322484944E1,3.358187973E-1,-1.926145405E-1,2.065771669E-1
2.324484944E1,2.309594154E-1,-4.376762211E-1,8.468337357E-2
2.326484944E1,2.586577833E-1,-3.747396469E-1,-6.867870688E-2
2.328485100E1,1.623330712E-1,-2.852391601E-1,-1.462236792E-1
2.330684944E1,-1.483529806E-1,-3.483851850E-1,-1.922654659E-1
2.332684944E1,-4.514992237E-1,-4.060682952E-1,-3.207915127E-1
2.334684944E1,-5.358684659E-1,-3.110351264E-1,-5.188165903E-1
2.336684944E1,-3.618067503E-1,9.354964830E-3,-5.482951999E-1
2.338684944E1,-3.197792172E-1,2.372600585E-1,-4.520751834E-1
2.340684944E1,-5.854706764E-1,3.336371481E-1,-5.354844928E-1
2.342684944E1,-6.969972253E-1,4.521100819E-1,-8.591383100E-1
2.344685100E1,-2.847155631E-1,4.925493598E-1,-8.969246745E-1
2.346884944E1,3.450341523E-1,2.681349218E-1,-5.723109245E-1
2.348884944E1,3.804992437E-1,-2.323382348E-1,-4.523893297E-1
2.350884944E1,-7.007496804E-2,-3.955090642E-1,-6.872932315E-1
2.352884944E1,-4.261744916E-1,-9.285151958E-3,-1.062451720E0
2.354884944E1,-5.610186458E-1,3.599741459E-1,-1.205324411E0
2.356884944E1,-5.167222023E-1,5.130220652E-1,-1.036446333E0
2.358884944E1,-3.952298164E-1,2.742261291E-1,-7.841590047E-1
2.360884944E1,-2.144311517E-1,-1.590867639E-1,-6.577622294E-1
2.362884944E1,5.159193277E-2,-3.265336454E-1,-6.431712508E-1
2.364884944E1,2.634399831E-1,-1.995958537E-1,-6.133086681E-1
2.366884944E1,3.009296656E-1,-8.131489158E-2,-4.892681539E-1
2.368884944E1,1.362927556E-1,-1.372526884E-1,-3.815115094E-1
2.370885100E1,-1.180366203E-1,-1.928414255E-1,-3.923325539E-1
2.373084944E1,-3.368136287E-1,-4.028568864E-1,-5.226911902E-1
2.375084944E1,-3.664667904E-1,-5.868145823E-1,-6.487737894E-1
2.377084944E1,-2.745053768E-1,-7.581012249E-1,-7.075390220E-1
2.379084944E1,-6.806784123E-2,-6.568895578E-1,-6.081774235E-1
2.381085100E1,1.389282048E-1,-2.907020450E-1,-3.433237076E-1
2.383085100E1,1.456651837E-1,9.047786891E-2,-7.412413508E-2
2.385284944E1,-1.136209350E-2,1.758768260E-1,-3.127630055E-2
2.387284944E1,-5.427974090E-2,2.132966816E-1,-2.564586699E-1
2.389284944E1,-1.875530779E-1,4.478514791E-1,-5.154830217E-1
2.391284944E1,-3.995058537E-1,5.755397677E-1,-6.249675155E-1
2.393284944E1,-3.078237176E-1,3.785270154E-1,-6.584603786E-1
2.395284944E1,1.404640973E-1,1.151393726E-1,-5.126380920E-1
2.397284944E1,6.096609831E-1,-1.150172018E-2,-2.100503743E-1
2.399284944E1,6.479883790E-1,-7.358308136E-2,-5.452408642E-2
2.401284944E1,1.667662114E-1,-5.986479297E-2,-1.841496825E-1
2.403284944E1,-3.756646812E-1,6.232570857E-2,-3.788411617E-1
2.405284944E1,-5.790478587E-1,2.003986984E-1,-4.948183000E-1
2.407284944E1,-4.888667166E-1,2.503674924E-1,-4.620235562E-1
2.409284944E1,-3.131818771E-1,2.221280485E-1,-3.320488930E-1
2.411284944E1,-2.183232307E-1,1.901885271E-1,-1.978679746E-1
2.413284944E1,-1.672374457E-1,1.417556405E-1,-5.963790044E-2
2.415284944E1,5.829399452E-3,4.640830308E-2,9.129817039E-2
2.417284944E1,2.723411620E-1,-3.803072497E-2,2.470513582E-1
2.419284944E1,5.138249397E-1,-1.784250140E-1,3.268303573E-1
2.421284944E1,6.756867766E-1,-2.739119828E-1,3.365692794E-1
2.423284944E1,6.862983704E-1,-3.301290274E-1,3.055547774E-1
2.425284944E1,5.502848625E-1,-3.882135749E-1,2.459692508E-1
2.427284944E1,2.719397545E-1,-4.652000666E-1,1.032362282E-1
2.429284944E1,-8.272860199E-3,-5.441412926E-1,-6.928957067E-3
2.431285100E1,-1.642180234E-1,-5.262691379E-1,-5.916666240E-2
2.433486662E1,-1.721069217E-1,-7.062475085E-1,-2.680825815E-2
2.435685100E1,2.391101094E-3,-1.018347263E0,1.106015146E-1
2.437685100E1,1.048768312E-1,-1.067897201E0,2.042558789E-1
2.439884944E1,4.031710327E-3,-4.380427301E-1,1.774301678E-1
2.441884944E1,-2.549227774E-1,3.263940215E-1,1.099208370E-1
2.443884944E1,-6.878865957E-1,6.829124093E-1,-1.258033365E-1
2.445884944E1,-8.929453492E-1,7.963762879E-1,-5.207887888E-1
2.447884944E1,-5.234416723E-1,8.516682982E-1,-5.511400700E-1
2.449884944E1,2.186024934E-1,7.110995054E-1,-1.498365104E-1
2.451884944E1,5.790304542E-1,1.036725566E-1,1.658586413E-1
2.453884944E1,4.288099408E-1,-2.204525322E-1,-9.004153311E-2
2.455885100E1,6.881833076E-2,1.536238790E-1,-6.717946529E-1
2.458084944E1,-2.707005739E-1,6.757565737E-1,-1.099313021E0
2.460085100E1,-3.982143104E-1,8.576896787E-1,-1.091912866E0
2.462085100E1,-3.460289836E-1,5.335820317E-1,-8.488234282E-1
2.464085100E1,-2.401398569E-1,-1.169370604E-3,-5.786813498E-1
2.466284944E1,-7.574728876E-2,-6.007423252E-2,-3.991393447E-1
2.468284944E1,1.076344550E-1,2.874906361E-1,-2.607870996E-1
2.470284944E1,2.651853263E-1,5.112941861E-1,3.354522958E-2
2.472284944E1,2.899515331E-1,4.199436605E-1,2.642952204E-1
2.474284944E1,1.928239763E-1,2.036101073E-1,2.989050746E-1
2.476284944E1,6.522295624E-2,2.031563222E-2,2.312386781E-1
2.478284944E1,-5.387831479E-2,-4.399975017E-2,1.844813079E-1
2.480284944E1,-1.959481090E-1,-8.939576149E-2,2.512575984E-1
2.482285100E1,-2.286381274E-1,-8.826129884E-2,3.792600334E-1
2.484484944E1,-1.965938807E-1,-1.417381912E-1,4.914498031E-1
2.486485100E1,-2.446427941E-1,-1.110552996E-1,5.112767220E-1
2.488684944E1,-4.561243355E-1,3.352253735E-1,3.854734302E-1
2.490684944E1,-5.509655476E-1,7.608937621E-1,2.115339041E-1
2.492684944E1,-3.935368359E-1,3.747221828E-1,3.751061559E-1
2.494684944E1,2.001892589E-2,-6.127327681E-1,5.754874349E-1
2.496684944E1,5.714557171E-1,-1.068054199E0,4.552167654E-1
2.498684944E1,9.426523447E-1,-7.639480829E-1,4.085815847E-1
2.500684944E1,8.288568854E-1,-3.138450980E-1,5.290616751E-1
2.502684944E1,2.898992002E-1,-1.292241812E-1,5.570218563E-1
2.504684944E1,-2.598620653E-1,-1.191536263E-1,3.083996773E-1
2.506684944E1,-4.528082311E-1,-2.261946723E-2,4.904375412E-3
2.508684944E1,-4.180761576E-1,7.892379165E-2,-7.864453644E-2
2.510684944E1,-2.948559225E-1,1.578301191E-1,9.644689411E-2
2.512684944E1,-1.320865154E-1,2.408030778E-1,2.672797143E-1
2.514684944E1,4.415682983E-3,2.591115832E-1,3.405137360E-1
2.516684944E1,4.913101718E-2,1.813397110E-1,2.645919025E-1
2.518684944E1,1.292939931E-1,1.297303289E-1,1.332035214E-1
2.520685100E1,3.071255982E-1,6.131341681E-2,4.663519561E-2
2.522884944E1,6.144257188E-1,-4.075343907E-2,6.981316954E-2
2.524884944E1,7.504217625E-1,-9.489355236E-2,1.157676876E-1
2.526884944E1,6.202376485E-1,-1.330813617E-1,1.322959512E-1
2.528884944E1,4.196295142E-1,-1.623505205E-1,1.030267850E-1
2.530884944E1,2.464055866E-1,-3.438822329E-1,-8.185594343E-3
2.532884944E1,1.212480217E-1,-6.876597404E-1,-9.075712413E-2
2.534884944E1,9.784315526E-2,-8.906939030E-1,-1.237263903E-1
2.536884944E1,8.817403018E-2,-8.594699502E-1,-2.231403440E-1
2.538884944E1,-8.557349443E-2,-5.964662433E-1,-2.912780046E-1
2.540885100E1,-3.098832071E-1,-2.344151735E-1,-9.658651799E-2
2.543084944E1,-3.357490003E-1,1.221032366E-1,1.828057915E-1
2.545084944E1,-3.513696790E-1,-2.487094142E-2,2.794621289E-1
2.547084944E1,-5.065818429E-1,-5.557826161E-1,1.103571653E-1
2.549084944E1,-5.913000703E-1,-8.344942927E-1,-2.999348342E-1
2.551084944E1,-3.840422332E-1,-4.717450440E-1,-5.827654600E-1
2.553084944E1,1.785471849E-2,-5.235987715E-3,-4.118278921E-1
2.555084944E1,2.956762314E-1,1.728574038E-1,2.361430414E-2
2.557084944E1,1.838529855E-1,-2.121622264E-1,1.040914357E-1
2.559084944E1,-7.649777830E-2,-4.190884531E-1,-2.599144280E-1
2.561084944E1,-1.470789015E-1,-5.459389836E-2,-6.920928359E-1
2.563084944E1,-1.372177899E-1,4.210257828E-1,-8.332725167E-1
2.565084944E1,-1.743234843E-1,6.951646209E-1,-7.057936788E-1
2.567084944E1,-2.419026345E-1,6.679723859E-1,-5.024279356E-1
2.569084944E1,-2.853089571E-1,4.132939577E-1,-3.835186362E-1
2.571084944E1,-2.174854726E-1,1.689653248E-1,-3.777939677E-1
2.573084944E1,-5.986479111E-3,1.329940930E-2,-3.742334843E-1
2.575084944E1,2.486395985E-1,-2.808234841E-2,-3.124488294E-1
2.577084944E1,3.857526779E-1,-5.567600485E-3,-1.891936958E-1
2.579084944E1,3.079458773E-1,8.602727950E-2,-2.778564207E-2
2.581084944E1,9.271188825E-2,4.483750835E-2,5.658357590E-2
2.583084944E1,-6.370452046E-2,-1.417905539E-1,9.627236426E-2
2.585084944E1,-9.442231059E-2,-3.318569064E-1,1.279500872E-1
2.587085100E1,-6.857398897E-2,-2.460041642E-1,7.353071868E-2
2.589284944E1,2.515019476E-2,1.275661141E-1,1.544441879E-1
2.591284944E1,1.688082516E-1,3.849498332E-1,3.914249837E-1
2.593284944E1,2.930756807E-1,4.344124496E-1,5.406157374E-1
2.595284944E1,2.977008224E-1,3.091152608E-1,5.979672670E-1
2.597284944E1,1.210734919E-1,1.794023961E-1,5.143659711E-1
2.599284944E1,-1.401324868E-1,-7.194247097E-2,3.090803623E-1
2.601284944E1,-1.598721594E-1,-3.033382297E-1,1.631533802E-1
2.603284944E1,3.065845370E-1,-1.820029318E-1,2.824117243E-1
2.605284944E1,7.777710557E-1,-1.385791413E-2,6.028890610E-1
2.607284944E1,6.247406006E-1,-2.885203660E-1,8.066388369E-1
2.609284944E1,1.363102198E-1,-5.380151868E-1,5.937784910E-1
2.611284944E1,-2.438923120E-1,-4.859345555E-1,1.650383323E-1
2.613284944E1,-3.463780284E-1,-1.589994878E-1,-8.728391677E-2
2.615285100E1,-2.654122114E-1,1.067617908E-1,7.417649496E-3
2.617285100E1,-6.723008305E-2,2.311688513E-1,2.780309618E-1
2.619484944E1,1.942725927E-1,2.785894573E-1,4.671199322E-1
2.621484944E1,3.703588545E-1,3.139149249E-1,4.581489265E-1
2.623484944E1,3.854559660E-1,2.425833046E-1,3.502875865E-1
2.625486194E1,3.121521473E-1,1.588424146E-1,2.733185589E-1
2.627684944E1,2.552020550E-1,7.058111578E-2,1.997180283E-1
2.629684944E1,2.806663811E-1,-1.282817032E-2,1.455255598E-1
2.631685100E1,2.959380150E-1,-1.462934911E-1,1.125039235E-1
2.633685100E1,2.055474222E-1,-3.578448594E-1,6.255260110E-2
2.635884944E1,4.845033959E-2,-5.716651678E-1,3.281218931E-3
2.637884944E1,-8.131489158E-2,-5.677207112E-1,-4.036946595E-2
2.639884944E1,-1.998227388E-1,-3.877074420E-1,-3.666936606E-2
2.641884944E1,-3.924198151E-1,-4.101000130E-1,-2.017600648E-2
2.643884944E1,-5.485220551E-1,-5.992587805E-1,-1.446877979E-2
2.645884944E1,-5.192005634E-1,-6.673790216E-1,-4.262094200E-2
2.647884944E1,-4.345695376E-1,-3.973067403E-1,-1.002517119E-1
2.649884944E1,-4.744677544E-1,-2.036799304E-2,-1.012116447E-1
2.651884944E1,-7.231248021E-1,6.974335760E-2,-2.720444798E-1
2.653884944E1,-9.567545652E-1,7.440338284E-2,-7.087084055E-1
2.655884944E1,-8.215613961E-1,3.566056788E-1,-1.017701507E0
2.657884944E1,-4.183379710E-1,5.003858805E-1,-9.612400532E-1
2.659884944E1,-2.159495950E-1,2.230181694E-1,-7.961843014E-1
2.661884944E1,-6.442359090E-1,-3.511776924E-1,-8.872904778E-1
2.663884944E1,-9.399296045E-1,-3.170041442E-1,-1.203945518E0
2.665885100E1,-6.894923449E-1,7.435102481E-3,-1.376558661E0
2.668084944E1,-2.993065119E-1,3.770434856E-1,-1.114829063E0
2.670084944E1,-1.676214188E-1,5.301437378E-1,-6.517931819E-1
2.672084944E1,-9.028588235E-2,5.819276571E-1,-4.057890475E-1
2.674084944E1,7.635815442E-2,6.090326309E-1,-3.419623673E-1
2.676084944E1,1.626123190E-1,4.679751396E-1,-3.325550258E-1
2.678084944E1,1.655968428E-1,2.633178234E-1,-2.723411620E-1
2.680085100E1,2.184279561E-1,1.073901057E-1,-1.193805188E-1
2.682085100E1,3.411944211E-1,4.073598608E-2,4.272565991E-2
2.684284944E1,3.334625959E-1,-7.707373798E-2,1.539205909E-1
2.686284944E1,1.715134978E-1,-2.898992002E-1,1.767669469E-1
2.688284944E1,-1.024508290E-2,-5.618040562E-1,1.085245758E-1
2.690284944E1,-1.484227926E-1,-7.438593507E-1,-2.663372457E-2
2.692284944E1,-1.454382837E-1,-7.120769024E-1,-2.274862081E-1
2.694284944E1,6.206390634E-2,-3.818605840E-1,-1.660506278E-1
2.696284944E1,2.925171852E-1,1.620189101E-1,1.502728462E-1
2.698284944E1,2.808409333E-1,6.799453497E-1,4.471533597E-1
2.700284944E1,1.743234843E-1,8.446521163E-1,4.769810438E-1
2.702284944E1,1.560324337E-2,4.566479325E-1,1.417730898E-1
2.704284944E1,-1.932079494E-1,-3.374070525E-1,-3.114888966E-1
2.706284944E1,-6.094689667E-2,-6.515313983E-1,-4.890063405E-1
2.708284944E1,5.892929435E-1,-3.278600872E-1,-1.654921174E-1
2.710284944E1,1.027091384E0,8.337438107E-2,5.096186996E-1
2.712284944E1,7.290589213E-1,-7.967428118E-2,8.728216887E-1
2.714284944E1,2.208365053E-1,-1.437802166E-1,7.040134668E-1
2.716284944E1,-1.117010717E-3,7.791149616E-2,3.918787837E-1
2.718284944E1,-7.234390080E-2,4.087212086E-1,3.332531750E-1
2.720284944E1,-3.963642567E-2,6.420193911E-1,4.993386865E-1
2.722284944E1,1.388409436E-1,6.643421054E-1,5.631304979E-1
2.724285100E1,4.073598385E-1,5.320461392E-1,6.483200192E-1
2.726285100E1,6.494195461E-1,1.808161139E-1,6.781302094E-1
2.728485725E1,7.429342866E-1,-1.524719596E-1,4.460887015E-1
2.730685100E1,3.895051181E-1,-2.918190360E-1,4.752531648E-2
2.732685100E1,-1.780235791E-3,-8.970992267E-2,-2.437352240E-1
2.734685100E1,-9.594074637E-2,2.548878789E-1,-2.389006615E-1
2.736685100E1,1.069712266E-1,5.492725372E-1,4.529129341E-2
2.738884944E1,2.644173801E-1,5.239129066E-1,3.037047386E-1
2.740885100E1,2.582214475E-1,2.858325839E-1,3.880739510E-1
2.743084944E1,3.005456924E-1,-3.473205119E-2,3.459940553E-1
2.745084944E1,3.078760803E-1,-3.487342298E-1,2.965838015E-1
2.747084944E1,1.839227974E-1,-6.304478049E-1,3.410024345E-1
2.749084944E1,4.759512842E-2,-4.439419508E-1,3.698527217E-1
2.751084944E1,1.274090377E-3,-9.826203808E-3,3.596251011E-1
2.753084944E1,-1.667487621E-1,1.290321946E-1,3.718773127E-1
2.755084944E1,-4.318468273E-1,2.989749052E-2,2.208365053E-1
2.757084944E1,-6.093118787E-1,-1.872738265E-2,-1.511106044E-1
2.759084944E1,-4.121769667E-1,1.099033803E-1,-2.636319697E-1
2.761084944E1,2.629513144E-1,3.407231867E-1,1.210385859E-1
2.763084944E1,5.330933928E-1,1.326450240E-2,5.305801034E-1
2.765084944E1,3.086614907E-1,-4.416032135E-1,4.342379272E-1
2.767084944E1,1.541125681E-2,-5.013283491E-1,5.024803057E-2
2.769084944E1,-1.267807186E-1,-2.096489519E-1,-3.256959021E-1
2.771085100E1,-2.429847419E-1,2.126334608E-1,-4.400324225E-1
2.773085100E1,-4.320737123E-1,5.651724935E-1,-3.513522446E-1
2.775284944E1,-5.644220114E-1,7.116580009E-1,-2.749068141E-1
2.777284944E1,-5.345943570E-1,6.837152839E-1,-3.376165032E-1
2.779284944E1,-3.995407820E-1,5.244539976E-1,-3.262543976E-1
2.781285100E1,-1.801877916E-1,2.545562685E-1,-1.974141896E-1
2.783285100E1,-2.562143281E-2,4.223696887E-2,-6.524040550E-2
2.785486350E1,-1.837831736E-2,3.892084118E-3,3.361504152E-2
2.787684944E1,-1.009498462E-1,1.012465507E-1,7.881906629E-2
2.789685100E1,-1.507091820E-1,-6.597344577E-2,1.386315078E-1
2.791884944E1,-1.790009737E-1,-5.872684121E-1,1.939933449E-1
2.793884944E1,-9.066985548E-2,-7.786611915E-1,2.038544565E-1
2.795884944E1,7.576474547E-2,-6.132040024E-1,2.325476706E-1
2.797884944E1,3.703239560E-1,-2.578375041E-1,3.451039493E-1
2.799884944E1,6.426476836E-1,4.314453900E-2,4.632976353E-1
2.801884944E1,7.306122780E-1,3.267430961E-1,4.768413901E-1
2.803884944E1,6.981840730E-1,6.239203215E-1,2.762157917E-1
2.805885100E1,4.826533496E-1,5.341929197E-1,5.688028038E-2
2.807889319E1,3.834139407E-1,2.253918201E-1,-1.433613449E-1
2.810084944E1,7.960272431E-1,1.478293911E-2,-9.073966742E-2
2.812084944E1,1.160312295E0,-4.595451802E-2,2.794272006E-1
2.814084944E1,9.845576882E-1,5.427973811E-3,6.829298735E-1
2.816084944E1,2.043780498E-2,-2.786069214E-1,7.585899234E-1
2.818084944E1,-8.731707931E-1,-4.791452289E-1,5.086413026E-1
2.820084944E1,-1.062748432E0,-2.447300702E-1,8.166395873E-2
2.822084944E1,-8.881108165E-1,1.740616858E-1,-9.861110151E-2
2.824084944E1,-8.215264678E-1,5.304055810E-1,8.382816613E-2
2.826084944E1,-7.205591798E-1,6.595948339E-1,3.281742632E-1
2.828084944E1,-3.976907134E-1,5.515589714E-1,4.612556100E-1
2.830084944E1,-2.012364566E-2,3.504970074E-1,4.951499104E-1
2.832084944E1,2.363001257E-1,1.094670519E-1,4.706803858E-1
2.834084944E1,3.060609400E-1,-9.131562710E-2,4.091051817E-1
2.836085100E1,2.634749115E-1,-1.789311469E-1,3.475648761E-1
2.838284944E1,1.747423708E-1,-1.794722080E-1,2.766521275E-1
2.840284944E1,1.155233458E-1,-1.976061761E-1,1.745329201E-1
2.842285256E1,4.457570985E-2,-3.495720029E-1,8.534660190E-2
2.844484944E1,-3.598868847E-2,-4.919210374E-1,-2.885029279E-2
2.846484944E1,-1.274439394E-1,-3.146479428E-1,-7.784168236E-3
2.848484944E1,-2.844537497E-1,-5.609488115E-2,5.712462589E-2
2.850485100E1,-4.933347702E-1,2.044827789E-1,6.740461290E-2
2.852684944E1,-5.231624246E-1,7.248352468E-2,9.070476145E-2
2.854684944E1,-2.626720369E-1,-1.828406900E-1,1.371654272E-1
2.856684944E1,9.297368675E-2,-2.910336554E-1,2.104168981E-1
2.858684944E1,1.577777565E-1,-2.543642819E-1,1.964018941E-1
2.860684944E1,-3.483677283E-2,-1.471661627E-1,9.599310579E-4
2.862684944E1,1.738173366E-1,6.721262634E-2,-1.470789015E-1
2.864684944E1,8.136550188E-1,1.523672417E-2,6.503096968E-2
2.866684944E1,1.247892976E0,-2.950828075E-1,4.580267668E-1
2.868684944E1,1.053201437E0,-6.234490871E-1,6.112666726E-1
2.870684944E1,6.557725668E-1,-3.477045000E-1,3.425732255E-1
2.872684944E1,2.843490541E-1,2.176600099E-1,-1.524894089E-1
2.874684944E1,-6.822492182E-2,7.894997001E-1,-4.780456722E-1
2.876684944E1,-3.660304546E-1,1.188115478E0,-6.265208125E-1
2.878684944E1,-5.303706527E-1,1.337602854E0,-6.963340044E-1
2.880685100E1,-6.410419941E-1,1.191867948E0,-7.476466894E-1
2.882685100E1,-5.832540989E-1,6.627538800E-1,-8.100072742E-1
2.884884944E1,-2.568775713E-1,8.457865566E-2,-8.105134368E-1
2.886884944E1,3.417354822E-2,-3.052057326E-1,-7.448890805E-1
2.888884944E1,1.084547564E-1,-4.503473043E-1,-6.435552239E-1
2.890884944E1,-1.073202938E-1,-4.370130002E-1,-5.578595996E-1
2.892884944E1,-4.143411517E-1,-4.005356133E-1,-4.745724797E-1
2.894884944E1,-5.652423501E-1,-4.031884968E-1,-4.131019711E-1
2.896884944E1,-5.036321878E-1,-5.316621661E-1,-3.269001544E-1
2.898885100E1,-2.366840988E-1,-5.024453998E-1,-2.057917714E-1
2.900885100E1,5.410520826E-4,-2.878397107E-1,-7.398450375E-2
2.902885100E1,6.002187356E-2,-1.661029905E-1,-1.492256485E-2
2.905085100E1,6.223843992E-2,-2.918190509E-2,-1.048244759E-1
2.907284944E1,1.569050997E-1,3.166201711E-1,-1.891762316E-1
2.909284944E1,2.729171216E-1,7.402988672E-1,-1.287878454E-1
2.911284944E1,3.226764798E-1,9.273981452E-1,3.529055789E-2
2.913284944E1,4.090702832E-1,6.943268776E-1,1.727701426E-1
2.915284944E1,5.236162543E-1,1.697507203E-1,1.381777227E-1
2.917284944E1,2.519208193E-1,-2.470688075E-1,-1.739569604E-1
2.919284944E1,-4.184601307E-1,-6.285279393E-1,-4.225267470E-1
2.921284944E1,-8.170759082E-1,-7.665311694E-1,-3.599567115E-1
2.923285100E1,-7.085512877E-1,-6.138148308E-1,-1.554390192E-1
2.925485256E1,-3.130946159E-1,-2.617819309E-1,7.827802002E-2
2.927684944E1,-1.137780100E-1,9.539970011E-2,3.263067603E-1
2.929684944E1,-9.145525098E-2,3.061830997E-1,4.437325001E-1
2.931685100E1,-8.890707046E-2,4.607145488E-1,3.852639794E-1
2.933884944E1,-1.081231460E-1,6.085788608E-1,1.650557816E-1
2.935884944E1,-1.142667085E-1,5.317320228E-1,-4.799655639E-3
2.937884944E1,-3.185226023E-2,2.372600585E-1,-7.461282611E-2
2.939884944E1,3.600614145E-2,-1.884082854E-1,-4.129448906E-2
2.941884944E1,6.003932655E-2,-6.441137791E-1,1.249655709E-2
2.943884944E1,1.893158704E-1,-7.389025688E-1,-2.909463830E-2
2.945884944E1,2.963743508E-1,-3.831521273E-1,-2.220058814E-2
2.947884944E1,1.344078034E-1,-1.158374995E-1,-1.443387289E-2
2.949884944E1,-2.304358184E-1,-2.977182567E-1,1.144936029E-2
2.951884944E1,-4.140444696E-1,-6.658605337E-1,-2.090904489E-2
2.953884944E1,-3.271619678E-1,-7.242941856E-1,-2.382374369E-2
2.955884944E1,-1.695936471E-1,-3.424685001E-1,1.120675877E-1
2.957884944E1,-1.291718185E-1,7.541567832E-2,3.455926478E-1
2.959884944E1,-1.600292325E-1,3.256959021E-1,6.010215878E-1
2.961884944E1,-2.288824767E-1,3.279822767E-1,7.549421787E-1
2.963884944E1,-4.130321741E-1,-9.430013597E-2,5.655564666E-1
2.965884944E1,-2.926568091E-1,-2.226865590E-1,1.200786531E-1
2.967884944E1,4.431041777E-1,3.318220079E-1,-6.667158008E-2
2.969884944E1,1.182233691E0,7.002260685E-1,4.186695814E-1
2.971884944E1,1.142265677E0,2.648537159E-1,7.874401808E-1
2.973884944E1,5.354670286E-1,-5.253440738E-1,5.672669411E-1
2.975884944E1,1.068490595E-1,-7.308740616E-1,-1.066396162E-1
2.977884944E1,-2.049016580E-2,-4.335048795E-1,-5.793794990E-1
2.979884944E1,-1.550725102E-1,4.103269055E-2,-5.847376585E-1
2.981884944E1,-3.142465353E-1,5.018519759E-1,-3.773401976E-1
2.983885100E1,-3.605501056E-1,6.044249535E-1,-2.184977680E-1
2.986084944E1,-1.685639024E-1,4.582710862E-1,-1.559277177E-1
2.988084944E1,8.313003182E-2,2.240304649E-1,-1.525941342E-1
2.990084944E1,2.405063659E-1,-1.654572040E-2,-8.909905702E-2
2.992084944E1,2.545213699E-1,-1.480039209E-1,-1.169370580E-2
2.994084944E1,1.604655683E-1,-1.588249654E-1,1.031489577E-2
2.996084944E1,-1.110029407E-2,-1.208465993E-1,4.066617228E-3
2.998084944E1,-2.023011148E-1,-1.959306598E-1,-1.021017600E-2
3.000084944E1,-2.966187000E-1,-4.421442449E-1,2.975786291E-2
3.002084944E1,-2.203129083E-1,-6.874153614E-1,5.050982907E-2
3.004084944E1,6.595598906E-2,-5.645267367E-1,7.649777830E-2
3.006084944E1,3.696432710E-1,-2.245016992E-1,2.593559325E-1
3.008084944E1,4.012686610E-1,2.406809106E-2,5.197765231E-1
3.010085100E1,2.606998384E-1,2.941752374E-1,5.119225383E-1
3.012284944E1,1.181762442E-1,5.690646172E-1,2.592337430E-1
3.014284944E1,6.108652428E-2,5.860466361E-1,4.221951589E-2
3.016284944E1,-1.277930140E-1,9.983283468E-3,-9.400343150E-2
3.018284944E1,-1.000771821E-1,-3.908141255E-1,-2.278352827E-1
3.020284944E1,3.678979576E-1,-6.193999052E-1,-1.339365691E-1
3.022284944E1,7.567921877E-1,-5.565505624E-1,2.358637899E-1
3.024284944E1,5.281017423E-1,-5.248728395E-1,5.300041437E-1
3.026285100E1,6.499606371E-2,-3.261671364E-1,3.712664247E-1
3.028485100E1,-2.709274590E-1,6.775368005E-2,-1.546361670E-2
3.030684944E1,-4.739790559E-1,3.716503978E-1,-1.501855850E-1
3.032684944E1,-4.700869918E-1,5.129871964E-1,-8.723155409E-2
3.034684944E1,-2.870194018E-1,5.420119762E-1,-3.839724232E-3
3.036684944E1,-8.333947510E-2,4.034154117E-1,6.572909653E-2
3.038685100E1,8.044222742E-2,1.923876405E-1,2.919935808E-2
3.040884944E1,2.797588110E-1,1.775523424E-1,-1.026253626E-1
3.042884944E1,4.114090204E-1,3.006329536E-1,-1.769938320E-1
3.044884944E1,4.569970071E-1,2.908765674E-1,-1.591740251E-1
3.046884944E1,4.138524830E-1,2.422866076E-1,-1.775174439E-1
3.048884944E1,2.001368999E-1,1.868025959E-1,-2.382374406E-1
3.050884944E1,-3.207915276E-2,-4.932300374E-2,-3.328692019E-1
3.052884944E1,-1.078788042E-1,-3.589444160E-1,-4.165053666E-1
3.054884944E1,-5.630432069E-2,-4.954815209E-1,-3.674267232E-1
3.056884944E1,-5.893976986E-2,-4.209210575E-1,-1.878846884E-1
3.058884944E1,-2.434036136E-1,-3.202504516E-1,1.129228063E-2
3.060884944E1,-4.635419846E-1,-2.651504278E-1,3.820525855E-2
3.062884944E1,-4.983264208E-1,-2.150769234E-1,-5.714207888E-2
3.064884944E1,-3.910759389E-1,-1.061683744E-1,-8.604472876E-2
3.066884944E1,-3.716503978E-1,4.679227620E-2,1.677261479E-2
3.068884944E1,-4.854458869E-1,1.616174914E-2,-7.068583369E-2
3.070885100E1,-2.799333632E-1,2.680825815E-2,-3.010518551E-1
3.073084944E1,5.284158587E-1,2.676462531E-1,-2.830400467E-1
3.075084944E1,8.572359085E-1,2.944719493E-1,-9.306095541E-2
3.077084944E1,2.360732406E-1,-2.820452154E-1,-1.181064323E-1
3.079084944E1,-5.071577430E-1,-4.571366310E-1,-5.523617864E-1
3.081085100E1,-8.368853927E-1,-1.349488646E-1,-1.134411693E0
3.083085100E1,-9.020908475E-1,3.559424579E-1,-1.349802732E0
3.085284944E1,-7.748912573E-1,7.325146794E-1,-1.068874478E0
3.087284944E1,-4.582710862E-1,6.919707060E-1,-6.379527450E-1
3.089284944E1,-6.693337858E-2,2.920459509E-1,-2.671400905E-1
3.091284944E1,1.913055331E-1,-2.247809470E-1,-6.373942643E-2
3.093284944E1,3.160616755E-1,-4.692841172E-1,-5.721189082E-2
3.095284944E1,3.133563995E-1,-4.145157039E-1,-1.065698043E-1
3.097284944E1,1.490860283E-1,-3.272317946E-1,-1.773603559E-1
3.099284944E1,-9.529497474E-2,-3.264638484E-1,-1.928239763E-1
3.101284944E1,-3.435156941E-1,-5.505117774E-1,-1.826312542E-1
3.103284944E1,-4.125260115E-1,-8.614770770E-1,-1.767843962E-1
3.105284944E1,-2.457074523E-1,-1.128337860E0,-1.464331299E-1
3.107289319E1,2.286381274E-1,-7.744200230E-1,-4.305727407E-2
3.109485100E1,6.649704576E-1,-1.502902955E-1,2.181487083E-1
3.111684944E1,5.848249197E-1,4.007624984E-1,4.403291047E-1
3.113684944E1,2.843490541E-1,8.139691949E-1,3.776892424E-1
3.115684944E1,2.372251451E-1,9.958150387E-1,1.450368613E-1
3.117684944E1,3.617543876E-1,9.291609526E-1,8.585274220E-2
3.119684944E1,3.821747303E-1,4.763003588E-1,1.660157144E-1
3.121684944E1,4.302585721E-1,-1.455080956E-1,1.368512660E-1
3.123684944E1,6.968401670E-1,-3.254340887E-1,1.561022550E-1
3.125685100E1,8.014726639E-1,-2.066644430E-1,3.959454000E-1
3.127884944E1,2.685188949E-1,-3.488389552E-1,6.267477274E-1
3.129884944E1,-4.377634823E-1,-6.973811984E-1,3.804468811E-1
3.131884944E1,-6.707823873E-1,-4.966683388E-1,-1.959655732E-1
3.133885100E1,-5.515415072E-1,8.217009902E-2,-5.516636968E-1
3.136084944E1,-4.819901288E-1,6.970146894E-1,-4.598593414E-1
3.138085100E1,-2.515194118E-1,8.817927241E-1,-8.861036599E-2
3.140085100E1,1.896474808E-1,6.895796061E-1,3.046646714E-1
3.142284944E1,6.992138028E-1,2.664070427E-1,4.916941524E-1
3.144285100E1,9.576621652E-1,-7.941247895E-3,3.874979913E-1
3.146484944E1,9.786235690E-1,-1.839577034E-2,2.239082903E-1
3.148485569E1,8.697150350E-1,9.608037770E-2,1.419476271E-1
3.150684944E1,6.093642712E-1,3.808308393E-2,8.581783623E-2
3.152684944E1,4.165402651E-1,-1.800481677E-1,3.483677283E-2
3.154684944E1,3.130771518E-1,-3.733084798E-1,-1.107062325E-1
3.156684944E1,9.958848357E-2,-4.325973094E-1,-3.063576519E-1
3.158684944E1,-1.290496439E-1,-3.270398080E-1,-4.543441236E-1
3.160684944E1,-2.580818236E-1,-2.285334170E-1,-4.233470559E-1
3.162684944E1,-3.058689535E-1,-2.432989031E-1,-1.693143845E-1
3.164685100E1,-2.406809032E-1,-9.930923581E-2,9.529497474E-2
3.166685100E1,-1.249481216E-1,2.055648714E-1,2.088984549E-1
3.168884944E1,-2.340486459E-2,5.284682512E-1,3.095515966E-1
3.170885100E1,-2.059139460E-1,2.822721004E-1,2.578025758E-1
3.173084944E1,-4.676260650E-1,4.303981736E-2,-8.299040794E-2
3.175084944E1,-2.020742148E-1,2.700198889E-1,-2.621659040E-1
3.177084944E1,3.560122550E-1,3.404613733E-1,-1.334129721E-1
3.179084944E1,6.111095548E-1,-2.535963431E-2,7.075564563E-2
3.181085100E1,3.869394958E-1,-4.526336789E-1,2.775073517E-3
3.183085100E1,1.626646891E-2,-3.864158988E-1,-3.594505489E-1
3.185284944E1,-2.725506127E-1,1.385093331E-1,-7.076960802E-1
3.187284944E1,-4.764748812E-1,5.760110021E-1,-7.995702624E-1
3.189284944E1,-6.824761033E-1,7.836353779E-1,-7.520972490E-1
3.191284944E1,-8.649677038E-1,7.149217725E-1,-6.867172718E-1
3.193284944E1,-7.758337855E-1,4.526162446E-1,-6.280741692E-1
3.195284944E1,-4.355294704E-1,1.545314491E-1,-5.260771513E-1
3.197284944E1,-1.018748656E-1,-1.989675313E-1,-3.728023171E-1
3.199285256E1,8.623671532E-2,-4.852364361E-1,-2.145707756E-1
3.201484944E1,1.772905439E-1,-5.013458133E-1,-1.677610427E-1
3.203485256E1,1.890366077E-1,-2.286206782E-1,-1.461015046E-1
3.205485256E1,9.894271195E-2,-9.009389579E-2,-1.543220133E-1
3.207485569E1,-1.300270297E-2,-1.135511175E-1,-1.969953179E-1
3.209485569E1,-9.655161202E-2,-1.476723105E-1,-1.140223593E-1
3.211684944E1,-5.427973811E-3,-7.145377994E-2,5.314527452E-2
3.213684944E1,2.277480066E-1,-3.249803185E-2,2.046922147E-1
3.215684944E1,3.521376252E-1,-6.555456668E-2,2.552369535E-1
3.217684944E1,3.522248864E-1,-1.753706783E-1,1.694540232E-1
3.219684944E1,3.944269419E-1,-2.972993851E-1,1.118756011E-1
3.221684944E1,3.911282718E-1,-1.523497850E-1,1.420523524E-1
3.223685100E1,9.217083454E-2,-4.310963303E-2,7.618362457E-2
3.225685100E1,-1.658935398E-1,1.053306237E-1,-2.560397983E-2
3.227685100E1,-2.380629070E-2,3.434807956E-1,4.298745841E-2
3.229685100E1,2.978229821E-1,3.938335478E-1,2.902482450E-1
3.231685100E1,4.918686748E-1,9.278170019E-2,5.529377460E-1
3.233685100E1,3.806214035E-1,-2.641904950E-1,7.023553848E-1
3.235884944E1,5.455899239E-2,-4.248480499E-1,6.573607922E-1
3.237885100E1,-2.244842499E-1,-4.497538805E-1,4.432612658E-1
3.240084944E1,-4.190535545E-1,-3.603406847E-1,1.952150762E-1
3.242084944E1,-4.530525804E-1,-1.158374995E-1,4.522148147E-2
3.244084944E1,-3.617892861E-1,1.668709219E-1,8.470083028E-2
3.246084944E1,-2.726029754E-1,4.673817158E-1,1.886177361E-1
3.248084944E1,-3.233397007E-1,5.919109583E-1,1.650383323E-1
3.250084944E1,-3.415085673E-1,4.220031500E-1,1.651081443E-2
3.252084944E1,-1.043706909E-1,2.720270157E-1,-5.703736097E-2
3.254084944E1,9.421287477E-2,3.156951666E-1,-6.564183533E-2
3.256084944E1,1.059938446E-1,2.934247553E-1,-9.829694033E-2
3.258084944E1,1.082453206E-1,2.088984549E-1,-1.348092258E-1
3.260084944E1,1.345648915E-1,1.141445339E-1,-2.152689099E-1
3.262084944E1,3.148574010E-2,7.138396800E-2,-3.436204195E-1
3.264084944E1,-1.713389754E-1,-5.037020147E-2,-4.668581188E-1
3.266084944E1,-2.553067505E-1,-2.754827738E-1,-5.244888663E-1
3.268084944E1,-1.857204884E-1,-4.553913176E-1,-5.453106761E-1
3.270084944E1,-8.223991096E-2,-2.506292760E-1,-4.939979911E-1
3.272084944E1,2.951351739E-2,6.649704278E-2,-3.428001106E-1
3.274084944E1,5.091125518E-2,2.644348443E-1,-1.636944264E-1
3.276084944E1,-1.664520502E-1,2.875255346E-1,-4.328416660E-2
3.278084944E1,-5.623276234E-1,-1.105840579E-1,-2.871764600E-1
3.280085100E1,-6.311284900E-1,-8.159413934E-2,-6.836454868E-1
3.282085100E1,-2.442413718E-1,1.916196942E-1,-7.302632332E-1
3.284284944E1,2.757794857E-1,2.280796319E-1,-2.615550458E-1
3.286284944E1,3.992266059E-1,-1.727177799E-1,4.749041051E-2
3.288284944E1,2.217615396E-1,-3.467445672E-1,-5.738642439E-2
3.290284944E1,-1.118930578E-1,-1.269028932E-1,-4.018271565E-1
3.292284944E1,-3.709173799E-1,2.490410358E-1,-5.966408253E-1
3.294284944E1,-4.145680666E-1,5.548576117E-1,-5.946336985E-1
3.296284944E1,-3.399377763E-1,6.780080795E-1,-4.484100044E-1
3.298284944E1,-2.683792710E-1,6.576575041E-1,-2.738596201E-1
3.300284944E1,-1.986708343E-1,4.079881608E-1,-1.741664112E-1
3.302284944E1,-6.126105785E-3,9.018116444E-2,-1.338318437E-1
3.304285100E1,1.392423660E-1,-3.448770568E-2,-1.086467430E-1
3.306484944E1,8.134979755E-2,-2.712241560E-2,-4.694935679E-2
3.308485100E1,-4.780456796E-2,-5.510004610E-2,-2.289872058E-2
3.310684944E1,-1.934522986E-1,-2.660405338E-1,-4.141666368E-2
3.312684944E1,-2.144835144E-1,-5.503895879E-1,-8.782497048E-2
3.314684944E1,-5.895722285E-2,-7.426550388E-1,-9.257226437E-2
3.316685100E1,2.279923558E-1,-7.539997101E-1,2.558652684E-2
3.318884944E1,4.814665318E-1,-6.296449900E-1,2.812423408E-1
3.320884944E1,5.886821151E-1,-5.151164532E-1,4.613079727E-1
3.322884944E1,5.209109783E-1,-3.494847417E-1,5.578072071E-1
3.324884944E1,3.266383708E-1,-6.993534416E-2,5.209109783E-1
3.326884944E1,1.676039696E-1,3.268478215E-1,4.102919996E-1
3.328884944E1,5.131267942E-3,3.688229620E-1,3.568500280E-1
3.330884944E1,-1.211258471E-1,-2.190388180E-2,3.342829049E-1
3.332884944E1,1.397136003E-1,-1.817760468E-1,4.274136722E-1
3.334884944E1,5.314353108E-1,-1.845511198E-1,6.546381116E-1
3.336884944E1,5.133885741E-1,-2.840348780E-1,8.135677576E-1
3.338884944E1,5.754350498E-2,-3.742509484E-1,6.915692687E-1
3.340884944E1,-5.155876875E-1,-3.731688559E-1,2.840348780E-1
3.342884944E1,-8.652120829E-1,-2.175901979E-1,-6.181956083E-2
3.344884944E1,-9.529497623E-1,-9.110618383E-2,-7.264060527E-2
3.346884944E1,-7.127575278E-1,-1.708677411E-2,1.450194120E-1
3.348884944E1,-3.286105990E-1,1.008800268E-1,4.206418097E-1
3.350884944E1,-3.652974218E-2,2.301042080E-1,4.924969971E-1
3.352884944E1,3.604104742E-2,3.462384045E-1,4.147251248E-1
3.354884944E1,1.535889693E-3,3.431666493E-1,2.764776051E-1
3.356884944E1,9.318313003E-2,2.780483961E-1,1.988453567E-1
3.358884944E1,2.685712576E-1,1.413542181E-1,1.455779076E-1
3.360884944E1,4.716752172E-1,9.576621652E-2,1.492954642E-1
3.362884944E1,5.143136382E-1,5.682792142E-2,1.192583442E-1
3.364884944E1,3.074397445E-1,-3.855432197E-2,6.504841894E-2
3.366885412E1,-4.455825686E-2,-2.486047000E-1,-2.862340026E-2
3.369084944E1,-1.082278639E-1,-1.842893213E-1,-1.425061375E-1
3.371084944E1,1.764527895E-2,1.288227588E-1,-1.128704399E-1
3.373085100E1,-1.942551509E-2,2.219360620E-1,8.592256159E-2
3.375284944E1,-1.841671467E-1,4.532619938E-2,1.810953617E-1
3.377284944E1,-1.627344936E-1,-6.003932655E-2,4.569271952E-2
3.379284944E1,-3.316125646E-2,1.147903055E-1,-1.858775690E-2
3.381285100E1,-6.012659147E-2,2.898642719E-1,1.593834609E-1
3.383285100E1,-3.322408795E-1,1.702394187E-1,1.375494003E-1
3.385485725E1,-4.031361639E-1,-4.089306295E-2,-2.779436707E-1
3.387684944E1,-6.101670861E-2,3.588397056E-2,-5.422388911E-1
3.389685100E1,9.656906873E-2,-4.754276946E-2,-4.822170138E-1
3.391884944E1,-7.429866493E-2,-2.046224028E-1,-5.075243115E-1
3.393884944E1,-3.444407284E-1,-1.562767774E-1,-8.219453692E-1
3.395884944E1,-7.015351057E-1,4.511675984E-2,-1.172267795E0
3.397884944E1,-8.986700177E-1,2.474353313E-1,-1.310323358E0
3.399884944E1,-7.980169058E-1,4.014431834E-1,-1.245589137E0
3.401885725E1,-5.590813160E-1,3.939731717E-1,-1.014490128E0
3.404084944E1,-3.109827638E-1,1.784948260E-1,-7.705104947E-1
3.406085100E1,-1.694191098E-1,-2.124763876E-1,-7.070852518E-1
3.408085100E1,-5.024803057E-2,-3.088185489E-1,-7.086909413E-1
3.410085100E1,2.647664398E-2,-2.479763776E-1,-6.746570468E-1
3.412285100E1,6.078981608E-2,-9.759881347E-2,-5.411393046E-1
3.414485412E1,4.335397854E-2,-1.199564785E-1,-3.427652121E-1
3.416684944E1,1.417207345E-2,-4.876450002E-1,-3.548429012E-1
3.418685100E1,9.649925679E-2,-6.784793139E-1,-4.609938264E-1
3.420685412E1,1.366767287E-1,-6.626142263E-1,-4.363497794E-1
3.422687131E1,2.033483088E-1,-3.283662498E-1,-2.905624211E-1
3.424884944E1,2.128254473E-1,8.679522574E-2,-1.772556454E-1
3.426885100E1,2.036973834E-1,4.258428812E-1,-1.877101660E-1
3.429084944E1,2.866528630E-1,7.245908976E-1,-2.822546363E-1
3.431085100E1,3.360282481E-1,8.270940781E-1,-1.689653248E-1
3.433085100E1,2.456027269E-1,7.997622490E-1,5.028293654E-2
3.435284944E1,-2.309070528E-2,2.936167419E-1,1.587202400E-1
3.437285100E1,-1.588249579E-3,-1.513898522E-1,5.597271025E-2
3.439485100E1,3.893654943E-1,-1.502553970E-1,9.847147763E-2
3.441485725E1,5.621007085E-1,-1.117708832E-1,4.014606476E-1
3.443685100E1,2.903529704E-1,-3.478266597E-1,7.487288117E-1
3.445685100E1,-1.966636926E-1,-6.283534169E-1,6.352474689E-1
3.447685100E1,-4.989198148E-1,-5.791700482E-1,1.432042718E-1
3.449885100E1,-5.875301957E-1,-2.323905826E-1,-2.860245705E-1
3.452084944E1,-4.966159761E-1,2.364571989E-1,-2.312212139E-1
3.454085100E1,-2.176250964E-1,4.815188944E-1,4.810127243E-2
3.456085100E1,1.233249679E-1,4.237484932E-1,2.736327052E-1
3.458085100E1,3.344399929E-1,1.431519091E-1,2.640857697E-1
3.460085100E1,3.987204731E-1,3.361504152E-2,1.221032366E-1
3.462285100E1,3.419623673E-1,6.958627701E-2,-1.387536712E-2
3.464485100E1,2.323905826E-1,6.888814270E-2,-6.120869517E-2
3.466684944E1,1.781806648E-1,3.223622963E-2,-1.330988109E-1
3.468684944E1,1.310567707E-1,-6.899286807E-2,-2.194751501E-1
3.470684944E1,1.939060725E-2,-3.501130342E-1,-3.069685102E-1
3.472684944E1,-6.810274720E-2,-6.547428370E-1,-4.069758654E-1
3.474684944E1,-1.833642870E-1,-9.064716697E-1,-5.179962516E-1
3.476684944E1,-2.537010610E-1,-8.874650002E-1,-4.366988242E-1
3.478684944E1,-1.391551048E-1,-4.176223874E-1,-1.518611014E-1
3.480684944E1,9.592329711E-2,1.807288378E-1,2.034006715E-1
3.482684944E1,2.648362517E-1,4.932998717E-1,5.098630190E-1
3.484684944E1,5.153957382E-2,5.544911027E-1,5.071403384E-1
3.486684944E1,-5.352226496E-1,1.777617782E-1,1.397834122E-1
3.488684944E1,-8.752302527E-1,-2.587799728E-1,-5.689074993E-1
3.490684944E1,-5.406332016E-1,-3.413340449E-1,-9.533686638E-1
3.492684944E1,1.890889704E-1,-1.986708343E-1,-8.009315729E-1
3.494684944E1,6.107255816E-1,-1.229933500E-1,-3.633426428E-1
3.496684944E1,3.060609400E-1,-5.262167454E-1,-2.791130543E-1
3.498684944E1,-2.707005739E-1,-9.091245532E-1,-6.703634858E-1
3.500684944E1,-6.895272136E-1,-8.698720932E-1,-1.184938908E0
3.502685100E1,-8.661720157E-1,-4.776442647E-1,-1.540113449E0
3.504884944E1,-8.665210605E-1,4.660028964E-2,-1.552889228E0
3.506884944E1,-7.727445364E-1,3.305653632E-1,-1.334653258E0
3.508884944E1,-3.959977627E-1,2.004161626E-1,-1.125545382E0
3.510884944E1,9.677850455E-2,-6.932447851E-2,-9.106953740E-1
3.512884944E1,3.731513917E-1,-3.221354187E-1,-6.525262594E-1
3.514884944E1,4.006752372E-1,-3.059562147E-1,-4.337492287E-1
3.516884944E1,2.968805134E-1,-1.328370124E-1,-2.512750626E-1
3.518884944E1,1.669581980E-1,-8.684758097E-2,-5.822418258E-2
3.520884944E1,1.391900033E-1,-1.019097716E-1,7.534586638E-2
3.522884944E1,1.127831787E-1,-2.939832509E-1,5.635667965E-2
3.524884944E1,1.832944751E-1,-3.769736588E-1,-1.940806210E-2
3.526884944E1,3.946363926E-1,-2.364223003E-1,1.344776154E-1
3.528884944E1,4.973315597E-1,2.993239649E-2,4.465425014E-1
3.530884944E1,4.473627806E-1,3.364994824E-1,6.868394017E-1
3.532884944E1,3.655068576E-1,5.527282953E-1,6.946585178E-1
3.534884944E1,3.100751936E-1,6.432759762E-1,6.575179100E-1
3.536884944E1,1.758244634E-1,5.339486003E-1,6.959674954E-1
3.538884944E1,-9.913469851E-2,1.384395212E-1,6.953391433E-1
3.540884944E1,-1.161167547E-1,-1.869247556E-1,5.281890035E-1
3.542884944E1,2.612408698E-1,-3.704112172E-1,4.834910929E-1
3.544884944E1,7.121292353E-1,-2.780134976E-1,8.682140112E-1
3.546884944E1,7.338236570E-1,-2.156528831E-1,1.338929296E0
3.548884944E1,3.716853261E-1,-3.711093664E-1,1.315611720E0
3.550884944E1,1.057669520E-2,-3.272492290E-1,9.584999084E-1
3.552884944E1,-1.931730360E-1,-2.401573025E-2,6.535385251E-1
3.554884944E1,-3.619987369E-1,3.912853599E-1,5.564458966E-1
3.556885100E1,-5.336169600E-1,8.265704513E-1,5.285729766E-1
3.559084944E1,-6.481105685E-1,1.103065491E0,4.549898803E-1
3.561084944E1,-5.088332891E-1,9.934239388E-1,4.051432908E-1
3.563085100E1,-1.720021963E-1,5.674937963E-1,5.003335476E-1
3.565284944E1,1.936442852E-1,2.532472648E-2,6.061179638E-1
3.567284944E1,4.840670526E-1,-2.469291836E-1,5.562539101E-1
3.569284944E1,6.399948001E-1,-3.139498234E-1,4.230503440E-1
3.571284944E1,5.498310924E-1,-2.826386094E-1,3.178593516E-1
3.573284944E1,2.245191485E-1,-2.297376841E-1,1.695412844E-1
3.575284944E1,-1.291543692E-1,-1.316152811E-1,1.788962446E-2
3.577284944E1,-2.448347807E-1,6.869615614E-2,-1.003564335E-2
3.579284944E1,-1.560498923E-1,5.480333790E-2,1.283340603E-1
3.581285100E1,-7.888888009E-3,-9.384635091E-2,3.753330410E-1
3.583285256E1,1.478119344E-1,-1.164658219E-1,5.655215979E-1
3.585485100E1,2.387261391E-1,-1.181587856E-2,5.569519997E-1
3.587485412E1,9.992010146E-2,1.367989033E-1,4.440292120E-1
3.589485412E1,-2.740341425E-1,2.309594154E-1,2.372426093E-1
3.591684944E1,-5.695707202E-1,3.579495847E-1,-5.913175642E-2
3.593684944E1,-2.431941777E-1,6.437123418E-1,-1.285434961E-1
3.595685412E1,3.426604867E-1,7.733902931E-1,2.365793735E-1
3.597884944E1,4.611683488E-1,2.923426628E-1,6.570466757E-1
3.599884944E1,1.715484113E-1,-1.633279175E-1,4.988674521E-1
3.601884944E1,-1.076693609E-1,-4.942772537E-2,7.485716790E-2
3.603884944E1,-3.683517277E-1,3.215769231E-1,-2.273465842E-1
3.605885100E1,-4.553389549E-1,6.378130913E-1,-2.204350829E-1
3.608084944E1,-2.786243558E-1,7.441560030E-1,9.075712413E-3
3.610085100E1,-4.726351425E-2,6.056641340E-1,2.602984011E-1
3.612284944E1,1.344776154E-1,2.022836655E-1,4.471009970E-1
3.614284944E1,1.803972274E-1,-1.711120754E-1,4.656014740E-1
3.616284944E1,1.634675413E-1,-3.618067503E-1,4.563512504E-1
3.618284944E1,4.825835302E-2,-4.439070523E-1,4.336096048E-1
3.620284944E1,-9.499827027E-2,-4.350582063E-1,3.223448694E-1
3.622284944E1,-2.358114272E-1,-3.232698739E-1,2.247460485E-1
3.624284944E1,-2.837556303E-1,-1.853365153E-1,1.696110964E-1
3.626284944E1,-1.636071652E-1,-1.592263877E-1,1.772381812E-1
3.628284944E1,1.133940443E-1,-1.276708394E-1,3.370754421E-1
3.630284944E1,3.956137896E-1,8.464846760E-2,5.389053226E-1
3.632284944E1,5.398303270E-1,3.128677309E-1,6.085439324E-1
3.634284944E1,5.172108412E-1,4.153883457E-1,5.664116740E-1
3.636284944E1,4.374493361E-1,4.889539778E-1,3.759613633E-1
3.638284944E1,3.826459944E-1,5.271243453E-1,3.728721440E-1
3.640284944E1,4.021936655E-1,4.133986831E-1,4.840670526E-1
3.642284944E1,4.326496720E-1,2.530727386E-1,4.466297626E-1
3.644284944E1,3.395189047E-1,5.181882530E-2,5.482079387E-1
3.646284944E1,2.040813416E-1,-1.254193634E-1,8.613374233E-1
3.648284944E1,-9.201376140E-2,-3.763453364E-1,1.054981709E0
3.650284944E1,-3.920184076E-1,-5.227435827E-1,9.219876528E-1
3.652284944E1,-4.670326412E-1,-2.158274204E-1,6.537479758E-1
3.654284944E1,-5.450488925E-1,1.381253600E-1,5.166000128E-1
3.656284944E1,-5.896071196E-1,4.420744479E-1,5.257629752E-1
3.658284944E1,-4.761956334E-1,6.083170772E-1,5.953143239E-1
3.660284944E1,-2.076418251E-1,5.526584983E-1,6.933669448E-1
3.662284944E1,8.607963473E-2,3.473903239E-1,7.124259472E-1
3.664284944E1,2.559350729E-1,1.515120268E-1,6.239901185E-1
3.666284944E1,2.668084800E-1,1.284562349E-1,5.174377561E-1
3.668284944E1,1.645670980E-1,2.021265775E-1,4.078136384E-1
3.670285100E1,5.311036855E-2,2.406634539E-1,3.071779609E-1
3.672484944E1,-7.787659019E-2,1.353328228E-1,2.556907237E-1
3.674484944E1,-1.184205860E-1,-9.211847931E-2,2.373473197E-1
3.676484944E1,-3.480186686E-2,-4.119849801E-1,1.895253062E-1
3.678485100E1,1.668883860E-1,-6.211626530E-1,1.187696531E-1
3.680485569E1,3.538480401E-1,-5.623800159E-1,7.183775306E-2
3.682685413E1,2.170142382E-1,-4.056843221E-1,1.307426095E-1
3.684884944E1,1.200786512E-2,-8.901178837E-3,2.741214037E-1
3.686884944E1,4.410447180E-2,3.733782768E-1,3.730466664E-1
3.688884944E1,8.609709144E-2,4.999495745E-1,4.083895981E-1
3.690884944E1,-8.670795709E-2,2.266135514E-1,2.828829587E-1
3.692884944E1,-4.206767082E-1,-2.205223441E-1,-2.811376452E-1
3.694884944E1,-5.018170476E-1,-3.396934271E-1,-7.463202477E-1
3.696884944E1,-1.561022550E-1,-3.789458871E-1,-7.608588338E-1
3.698885100E1,3.123266697E-1,-2.501231432E-1,-4.453731179E-1
3.701085100E1,3.689626157E-1,9.616764262E-3,-2.635796368E-1
3.703085100E1,1.581791937E-1,2.666339576E-1,-4.788310826E-1
3.705285100E1,-9.248499572E-2,4.668232203E-1,-8.462578058E-1
3.707485100E1,-1.355073601E-1,4.563512504E-1,-9.853256345E-1
3.709485569E1,6.904522330E-2,3.281393647E-1,-9.140289426E-1
3.711485569E1,2.973517478E-1,7.635815442E-2,-7.372968793E-1
3.713684944E1,4.306425452E-1,-1.100430116E-1,-5.935166478E-1
3.715684944E1,4.419871867E-1,-3.248057887E-2,-5.205618739E-1
3.717684944E1,2.936865389E-1,1.143539697E-1,-3.862064481E-1
3.719684944E1,1.537460536E-1,2.619913816E-1,-2.482032776E-1
3.721684944E1,3.246312216E-2,2.081828713E-1,-1.480213702E-1
3.723685100E1,-2.972295694E-2,-1.605702937E-2,-1.821600199E-1
3.725685100E1,-5.646140128E-2,-3.170390427E-1,-2.404540032E-1
3.727685100E1,3.745476529E-2,-4.276580215E-1,-2.152339965E-1
3.729685100E1,1.561720669E-1,-2.181137949E-1,-4.351105914E-2
3.731685100E1,1.299921274E-1,8.272860944E-2,2.373822331E-1
3.733685100E1,9.508553892E-2,3.631506562E-1,3.683691919E-1
3.735685100E1,1.441118419E-1,4.618315697E-1,3.325724900E-1
3.737884944E1,1.280024499E-1,3.999596536E-1,1.276010275E-1
3.739884944E1,8.082620054E-2,3.551745117E-1,8.953539282E-2
3.741884944E1,6.283185445E-3,2.267357260E-1,2.494948208E-1
3.743884944E1,4.736823589E-2,8.084364980E-2,3.781779408E-1
3.745884944E1,2.832669318E-1,9.557422996E-2,5.070181489E-1
3.747884944E1,4.519180954E-1,5.314527452E-2,7.453079224E-1
3.749885100E1,2.447998822E-1,-2.162462920E-1,8.990016580E-1
3.752085100E1,-2.968455851E-1,-5.409997106E-1,7.445574403E-1
3.754285100E1,-7.547676563E-1,-5.311211348E-1,3.402344882E-1
3.756485100E1,-8.395557404E-1,-1.298874021E-1,-1.523672417E-2
3.758485100E1,-7.082197070E-1,2.154085338E-1,-8.712683618E-2
3.760685100E1,-4.510454237E-1,4.361577928E-1,1.054702476E-1
3.762685100E1,-7.764969766E-2,3.333229721E-1,3.718249500E-1
3.764685100E1,2.861467302E-1,-1.471312530E-2,5.003684163E-1
3.766884944E1,4.795990288E-1,-2.125461996E-1,3.639535010E-1
3.768884944E1,4.241324663E-1,-1.326973885E-1,1.705710292E-1
3.770885100E1,2.734407187E-1,-1.228711754E-2,1.850049011E-2
3.773085100E1,4.897394031E-2,-1.436406001E-2,-8.386307210E-2
3.775284944E1,-1.343379915E-1,-2.400700450E-1,-1.784773618E-1
3.777285100E1,-1.526988596E-1,-5.125159621E-1,-2.944544852E-1
3.779485100E1,-5.078908056E-2,-7.170510888E-1,-2.716954052E-1
3.781485100E1,7.538077235E-2,-6.580764055E-1,-8.880235255E-2
3.783485100E1,1.328370124E-1,-4.411668777E-1,1.051037237E-1
3.785485100E1,6.682865322E-2,-2.957983911E-1,2.795842886E-1
3.787485100E1,-2.413790300E-2,-9.501572698E-2,3.369707167E-1
3.789485100E1,1.228711754E-2,1.781283021E-1,2.824291885E-1
3.791485100E1,2.331759781E-2,3.889815211E-1,2.379407287E-1
3.793486194E1,-8.958774805E-2,3.243170679E-1,1.424886733E-1
3.795685100E1,-2.483429015E-1,-2.422167957E-1,-2.089333683E-1
3.797685100E1,-1.066396199E-2,-3.876550794E-1,-6.075142026E-1
3.799685100E1,5.273163319E-1,-9.110618383E-2,-7.232469916E-1
3.801685100E1,8.575849533E-1,1.792453080E-1,-4.442560971E-1
3.803685100E1,6.120520830E-1,-8.203047328E-3,-3.157649636E-1
3.805685100E1,2.970550396E-2,-1.987580955E-1,-6.511648893E-1
3.807685100E1,-5.272290707E-1,3.715806082E-2,-1.140468001E0
3.809685100E1,-8.576896787E-1,4.219857156E-1,-1.418795586E0
3.811685100E1,-8.437270522E-1,6.702064276E-1,-1.322209120E0
3.813685100E1,-6.673091650E-1,6.243391633E-1,-9.988519549E-1
3.815685100E1,-5.313305855E-1,2.560048997E-1,-6.559470892E-1
3.817685100E1,-3.260275126E-1,-1.913055331E-1,-4.682892859E-1
3.819885100E1,6.588617712E-2,-3.332357109E-1,-4.312359393E-1
3.821885100E1,3.766944110E-1,-1.042136103E-1,-3.580717444E-1
3.824085100E1,3.528532088E-1,8.930850029E-2,-1.373399645E-1
3.826285100E1,1.556833647E-2,-1.670280099E-2,2.483603545E-2
3.828485100E1,-2.185152173E-1,-3.829252422E-1,-2.939134464E-2
3.830485100E1,-2.154957950E-1,-6.387206912E-1,-1.877799779E-1
3.832485100E1,1.722639985E-2,-4.161039591E-1,-1.446354389E-1
3.834485256E1,1.810604632E-1,7.086036727E-3,1.400277615E-1
3.836685100E1,2.223374993E-1,2.995333970E-1,4.076216519E-1
3.838685100E1,3.353300989E-1,4.066791534E-1,5.234766006E-1
3.840884944E1,6.050881743E-1,3.333229721E-1,4.264363050E-1
3.842885100E1,6.705729365E-1,4.469439089E-1,2.843664885E-1
3.845085100E1,2.984338403E-1,3.004235327E-1,3.678106964E-1
3.847285100E1,-1.369385272E-1,-1.683719158E-1,3.292389214E-1
3.849285100E1,1.958259381E-2,-2.629513144E-1,1.191536263E-1
3.851485100E1,6.008121371E-1,1.528733820E-1,1.457524449E-1
3.853485100E1,6.028890610E-1,4.350058734E-1,4.918861389E-1
3.855485100E1,-3.600614145E-2,2.747846246E-1,7.892902493E-1
3.857486194E1,-7.317991257E-1,-1.914102584E-1,7.513467669E-1
3.859685100E1,-9.686053991E-1,-4.121071398E-1,2.910336554E-1
3.861685100E1,-7.411366105E-1,-3.170565069E-1,1.909390278E-2
3.863685100E1,-3.278251886E-1,-7.707373798E-2,4.422664270E-2
3.865685100E1,-6.401867419E-2,1.341809183E-1,2.870891988E-1
3.867685100E1,-3.206169978E-2,1.944122314E-1,4.210083187E-1
3.869685100E1,-6.672393531E-2,2.179392576E-1,3.577401340E-1
3.871685100E1,-8.278096467E-2,2.477320284E-1,1.944820434E-1
3.873685100E1,-6.143558770E-3,1.174082980E-1,4.621632025E-2
3.875685100E1,1.390852928E-1,3.057816811E-2,5.045747012E-2
3.877685100E1,2.305405438E-1,-6.543239206E-2,1.444609016E-1
3.879685100E1,2.041162550E-1,-1.936442852E-1,2.079385221E-1
3.881685100E1,1.062905490E-1,-5.239303708E-1,1.407782584E-1
3.883685100E1,6.440265104E-3,-7.806508541E-1,-1.075122785E-2
3.885685100E1,-3.684389964E-2,-5.895721912E-1,-1.148601174E-1
3.887685100E1,-1.009498462E-1,-8.761552721E-2,-5.305801053E-3
3.889685100E1,-1.951801628E-1,1.263967454E-1,2.827258706E-1
3.891885100E1,-2.208539695E-1,1.965938807E-1,4.563512504E-1
3.894085100E1,-1.075471863E-1,3.102846444E-1,3.795043826E-1
3.896085100E1,-4.663519561E-2,3.605675697E-1,3.380179107E-1
3.898085100E1,-2.040988058E-1,2.620611787E-1,3.762755394E-1
3.900085100E1,-5.322730541E-1,-2.651155181E-2,1.496096253E-1
3.902085100E1,-6.285279393E-1,-2.945941091E-1,-3.337244093E-1
3.904085100E1,-1.459269822E-1,-2.453932911E-1,-6.065019369E-1
3.906085100E1,5.612106323E-1,-1.572367102E-1,-4.298222363E-1
3.908284944E1,8.251742125E-1,-1.680926532E-1,-3.171263263E-2
3.910284944E1,5.300564766E-1,-2.149023861E-1,-1.160294861E-1
3.912285100E1,1.176351905E-1,-8.402015269E-2,-4.884129465E-1
3.914485100E1,-2.852740586E-1,2.712590694E-1,-9.401913881E-1
3.916684944E1,-6.012310386E-1,6.722310185E-1,-1.182827115E0
3.918684944E1,-6.963514686E-1,6.955660582E-1,-1.163768053E0
3.920684944E1,-5.093569160E-1,4.296127856E-1,-9.728116393E-1
3.922684944E1,-1.994562298E-1,-1.706931926E-2,-7.018492222E-1
3.924684944E1,1.708851904E-1,-2.706656456E-1,-5.068261623E-1
3.926684944E1,4.412890375E-1,-1.804845035E-1,-3.967831433E-1
3.928684944E1,4.101174772E-1,-3.909537569E-2,-3.398505151E-1
3.930684944E1,1.394692659E-1,1.559102684E-1,-3.071081340E-1
3.932684944E1,-1.614080518E-1,2.641555667E-1,-2.186548412E-1
3.934684944E1,-2.815390527E-1,3.534291685E-2,-1.268505305E-1
3.936684944E1,-1.730319411E-1,-4.490033984E-1,-7.611380517E-2
3.938684944E1,9.880308807E-2,-6.387381554E-1,-1.371828746E-2
3.940684944E1,3.695734739E-1,-3.187320232E-1,1.128529906E-1
3.942684944E1,4.608018398E-1,-2.912954427E-2,2.875604331E-1
3.944684944E1,3.896273077E-1,6.021386012E-2,3.107209802E-1
3.946685100E1,2.519033849E-1,2.311688513E-1,1.204451695E-1
3.948884944E1,2.367539108E-1,4.788136184E-1,-1.527163088E-1
3.950884944E1,2.372251451E-1,5.859593749E-1,-1.340587437E-1
3.952885256E1,1.129577085E-1,4.525464177E-1,-7.461282611E-2
3.955084944E1,2.050238252E-1,1.304633617E-1,-3.239331022E-2
3.957084944E1,5.323952436E-1,-1.553343027E-3,2.040115297E-1
3.959084944E1,4.780282378E-1,-1.432740837E-1,5.075417161E-1
3.961084944E1,-1.602735817E-1,-3.944095075E-1,4.266282916E-1
3.963084944E1,-8.712334633E-1,-5.230228305E-1,-8.632398397E-2
3.965084944E1,-1.102664113E0,-2.169095129E-1,-5.561665893E-1
3.967084944E1,-1.058961034E0,1.513025910E-1,-6.054721475E-1
3.969084944E1,-9.553757906E-1,3.557504714E-1,-3.230080903E-1
3.971084944E1,-7.579441071E-1,3.598345220E-1,-1.888446324E-2
3.973084944E1,-3.858224750E-1,1.437976807E-1,1.460491568E-1
3.975084944E1,9.805259854E-2,-1.631359309E-1,1.795245707E-1
3.977084944E1,3.769911230E-1,-3.788760602E-1,1.560847908E-1
3.979084944E1,3.207740486E-1,-3.681772053E-1,1.559451669E-1
3.981084944E1,1.894903928E-1,-1.137081981E-1,1.458746195E-1
3.983084944E1,1.281769872E-1,-2.967059612E-3,2.010968328E-1
3.985084944E1,9.992010146E-2,-1.327846497E-1,2.708750963E-1
3.987084944E1,1.093797833E-1,-5.245237947E-1,1.692969352E-1
3.989084944E1,2.525840402E-1,-7.233865857E-1,3.546509147E-2
3.991084944E1,5.288522243E-1,-4.809080064E-1,1.095194072E-1
3.993084944E1,6.541144848E-1,-1.290147305E-1,3.883706629E-1
3.995084944E1,3.693116605E-1,-6.038838997E-3,5.043652654E-1
3.997084944E1,-3.728023171E-2,8.052948862E-2,3.848451078E-1
3.999084944E1,-1.336224079E-1,2.421120703E-1,1.759117395E-1
4.001084944E1,-6.279694289E-2,3.768689334E-1,1.194677874E-1
4.003084944E1,-2.101376466E-2,3.414213061E-1,1.569574624E-1
4.005084944E1,-2.042035162E-1,5.263913050E-2,2.017600648E-2
4.007084944E1,-4.226489365E-1,-2.378883809E-1,-4.249702096E-1
4.009085100E1,-3.087487519E-1,-1.633977294E-1,-8.259770870E-1
4.011085100E1,1.052433532E-2,3.523819894E-2,-8.292931914E-1
4.013085100E1,1.671676338E-1,7.185520232E-2,-4.990769029E-1
4.015284944E1,-2.251474746E-2,-2.094394993E-3,-4.438197613E-1
4.017284944E1,-2.351307571E-1,5.305800959E-2,-7.643145919E-1
4.019284944E1,-3.971671164E-1,4.056145251E-2,-1.000667095E0
4.021284944E1,-4.431041777E-1,-6.806783844E-3,-9.663015604E-1
4.023284944E1,-3.593458235E-1,-6.609562039E-2,-8.537626863E-1
4.025284944E1,-1.374970376E-1,-4.059635848E-2,-6.986727715E-1
4.027284944E1,1.518261880E-1,8.168140426E-3,-5.284857154E-1
