"Time (s)","Linear Acceleration x (m/s^2)","Linear Acceleration y (m/s^2)","Linear Acceleration z (m/s^2)"
1.200625000E-2,2.424999923E-1,-1.405999959E-1,-8.749999851E-2
4.200000000E-2,1.133099914E0,-2.962000072E-1,-5.533999801E-1
7.200000000E-2,1.091799974E0,-5.200999975E-1,-3.190000057E-1
1.020000000E-1,3.590999842E-1,-3.749999776E-2,3.343999982E-1
1.319984370E-1,-2.639999986E-1,4.375999868E-1,4.174900055E0
1.519984370E-1,-9.016000032E-1,2.584599972E0,3.235800028E0
1.719984370E-1,-1.053300023E0,1.956399918E0,2.277999967E-1
1.919984370E-1,-4.541999996E-1,1.179000020E0,-9.490999579E-1
2.120031250E-1,-7.617999911E-1,9.637999535E-1,1.021999940E-1
2.420000000E-1,-2.417999953E-1,4.108999968E-1,-8.379999548E-2
2.620000000E-1,8.069999814E-1,-5.988000035E-1,-5.406000018E-1
2.919984370E-1,2.249399900E0,-1.929600000E0,3.362999856E-1
3.120000000E-1,2.861999989E0,-3.830999851E0,7.889999747E-1
3.419984370E-1,1.219799995E0,-2.244499922E0,1.484999955E-1
3.619984370E-1,-3.146999776E-1,1.929999888E-1,1.151099920E0
3.819984370E-1,-3.610999882E-1,-2.206999958E-1,5.040299892E0
4.020062500E-1,-4.300999939E-1,9.657999873E-1,-3.595499992E0
4.319984370E-1,1.779999882E-1,-9.950000048E-2,-1.439399958E0
4.520046870E-1,-9.246000051E-1,8.452999592E-1,-2.201999873E-1
4.819984370E-1,-1.595199943E0,1.128399968E0,2.356799841E0
5.019984370E-1,-1.403199911E0,6.963999867E-1,3.181799889E0
5.219984370E-1,-8.060999513E-1,6.769999862E-2,3.108199835E0
5.420031250E-1,-5.449999869E-2,-8.369999528E-1,2.797399998E0
5.719984370E-1,1.015799999E0,-2.137199879E0,3.250900030E0
5.919984370E-1,3.346000016E-1,-2.872400045E0,2.717399836E0
6.119984370E-1,4.923999906E-1,-2.281199932E0,1.521899939E0
6.319984370E-1,2.962999940E-1,-2.819000006E0,1.753999889E-1
6.519984370E-1,1.263499975E0,-2.099200010E0,-6.609999537E-1
6.719984370E-1,1.124899983E0,-1.953199983E0,-1.317499995E0
6.919984370E-1,1.031599998E0,-1.390699983E0,-2.187099934E0
7.119984370E-1,7.713999748E-1,-1.271199942E0,-2.438599825E0
7.319984370E-1,1.706999987E-1,-9.470999837E-1,-2.561300039E0
7.519984370E-1,-2.321999967E-1,-5.967000127E-1,-3.088399887E0
7.719984370E-1,-2.999999821E-1,-3.443000019E-1,-3.512399912E0
7.919984370E-1,-5.909999609E-1,3.361999989E-1,-3.168200016E0
8.119984370E-1,-6.940000057E-1,7.055999637E-1,-3.237299919E0
8.320000000E-1,-7.305999994E-1,3.051999807E-1,-4.955999851E0
8.619984370E-1,-5.884000063E-1,5.490999818E-1,-2.864500046E0
8.820000000E-1,-5.503999591E-1,6.075999737E-1,-1.659899950E0
9.119984370E-1,-6.631000042E-1,1.146499991E0,4.129999876E-1
9.319984370E-1,-3.412999809E-1,1.212199926E0,1.455799937E0
9.519984370E-1,3.219999745E-2,1.200500011E0,1.992299914E0
9.719984370E-1,1.228000000E-1,1.327299953E0,2.707099915E0
9.919984370E-1,2.539999969E-2,1.389599919E0,3.157699823E0
1.011998437E0,-1.683000028E-1,1.226499915E0,3.091399908E0
1.031998437E0,-8.093000054E-1,1.144999981E0,2.801800013E0
1.051998437E0,-9.264000058E-1,8.592999578E-1,2.855499983E0
1.071998437E0,-4.940999746E-1,3.390000015E-2,3.357100010E0
1.091998437E0,-6.295999885E-1,-5.867999792E-1,4.530499935E0
1.111998437E0,-1.097700000E0,-1.075999975E0,4.538099766E0
1.132042187E0,-1.174600005E0,-1.262599945E0,3.463799953E0
1.161998437E0,-2.409999967E-1,-1.145299911E0,1.967700005E0
1.181998437E0,2.132999897E-1,-1.139999986E0,1.016199946E0
1.201998437E0,3.130000085E-2,-1.039499998E0,-3.879999742E-2
1.221998437E0,-3.666999936E-1,-7.587999701E-1,-1.328400016E0
1.241998437E0,-5.410999656E-1,-4.925999939E-1,-1.931699991E0
1.261998437E0,-3.339999914E-1,-4.454999864E-1,-1.993799925E0
1.281998437E0,1.339000016E-1,-4.989999831E-1,-1.963799953E0
1.301998437E0,4.720999897E-1,-3.537999988E-1,-2.477699995E0
1.321998437E0,9.039999843E-1,-1.840000004E-1,-3.065999985E0
1.341998437E0,1.077299953E0,1.179999951E-2,-3.522799969E0
1.361998437E0,1.141700029E0,1.075999960E-1,-3.906199932E0
1.381998437E0,1.032899976E0,3.676999807E-1,-4.040699959E0
1.401998437E0,7.793999910E-1,9.433999658E-1,-3.463299990E0
1.421998437E0,5.047000051E-1,1.212599993E0,-1.997299910E0
1.441998437E0,1.887999922E-1,1.159799933E0,-8.010999560E-1
1.461998437E0,-2.133999914E-1,1.164799929E0,6.189999729E-2
1.481998437E0,-3.102000058E-1,1.097700000E0,8.866999745E-1
1.501998437E0,-3.610000014E-2,9.389999509E-1,2.550699949E0
1.521998437E0,1.129999980E-1,3.115999997E-1,3.873699903E0
1.541998437E0,-3.102000058E-1,5.709999800E-2,3.974299908E0
1.561998437E0,-3.349999785E-1,-1.287999898E-1,3.616899967E0
1.581998437E0,6.434000134E-1,-7.226999998E-1,3.898099899E0
1.601998437E0,1.357599974E0,-7.671999931E-1,4.267399788E0
1.621998437E0,1.779699922E0,-1.081099987E0,3.582299948E0
1.641998437E0,2.134299994E0,-1.131500006E0,2.423899889E0
1.661998437E0,2.888000011E0,-1.290399909E0,1.413200021E0
1.681998437E0,2.899099827E0,-1.417500019E0,8.387999535E-1
1.701998437E0,2.151700020E0,-1.372099996E0,-1.996999979E-1
1.721998437E0,1.120999932E0,-9.440999627E-1,-1.790099978E0
1.741998437E0,8.919999748E-2,-4.940999746E-1,-2.735499859E0
1.761998437E0,-5.116999745E-1,-2.320999950E-1,-3.603399992E0
1.781998437E0,-3.978999853E-1,-1.997999996E-1,-4.116699696E0
1.801998437E0,-9.259999543E-2,-2.883000076E-1,-4.451299667E0
1.822000000E0,-5.109999701E-2,2.410000004E-2,-3.992899895E0
1.851998437E0,-6.895999908E-1,2.789999843E-1,-3.393599987E0
1.871998437E0,-1.078999996E0,1.973000020E-1,-3.649699926E0
1.891998437E0,-1.039099932E0,3.044999838E-1,-3.891099930E0
1.911998437E0,-8.631999493E-1,7.734000087E-1,-3.740399837E0
1.931998437E0,-9.195999503E-1,1.410899997E0,-2.221400023E0
1.951998437E0,-5.113999844E-1,1.083899975E0,-4.876999855E-1
1.971998437E0,-1.153999940E-1,8.231999874E-1,1.689999998E-1
1.991998437E0,-5.119999647E-1,5.615999699E-1,1.169600010E0
2.011998437E0,-4.912999868E-1,-1.422999948E-1,2.941999912E0
2.031998437E0,-1.152999997E-1,-2.969999909E-1,4.928599834E0
2.051998437E0,3.007999957E-1,1.069999952E-2,5.884500027E0
2.071998437E0,1.287000030E-1,-1.432999969E-1,5.576099873E0
2.091998437E0,-9.334999919E-1,-4.603999853E-1,4.659399986E0
2.111998437E0,-1.976399899E0,-9.583999515E-1,4.098700047E0
2.131998437E0,-2.478899956E0,-1.512599945E0,3.717399836E0
2.151998437E0,-1.931499958E0,-1.685199976E0,3.172699928E0
2.171998437E0,-4.866999984E-1,-1.792199969E0,2.641499996E0
2.191998437E0,2.845000029E-1,-1.714599967E0,1.984999895E0
2.211998437E0,8.669999987E-2,-1.577799916E0,1.170599937E0
2.231998437E0,-4.549999908E-2,-1.378399968E0,2.031999975E-1
2.252000000E0,-1.099999994E-2,-1.176900029E0,-8.172999620E-1
2.281998437E0,3.009999916E-2,-5.895000100E-1,-1.677399993E0
2.301998437E0,-2.967999876E-1,-1.960999966E-1,-2.058599949E0
2.321998437E0,-4.696999788E-1,3.199999779E-2,-3.165999889E0
2.341998437E0,-4.309999943E-1,1.847999990E-1,-4.026400089E0
2.361998437E0,-1.750999987E-1,4.057999849E-1,-4.431499958E0
2.382000000E0,3.585000038E-1,4.736000001E-1,-4.410999775E0
2.411998437E0,3.168999851E-1,4.912000000E-1,-4.247499943E0
2.431998437E0,2.799999900E-3,5.103999972E-1,-3.781199932E0
2.452000000E0,-1.388999969E-1,5.644999743E-1,-1.983099937E0
2.481998437E0,-6.340000033E-1,2.423999906E-1,1.404099941E0
2.501998437E0,-6.568999887E-1,-3.680000082E-2,2.767299891E0
2.522000000E0,-5.616999865E-1,-3.899999894E-3,3.142999887E0
2.542000000E0,-2.649999857E-1,1.122999936E-1,3.009500027E0
2.571998437E0,9.369999915E-2,2.421999872E-1,2.855899811E0
2.591998437E0,5.823999643E-1,4.679999873E-2,3.776399851E0
2.611998437E0,1.154500008E0,-3.527999818E-1,5.554399967E0
2.631998437E0,9.879999757E-1,-9.422999620E-1,6.466899872E0
2.651998437E0,5.661999583E-1,-1.447099924E0,5.579099655E0
2.671998437E0,1.115299940E0,-1.542400002E0,3.531099796E0
2.691998437E0,2.130499840E0,-1.350499988E0,1.166399956E0
2.711998437E0,2.449100018E0,-9.458999634E-1,-1.001999974E0
2.731998437E0,1.839299917E0,-5.652999878E-1,-2.670199871E0
2.751998437E0,3.876000047E-1,-5.609999970E-2,-2.976300001E0
2.771998437E0,-8.100999594E-1,3.344999850E-1,-2.984400034E0
2.791998437E0,-1.377300024E0,5.016999841E-1,-3.328099966E0
2.812000000E0,-1.860599995E0,7.737999558E-1,-2.987599850E0
2.842000000E0,-1.461199999E0,5.440999866E-1,-2.671200037E0
2.871998437E0,-8.181999922E-1,1.902999878E-1,-4.916299820E0
2.891998437E0,-9.614999890E-1,5.175999999E-1,-6.363499641E0
2.911998437E0,-1.204199910E0,8.567999601E-1,-6.034699917E0
2.931998437E0,-1.002599955E0,6.014999747E-1,-3.541800022E0
2.951998437E0,-3.102999926E-1,6.486999989E-1,3.828999996E-1
2.971998437E0,9.399999976E-1,5.672000051E-1,3.062999964E0
2.991998437E0,1.497499943E0,7.235999703E-1,3.527799845E0
3.011998437E0,1.030900002E0,1.134500027E0,3.352499962E0
3.031998437E0,9.456999898E-1,9.635999799E-1,3.226999998E0
3.051998437E0,8.428999782E-1,1.036299944E0,3.471499920E0
3.071998437E0,7.251999974E-1,1.093400002E0,3.959399939E0
3.091998437E0,3.849000037E-1,1.008599997E0,4.429199696E0
3.111998437E0,2.054999918E-1,5.067999959E-1,4.638999939E0
3.131998437E0,-7.599999756E-2,-6.919999719E-1,3.603099823E0
3.151998437E0,-5.471999645E-1,-1.412999988E0,2.260200024E0
3.171998437E0,-5.921999812E-1,-1.719399929E0,1.501099944E0
3.191998437E0,-3.211999834E-1,-1.966599941E0,1.598899961E0
3.211998437E0,-5.842999816E-1,-1.910299897E0,1.273999929E0
3.231998437E0,-1.076200008E0,-1.684399962E0,-6.199999899E-2
3.251998437E0,-6.175999641E-1,-1.353399992E0,-1.748600006E0
3.271998437E0,1.920000017E-1,-8.618999720E-1,-2.649600029E0
3.291998437E0,4.236999750E-1,-5.414000154E-1,-1.888399959E0
3.312000000E0,1.353999972E-1,-4.332000017E-1,-1.353699923E0
3.332000000E0,-2.672999799E-1,-4.088999927E-1,-2.093600035E0
3.361998437E0,-2.336999923E-1,-2.854000032E-1,-4.069600105E0
3.381998437E0,3.517999947E-1,-2.431999892E-1,-4.910399914E0
3.401998437E0,8.965999484E-1,-2.193000019E-1,-4.779399872E0
3.421998437E0,7.276999950E-1,-1.752000004E-1,-4.336800098E0
3.441998437E0,1.328999996E-1,7.569999993E-2,-3.494799852E0
3.461998437E0,-3.932999969E-1,4.050999880E-1,-2.245499849E0
3.481998437E0,-1.026000008E-1,5.500000119E-1,-6.929999590E-2
3.501998437E0,5.346999764E-1,3.526999950E-1,2.232899904E0
3.521998437E0,8.732999563E-1,1.908999979E-1,3.383399963E0
3.541998437E0,5.963999629E-1,7.250999808E-1,3.902199984E0
3.561998437E0,-1.000499964E0,1.322799921E0,3.814699888E0
3.581998437E0,-1.784699917E0,1.729699969E0,3.723899841E0
3.601998437E0,-1.022999957E-1,8.550999761E-1,4.185499668E0
3.621998437E0,1.104399920E0,-1.120999977E-1,5.446599960E0
3.641998437E0,4.571999907E-1,-1.171299934E0,6.492699623E0
3.661998437E0,-3.269999921E-1,-1.835999966E0,5.167599678E0
3.681998437E0,1.047299981E0,-2.095999956E0,2.205600023E0
3.701998437E0,2.801299810E0,-1.745899916E0,-3.756999969E-1
3.721998437E0,3.297999859E0,-1.515799999E0,-1.336599946E0
3.741998437E0,1.873899937E0,-1.598699927E0,-1.260999918E0
3.761998437E0,1.089999974E-1,-1.604599953E0,-1.951200008E0
3.781998437E0,-1.305599928E0,-9.704999924E-1,-1.657499909E0
3.801998437E0,-1.890399933E0,-5.321999788E-1,-1.717799902E0
3.821998437E0,-2.267499924E0,-2.088999897E-1,-2.276399851E0
3.841998437E0,-2.058599949E0,-2.057999969E-1,-4.567500114E0
3.861998437E0,-1.774500012E0,-1.429999992E-2,-6.933099747E0
3.881998437E0,-1.483799934E0,4.795999825E-1,-7.853899956E0
3.901998437E0,-9.659999609E-1,7.569999695E-1,-6.845599651E0
3.921998437E0,-2.581000030E-1,7.351999879E-1,-3.839399815E0
3.941998437E0,1.806999892E-1,7.532999516E-1,-5.084999800E-1
3.961998437E0,3.675999939E-1,5.830999613E-1,1.273800015E0
3.981998437E0,5.891999602E-1,8.143000007E-1,1.797099948E0
4.001998437E0,1.131999969E0,1.183599949E0,2.240700006E0
4.021998437E0,2.012599945E0,1.335500002E0,3.536099911E0
4.041998437E0,2.764799833E0,1.443699956E0,4.880300045E0
4.061998437E0,2.750999928E0,1.204699993E0,4.973199844E0
4.081998437E0,1.655200005E0,1.091599941E0,3.665899992E0
4.101998437E0,7.322999835E-1,1.011500001E0,2.723799944E0
4.121998437E0,1.460999995E-1,4.241999984E-1,3.081399918E0
4.141998437E0,-8.062999845E-1,-6.769999862E-1,3.866599798E0
4.161998437E0,-1.933099985E0,-1.336099982E0,2.933399916E0
4.181998437E0,-2.085899830E0,-1.366400003E0,8.025999665E-1
4.202007812E0,-9.409999847E-1,-1.008100033E0,-5.273999572E-1
4.232000000E0,7.845999599E-1,-1.107200027E0,5.151000023E-1
4.252000000E0,9.299999475E-2,-1.302500010E0,1.521399975E0
4.272000000E0,-6.550999880E-1,-1.277599931E0,8.722999692E-1
4.292000000E0,-7.930999994E-1,-8.942999840E-1,-1.158100009E0
4.312000000E0,-1.331000030E-1,-5.803999901E-1,-3.229099989E0
4.341998437E0,6.182999611E-1,-1.465999931E-1,-4.353300095E0
4.361998437E0,7.238999605E-1,-2.895999849E-1,-4.179500103E0
4.382000000E0,6.697999835E-1,-5.102999806E-1,-4.138700008E0
4.411998437E0,1.493999958E-1,-5.036999583E-1,-4.095699787E0
4.431998437E0,-1.378999949E-1,-3.355999887E-1,-3.779199839E0
4.451998437E0,-3.116999865E-1,-1.206000000E-1,-3.503399849E0
4.471998437E0,-5.159000158E-1,1.986999959E-1,-2.294399977E0
4.491998437E0,-5.776999593E-1,4.778999984E-1,-5.004000068E-1
4.511998437E0,-7.572000027E-1,6.505999565E-1,1.499499917E0
4.531998437E0,-9.514999986E-1,8.727999926E-1,2.992399931E0
4.551998437E0,-1.098600030E0,6.243000031E-1,3.621799946E0
4.571998437E0,-1.063699961E0,4.565999806E-1,3.482199907E0
4.591998437E0,-7.975999713E-1,5.040999651E-1,3.544600010E0
4.611998437E0,-3.828999996E-1,5.500999689E-1,4.012199879E0
4.631998437E0,6.877999902E-1,3.276999891E-1,4.592299938E0
4.651998437E0,1.620000005E0,-3.325999975E-1,5.375999928E0
4.671998437E0,1.338400006E0,-1.165499926E0,5.455800056E0
4.691998437E0,6.495000124E-1,-1.299199939E0,3.282500029E0
4.711998437E0,1.493899941E0,-1.327499986E0,6.481999755E-1
4.731998437E0,2.550099850E0,-1.145699978E0,-1.180699944E0
4.751998437E0,2.088999987E0,-1.172500014E0,-1.076699972E0
4.771998437E0,9.847999811E-1,-1.390399933E0,-1.076599956E0
4.791998437E0,-1.162999943E-1,-8.206999898E-1,-1.226199985E0
4.812000000E0,-3.867000043E-1,-3.745999932E-1,-1.814099908E0
4.832000000E0,-3.319000006E-1,5.439999700E-2,-2.870899916E0
4.861998437E0,-5.359999835E-2,5.410000086E-1,-4.742300034E0
4.881998437E0,5.279999971E-2,7.453999519E-1,-5.071199894E0
4.901998437E0,-4.719999805E-2,7.899000049E-1,-4.861099720E0
4.921998437E0,-2.018999904E-1,8.080999851E-1,-4.659399986E0
4.941998437E0,-1.353999972E-1,9.164999723E-1,-4.026599884E0
4.961998437E0,-2.140000015E-1,1.004799962E0,-2.789700031E0
4.981998437E0,-4.800000042E-2,8.492999673E-1,-1.007300019E0
5.001998437E0,9.089999646E-2,6.347999573E-1,5.978999734E-1
5.021998437E0,-1.837999970E-1,4.528999925E-1,1.912099957E0
5.041998437E0,-5.123000145E-1,4.368000031E-1,2.622400045E0
5.061998437E0,-4.810999930E-1,7.116000056E-1,3.208999872E0
5.081998437E0,1.441999972E-1,4.180999994E-1,3.992999792E0
5.101998437E0,1.105999947E-1,3.823999763E-1,4.414199829E0
5.121998437E0,-4.670999944E-1,4.372999966E-1,4.542999744E0
5.141998437E0,-5.722999573E-1,-2.458999902E-1,5.073599815E0
5.161998437E0,-1.040099978E0,-9.508999586E-1,5.457999706E0
5.181998437E0,-1.531700015E0,-1.525900006E0,4.719699860E0
5.201998437E0,-1.800699949E0,-1.697399974E0,2.679800034E0
5.221998437E0,-1.017400026E0,-1.441900015E0,1.137899995E0
5.241998437E0,-6.300000101E-2,-1.194599986E0,1.023199916E0
5.261998437E0,1.832999885E-1,-1.243499994E0,1.157799959E0
5.281998437E0,-5.480999947E-1,-9.641000032E-1,4.584999979E-1
5.301998437E0,-1.063799977E0,-7.685999870E-1,-1.463000029E-1
5.321998437E0,-1.165099978E0,-6.717000008E-1,-1.100799918E0
5.341998437E0,-9.039999843E-1,-5.891000032E-1,-2.544699907E0
5.361998437E0,-4.669999778E-1,-5.127999783E-1,-3.973299980E0
5.381998437E0,-6.780000031E-2,-4.745000005E-1,-4.899399757E0
5.401998437E0,1.265999973E-1,-3.946999907E-1,-5.280399799E0
5.421998437E0,2.884999812E-1,-5.575000048E-1,-5.414799690E0
5.441998437E0,3.791999817E-1,-6.008999944E-1,-4.969199657E0
5.461998437E0,5.180999637E-1,-5.871999860E-1,-4.216300011E0
5.481998437E0,1.491999924E-1,-5.074999928E-1,-3.092900038E0
5.501998437E0,-7.220000029E-2,-4.939999878E-1,-1.933999896E0
5.521998437E0,-3.170999885E-1,-4.368999898E-1,-6.427999735E-1
5.541998437E0,-1.500999928E-1,-2.967000008E-1,9.728999734E-1
5.561998437E0,-1.568999887E-1,-2.457999885E-1,2.559200048E0
5.581998437E0,-2.335999906E-1,-3.213999867E-1,3.259799957E0
5.601998437E0,-6.173999906E-1,-9.719999880E-2,3.025199890E0
5.621998437E0,-8.295999765E-1,3.443999887E-1,2.848399878E0
5.641998437E0,-3.260000050E-2,4.389999807E-2,3.410300016E0
5.661998437E0,1.298299909E0,-2.895999849E-1,4.984299660E0
5.681998437E0,1.441100001E0,-7.118999958E-1,6.148099899E0
5.701998437E0,6.728000045E-1,-1.076599956E0,5.411399841E0
5.721998437E0,4.614999890E-1,-1.136500001E0,3.151499987E0
5.741998437E0,1.046199918E0,-8.222000003E-1,4.794999957E-1
5.762000000E0,1.550599933E0,-6.301999688E-1,-1.345799923E0
5.782000000E0,1.021700025E0,-3.301999867E-1,-2.286399841E0
5.802000000E0,1.827999949E-1,-3.003999889E-1,-2.264099836E0
5.831998437E0,-9.172999859E-1,-1.825999916E-1,-1.800099969E0
5.851998437E0,-1.337999940E0,1.696999967E-1,-1.718299985E0
5.871998437E0,-1.423099995E0,4.407999814E-1,-2.078999996E0
5.891998437E0,-1.362499952E0,4.895999730E-1,-3.107699871E0
5.911998437E0,-9.936999679E-1,6.186000109E-1,-4.296799660E0
5.931998437E0,-6.115999818E-1,9.014999866E-1,-5.042900085E0
5.951998437E0,-3.252999783E-1,9.867999554E-1,-4.889899731E0
5.971998437E0,-1.371999979E-1,1.109200001E0,-3.859699965E0
5.991998437E0,2.799999900E-3,1.026899934E0,-2.147199869E0
6.011998437E0,-3.373000026E-1,1.075600028E0,-4.465000033E-1
6.031998437E0,-4.887999892E-1,9.045999646E-1,8.461999893E-1
6.051998437E0,-3.867000043E-1,7.642999887E-1,1.810699940E0
6.071998437E0,7.127999663E-1,4.805999994E-1,3.103499889E0
6.091998437E0,1.551999927E0,4.300999939E-1,4.204199791E0
6.111998437E0,1.560499907E0,4.144999981E-1,4.816199780E0
6.132000000E0,4.754999876E-1,1.583999991E-1,4.304999828E0
6.161998437E0,-6.487999558E-1,2.449999936E-2,3.799399853E0
6.181998437E0,-8.449999690E-1,-6.341999769E-1,4.592199802E0
6.201998437E0,-1.452099919E0,-1.371699929E0,4.220399857E0
6.221998437E0,-1.770799994E0,-1.432600021E0,2.551399946E0
6.241998437E0,-8.301999569E-1,-1.322399974E0,1.040499926E0
6.261998437E0,2.793999910E-1,-1.261600018E0,9.619999528E-1
6.281998437E0,5.612999797E-1,-1.054799914E0,1.689000010E0
6.301998437E0,-7.270000130E-2,-9.969999790E-1,1.967700005E0
6.322000000E0,-8.951999545E-1,-8.859999776E-1,5.661999583E-1
6.351998437E0,-1.413999915E0,-3.055999875E-1,-2.258999825E0
6.371998437E0,-1.112299919E0,1.203999966E-1,-3.315699816E0
6.392000000E0,-8.503999710E-1,3.446999788E-1,-3.592899799E0
6.421998437E0,-6.075999737E-1,3.301999867E-1,-4.092999935E0
6.441998437E0,-6.507999897E-1,3.707999885E-1,-4.531799793E0
6.462000000E0,-5.169000030E-1,3.871999979E-1,-4.855700016E0
6.491998437E0,-4.729999974E-2,7.448999882E-1,-4.468299866E0
6.511998437E0,4.138999879E-1,7.673999667E-1,-3.479699850E0
6.531998437E0,7.545999885E-1,7.103999853E-1,-2.019000053E0
6.551998437E0,5.812999606E-1,6.733999848E-1,-8.200999498E-1
6.571998437E0,2.354999930E-1,4.149999917E-1,2.710999846E-1
6.591998437E0,2.285999954E-1,-3.680000082E-2,1.560799956E0
6.611998437E0,7.128999829E-1,-3.432999849E-1,2.818699837E0
6.632001562E0,1.161100030E0,-3.325999975E-1,3.339499950E0
6.661998437E0,5.507000089E-1,1.282999963E-1,3.322499990E0
6.681998437E0,1.145399928E0,-2.930999994E-1,3.623199940E0
6.701998437E0,1.782899976E0,-4.957999885E-1,4.320600033E0
6.721998437E0,1.375899911E0,-8.486999869E-1,5.069499969E0
6.741998437E0,5.971999764E-1,-1.047999978E0,5.011399746E0
6.761998437E0,1.157199979E0,-1.600600004E0,4.063300133E0
6.782000000E0,2.475100040E0,-1.708400011E0,2.429299831E0
6.802000000E0,2.639400005E0,-1.306599975E0,1.003099918E0
6.822000000E0,1.766899943E0,-9.702999592E-1,-2.911999822E-1
6.851998437E0,-1.818999946E-1,9.290000051E-2,-2.413199902E0
6.871998437E0,1.928000003E-1,1.891999990E-1,-2.717299938E0
6.891998437E0,7.353999615E-1,3.287000060E-1,-2.772500038E0
6.911998437E0,5.521999598E-1,8.386999965E-1,-2.548599958E0
6.931998437E0,5.259999633E-1,5.906999707E-1,-2.555299997E0
6.951998437E0,2.098999918E-1,3.567999899E-1,-3.811899900E0
6.971998437E0,-4.940999746E-1,4.178999960E-1,-4.952600002E0
6.991998437E0,-9.671999812E-1,5.393999815E-1,-5.164999962E0
7.011998437E0,-8.179000020E-1,4.330999851E-1,-4.271800041E0
7.032000000E0,-5.685999990E-1,6.636999846E-1,-2.522699833E0
7.061998437E0,-8.424999714E-1,9.175999761E-1,2.238999903E-1
7.081998437E0,-1.405399919E0,7.872999907E-1,1.129599929E0
7.101998437E0,-1.583599925E0,7.443999648E-1,1.685299993E0
7.121998437E0,-1.394799948E0,6.111999750E-1,2.272699833E0
7.141998437E0,-6.420999765E-1,3.055999875E-1,3.161499977E0
7.161998437E0,-4.105999768E-1,4.560999870E-1,4.127099991E0
7.181998437E0,-6.525999904E-1,6.139999628E-1,4.639599800E0
7.201998437E0,-1.003600001E0,4.946999848E-1,4.682099819E0
7.221998437E0,-1.489799976E0,3.941999972E-1,4.782399654E0
7.242000000E0,-1.984999895E0,-7.869999856E-2,4.260999680E0
7.272000000E0,-1.730299950E0,-6.625999808E-1,2.775599957E0
7.301998437E0,-1.736999899E-1,-1.057399988E0,2.737799883E0
7.321998437E0,4.989999905E-2,-1.208899975E0,2.300099850E0
7.341998437E0,-4.244000018E-1,-1.221799970E0,3.391999900E-1
7.361998437E0,-8.885999918E-1,-8.493999839E-1,-1.479300022E0
7.381998437E0,-6.911000013E-1,-7.457000017E-1,-2.078500032E0
7.401998437E0,-1.119999960E-1,-8.121999502E-1,-2.248699903E0
7.421998437E0,1.472999901E-1,-5.992999673E-1,-2.617599964E0
7.441998437E0,2.331999987E-1,-4.427999854E-1,-3.527299881E0
7.461998437E0,2.339999974E-1,-3.203999996E-1,-4.613999844E0
7.481998437E0,7.310000062E-2,-9.149999917E-2,-5.157000065E0
7.501998437E0,1.987999976E-1,-1.077999994E-1,-5.112299919E0
7.521998437E0,3.213000000E-1,-1.134999990E-1,-4.550699711E0
7.541998437E0,5.051999688E-1,-2.260999978E-1,-3.875000000E0
7.561998437E0,2.939999849E-2,1.773999929E-1,-2.598399878E0
7.581998437E0,-5.081999898E-1,2.712999880E-1,-6.283000112E-1
7.601998437E0,-7.530999780E-1,9.449999779E-2,6.884999871E-1
7.621998437E0,-3.876000047E-1,-3.561999798E-1,1.696900010E0
7.641998437E0,-3.288999796E-1,-4.014999866E-1,2.862499952E0
7.661998437E0,-2.874999940E-1,-4.149999917E-1,3.684499979E0
7.681998437E0,-3.209999949E-2,-1.169999968E-2,3.510399818E0
7.701998437E0,-2.669999935E-2,6.771000028E-1,2.944799900E0
7.721998437E0,7.699999809E-1,7.216999531E-1,3.335999966E0
7.741998437E0,1.666299939E0,8.829999715E-2,4.536299706E0
7.761998437E0,1.104599953E0,-4.730999768E-1,5.045399666E0
7.781998437E0,9.099999443E-3,-5.178999901E-1,4.243999958E0
7.801998437E0,3.391000032E-1,-1.005900025E0,2.705799818E0
7.821998437E0,1.348699927E0,-1.375699997E0,8.568999767E-1
7.841998437E0,1.560799956E0,-1.242100000E0,-5.974000096E-1
7.861998437E0,1.070099950E0,-1.005800009E0,-1.716399908E0
7.881998437E0,2.648999989E-1,-6.613999605E-1,-2.475699902E0
7.901998437E0,-1.966999918E-1,-4.242999852E-1,-2.609699965E0
7.921998437E0,-5.450999737E-1,-2.046999931E-1,-2.034800053E0
7.941998437E0,-8.019999862E-1,-1.304000020E-1,-2.149699926E0
7.962000000E0,-8.675000072E-1,1.066999957E-1,-2.827999830E0
7.992000000E0,-6.427999735E-1,4.118999839E-1,-3.703099966E0
8.021998437E0,-4.787999988E-1,4.845999777E-1,-4.182099819E0
8.041998437E0,-4.550999999E-1,7.233999968E-1,-3.439100027E0
8.061998437E0,-2.478999943E-1,7.663999796E-1,-1.579399943E0
8.081998437E0,3.539999947E-2,6.409999728E-1,2.342999876E-1
8.101998437E0,-1.237999946E-1,4.453999996E-1,7.906999588E-1
8.121998437E0,-7.953999639E-1,5.069999695E-1,7.777999640E-1
8.141998437E0,-7.378999591E-1,4.871999919E-1,1.350399971E0
8.161998437E0,-1.459999979E-1,2.789999917E-2,1.980199933E0
8.181998437E0,-2.257999927E-1,-3.565999866E-1,2.082999945E0
8.201998437E0,-1.421399951E0,4.804999828E-1,1.954099894E0
8.221998437E0,-1.445099950E0,8.359999657E-1,2.231899977E0
8.241998437E0,1.347000003E-1,8.969999850E-2,2.901599884E0
8.261998437E0,5.415999889E-1,-3.992999792E-1,3.155999899E0
8.281998437E0,-5.552999973E-1,-8.756999969E-1,2.640499830E0
8.301998437E0,-1.743299961E0,-1.308799982E0,1.863799930E0
8.321998437E0,-1.706599951E0,-1.742499948E0,1.777999997E0
8.341998437E0,-1.085899949E0,-1.690499902E0,2.060600042E0
8.361998437E0,-6.850000024E-1,-1.413599968E0,1.947799921E0
8.381998437E0,-6.578999758E-1,-9.549999833E-1,9.016999602E-1
8.401998437E0,-5.692999959E-1,-5.379999876E-1,-5.224999785E-1
8.421998437E0,-2.678000033E-1,-3.005000055E-1,-1.738099933E0
8.441998437E0,-3.379999846E-2,-1.817999929E-1,-2.249599934E0
8.461998437E0,2.773999870E-1,-2.468999922E-1,-2.507999897E0
8.481998437E0,4.979999959E-1,-4.043999910E-1,-2.719799995E0
8.501998437E0,2.128999978E-1,-3.533999920E-1,-3.198499918E0
8.521998437E0,4.299999680E-3,-3.210999966E-1,-3.559499979E0
8.541998437E0,1.955999881E-1,-2.721000016E-1,-3.713399887E0
8.561998437E0,4.500999749E-1,-2.595999837E-1,-3.386999846E0
8.581998437E0,3.920999765E-1,4.069999978E-2,-2.575999975E0
8.601998437E0,1.074000001E-1,2.759999931E-1,-1.319899917E0
8.621998437E0,-3.313999772E-1,4.136999846E-1,1.411999911E-1
8.641998437E0,-3.009999990E-1,3.315999806E-1,7.246999741E-1
8.661998437E0,-1.990000010E-1,2.746999860E-1,9.826999903E-1
8.681998437E0,-3.172000051E-1,3.547999859E-1,1.128399968E0
8.701998437E0,-9.387999773E-1,9.111999869E-1,1.368999958E0
8.721998437E0,-1.633799911E0,1.723299980E0,2.132499933E0
8.741998437E0,-2.428999990E-1,3.813000023E-1,3.241099834E0
8.761998437E0,1.005900025E0,-6.341999769E-1,4.327199936E0
8.781998437E0,8.391000032E-1,-1.134099960E0,4.926799774E0
8.801998437E0,-2.214999944E-1,-1.187099934E0,4.824299812E0
8.822000000E0,2.868999839E-1,-1.676599979E0,3.378599882E0
8.851998437E0,1.744699955E0,-1.593599916E0,1.711499929E0
8.871998437E0,1.414899945E0,-1.308099985E0,1.185299993E0
8.891998437E0,5.828999877E-1,-9.829999804E-1,1.096000001E-1
8.911998437E0,9.539999813E-2,-7.310000062E-1,-1.470600009E0
8.931998437E0,-2.389999926E-1,-5.483999848E-1,-2.742799997E0
8.951998437E0,-4.023999870E-1,-3.475999832E-1,-3.378999949E0
8.971998437E0,-5.349000096E-1,-5.009999871E-2,-3.189499855E0
8.991998437E0,-4.596999884E-1,8.199999481E-2,-3.081499815E0
9.011998437E0,-2.312999964E-1,1.546999961E-1,-3.328099966E0
9.031998437E0,1.015999988E-1,2.082999945E-1,-3.643800020E0
9.051998437E0,1.239999980E-1,3.361999989E-1,-3.301800013E0
9.071998437E0,-1.983999908E-1,4.720000029E-1,-2.730000019E0
9.091998437E0,-2.945999801E-1,4.614000022E-1,-2.190599918E0
9.111998437E0,-1.260000020E-1,5.371999741E-1,-1.779899955E0
9.131998437E0,1.559999958E-2,7.726999521E-1,-8.999999762E-1
9.151998437E0,1.133999974E-1,8.754999638E-1,1.665999889E-1
9.171998437E0,-1.767999977E-1,9.828999639E-1,1.129999995E0
9.191998437E0,-3.583000004E-1,9.965999722E-1,2.076200008E0
9.211998437E0,-2.441999912E-1,1.071300030E0,3.023999929E0
9.231998437E0,-1.246999949E-1,1.134099960E0,3.620399952E0
9.251998437E0,-6.628999710E-1,1.254599929E0,3.037999868E0
9.271998437E0,-1.048699975E0,9.904999733E-1,2.331899881E0
9.291998437E0,-1.278900027E0,3.055000007E-1,2.511199951E0
9.312000000E0,-1.804600000E0,-3.412999809E-1,3.219399929E0
9.341998437E0,-2.091899872E0,-1.029500008E0,3.189999819E0
9.361998437E0,-8.610000014E-1,-1.498699903E0,3.032899857E0
9.381998437E0,1.099999994E-3,-1.473299980E0,2.846099854E0
9.401998437E0,1.376999915E-1,-1.393599987E0,1.851499915E0
9.421998437E0,2.110999972E-1,-1.342199922E0,3.544999957E-1
9.441998437E0,5.394999981E-1,-1.394099951E0,-8.264999986E-1
9.461998437E0,6.448000073E-1,-1.185999990E0,-1.760399938E0
9.481998437E0,4.828999937E-1,-1.051200032E0,-2.188099861E0
9.501998437E0,4.432999790E-1,-8.959999681E-1,-2.855999947E0
9.521998437E0,5.277000070E-1,-8.052999973E-1,-3.176599979E0
9.541998437E0,8.660999537E-1,-7.412999868E-1,-3.485800028E0
9.561998437E0,9.285999537E-1,-6.004999876E-1,-3.931099892E0
9.581998437E0,7.611999512E-1,-4.708999991E-1,-4.241600037E0
9.602000000E0,4.702999890E-1,-2.637999952E-1,-4.268199921E0
9.631998437E0,-2.730000019E-2,2.912999988E-1,-2.914700031E0
9.651998437E0,-2.981999815E-1,3.402999938E-1,-1.415199995E0
9.671998437E0,-4.714999795E-1,4.517999887E-1,-2.199999988E-2
9.691998437E0,-1.851999909E-1,3.312999904E-1,6.078000069E-1
9.711998437E0,-4.159999788E-1,5.717999935E-1,1.679700017E0
9.731998437E0,-9.407999516E-1,9.186999798E-1,2.859599829E0
9.751998437E0,-1.803699970E0,1.461599946E0,3.475699902E0
9.771998437E0,-1.656499982E0,1.641999960E0,3.490299940E0
9.791998437E0,3.319999874E-1,5.101999640E-1,3.139299870E0
9.812006250E0,1.362999916E0,-6.849999726E-2,3.488799810E0
9.841998437E0,2.939999998E-1,-6.931999922E-1,4.462399960E0
9.861998437E0,5.189999938E-2,-9.429999590E-1,3.892699957E0
9.881998437E0,1.424499989E0,-1.411499977E0,2.735800028E0
9.901998437E0,2.444700003E0,-1.304399967E0,1.549799919E0
9.921998437E0,2.181699991E0,-1.069800019E0,9.113999605E-1
9.941998437E0,1.345099926E0,-9.147999883E-1,-2.743999958E-1
9.961998437E0,5.870000124E-1,-7.008999586E-1,-1.609499931E0
9.981998437E0,1.004000008E-1,-5.561000109E-1,-2.396600008E0
1.000199844E1,-1.812999994E-1,-2.355999947E-1,-2.676399946E0
1.002199844E1,-2.899000049E-1,-1.280999929E-1,-2.710099936E0
1.004199844E1,-3.682000041E-1,-7.449999452E-2,-3.174999952E0
1.006199844E1,-5.479999781E-1,1.800999939E-1,-3.618799925E0
1.008199844E1,-4.235000014E-1,2.289999872E-1,-3.585599899E0
1.010199844E1,-4.131999910E-1,3.831999898E-1,-3.153299809E0
1.012199844E1,-2.578999996E-1,3.215999901E-1,-2.620399952E0
1.014199844E1,-2.558999956E-1,3.718000054E-1,-1.801499963E0
1.016199844E1,-2.990999818E-1,4.900999963E-1,-1.086400032E0
1.018199844E1,-3.647999763E-1,7.034999728E-1,-6.171999574E-1
1.020199844E1,-5.511000156E-1,8.386999965E-1,1.403999925E-1
1.022199844E1,-6.060000062E-1,7.448999882E-1,7.594999671E-1
1.024199844E1,-3.271999955E-1,7.457999587E-1,1.402999997E0
1.026199844E1,-3.163000047E-1,8.102999926E-1,2.193199873E0
1.028199844E1,-7.203999758E-1,8.310999870E-1,2.486799955E0
1.030199844E1,-8.948999643E-1,1.246500015E0,2.009999990E0
1.032199844E1,1.366999894E-1,6.697999835E-1,2.301699877E0
1.034199844E1,9.959999472E-2,-5.333999991E-1,2.286099911E0
1.036199844E1,-9.784999490E-1,-4.504999816E-1,2.951099873E0
1.038200000E1,-1.809199929E0,-1.000999928E0,1.975899935E0
1.040200000E1,-2.191099882E0,-7.792999744E-1,8.845999837E-1
1.042200469E1,-1.169499993E0,-1.380399942E0,6.074000001E-1
1.045199844E1,-7.845000029E-1,-8.791999817E-1,4.088999927E-1
1.047199844E1,-9.327999949E-1,-7.633999586E-1,1.312000006E-1
1.049199844E1,-9.611999989E-1,-9.843999743E-1,2.184000015E-1
1.051199844E1,-1.130699992E0,-8.458999991E-1,6.527999640E-1
1.053199844E1,-8.860999942E-1,-8.351999521E-1,8.329999447E-2
1.055199844E1,-3.890999854E-1,-6.869999766E-1,-1.460600019E0
1.057199844E1,1.111999974E-1,-5.870000124E-1,-2.676300049E0
1.059200469E1,1.551999897E-1,-4.872999787E-1,-2.756899834E0
1.062199844E1,2.102999985E-1,-4.157999754E-1,-2.247099876E0
1.064200156E1,3.136000037E-1,-2.951999903E-1,-2.173099995E0
1.067199844E1,6.240000129E-1,-2.800999880E-1,-2.606099844E0
1.069199844E1,1.588999927E-1,-6.839999557E-2,-2.313099861E0
1.071199844E1,-4.645999968E-1,2.080999911E-1,-1.654199958E0
1.073200469E1,-3.603000045E-1,2.865999937E-1,-1.199199915E0
1.076199844E1,9.229999781E-2,3.197999895E-1,1.993999928E-1
1.078200469E1,7.099999487E-2,4.257999957E-1,6.577000022E-1
1.081200000E1,-4.567999840E-1,1.461099982E0,3.173999786E-1
1.083200625E1,-8.621999621E-1,2.217599869E0,1.125399947E0
1.086199844E1,9.764999747E-1,-3.499999875E-3,2.570199966E0
1.088200781E1,1.604099989E0,-8.956999779E-1,3.794600010E0
1.091199844E1,4.757999778E-1,-1.443399906E0,4.989299774E0
1.093200313E1,9.141999483E-1,-1.641399980E0,3.327399969E0
1.096199844E1,2.019099951E0,-1.293399930E0,7.710999846E-1
1.098200312E1,1.644999981E0,-8.845999837E-1,6.008999944E-1
1.101199844E1,8.060000092E-2,-3.479000032E-1,6.847000122E-1
1.103200000E1,-1.247999966E-1,-3.674999774E-1,-7.562999725E-1
1.106199844E1,-4.587000012E-1,-2.114999890E-1,-2.706799984E0
1.108199844E1,-4.555999935E-1,-6.749999523E-2,-2.888000011E0
1.110199844E1,6.799999624E-2,-6.069999933E-2,-2.443699837E0
1.112200625E1,2.775000036E-1,2.520000003E-2,-2.240999937E0
1.115199844E1,7.589999586E-2,6.300000008E-3,-2.747900009E0
1.117200469E1,-2.166999876E-1,-1.970000006E-2,-2.836299896E0
1.120199844E1,-3.749999776E-2,1.569999903E-1,-1.969499946E0
1.122200625E1,5.489999801E-2,4.745999873E-1,-1.126699924E0
1.125199844E1,-4.447999895E-1,8.549000025E-1,-7.883999944E-1
1.127200156E1,-3.885999918E-1,1.277699947E0,-9.539999813E-2
1.130199844E1,1.870999932E-1,1.218099952E0,5.539000034E-1
1.132200625E1,5.440999866E-1,1.098500013E0,1.605799913E0
1.135199844E1,-5.842999816E-1,1.317099929E0,1.864099979E0
1.137200625E1,-1.021999955E0,1.579199910E0,1.905200005E0
1.140200000E1,2.872999907E-1,9.070000052E-2,2.972899914E0
1.143199844E1,-1.306499958E0,-1.999999881E-1,4.165699959E0
1.145199844E1,-2.000599861E0,-3.533000052E-1,3.011600018E0
1.147200000E1,-1.307799935E0,-2.971999943E-1,1.752900004E0
1.150200000E1,4.309999943E-1,-6.938999891E-1,6.804999709E-1
1.153199844E1,-1.622999907E-1,-8.661999702E-1,3.854999840E-1
1.155199844E1,-5.562999845E-1,-9.334999919E-1,-1.596999913E-1
1.157200000E1,-4.319999814E-1,-9.147999883E-1,-1.048799992E0
1.160200000E1,6.567999721E-1,-7.317999601E-1,-1.867499948E0
1.163199844E1,8.861999512E-1,-6.222000122E-1,-2.506299973E0
1.165199844E1,7.190999985E-1,-5.961999893E-1,-3.072899818E0
1.167200000E1,6.464999914E-1,-6.078000069E-1,-3.614899874E0
1.170199844E1,8.277999759E-1,-3.120000064E-1,-3.593799829E0
1.172199844E1,8.822000027E-1,-1.199999973E-1,-2.993299961E0
1.174200000E1,6.031999588E-1,1.218999997E-1,-2.285099983E0
1.176200000E1,2.388999909E-1,4.954999983E-1,-1.919299960E0
1.179200000E1,3.563999832E-1,8.381999731E-1,-1.314399958E0
1.181201094E1,4.530999959E-1,7.573999763E-1,-8.175999522E-1
1.184199844E1,-1.645999998E-1,5.669999719E-1,7.699999809E-1
1.186200000E1,-8.258999586E-1,9.070000052E-1,1.830099940E0
1.189200000E1,-1.623799920E0,1.764899969E0,2.398999929E0
1.191200000E1,-1.087100029E0,1.561299920E0,2.880300045E0
1.194200000E1,1.775499940E0,9.539999813E-2,4.496500015E0
1.196200000E1,3.393499851E0,-1.662899971E0,5.325200081E0
1.199199844E1,1.917400002E0,-2.367699862E0,4.253299713E0
1.201200000E1,7.655000091E-1,-1.675699949E0,2.267299891E0
1.203200000E1,6.356999874E-1,-1.072600007E0,-2.238999903E-1
1.206199844E1,3.409000039E-1,-2.249999903E-2,-1.928299904E0
1.208199844E1,6.371999979E-1,6.899999827E-2,-1.099300027E0
1.210200000E1,5.620999932E-1,-3.099999949E-2,-4.816999733E-1
1.213199844E1,-4.179999828E-1,1.850000024E-2,-8.600999713E-1
1.215200000E1,-9.757999778E-1,2.999999933E-2,-1.296399951E0
1.218199844E1,-9.077000022E-1,-2.566999793E-1,-2.710099936E0
1.220199844E1,-6.125999689E-1,-1.793999970E-1,-3.664499998E0
1.222199844E1,-2.757999897E-1,-1.343999952E-1,-4.005599976E0
1.224200000E1,-1.481000036E-1,-2.009999938E-2,-3.768100023E0
1.226200000E1,-2.583000064E-1,1.493999958E-1,-3.271199942E0
1.229199844E1,-2.523999810E-1,3.815999925E-1,-1.837299943E0
1.231200000E1,-3.925999999E-1,6.642999649E-1,-6.439999938E-1
1.233200000E1,-4.529999793E-1,9.790999889E-1,5.268999934E-1
1.236199844E1,-6.808999777E-1,1.102299929E0,1.279999971E0
1.238199844E1,-3.377999961E-1,1.015200019E0,1.254199982E0
1.240200000E1,-1.412999928E-1,7.716000080E-1,1.631500006E0
1.243200625E1,-8.198999763E-1,6.717000008E-1,2.617499828E0
1.246200000E1,-8.079999685E-2,-7.490999699E-1,3.974799871E0
1.249199844E1,-1.322499990E0,-7.355999947E-1,3.777400017E0
1.251199844E1,-1.708299994E0,-8.980000019E-1,2.705799818E0
1.253200000E1,-6.904000044E-1,-9.442999959E-1,2.243999958E0
1.256199844E1,1.086599946E0,-9.591999650E-1,2.307199955E0
1.258199844E1,8.736999631E-1,-9.451999664E-1,1.676499963E0
1.260200000E1,-2.859999985E-2,-7.522999644E-1,6.789000034E-1
1.262200000E1,-3.051999807E-1,-6.962999701E-1,-8.162999749E-1
1.265199844E1,-8.389999717E-2,-5.209999681E-1,-2.864300013E0
1.267199844E1,2.069999874E-1,-6.301000118E-1,-3.483399868E0
1.269199844E1,3.621999919E-1,-6.768999696E-1,-3.420699835E0
1.271199844E1,4.023999870E-1,-6.742999554E-1,-3.359400034E0
1.273199844E1,4.133999944E-1,-6.432999969E-1,-3.501199961E0
1.275199844E1,3.761999905E-1,-5.597999692E-1,-3.734299898E0
1.277199844E1,3.308999836E-1,-3.682999909E-1,-3.721599817E0
1.279199844E1,2.357999980E-1,2.099999925E-3,-3.145200014E0
1.281200000E1,3.093000054E-1,1.305999905E-1,-2.359299898E0
1.284199844E1,-3.309999779E-2,5.145999789E-1,-1.382900000E0
1.286199844E1,-2.866999805E-1,5.162000060E-1,-6.067000031E-1
1.288199844E1,-4.120999873E-1,6.561999917E-1,5.906000137E-1
1.290199844E1,-5.131999850E-1,1.038599968E0,1.976199985E0
1.292199844E1,-5.033999681E-1,1.263899922E0,2.801100016E0
1.294199844E1,-9.530999660E-1,1.481599927E0,3.055899858E0
1.296199844E1,-1.549600005E0,1.388799906E0,2.656399965E0
1.298199844E1,-3.297999799E-1,1.884000003E-1,2.466899872E0
1.300199844E1,1.597099900E0,-9.898999929E-1,3.095099926E0
1.302199844E1,2.289599895E0,-1.800899982E0,4.418399811E0
1.304199844E1,1.226199985E0,-1.676199913E0,4.931900024E0
1.306199844E1,1.348099947E0,-1.384499907E0,3.562399864E0
1.308199844E1,2.323199987E0,-1.219200015E0,1.695299983E0
1.310199844E1,2.562299967E0,-1.027999997E0,1.392000020E-1
1.312199844E1,1.619499922E0,-7.946999669E-1,-7.256000042E-1
1.314199844E1,3.337000012E-1,-7.480999827E-1,-9.133999944E-1
1.316199844E1,-6.195999980E-1,-4.545999765E-1,-9.867999554E-1
1.318199844E1,-1.340999961E0,-1.201999933E-1,-1.226799965E0
1.320200313E1,-1.612299919E0,1.351999938E-1,-2.077399969E0
1.323199844E1,-1.570099950E0,5.724999905E-1,-3.912499905E0
1.325199844E1,-1.649299979E0,9.912999868E-1,-4.352900028E0
1.327199844E1,-1.697999954E0,1.074399948E0,-4.128799915E0
1.329199844E1,-1.474299908E0,1.060299993E0,-3.591699839E0
1.331199844E1,-1.181999922E0,1.214100003E0,-3.004199982E0
1.333199844E1,-8.570999503E-1,1.153200030E0,-2.445199966E0
1.335199844E1,-8.240999579E-1,1.159600019E0,-1.416000009E0
1.337199844E1,-1.019500017E0,1.150699973E0,3.085999787E-1
1.339199844E1,-9.495999813E-1,8.391999602E-1,1.819700003E0
1.341199844E1,-9.987999797E-1,6.486999989E-1,2.804800034E0
1.343199844E1,-5.787999630E-1,3.955999911E-1,3.085299969E0
1.345199844E1,3.085999787E-1,4.520999789E-1,3.137699842E0
1.347199844E1,1.035599947E0,4.740999937E-1,3.536899805E0
1.349199844E1,9.049999714E-1,3.170000017E-2,4.215300083E0
1.351200156E1,1.247999966E-1,-5.270000100E-1,4.699100018E0
1.354199844E1,-6.868000031E-1,-1.293099999E0,4.512399673E0
1.356199844E1,-5.342000127E-1,-1.595199943E0,3.630299807E0
1.358199844E1,8.349999785E-2,-1.501599908E0,2.681099892E0
1.360199844E1,3.747999966E-1,-1.408299923E0,2.072000027E0
1.362199844E1,-1.168999970E-1,-1.337099910E0,1.471300006E0
1.364199844E1,-9.334999919E-1,-1.229200006E0,8.093999624E-1
1.366199844E1,-1.368899941E0,-9.195999503E-1,-4.276999831E-1
1.368199844E1,-1.348299980E0,-5.672000051E-1,-1.821299911E0
1.370199844E1,-1.366899967E0,3.790000081E-2,-2.439299822E0
1.372199844E1,-1.132200003E0,2.169999853E-2,-3.062799931E0
1.374199844E1,-7.638999820E-1,7.689999789E-2,-3.633799791E0
1.376199844E1,-3.463000059E-1,2.049999982E-1,-4.131400108E0
1.378199844E1,-1.693999916E-1,1.949999928E-1,-4.448899746E0
1.380200000E1,-9.809999913E-2,9.529999644E-2,-4.684499741E0
1.382200000E1,-4.399999976E-3,1.777999997E-1,-4.573999882E0
1.384200000E1,2.284999937E-1,1.224999949E-1,-4.060199738E0
1.387199844E1,2.811999917E-1,1.815999895E-1,-2.333400011E0
1.389199844E1,7.389999926E-2,2.239999920E-1,-7.407000065E-1
1.391199844E1,2.481999993E-1,1.931999922E-1,5.667999983E-1
1.393199844E1,5.418999791E-1,2.946999967E-1,1.951799989E0
1.395199844E1,7.014999986E-1,2.213999927E-1,3.177899837E0
1.397199844E1,3.334999979E-1,-4.349999875E-2,3.843699932E0
1.399199844E1,-1.004000008E-1,2.395999879E-1,3.252300024E0
1.401199844E1,2.692999840E-1,5.881999731E-1,2.839799881E0
1.403199844E1,1.357900023E0,4.102999866E-1,3.776099920E0
1.405199844E1,1.734499931E0,-8.630000055E-2,5.084700108E0
1.407199844E1,7.210999727E-1,-8.191999793E-1,5.466499805E0
1.409199844E1,-2.472999990E-1,-1.112100005E0,4.187999725E0
1.411199844E1,6.320999861E-1,-1.226699948E0,2.778399944E0
1.413199844E1,2.344599962E0,-1.177999973E0,2.686899900E0
1.415199844E1,2.135099888E0,-7.042999864E-1,3.456300020E0
1.417199844E1,7.666999698E-1,-4.852999747E-1,1.520900011E0
1.419199844E1,-2.159999907E-1,-3.561999798E-1,-1.510499954E0
1.421199844E1,-8.603000045E-1,-4.678999782E-1,-3.347899914E0
1.423199844E1,-1.401999950E0,-2.572000027E-1,-3.377799988E0
1.425199844E1,-1.613799930E0,-9.399999678E-2,-3.225899935E0
1.427199844E1,-1.759199977E0,5.599999800E-2,-3.522899866E0
1.429199844E1,-1.770799994E0,-2.950000018E-2,-4.270599842E0
1.431200000E1,-1.480899930E0,-2.257999927E-1,-5.300299644E0
1.433200000E1,-9.698999524E-1,-2.110999972E-1,-5.920599937E0
1.435200000E1,-5.041999817E-1,5.499999970E-2,-5.565399647E0
1.438200000E1,-1.384000033E-1,2.895999849E-1,-3.206799984E0
1.441199844E1,-5.009999871E-2,5.629999638E-1,-8.064000010E-1
1.443199844E1,-9.699999541E-2,7.921999693E-1,-9.529999644E-2
1.445199844E1,-1.799999923E-1,1.194599986E0,1.668999940E-1
1.447199844E1,1.709999889E-1,1.451900005E0,5.443999767E-1
1.449199844E1,4.697999954E-1,1.566399932E0,2.435899973E0
1.451199844E1,-3.862999976E-1,1.633899927E0,4.788000107E0
1.453199844E1,-1.375100017E0,1.370100021E0,6.613800049E0
1.455199844E1,-3.177999854E-1,1.618999988E-1,7.404699802E0
1.457199844E1,1.089900017E0,-9.434999824E-1,6.795799732E0
1.459199844E1,2.329999954E-1,-1.300699949E0,4.961499691E0
1.461199844E1,-1.326799989E0,-1.061399937E0,2.398900032E0
1.463199844E1,-1.496199965E0,-1.042999983E0,5.566999912E-1
1.465199844E1,-6.536999941E-1,-1.129299998E0,1.366000026E-1
1.467199844E1,-1.092999950E-1,-1.202899933E0,4.860999882E-1
1.469199844E1,-5.662999749E-1,-1.109399915E0,8.887999654E-1
1.471199844E1,-1.118000031E0,-1.039199948E0,1.014599919E0
1.473199844E1,-1.393299937E0,-8.817999959E-1,8.264999986E-1
1.475199844E1,-1.404999971E0,-7.289999723E-1,-4.153999984E-1
1.477199844E1,-1.102399945E0,-6.380000114E-1,-2.417099953E0
1.479199844E1,-4.962999821E-1,-5.667999983E-1,-4.371999741E0
1.481200000E1,2.960000001E-2,-3.798999786E-1,-5.469699860E0
1.483200625E1,1.770000011E-1,-2.624999881E-1,-5.350699902E0
1.486199844E1,-6.409999728E-2,-2.266999930E-1,-4.539400101E0
1.488199844E1,-1.328999996E-1,-8.709999919E-2,-4.383100033E0
1.490199844E1,7.149999589E-2,1.263999939E-1,-4.312900066E0
1.492199844E1,5.530999899E-1,3.704999983E-1,-3.354899883E0
1.494199844E1,2.804999948E-1,6.348999739E-1,-2.109400034E0
1.496199844E1,-9.309999645E-2,7.526999712E-1,-1.143399954E0
1.498199844E1,8.150000125E-2,6.087999940E-1,6.118999720E-1
1.500199844E1,3.098999858E-1,4.731999934E-1,2.879499912E0
1.502199844E1,3.001999855E-1,6.092000008E-1,4.196499825E0
1.504199844E1,1.599999890E-2,9.973999858E-1,3.989300013E0
1.506199844E1,2.899999917E-2,1.193899989E0,3.488299847E0
1.508199844E1,1.225099921E0,6.631999612E-1,4.472199917E0
1.510199844E1,1.489699960E0,8.169999719E-2,5.990299702E0
1.512199844E1,1.266999990E-1,-6.625999808E-1,6.997099876E0
1.514199844E1,-5.708999634E-1,-1.200299978E0,6.042500019E0
1.516199844E1,4.422999918E-1,-1.483899951E0,4.268300056E0
1.518199844E1,1.788399935E0,-1.630699992E0,1.844799995E0
1.520200000E1,2.159899950E0,-1.462700009E0,-4.387999773E-1
1.522200000E1,1.595199943E0,-1.128000021E0,-2.151200056E0
1.525200000E1,-5.389999971E-2,-6.424999833E-1,-3.515599966E0
1.527200000E1,-5.683999658E-1,-4.302999973E-1,-3.691399813E0
1.530199844E1,-8.514999747E-1,4.879999906E-2,-3.581099987E0
1.532199844E1,-6.999999881E-1,3.889999911E-2,-3.808799982E0
1.534199844E1,-7.512999773E-1,9.549999982E-2,-4.443200111E0
1.536199844E1,-6.689999700E-1,2.554000020E-1,-5.033999920E0
1.538199844E1,-3.585000038E-1,4.871999919E-1,-5.093899727E0
1.540199844E1,1.112999991E-1,6.915000081E-1,-4.473499775E0
1.542199844E1,3.058999777E-1,8.895999789E-1,-3.006700039E0
1.544199844E1,4.368999898E-1,8.003999591E-1,-7.019000053E-1
1.546199844E1,3.460000083E-2,7.112999558E-1,1.516199946E0
1.548200000E1,-4.706999958E-1,8.461999893E-1,2.957599878E0
1.551199844E1,-6.592000127E-1,7.935000062E-1,2.571499825E0
1.553199844E1,-5.598999858E-1,4.731999934E-1,2.064899921E0
1.555199844E1,-7.601999640E-1,3.267999887E-1,2.744099855E0
1.557199844E1,-8.072999716E-1,4.685999751E-1,3.593299866E0
1.559199844E1,-2.733999789E-1,4.452999830E-1,4.209000111E0
1.561199844E1,3.333999813E-1,-1.439999938E-1,4.737299919E0
1.563199844E1,-7.016999722E-1,-9.506999850E-1,4.884299755E0
1.565199844E1,-2.525300026E0,-1.616999984E0,3.427500010E0
1.567199844E1,-3.172600031E0,-1.332799911E0,1.906199932E0
1.569199844E1,-1.341899991E0,-1.226400018E0,1.158399940E0
1.571199844E1,6.883999705E-1,-8.962999582E-1,1.649399996E0
1.573199844E1,1.259699941E0,-6.430000067E-1,2.142999887E0
1.575199844E1,3.944000006E-1,-6.122999787E-1,1.265599966E0
1.577199844E1,-6.477999687E-1,-4.966000021E-1,-5.963999629E-1
1.579199844E1,-1.126699924E0,-2.635000050E-1,-1.775399923E0
1.581200000E1,-9.760999680E-1,-1.131999940E-1,-2.584800005E0
1.583200000E1,-4.680999815E-1,-9.959999472E-2,-3.611099958E0
1.586199844E1,1.271999925E-1,1.596999913E-1,-4.930799961E0
1.588199844E1,2.989999950E-1,1.418000013E-1,-5.393499851E0
1.590199844E1,2.201000005E-1,4.989999905E-2,-5.218199730E0
1.592199844E1,2.247999907E-1,1.159999985E-2,-4.651099682E0
1.594199844E1,1.252999902E-1,2.202999890E-1,-3.565099955E0
1.596199844E1,-3.774999976E-1,4.553000033E-1,-2.216500044E0
1.598199844E1,-6.365000010E-1,5.728999972E-1,-1.111500025E0
1.600199844E1,-8.403999805E-1,5.749999881E-1,3.174999952E-1
1.602199844E1,-9.053999782E-1,5.351999998E-1,1.834599972E0
1.604199844E1,-1.169399977E0,5.252999663E-1,2.918999910E0
1.606199844E1,-1.283499956E0,4.895999730E-1,3.284999847E0
1.608199844E1,-1.181299925E0,5.155999660E-1,3.293999910E0
1.610204219E1,-1.279799938E0,9.880999923E-1,3.270699978E0
1.613199844E1,6.044999957E-1,4.011999965E-1,4.047399998E0
1.615199844E1,1.423299909E0,-3.753999770E-1,5.001499653E0
1.617199844E1,1.283999979E-1,-1.168499947E0,5.031199932E0
1.619199844E1,-1.578999996E0,-1.015100002E0,3.515299797E0
1.621199844E1,-1.148499966E0,-8.770999908E-1,1.468299985E0
1.623200469E1,4.266999960E-1,-6.028000116E-1,4.490000010E-1
1.626199844E1,9.670999646E-1,-3.449999988E-1,6.457999945E-1
1.628199844E1,9.649999440E-2,-3.786999881E-1,6.315999627E-1
1.630199844E1,-1.030399919E0,-2.469999939E-1,-6.182000041E-1
1.632200000E1,-1.752299905E0,1.009999961E-2,-2.499500036E0
1.635199844E1,-2.269700050E0,5.026000142E-1,-3.609099865E0
1.637199844E1,-2.005399942E0,6.143000126E-1,-3.626699924E0
1.639199844E1,-2.025199890E0,9.844999909E-1,-3.879999876E0
1.641199844E1,-2.150599957E0,1.207999945E0,-4.369599819E0
1.643203125E1,-1.911099911E0,1.024899960E0,-4.269899845E0
1.646199844E1,-1.015299916E0,5.372999907E-1,-2.771999836E0
1.648199844E1,-1.006699920E0,5.056999922E-1,-1.431899905E0
1.650199844E1,-1.560499907E0,3.392999768E-1,-2.824999988E-1
1.652199844E1,-2.316400051E0,3.476999998E-1,4.463999867E-1
1.654199844E1,-2.574800014E0,1.607999951E-1,1.294600010E0
1.656199844E1,-2.517199993E0,-2.859999985E-2,2.117199898E0
1.658199844E1,-1.663299918E0,-2.958000004E-1,2.659399986E0
1.660199844E1,-1.099799991E0,-2.752999961E-1,2.821300030E0
1.662200000E1,-1.381199956E0,-3.329999745E-2,2.883499861E0
1.665199844E1,-1.240399957E0,-9.001999497E-1,3.868899822E0
1.667199844E1,-1.870399952E0,-8.501999974E-1,3.799599886E0
1.669199844E1,-2.571499825E0,-7.440999746E-1,2.220299959E0
1.671199844E1,-2.175299883E0,-5.532000065E-1,1.183200002E0
1.673199844E1,-7.797999978E-1,-9.997999668E-1,1.758399963E0
1.675199844E1,-2.909999900E-2,-1.013000011E0,2.475299835E0
1.677199844E1,-4.176999927E-1,-1.064700007E0,1.716699958E0
1.679199844E1,-1.633000016E0,-7.983999848E-1,-4.908999801E-1
1.681199844E1,-2.408099890E0,-3.452999890E-1,-2.725399971E0
1.683199844E1,-2.735100031E0,1.542000026E-1,-3.474599838E0
1.685199844E1,-2.259399891E0,3.290999830E-1,-3.841300011E0
1.687199844E1,-1.421299934E0,5.047999620E-1,-3.934299946E0
1.689199844E1,-6.053999662E-1,8.127999902E-1,-3.568699837E0
1.691199844E1,-1.304000020E-1,8.617999554E-1,-2.304999828E0
1.693199844E1,-2.954999804E-1,8.564999700E-1,-1.673699975E0
1.695199844E1,-7.137999535E-1,8.040999770E-1,-1.627399921E0
1.697199844E1,-7.622999549E-1,6.366999745E-1,-1.066799998E0
1.699199844E1,-4.538999796E-1,4.312999845E-1,8.549999595E-1
1.701199844E1,1.494999975E-1,1.261999905E-1,2.520299911E0
1.703200000E1,3.516999781E-1,2.135999948E-1,2.682499886E0
1.706199844E1,9.244999886E-1,2.827999890E-1,1.157799959E0
1.708199844E1,1.136299968E0,5.012999773E-1,7.452999949E-1
1.710199844E1,1.018700004E0,4.861999750E-1,8.282999992E-1
1.712199844E1,4.061999917E-1,1.011799932E0,9.958999753E-1
1.714199844E1,4.671999812E-1,1.151499987E0,1.328599930E0
1.716199844E1,1.248999953E0,5.076999664E-1,2.132900000E0
1.718199844E1,7.184999585E-1,-4.270000011E-2,2.849900007E0
1.720199844E1,-5.740000010E-1,-2.585999966E-1,3.269500017E0
1.722199844E1,-1.408299923E0,-3.840999901E-1,2.785499811E0
1.724200000E1,-3.463999927E-1,-6.067999601E-1,2.019299984E0
1.726200000E1,1.311599970E0,-4.915999770E-1,1.140699983E0
1.729199844E1,1.273000002E0,-7.490000129E-2,-3.425999880E-1
1.731200000E1,1.723999977E-1,1.224999949E-1,-2.009999990E0
1.734199844E1,-1.072199941E0,3.339999914E-1,-3.012199879E0
1.736199844E1,-1.337099910E0,5.698999763E-1,-2.823799849E0
1.738199844E1,-1.114099979E0,9.034999609E-1,-2.720599890E0
1.740199844E1,-7.387999892E-1,1.054000020E0,-3.055099964E0
1.742199844E1,-7.609999776E-1,1.291599989E0,-3.672299862E0
1.744199844E1,-7.896999717E-1,1.447099924E0,-3.896799803E0
1.746199844E1,-6.261000037E-1,1.519599915E0,-3.464799881E0
1.748199844E1,-4.335999787E-1,1.564700007E0,-2.572599888E0
1.750199844E1,4.309999943E-2,1.504400015E0,-1.229699969E0
1.752199844E1,3.630999923E-1,1.429199934E0,9.329999983E-2
1.754199844E1,4.439999759E-1,1.364499927E0,1.387599945E0
1.756199844E1,3.604999781E-1,1.138800025E0,2.260900021E0
1.758199844E1,4.791999757E-1,9.889999628E-1,3.134599924E0
1.760199844E1,1.109099984E0,8.055999875E-1,4.086899757E0
1.762199844E1,1.766799927E0,7.005999684E-1,4.627399921E0
1.764200000E1,1.210699916E0,6.250000000E-1,4.333899975E0
1.767200000E1,-5.489000082E-1,5.085999966E-1,2.580299854E0
1.770199844E1,-1.523199916E0,2.779999934E-2,1.956699967E0
1.772199844E1,-2.557199955E0,-1.006999984E-1,1.204399943E0
1.774199844E1,-2.747400045E0,-2.631999850E-1,-2.201000005E-1
1.776199844E1,-2.113199949E0,-2.073999941E-1,-1.221300006E0
1.778199844E1,-6.139999628E-1,-4.147000015E-1,-6.126999855E-1
1.780199844E1,-1.720999926E-1,-3.869999945E-1,7.235999703E-1
1.782199844E1,-6.636999846E-1,-3.087999821E-1,2.000000000E0
1.784199844E1,-1.026199937E0,-4.075999856E-1,1.839100003E0
1.786200000E1,-1.147499919E0,-1.565999985E-1,2.207999974E-1
1.789200000E1,-4.219999909E-1,2.229999900E-1,-2.692199945E0
1.792199844E1,2.168999910E-1,5.121999979E-1,-4.075299740E0
1.794199844E1,6.074000001E-1,5.131999850E-1,-4.485599995E0
1.796199844E1,7.008000016E-1,6.197999716E-1,-4.805599689E0
1.798199844E1,8.190000057E-1,5.647999644E-1,-4.760999680E0
1.800199844E1,5.608999729E-1,9.545999765E-1,-4.724599838E0
1.802199844E1,3.578999937E-1,1.336499929E0,-4.365299702E0
1.804200000E1,2.099999934E-1,1.324000001E0,-3.166199923E0
1.807199844E1,4.564999938E-1,9.318999648E-1,-3.640999794E-1
1.809199844E1,-7.509999722E-2,9.705999494E-1,1.456799984E0
1.811199844E1,-7.089999914E-1,8.102999926E-1,2.965600014E0
1.813199844E1,-3.667999804E-1,6.417999864E-1,3.614199877E0
1.815199844E1,6.280999780E-1,7.823999524E-1,3.754599810E0
1.817199844E1,1.267099977E0,8.321999907E-1,3.687599897E0
1.819199844E1,6.387000084E-1,9.739999771E-1,3.116499901E0
1.821199844E1,3.069999814E-1,6.408999562E-1,2.658900023E0
1.823199844E1,3.647999763E-1,2.620000020E-2,2.799399853E0
1.825199844E1,1.665000021E-1,-4.333999753E-1,3.471799850E0
1.827199844E1,-1.512999982E-1,-5.684999824E-1,3.979899883E0
1.829200000E1,7.566999793E-1,-1.080999970E0,3.442999840E0
1.831200000E1,2.124500036E0,-1.233399987E0,2.157399893E0
1.833200000E1,2.742499828E0,-1.173599958E0,7.537999749E-1
1.836199844E1,1.437699914E0,-7.591999769E-1,-6.566999555E-1
1.838199844E1,8.410000056E-2,-5.827999711E-1,-1.341899991E0
1.840199844E1,-7.188000083E-1,-1.952999979E-1,-1.740700006E0
1.842199844E1,-6.987000108E-1,2.047999948E-1,-1.981099963E0
1.844199844E1,-4.884999990E-1,5.593999624E-1,-2.275199890E0
1.846199844E1,-4.140999913E-1,7.702999711E-1,-2.975100040E0
1.848199844E1,-5.314999819E-1,8.604999781E-1,-4.014899731E0
1.850199844E1,-4.960999787E-1,8.891999722E-1,-4.924799919E0
1.852199844E1,-2.452999949E-1,1.038900018E0,-4.990900040E0
1.854199844E1,3.691999912E-1,1.262799978E0,-3.969899893E0
1.856199844E1,3.836999834E-1,1.517499924E0,-2.733700037E0
1.858199844E1,-7.561999559E-1,1.772899985E0,-1.564299941E0
1.860199844E1,-1.541899920E0,1.633999944E0,-5.357999802E-1
1.862199844E1,-1.460899949E0,1.526499987E0,7.511000037E-1
1.864199844E1,-9.325000048E-1,1.445699930E0,2.479500055E0
1.866199844E1,-2.867999971E-1,1.235399961E0,3.670899868E0
1.868199844E1,8.039999753E-2,1.511899948E0,4.031499863E0
1.870199844E1,5.329999924E-1,1.300499916E0,4.140999794E0
1.872199844E1,-1.096999943E-1,1.066200018E0,4.143399715E0
1.874199844E1,-1.048300028E0,3.561999798E-1,4.542799950E0
1.876199844E1,-2.096799850E0,-6.905999780E-1,5.054399967E0
1.878199844E1,-2.971099854E0,-1.293499947E0,4.765399933E0
1.880199844E1,-2.641399860E0,-1.574499965E0,3.393800020E0
1.882199844E1,-1.109599948E0,-1.659199953E0,1.653999925E0
1.884199844E1,1.149000004E-1,-1.384099960E0,5.324999690E-1
1.886199844E1,2.933000028E-1,-9.572999477E-1,-7.360000163E-2
1.888199844E1,-1.252999902E-1,-7.051999569E-1,-9.607999921E-1
1.890199844E1,-5.446999669E-1,-3.551000059E-1,-2.036099911E0
1.892199844E1,-7.876999974E-1,8.760000020E-2,-2.278399944E0
1.894199844E1,-5.058000088E-1,1.693999916E-1,-2.408999920E0
1.896199844E1,1.570999920E-1,2.114999890E-1,-2.731799841E0
1.898199844E1,6.933000088E-1,3.330000043E-1,-3.661599874E0
1.900199844E1,8.888999820E-1,4.724999964E-1,-4.364900112E0
1.902199844E1,8.772000074E-1,4.575999975E-1,-4.899499893E0
1.904199844E1,5.758999586E-1,5.252000093E-1,-5.040400028E0
1.906199844E1,4.400999844E-1,5.363999605E-1,-4.534299850E0
1.908199844E1,7.671999931E-1,6.216999888E-1,-3.069700003E0
1.910199844E1,8.141999841E-1,6.043999791E-1,-1.411399961E0
1.912199844E1,2.542999983E-1,5.690999627E-1,6.129999831E-2
1.914199844E1,-2.351999879E-1,5.819999576E-1,7.423999906E-1
1.916199844E1,-1.407999992E-1,4.936999977E-1,1.287099957E0
1.918199844E1,7.195999622E-1,7.029999793E-2,2.621700048E0
1.920199844E1,1.300300002E0,-3.814999759E-1,4.087599754E0
1.922199844E1,5.460999608E-1,-1.825999916E-1,4.496200085E0
1.924199844E1,1.577999890E-1,8.199999481E-2,3.697700024E0
1.926199844E1,1.356599927E0,-1.947999895E-1,3.233299971E0
1.928199844E1,1.980999947E0,-4.526999891E-1,4.728799820E0
1.930199844E1,1.003399968E0,-1.046999931E0,5.940299988E0
1.932199844E1,7.258999944E-1,-1.544999957E0,4.192999840E0
1.934199844E1,1.542599916E0,-1.332099915E0,1.221799970E0
1.936199844E1,2.339200020E0,-8.555999994E-1,-1.445099950E0
1.938199844E1,1.920699954E0,-4.329999983E-1,-2.479599953E0
1.940199844E1,1.181900024E0,-1.322000027E-1,-3.065299988E0
1.942199844E1,5.629999936E-2,4.099999964E-1,-2.873100042E0
1.944199844E1,-1.392699957E0,8.693000078E-1,-1.527400017E0
1.946200000E1,-1.656099916E0,7.009999752E-1,-1.327700019E0
1.949199844E1,-7.971999645E-1,8.082000017E-1,-3.075899839E0
1.951199844E1,2.282999903E-1,1.003799915E0,-4.441499710E0
1.953199844E1,1.645999998E-1,1.268800020E0,-4.853300095E0
1.955199844E1,-4.192000031E-1,1.230099916E0,-3.812199831E0
1.957199844E1,-5.913999677E-1,1.190500021E0,-2.357499838E0
1.959199844E1,-3.035999835E-1,1.346599936E0,-9.516999722E-1
1.961199844E1,-9.999999776E-3,1.388799906E0,6.696000099E-1
1.963199844E1,2.795000076E-1,1.394500017E0,2.111500025E0
1.965199844E1,2.965999842E-1,1.238099933E0,3.041899920E0
1.967199844E1,4.041000009E-1,1.079800010E0,3.542099953E0
1.969199844E1,7.597000003E-1,9.641000032E-1,3.820099831E0
1.971199844E1,1.002300024E0,8.928999901E-1,3.484399796E0
1.973199844E1,8.769999743E-1,8.776999712E-1,2.947299957E0
1.975199844E1,9.280999899E-1,1.147999987E-1,3.703199863E0
1.977199844E1,3.684999943E-1,-1.199399948E0,5.077699661E0
1.979199844E1,-1.042400002E0,-1.995399952E0,5.751899719E0
1.981200000E1,-1.627200007E0,-2.271100044E0,3.540099859E0
1.983200000E1,-1.154199958E0,-1.599200010E0,4.574999809E-1
1.986199844E1,1.100399971E0,-8.035999537E-1,-1.269799948E0
1.988199844E1,1.561699986E0,-6.943999529E-1,-2.522000074E-1
1.990199844E1,4.387999773E-1,-7.744999528E-1,3.937999904E-1
1.992199844E1,-7.231000066E-1,-5.629000068E-1,-7.288999557E-1
1.994199844E1,-9.370999932E-1,-1.666999906E-1,-2.422600031E0
1.996199844E1,-4.724999964E-1,2.924000025E-1,-3.718899965E0
1.998199844E1,2.679999918E-2,4.460999966E-1,-4.355799675E0
2.000199844E1,4.876999855E-1,4.238999784E-1,-4.559700012E0
2.002199844E1,7.396999598E-1,3.647999763E-1,-4.782499790E0
2.004199844E1,5.791000128E-1,3.856999874E-1,-4.866099834E0
2.006199844E1,4.693999887E-1,3.428999782E-1,-4.693200111E0
2.008199844E1,5.401999950E-1,2.867999971E-1,-4.116699696E0
2.010199844E1,1.020900011E0,2.727999985E-1,-2.923799992E0
2.012199844E1,8.738999963E-1,3.001999855E-1,-6.252999902E-1
2.014199844E1,1.213999987E-1,1.560000032E-1,7.148999572E-1
2.016199844E1,-7.461999655E-1,3.495999873E-1,7.933999896E-1
2.018199844E1,-4.878999889E-1,6.904000044E-1,1.297799945E0
2.020199844E1,1.495999992E-1,8.059999943E-1,3.237299919E0
2.022199844E1,1.070999950E-1,5.828999877E-1,4.965499878E0
2.024199844E1,-4.386999905E-1,3.561999798E-1,4.810100079E0
2.026199844E1,-4.389999807E-1,4.535000026E-1,3.561599970E0
2.028199844E1,2.588000000E-1,2.739999890E-1,3.417999983E0
2.030199844E1,7.382999659E-1,-1.305999905E-1,4.644299984E0
2.032199844E1,8.007999659E-1,-5.449999571E-1,4.401599884E0
2.034199844E1,1.275200009E0,-7.426999807E-1,2.863499880E0
2.036200000E1,2.804199934E0,-1.363799930E0,1.654899955E0
2.039199844E1,2.204400063E0,-1.571399927E0,4.427999854E-1
2.041199844E1,3.362999856E-1,-1.220600009E0,-2.698999941E-1
2.043199844E1,-9.242999554E-1,-7.415999770E-1,-1.690499902E0
2.045199844E1,-1.189399958E0,-1.683999896E-1,-2.959599972E0
2.047199844E1,-1.157199979E0,4.980999827E-1,-2.959800005E0
2.049199844E1,-5.738999844E-1,8.046999574E-1,-2.902099848E0
2.051199844E1,-2.904999852E-1,8.823999763E-1,-3.313999891E0
2.053199844E1,-1.174999997E-1,8.922999501E-1,-4.102900028E0
2.055199844E1,8.179999888E-2,1.132099986E0,-4.928299904E0
2.057199844E1,1.832999885E-1,1.179099917E0,-4.996399879E0
2.059199844E1,2.577999830E-1,1.262399912E0,-4.099599838E0
2.061199844E1,8.241999745E-1,1.215499997E0,-2.500399828E0
2.063199844E1,1.132099986E0,1.246799946E0,-4.204999804E-1
2.065199844E1,1.182699919E0,1.283999920E0,7.795000076E-1
2.067199844E1,8.296999931E-1,1.162099957E0,1.415599942E0
2.069199844E1,3.974999785E-1,8.195999861E-1,1.702299953E0
2.071199844E1,2.768000066E-1,4.116999805E-1,1.900799990E0
2.073199844E1,1.815999895E-1,8.199999481E-2,2.925400019E0
2.075199844E1,-9.949999452E-1,-8.720000088E-2,4.267399788E0
2.077199844E1,-1.776699901E0,-6.525999904E-1,5.061699867E0
2.079199844E1,-1.136999965E0,-1.928399920E0,5.249000072E0
2.081200000E1,-1.798099995E0,-2.293599844E0,5.091199875E0
2.084200000E1,-2.925199986E0,-1.909899950E0,2.959499836E0
2.087199844E1,-1.095199943E0,-1.456799984E0,-5.090000033E-1
2.089199844E1,6.409999728E-1,-1.401999950E0,-4.027999938E-1
2.091199844E1,1.108999968E0,-1.176299930E0,7.247999907E-1
2.093199844E1,2.870999873E-1,-8.115999699E-1,5.780999660E-1
2.095199844E1,-4.434999824E-1,-3.164999783E-1,-9.512999654E-1
2.097199844E1,-1.286000013E-1,6.700000167E-2,-2.707700014E0
2.099199844E1,3.862999976E-1,5.357999802E-1,-3.252799988E0
2.101199844E1,9.800999761E-1,6.132999659E-1,-3.441699982E0
2.103199844E1,1.016299963E0,6.679999828E-1,-4.000499725E0
2.105199844E1,8.754000068E-1,6.680999994E-1,-4.860599995E0
2.107199844E1,8.865000010E-1,6.423000097E-1,-5.111799717E0
2.109204219E1,7.258999944E-1,6.513000131E-1,-4.176700115E0
2.112199844E1,3.296000063E-1,3.388999999E-1,-2.623899937E0
2.114200000E1,8.760000020E-2,4.178999960E-1,-1.885499954E0
2.116200000E1,-2.418999970E-1,5.649999976E-1,-8.829999566E-1
2.118200000E1,-8.443999887E-1,7.195999622E-1,1.058599949E0
2.120200000E1,-7.647999525E-1,4.950999916E-1,3.020999908E0
2.122200000E1,-6.614999771E-1,6.306999922E-1,4.053599834E0
2.124200000E1,-7.998999953E-1,5.101999640E-1,4.441899776E0
2.126200000E1,-8.833999634E-1,3.346000016E-1,4.358399868E0
2.128200000E1,-8.043999672E-1,6.054999828E-1,3.643699884E0
2.130200000E1,-1.282999963E-1,6.947999597E-1,3.268199921E0
2.133200000E1,6.958000064E-1,-1.819999889E-2,4.621399879E0
2.135200000E1,2.674999833E-1,-5.774999857E-1,4.577499866E0
2.137200000E1,9.138000011E-1,-1.361199975E0,3.215600014E0
2.139200000E1,2.957399845E0,-1.796000004E0,1.850899935E0
2.142199844E1,3.196099997E0,-1.999199986E0,1.777999997E-1
2.144200000E1,8.704999685E-1,-1.274599910E0,-5.934000015E-1
2.147199844E1,-1.155699968E0,-3.883999884E-1,-2.127399921E0
2.149199844E1,-1.371500015E0,1.914999932E-1,-3.441599846E0
2.151199844E1,-1.142400026E0,6.969000101E-1,-4.396299839E0
2.153199844E1,-1.026999950E0,8.537999988E-1,-4.974499702E0
2.155200000E1,-1.260599971E0,9.271000028E-1,-5.246699810E0
2.157200000E1,-1.374300003E0,8.738999963E-1,-5.496900082E0
2.160199844E1,-8.477999568E-1,1.044399977E0,-5.217599869E0
2.162199844E1,-3.270999789E-1,1.093999982E0,-3.895499945E0
2.164199844E1,-3.332999945E-1,9.320999980E-1,-2.154299974E0
2.166199844E1,-6.067999601E-1,8.139999509E-1,-5.390999913E-1
2.168199844E1,-7.534999847E-1,6.190999746E-1,6.290999651E-1
2.170199844E1,-5.468999743E-1,6.599000096E-1,1.526199937E0
2.172199844E1,-6.516999602E-1,8.043999672E-1,2.841199875E0
2.174199844E1,-6.060000062E-1,7.028999925E-1,4.074899673E0
2.176199844E1,2.269999981E-1,5.551999807E-1,4.670399666E0
2.178199844E1,7.592999935E-1,7.560999990E-1,4.679500103E0
2.180199844E1,3.308999836E-1,1.070099950E0,4.257899761E0
2.182199844E1,-6.949999928E-2,9.380999804E-1,3.690699816E0
2.184199844E1,-2.431999892E-1,3.382000029E-1,3.888799906E0
2.186199844E1,-9.836999774E-1,-8.361999989E-1,4.459599972E0
2.188199844E1,-1.547899961E0,-1.588599920E0,3.965499878E0
2.190199844E1,-9.576999545E-1,-1.886599898E0,2.556399822E0
2.192199844E1,4.808999896E-1,-1.838999987E0,1.435799956E0
2.194199844E1,1.355599999E0,-1.445799947E0,1.231499910E0
2.196199844E1,6.622999907E-1,-1.186699986E0,1.271799922E0
2.198199844E1,-4.217000008E-1,-9.923999906E-1,3.836999834E-1
2.200199844E1,-6.762999892E-1,-7.016999722E-1,-1.292500019E0
2.202199844E1,-6.130999923E-1,-3.364000022E-1,-2.676499844E0
2.204199844E1,-1.167999953E-1,-6.689999998E-2,-3.442199945E0
2.206199844E1,4.064999819E-1,3.089999966E-2,-3.674899817E0
2.208199844E1,5.439999700E-1,1.898999959E-1,-3.812999964E0
2.210199844E1,6.250999570E-1,9.649999440E-2,-4.308499813E0
2.212199844E1,7.712999582E-1,1.397999972E-1,-4.927799702E0
2.214199844E1,8.027999997E-1,1.889999956E-1,-5.377099991E0
2.216199844E1,6.669999957E-1,1.934999973E-1,-5.317999840E0
2.218199844E1,3.436999917E-1,2.690999806E-1,-4.704199791E0
2.220199844E1,1.400000006E-1,2.903999984E-1,-3.644399881E0
2.222199844E1,1.277000010E-1,1.853999943E-1,-2.038800001E0
2.224199844E1,-3.118999898E-1,4.253999889E-1,6.169999763E-2
2.226200000E1,-9.081999660E-1,3.308999836E-1,1.810499907E0
2.228200000E1,-7.301999927E-1,-9.299999475E-2,2.502899885E0
2.231200000E1,-9.919999540E-2,-1.366999894E-1,3.576999903E0
2.233200000E1,1.087999940E-1,-2.074999958E-1,4.747699738E0
2.236199844E1,1.353999972E0,-6.668999791E-1,5.385399818E0
2.238200000E1,1.792099953E0,-8.440999985E-1,5.720999718E0
2.241199844E1,3.831000030E-1,-1.077600002E0,5.042399883E0
2.243202656E1,5.451999903E-1,-9.138000011E-1,3.087399960E0
2.246199844E1,1.992899895E0,-8.399999738E-1,2.763999999E-1
2.248199844E1,1.762499928E0,-4.551999867E-1,-1.433999985E-1
2.250199844E1,4.660999775E-1,-4.720999897E-1,-2.820999920E-1
2.252199844E1,-8.353999853E-1,-1.810999960E-1,-1.050499916E0
2.254199844E1,-1.624499917E0,1.193999946E-1,-1.935699940E0
2.256199844E1,-1.548299909E0,3.479000032E-1,-2.623899937E0
2.258199844E1,-1.298099995E0,8.057000041E-1,-3.075299978E0
2.260199844E1,-1.177799940E0,9.286999702E-1,-3.584399939E0
2.262199844E1,-1.025599957E0,1.044600010E0,-4.131199837E0
2.264199844E1,-8.263999820E-1,1.171299934E0,-4.617700100E0
2.266199844E1,-7.791000009E-1,1.284099936E0,-4.672100067E0
2.268199844E1,-7.680999637E-1,1.279299974E0,-3.836299896E0
2.270199844E1,-5.537999868E-1,1.092299938E0,-2.344399929E0
2.272199844E1,-2.895999849E-1,1.074000001E0,-6.669999957E-1
2.274200000E1,-3.119999915E-2,9.420999885E-1,8.253999949E-1
2.276200000E1,2.029999904E-2,1.036299944E0,1.809499979E0
2.279199844E1,2.105000019E-1,9.371999502E-1,2.775699854E0
2.281200000E1,8.495000005E-1,9.246000051E-1,2.819999933E0
2.284199844E1,1.109699965E0,7.633000016E-1,2.815500021E0
2.286200000E1,3.736999929E-1,4.653999805E-1,3.345999956E0
2.289199844E1,4.409999773E-2,-8.491999507E-1,5.303199768E0
2.291199844E1,-7.708999515E-1,-1.487200022E0,6.339200020E0
2.293199844E1,-1.272499919E0,-2.210899830E0,4.609600067E0
2.295199844E1,-1.315500021E0,-1.639299989E0,1.801800013E0
2.297200000E1,7.629999518E-2,-1.300899982E0,-5.029999837E-2
2.300199844E1,6.362000108E-1,-9.411000013E-1,3.908999860E-1
2.302199844E1,-2.281999886E-1,-1.012300014E0,3.291999996E-1
2.304199844E1,-9.702000022E-1,-7.196999788E-1,-6.460999846E-1
2.306199844E1,-9.818999767E-1,-4.889999926E-1,-1.884099960E0
2.308199844E1,-9.124999642E-1,5.279999971E-2,-2.422499895E0
2.310199844E1,-5.288000107E-1,-9.389999509E-2,-2.758399963E0
2.312199844E1,-3.509999812E-2,-1.652999967E-1,-3.420699835E0
2.314199844E1,2.763999999E-1,-1.455999911E-1,-4.360699654E0
2.316199844E1,3.470999897E-1,-7.149999589E-2,-5.012199879E0
2.318199844E1,2.945999801E-1,-2.009999938E-2,-5.181999683E0
2.320200312E1,4.444999993E-1,-1.709999889E-2,-4.659599781E0
2.323199844E1,6.606000066E-1,1.401000023E-1,-2.879899979E0
2.325199844E1,7.398999929E-1,1.900999993E-1,-1.341499925E0
2.327199844E1,3.246999979E-1,2.358999997E-1,-5.289999843E-1
2.329199844E1,-2.889999934E-2,3.368999958E-1,2.352999896E-1
2.331200000E1,3.739999980E-2,3.879999816E-1,1.266399980E0
2.334199844E1,7.622999549E-1,1.310999990E-1,3.626899958E0
2.336199844E1,2.465999871E-1,-8.499999531E-3,4.339099884E0
2.338199844E1,-1.398999989E-1,3.029999882E-2,3.731899977E0
2.340199844E1,7.428999543E-1,-1.539999992E-2,3.279500008E0
2.342199844E1,1.390599966E0,-2.210999876E-1,4.331699848E0
2.344199844E1,5.643999577E-1,-5.437999964E-1,5.255399704E0
2.346199844E1,-8.689999580E-2,-4.732999802E-1,4.129899979E0
2.348199844E1,1.040899992E0,-8.542999625E-1,1.977699995E0
2.350199844E1,2.571899891E0,-9.566999674E-1,7.479999959E-2
2.352199844E1,2.380599976E0,-7.967999578E-1,-8.759999871E-1
2.354199844E1,9.116999507E-1,-8.009999990E-1,-1.590499997E0
2.356199844E1,-2.851999998E-1,-5.001999736E-1,-2.435600042E0
2.358199844E1,-6.987000108E-1,-3.391999900E-1,-3.023399830E0
2.360199844E1,-4.533999860E-1,5.399999674E-3,-2.999799967E0
2.362199844E1,-1.129999980E-1,2.387999892E-1,-3.189899921E0
2.364199844E1,-2.195999920E-1,3.901000023E-1,-3.886299849E0
2.366199844E1,-4.939999878E-1,5.428999662E-1,-4.883399963E0
2.368200000E1,-6.606999636E-1,7.150999904E-1,-5.339200020E0
2.371199844E1,-1.342999935E-1,8.834999800E-1,-4.424900055E0
2.373199844E1,1.623999923E-1,9.085999727E-1,-2.663300037E0
2.375199844E1,1.841999888E-1,9.129999876E-1,-7.847999930E-1
2.377199844E1,1.019999981E-1,7.095999718E-1,1.173900008E0
2.379199844E1,-3.780999780E-1,6.759999990E-1,2.392199993E0
2.381199844E1,-7.106999755E-1,7.753999829E-1,2.760099888E0
2.383200000E1,-1.225999966E-1,6.620000005E-1,2.939999819E0
2.386199844E1,1.479200006E0,5.676000118E-1,4.351099968E0
2.388199844E1,1.577199936E0,6.143999696E-1,4.358599663E0
2.390199844E1,7.712000012E-1,7.738999724E-1,4.393199921E0
2.392199844E1,2.644000053E-1,-1.432999969E-1,5.561399937E0
2.394199844E1,-2.375999987E-1,-1.091599941E0,6.262300014E0
2.396199844E1,-5.018000007E-1,-1.742599964E0,5.222499847E0
2.398199844E1,-4.339999706E-2,-1.868799925E0,3.158999920E0
2.400199844E1,8.069999814E-1,-1.828299999E0,9.140999913E-1
2.402199844E1,1.002699971E0,-1.434299946E0,-1.792999953E-1
2.404199844E1,4.032000005E-1,-9.882999659E-1,-1.340000033E-1
2.406199844E1,-3.669999838E-1,-8.704999685E-1,-3.296000063E-1
2.408199844E1,-1.122300029E0,-6.419999599E-1,-1.139799953E0
2.410199844E1,-1.464599967E0,-4.822999835E-1,-2.369499922E0
2.412199844E1,-1.462700009E0,-2.588999867E-1,-3.391499996E0
2.414199844E1,-1.380800009E0,-1.735000014E-1,-3.520399809E0
2.416199844E1,-1.043300033E0,-1.913999915E-1,-3.716799974E0
2.418199844E1,-7.218999863E-1,3.500000015E-2,-4.019199848E0
2.420200781E1,-4.195999801E-1,2.145999968E-1,-4.364900112E0
2.423199844E1,-3.161000013E-1,5.139999986E-1,-4.728099823E0
2.425199844E1,-6.669999659E-2,5.920000076E-1,-4.589900017E0
2.427199844E1,-9.030000120E-2,6.861999631E-1,-3.815399885E0
2.429199844E1,-4.140999913E-1,9.167999625E-1,-2.417399883E0
2.431200000E1,-6.158999801E-1,8.190000057E-1,-6.209999919E-1
2.434199844E1,-1.122699976E0,6.592999697E-1,2.980599880E0
2.436199844E1,-6.815999746E-1,1.724999994E-1,4.381599903E0
2.438199844E1,2.597000003E-1,-2.703999877E-1,4.184400082E0
2.440199844E1,5.676999688E-1,1.410999894E-1,3.466300011E0
2.442199844E1,6.317999959E-1,1.990999877E-1,3.016099930E0
2.444199844E1,1.513799906E0,-6.096000075E-1,3.508099794E0
2.446199844E1,1.434099913E0,-1.200799942E0,4.884699821E0
2.448199844E1,2.522999942E-1,-1.455099940E0,5.752799988E0
2.450199844E1,3.396999836E-1,-1.677099943E0,4.477399826E0
2.452199844E1,2.585899830E0,-1.915399909E0,2.731699944E0
2.454199844E1,3.636199951E0,-1.148899913E0,6.994999647E-1
2.456199844E1,2.217599869E0,-5.123999715E-1,-8.055999875E-1
2.458199844E1,-2.025000006E-1,-5.449999869E-2,-1.839100003E0
2.460200000E1,-2.024999857E0,1.640999913E-1,-2.289799929E0
2.462200000E1,-2.300400019E0,-1.889999956E-1,-2.531800032E0
2.464200000E1,-1.825399995E0,-2.646999955E-1,-2.721499920E0
2.467199844E1,-9.163999557E-1,-1.428999901E-1,-3.302399874E0
2.469199844E1,-1.202299953E0,8.889999986E-2,-3.899499893E0
2.471199844E1,-1.024099946E0,1.794999987E-1,-4.504399776E0
2.473199844E1,2.209999971E-2,1.939999908E-1,-4.665199757E0
2.475199844E1,6.450999975E-1,3.265999854E-1,-4.327600002E0
2.477199844E1,9.083999991E-1,3.552999794E-1,-3.727799892E0
2.479199844E1,6.035000086E-1,6.345999837E-1,-2.816499949E0
2.481200000E1,2.812999785E-1,8.526999950E-1,-1.299099922E0
2.483200000E1,1.023999974E-1,8.952999711E-1,2.567999959E-1
2.486199844E1,3.136999905E-1,6.438999772E-1,2.223799944E0
2.488199844E1,6.875000000E-1,2.434999943E-1,3.201399803E0
2.490199844E1,5.029000044E-1,-5.722000003E-1,4.365900040E0
2.492199844E1,-1.163699985E0,-2.926999927E-1,5.750000000E0
2.494199844E1,-1.292899966E0,-3.385999799E-1,6.918200016E0
2.496199844E1,-1.546999961E-1,-1.040899992E0,7.040599823E0
2.498199844E1,-1.657999903E-1,-1.527199984E0,5.479399681E0
2.500199844E1,-4.009999931E-1,-1.799899936E0,3.191900015E0
2.502199844E1,2.746999860E-1,-1.851999998E0,1.701799989E0
2.504199844E1,1.080199957E0,-1.830199957E0,1.617999911E0
2.506199844E1,7.419999838E-1,-1.470999956E0,1.811100006E0
2.508199844E1,-3.111000061E-1,-1.207599998E0,1.167799950E0
2.510199844E1,-8.829999566E-1,-7.441999912E-1,7.429999858E-2
2.512199844E1,-7.055999637E-1,-4.799999893E-1,-1.282299995E0
2.514199844E1,-2.594999969E-1,-7.159999758E-2,-2.588099957E0
2.516199844E1,2.583999932E-1,1.537999958E-1,-3.588500023E0
2.518199844E1,4.518999755E-1,2.698999941E-1,-4.087999821E0
2.520199844E1,2.735999823E-1,1.468999982E-1,-4.193999767E0
2.522199844E1,7.469999790E-2,7.189999521E-2,-4.171899796E0
2.524199844E1,-1.300000004E-3,4.549999908E-2,-4.890599728E0
2.526199844E1,-1.129999943E-2,1.948999912E-1,-5.487899780E0
2.528199844E1,8.819999546E-2,2.779999971E-1,-5.163199902E0
2.530199844E1,3.177999854E-1,2.964999974E-1,-3.859899998E0
2.532199844E1,1.399999950E-3,5.001000166E-1,-1.716099977E0
2.534199844E1,-2.429999970E-2,2.316000015E-1,4.553000033E-1
2.536199844E1,7.594000101E-1,-1.511999965E-1,2.365000010E0
2.538199844E1,4.972999990E-1,-6.891999841E-1,2.874799967E0
2.540199844E1,-4.696999788E-1,-2.593999803E-1,2.998399973E0
2.542199844E1,-7.946999669E-1,1.480000019E-1,2.966399908E0
2.544200000E1,-6.554999948E-1,5.794000030E-1,2.869999886E0
2.547199844E1,8.984999657E-1,2.313999981E-1,3.194099903E0
2.549199844E1,1.442299962E0,-2.468999922E-1,4.088799953E0
2.551199844E1,3.016999960E-1,-6.107999682E-1,4.633100033E0
2.553199844E1,-1.037400007E0,-6.493999958E-1,4.008399963E0
2.555199844E1,-3.669999838E-1,-7.986999750E-1,2.684200048E0
2.557199844E1,1.583599925E0,-7.583999634E-1,1.902899981E0
2.559199844E1,2.397099972E0,-5.852999687E-1,1.311999917E0
2.561199844E1,1.342100024E0,-5.609999895E-1,4.846999943E-1
2.563199844E1,-4.129000008E-1,-4.037999809E-1,-1.187600017E0
2.565199844E1,-1.440699935E0,-6.870000064E-2,-2.789799929E0
2.567199844E1,-1.735099912E0,2.245999873E-1,-3.717399836E0
2.569199844E1,-1.372299910E0,4.075999856E-1,-4.072899818E0
2.571199844E1,-1.035400033E0,4.667999744E-1,-3.923999786E0
2.573199844E1,-1.011999965E0,4.029999971E-1,-3.789599895E0
2.575199844E1,-1.194000006E0,3.517999947E-1,-3.788599968E0
2.577199844E1,-1.059800029E0,2.167999893E-1,-4.107899666E0
2.579199844E1,-9.445999861E-1,2.969000041E-1,-4.211599827E0
2.581199844E1,-7.005999684E-1,4.139999747E-1,-3.404799938E0
2.583199844E1,-3.732999861E-1,4.307999909E-1,-1.589999914E0
2.585199844E1,3.545999825E-1,3.008999825E-1,3.041999936E-1
2.587199844E1,5.985999703E-1,1.516000032E-1,1.660300016E0
2.589199844E1,1.557999998E-1,2.407999933E-1,2.603199959E0
2.591199844E1,1.776999980E-1,1.252000034E-1,3.150599957E0
2.593199844E1,3.974999785E-1,1.262999922E-1,3.461799860E0
2.595199844E1,7.119999528E-1,1.612000018E-1,3.511099815E0
2.597199844E1,7.831999660E-1,4.011999965E-1,3.473500013E0
2.599199844E1,7.795999646E-1,2.305999994E-1,4.365399837E0
2.601199844E1,2.435999960E-1,-4.774999917E-1,5.481999874E0
2.603199844E1,-6.613000035E-1,-1.186100006E0,5.572299957E0
2.605199844E1,-1.089699984E0,-1.756199956E0,3.600799799E0
2.607199844E1,-2.462999970E-1,-1.525599957E0,1.675199986E0
2.609199844E1,9.086999893E-1,-1.355000019E0,1.063400030E0
2.611199844E1,1.126799941E0,-1.241799951E0,1.502799988E0
2.613199844E1,-1.180999950E-1,-1.178799987E0,1.395699978E0
2.615200000E1,-1.335699916E0,-9.838999510E-1,7.238999605E-1
2.617200000E1,-1.493199944E0,-6.895999908E-1,-4.605000019E-1
2.620199844E1,-6.165999770E-1,-2.324999869E-1,-2.829099894E0
2.622199844E1,-3.155999780E-1,-2.639999986E-2,-4.191299915E0
2.624199844E1,-1.811999977E-1,1.799999969E-3,-5.187699795E0
2.626199844E1,-1.208999977E-1,-1.179999951E-2,-5.555599689E0
2.628199844E1,-1.254999936E-1,8.200000040E-3,-5.491999626E0
2.630199844E1,-1.919000000E-1,-5.449999869E-2,-5.161900043E0
2.632199844E1,-1.298999935E-1,3.199999919E-3,-4.908999920E0
2.634199844E1,-1.586999893E-1,1.501999944E-1,-4.133699894E0
2.636199844E1,-1.230999976E-1,1.451999992E-1,-3.073199987E0
2.638199844E1,-1.594000012E-1,2.631999850E-1,-1.826799989E0
2.640199844E1,-2.447999865E-1,2.190999985E-1,-3.786000013E-1
2.642199844E1,-3.246999979E-1,3.585000038E-1,1.377799988E0
2.644200000E1,-1.052000001E-1,1.162000000E-1,3.221299887E0
2.647199844E1,1.211799979E0,-1.182500005E0,4.023099899E0
2.649199844E1,1.538900018E0,-1.199999928E0,3.369499922E0
2.651199844E1,1.898999929E0,-9.629999995E-1,2.763200045E0
2.653199844E1,2.082000017E0,-7.430999875E-1,3.161700010E0
2.655199844E1,1.231400013E0,-5.880999565E-1,4.089799881E0
2.657199844E1,3.351999819E-1,-9.053999782E-1,4.206999779E0
2.659199844E1,3.297999799E-1,-1.076699972E0,3.142599821E0
2.661199844E1,1.814899921E0,-1.175300002E0,2.242199898E0
2.663199844E1,2.296200037E0,-8.078999519E-1,2.491600037E0
2.665199844E1,8.768000007E-1,-5.327000022E-1,3.310400009E0
2.667199844E1,-9.143999815E-1,-3.872999847E-1,1.936399937E0
2.669199844E1,-1.543299913E0,-3.434999883E-1,-2.791000009E-1
2.671199844E1,-1.180400014E0,-2.687000036E-1,-1.909500003E0
2.673199844E1,-9.505999684E-1,7.469999790E-2,-3.108999968E0
2.675199844E1,-9.712999463E-1,2.258999944E-1,-4.179299831E0
2.677199844E1,-1.179999948E0,4.310999811E-1,-4.954099655E0
2.679199844E1,-1.526600003E0,6.685999632E-1,-4.958699703E0
2.681199844E1,-1.620399952E0,7.813999653E-1,-5.097599983E0
2.683199844E1,-1.414499998E0,1.061499953E0,-5.234799862E0
2.685199844E1,-1.199999928E0,1.388499975E0,-4.909100056E0
2.687199844E1,-6.711999774E-1,1.400699973E0,-3.561399937E0
2.689199844E1,-1.128999963E-1,1.495000005E0,-1.649099946E0
2.691199844E1,4.587000012E-1,1.310500026E0,8.242999911E-1
2.693199844E1,-3.368999958E-1,1.085199952E0,3.068099976E0
2.695199844E1,-1.130699992E0,7.446999550E-1,4.334799767E0
2.697199844E1,-9.355999827E-1,5.500000119E-1,3.942600012E0
2.699199844E1,-1.856999993E-1,9.146999717E-1,3.870899916E0
2.701199844E1,5.137000084E-1,1.248799920E0,4.314700127E0
2.703199844E1,6.222999692E-1,8.797999620E-1,5.431999683E0
2.705199844E1,2.823999822E-1,-7.800999880E-1,6.689799786E0
2.707199844E1,-1.266899943E0,-1.709499955E0,7.456599712E0
2.709199844E1,-2.200899839E0,-2.614699841E0,5.291899681E0
2.711199844E1,-1.738600016E0,-2.395099878E0,2.818699837E0
2.713199844E1,-4.959999770E-2,-2.080399990E0,1.252200007E0
2.715199844E1,2.371999919E-1,-1.567199945E0,9.070999622E-1
2.717199844E1,-7.969999909E-1,-1.237999916E0,-9.299999475E-2
2.719199844E1,-1.850399971E0,-4.949999750E-1,-1.061999917E0
2.721199844E1,-1.657899976E0,-8.817999959E-1,-1.968999982E0
2.723199844E1,-1.516399980E0,-7.129999995E-1,-3.167199850E0
2.725200000E1,-1.287299991E0,-7.459999621E-2,-4.064099789E0
2.728199844E1,-2.749999985E-2,-1.893000007E-1,-5.139899731E0
2.730199844E1,5.618999600E-1,-5.819999576E-1,-5.418699741E0
2.732200000E1,2.901999950E-1,-9.409999847E-1,-4.699199677E0
2.734200000E1,-5.640999675E-1,-1.250100017E0,-3.040299892E0
2.736200000E1,-1.195999980E0,-1.305199981E0,-1.958199978E0
2.739200000E1,-7.452999949E-1,-8.076999784E-1,-1.543499947E0
2.742199844E1,4.859999940E-2,-4.296000004E-1,-5.011000037E-1
2.744199844E1,1.709999889E-1,-2.215999961E-1,2.603999972E-1
2.746199844E1,4.517000020E-1,-3.960999846E-1,1.076300025E0
2.748199844E1,5.828999877E-1,-3.849999979E-2,1.698099971E0
2.750199844E1,3.265999854E-1,4.545999765E-1,1.875000000E0
2.752199844E1,-2.470999956E-1,9.498999715E-1,1.739300013E0
2.754199844E1,-4.679999873E-2,1.097599983E0,2.047499895E0
2.756199844E1,7.502999902E-1,4.469999969E-1,3.271299839E0
2.758199844E1,3.463000059E-1,-3.777999878E-1,4.876100063E0
2.760199844E1,-6.311999559E-1,-1.309799910E0,5.687599659E0
2.762199844E1,-4.472999871E-1,-1.331499934E0,4.439799786E0
2.764199844E1,1.354900002E0,-1.218199968E0,2.664599895E0
2.766199844E1,2.115599871E0,-9.386000037E-1,1.120399952E0
2.768199844E1,1.689499974E0,-8.120999932E-1,2.488999963E-1
2.770199844E1,5.467000008E-1,-8.205999732E-1,-1.013199925E0
2.772200000E1,-4.390999973E-1,-6.175000072E-1,-2.520499945E0
2.775199844E1,-5.180000067E-1,2.950000018E-2,-3.208099842E0
2.777199844E1,-4.580999911E-1,4.490000010E-1,-3.605099916E0
2.779199844E1,-7.992999554E-1,7.495999932E-1,-3.738399982E0
2.781200000E1,-8.720999956E-1,7.615999579E-1,-3.926399946E0
2.783200000E1,-8.145999908E-1,8.141999841E-1,-4.557600021E0
2.786199844E1,-7.615999579E-1,9.363999963E-1,-5.019000053E0
2.788199844E1,-8.166999817E-1,1.017599940E0,-4.304699898E0
2.790199844E1,-7.005000114E-1,1.004999995E0,-2.757699966E0
2.792199844E1,-3.179000020E-1,1.226699948E0,-3.455999792E-1
2.794199844E1,2.483999878E-1,1.032599926E0,1.865599990E0
2.796199844E1,2.678000033E-1,9.436999559E-1,4.041800022E0
2.798199844E1,1.542999893E-1,8.086000085E-1,5.758999825E0
2.800199844E1,8.517000079E-1,2.962999940E-1,6.013000011E0
2.802199844E1,1.558899999E0,1.309999973E-1,5.541999817E0
2.804199844E1,1.169999957E0,3.484999835E-1,4.657099724E0
2.806199844E1,5.331000090E-1,1.419999897E-1,4.309499741E0
2.808199844E1,-6.051999927E-1,-7.401999831E-1,4.775599957E0
2.810199844E1,-2.065000057E0,-2.059099913E0,4.121099949E0
2.812199844E1,-3.100399971E0,-2.412199974E0,1.797599912E0
2.814199844E1,-2.547799826E0,-2.374699831E0,-1.011099935E0
2.816199844E1,-8.107999563E-1,-2.036999941E0,-1.573899984E0
2.818199844E1,4.131000042E-1,-1.677299976E0,-9.919999540E-2
2.820199844E1,5.260000005E-2,-1.312299967E0,1.332799911E0
2.822199844E1,-8.958999515E-1,-1.010999918E0,4.918999970E-1
2.824199844E1,-1.464599967E0,-4.836999774E-1,-1.065500021E0
2.826199844E1,-1.136199951E0,-1.819999963E-1,-1.801499963E0
2.828199844E1,-6.098999977E-1,4.069999978E-2,-2.467099905E0
2.830199844E1,-2.276999950E-1,9.989999980E-2,-3.644199848E0
2.832199844E1,-3.460000083E-2,2.470999956E-1,-4.704299927E0
2.834199844E1,1.607999951E-1,1.881999969E-1,-5.258500099E0
2.836200000E1,3.152999878E-1,2.012999952E-1,-5.143499851E0
2.839199844E1,4.188999832E-1,3.091999888E-1,-4.261399746E0
2.841199844E1,5.210999846E-1,3.328000009E-1,-3.442199945E0
2.843201875E1,5.279999971E-1,3.713999987E-1,-2.093899965E0
2.846199844E1,-1.084999964E-1,4.097999930E-1,-3.114999831E-1
2.848199844E1,-7.143999934E-1,7.322999835E-1,9.937999845E-1
2.850199844E1,-1.024699926E0,9.199999571E-1,2.311699867E0
2.852199844E1,-7.999999523E-1,5.299000144E-1,4.377599716E0
2.854199844E1,-2.872999907E-1,1.503999978E-1,5.592499733E0
2.856199844E1,-2.727999985E-1,4.510999918E-1,5.414899826E0
2.858199844E1,-7.400000002E-3,5.952000022E-1,4.479199886E0
2.860199844E1,4.305000007E-1,3.055000007E-1,4.672100067E0
2.862199844E1,-7.849999517E-2,-6.618999839E-1,6.115999699E0
2.864199844E1,-7.513999939E-1,-1.347999930E0,6.392699718E0
2.866199844E1,-3.296000063E-1,-1.915299892E0,4.269599915E0
2.868199844E1,9.314000010E-1,-1.893599987E0,1.865099907E0
2.870199844E1,2.175299883E0,-1.602899909E0,-1.949999928E-1
2.872199844E1,1.879199982E0,-1.227900028E0,-1.472499967E0
2.874199844E1,8.572999835E-1,-8.641999960E-1,-2.772899866E0
2.876199844E1,2.296999991E-1,-9.199000001E-1,-3.899599791E0
2.878199844E1,6.799999624E-3,-6.545000076E-1,-4.744699955E0
2.880199844E1,-2.344999909E-1,-3.522999883E-1,-5.246699810E0
2.882200000E1,-4.435999990E-1,-4.470000044E-2,-4.606800079E0
2.885199844E1,-7.739999890E-2,-2.300000051E-3,-4.057399750E0
2.887199844E1,-4.499999806E-2,2.328999937E-1,-4.363800049E0
2.889199844E1,-1.362999976E-1,3.598999977E-1,-4.861299992E0
2.891199844E1,-2.180999964E-1,5.799999833E-1,-4.467700005E0
2.893199844E1,-1.305000037E-1,7.583000064E-1,-3.119199991E0
2.895199844E1,-1.673000008E-1,1.001999974E0,-9.120999575E-1
2.897199844E1,-2.985000014E-1,1.059800029E0,1.364499927E0
2.899200000E1,-8.200000040E-3,9.201999903E-1,2.646800041E0
2.901200000E1,1.357000023E-1,1.020399928E0,3.423599958E0
2.903200000E1,5.443999767E-1,1.060400009E0,3.838699818E0
2.905200000E1,8.073999882E-1,7.447999716E-1,4.243000031E0
2.908199844E1,-6.944999695E-1,1.074599981E0,4.047100067E0
2.910199844E1,-1.791799903E0,9.624999762E-1,3.300199986E0
2.912199844E1,-1.995099902E0,3.877999783E-1,2.780699968E0
2.914199844E1,-1.203699946E0,-7.432999611E-1,2.305299997E0
2.916199844E1,-4.765999913E-1,-1.829599977E0,1.090199947E0
2.918199844E1,-9.893999696E-1,-2.569700003E0,4.815999866E-1
2.920199844E1,-1.365299940E0,-3.021800041E0,1.965299964E0
2.922199844E1,-1.160599947E0,-3.053699970E0,3.495899916E0
2.924199844E1,-8.486999869E-1,-2.625499964E0,3.670300007E0
2.926199844E1,-5.144000053E-1,-1.860700011E0,1.969699979E0
2.928199844E1,-1.262999922E-1,-8.053999543E-1,-1.702999920E-1
2.930199844E1,6.335999966E-1,-4.719999805E-2,-1.909599900E0
2.932199844E1,1.075600028E0,3.561999798E-1,-3.365599871E0
2.934199844E1,7.641999722E-1,6.509999633E-1,-4.635699749E0
2.936199844E1,7.689999789E-2,6.054999828E-1,-4.983399868E0
2.938199844E1,-2.636999786E-1,3.303999901E-1,-5.034899712E0
2.940199844E1,-3.129000068E-1,2.206999958E-1,-4.711199760E0
2.942199844E1,-2.811999917E-1,3.201999962E-1,-3.915499926E0
2.944199844E1,-4.131000042E-1,3.001999855E-1,-3.518599987E0
2.946199844E1,-1.072000027E0,6.243000031E-1,-3.559700012E0
2.948199844E1,-1.942799926E0,1.152099967E0,-3.220000029E0
2.950199844E1,-2.256399870E0,1.291499972E0,-1.345700026E0
2.952199844E1,-2.002300024E0,8.634999990E-1,1.330899954E0
2.954199844E1,-1.708599925E0,4.421999753E-1,3.217199802E0
2.956199844E1,-2.102999926E0,8.170999885E-1,3.811499834E0
2.958199844E1,-2.291800022E0,1.024500012E0,4.116300106E0
2.960199844E1,-1.701900005E0,1.039600015E0,4.180200100E0
2.962199844E1,-4.926999807E-1,8.398000002E-1,4.604099751E0
2.964199844E1,1.704499960E0,-1.990000010E-1,6.049699783E0
2.966199844E1,2.476399899E0,-1.496199965E0,7.148200035E0
2.968199844E1,9.384999871E-1,-2.341199875E0,6.236099720E0
2.970199844E1,3.389999866E-1,-2.365999937E0,3.548399925E0
2.972199844E1,2.266499996E0,-2.550199986E0,7.802000046E-1
2.974199844E1,4.379600048E0,-2.092000008E0,2.368999869E-1
2.976199844E1,4.044099808E0,-1.726199985E0,2.126999944E-1
2.978199844E1,1.603699923E0,-1.200799942E0,-5.313999653E-1
2.980199844E1,-1.118999943E-1,-6.965000033E-1,-2.048300028E0
2.982200313E1,-8.328999877E-1,-1.841999888E-1,-3.134999990E0
2.985199844E1,-1.026700020E0,6.430000067E-1,-3.609899998E0
2.987199844E1,-9.605000019E-1,7.960000038E-1,-4.030699730E0
2.989199844E1,-9.090999961E-1,8.321999907E-1,-4.846399784E0
2.991199844E1,-8.955999613E-1,7.723000050E-1,-5.529599667E0
2.993199844E1,-7.871999741E-1,7.572999597E-1,-5.827099800E0
2.995199844E1,-7.268999815E-1,7.647999525E-1,-5.704899788E0
2.997199844E1,-7.640999556E-1,8.014000058E-1,-4.751800060E0
2.999199844E1,-7.573999763E-1,8.130999804E-1,-2.869799852E0
3.001199844E1,-5.473999977E-1,9.535999894E-1,-3.886999786E-1
3.003202344E1,-4.417999983E-1,9.791999459E-1,1.500499964E0
3.006199844E1,-8.317999840E-1,8.655999899E-1,2.585099936E0
3.008199844E1,4.030000046E-2,8.162999749E-1,3.212999821E0
3.010199844E1,1.383299947E0,6.552999616E-1,3.933099985E0
3.012199844E1,1.506199956E0,7.109999657E-1,4.763499737E0
3.014199844E1,7.954999804E-1,4.378999770E-1,5.206299782E0
3.016199844E1,5.649999976E-1,-1.937000006E-1,6.052399635E0
3.018199844E1,9.049999714E-2,-1.374400020E0,6.845200062E0
3.020199844E1,-9.939999580E-1,-2.408299923E0,6.855000019E0
3.022199844E1,-1.175899982E0,-2.569900036E0,4.450299740E0
3.024199844E1,-1.801999956E-1,-2.123100042E0,2.249199867E0
3.026200000E1,9.269999862E-1,-1.896299958E0,9.684000015E-1
3.029199844E1,1.859000027E-1,-1.315699935E0,-6.200000048E-1
3.031199844E1,-6.760999560E-1,-9.044999480E-1,-1.507399917E0
3.033199844E1,-8.598999977E-1,-6.649000049E-1,-2.276099920E0
3.035199844E1,-6.660999656E-1,-4.427999854E-1,-3.126699924E0
3.037199844E1,-1.606999934E-1,-2.870000005E-1,-3.797299862E0
3.039199844E1,2.892999947E-1,-1.506000012E-1,-4.105400085E0
3.041199844E1,4.011999965E-1,-1.026999950E-1,-4.623899937E0
3.043199844E1,6.169999763E-2,-4.019999877E-2,-5.061199665E0
3.045199844E1,4.419999942E-2,-9.439999610E-2,-5.183499813E0
3.047199844E1,3.251999915E-1,-9.449999779E-2,-5.391900063E0
3.049199844E1,3.446999788E-1,3.111999929E-1,-4.954799652E0
3.051199844E1,2.437999994E-1,5.375999808E-1,-3.051299810E0
3.053199844E1,-2.676999867E-1,6.477000117E-1,-9.328999519E-1
3.055199844E1,-8.648999929E-1,5.906999707E-1,8.739999533E-1
3.057199844E1,-1.192799926E0,6.151999831E-1,1.821399927E0
3.059199844E1,-7.253999710E-1,7.949000001E-1,2.676399946E0
3.061199844E1,-7.310000062E-2,8.603999615E-1,3.809700012E0
3.063199844E1,-4.069999978E-2,5.356000066E-1,4.567199707E0
3.065199844E1,-6.132000089E-1,4.948000014E-1,4.158699989E0
3.067199844E1,-4.676999748E-1,3.625999987E-1,3.887599945E0
3.069199844E1,5.823999643E-1,-3.304999769E-1,4.878200054E0
3.071199844E1,6.534000039E-1,-9.279999733E-1,6.057099819E0
3.073199844E1,2.195999920E-1,-1.476099968E0,4.379099846E0
3.075199844E1,5.263999701E-1,-1.457999945E0,1.355799913E0
3.077199844E1,2.318599939E0,-1.413200021E0,-4.459999800E-1
3.079199844E1,3.421599865E0,-1.377699971E0,-4.303999841E-1
3.081199844E1,2.292099953E0,-1.329399943E0,-2.613999844E-1
3.083200000E1,1.385999918E-1,-9.560999870E-1,-1.052699924E0
3.086199844E1,-1.736099958E0,-1.947999895E-1,-2.220299959E0
3.088199844E1,-1.928499937E0,2.354999930E-1,-2.971199989E0
3.090199844E1,-1.525299907E0,5.809999704E-1,-3.654199839E0
3.092199844E1,-8.140999675E-1,8.248999715E-1,-4.347700119E0
3.094199844E1,-4.849999845E-1,8.716999888E-1,-4.958699703E0
3.096199844E1,-5.209999681E-1,8.373000026E-1,-5.331999779E0
3.098199844E1,-8.025999665E-1,8.829999566E-1,-5.226399899E0
3.100199844E1,-7.831999660E-1,6.877999902E-1,-4.113800049E0
3.102199844E1,-3.520999849E-1,4.354999959E-1,-2.128700018E0
3.104199844E1,-1.150999963E-1,4.420999885E-1,8.816999793E-1
3.106199844E1,2.723000050E-1,3.495999873E-1,3.170499802E0
3.108199844E1,-7.239999622E-2,4.315999746E-1,4.124599934E0
3.110199844E1,-2.639999986E-1,6.247999668E-1,3.444999933E0
3.112199844E1,4.648000002E-1,7.901999950E-1,2.841500044E0
3.114199844E1,1.375699997E0,5.623999834E-1,3.614699841E0
3.116199844E1,8.342999816E-1,6.132000089E-1,4.222799778E0
3.118199844E1,-2.319999970E-2,4.493999779E-1,4.128099918E0
3.120199844E1,-1.265999973E-1,-1.622999907E-1,4.248799801E0
3.122199844E1,-2.685000002E-1,-9.817000031E-1,4.537399769E0
3.124199844E1,-1.062099934E0,-1.429399967E0,3.651599884E0
3.126199844E1,-1.288699985E0,-1.439499974E0,1.762899995E0
3.128199844E1,2.956999838E-1,-1.414999962E0,1.371699929E0
3.130199844E1,1.849999905E0,-1.065699935E0,2.225499868E0
3.132199844E1,1.509400010E0,-9.294999838E-1,2.901399851E0
3.134199844E1,-1.843999922E-1,-7.475000024E-1,1.185699940E0
3.136199844E1,-1.755199909E0,-1.887999922E-1,-4.212999940E-1
3.138199844E1,-2.262199879E0,-9.269999713E-2,-1.123999953E0
3.140199844E1,-1.785399914E0,-9.619999677E-2,-1.966099977E0
3.142199844E1,-7.971000075E-1,-5.790000036E-2,-2.988600016E0
3.144200000E1,-1.015999988E-1,-3.299999982E-2,-4.230299950E0
3.147199844E1,-1.321000010E-1,-2.399999946E-1,-5.444399834E0
3.149199844E1,-2.427999973E-1,-3.761999905E-1,-5.603399754E0
3.151199844E1,-2.806999981E-1,-1.840000004E-1,-5.004399776E0
3.153199844E1,1.559999958E-2,-2.459999919E-1,-3.807399988E0
3.155199844E1,6.709999591E-2,-8.949999511E-2,-2.994999886E0
3.157199844E1,2.791999876E-1,6.399999838E-3,-2.137099981E0
3.159199844E1,-3.729999810E-2,-6.099999696E-2,-7.791000009E-1
3.161199844E1,-8.576999903E-1,-1.411999911E-1,1.030900002E0
3.163199844E1,-9.950999618E-1,-2.360000014E-1,2.496500015E0
3.165199844E1,-3.547999859E-1,-3.637999892E-1,3.675699949E0
3.167199844E1,-2.020999938E-1,1.510999948E-1,3.805899858E0
3.169199844E1,-5.069000125E-1,5.886999965E-1,3.451799870E0
3.171199844E1,7.712999582E-1,-6.979999691E-2,3.627199888E0
3.173199844E1,1.555299997E0,-5.676999688E-1,4.652400017E0
3.175199844E1,1.024799943E0,-9.429000020E-1,5.558899879E0
3.177199844E1,5.499999970E-2,-1.023299932E0,4.416100025E0
3.179199844E1,7.390999794E-1,-1.151399970E0,2.350499868E0
3.181200000E1,2.201999903E0,-1.343799949E0,5.586999655E-1
3.183200000E1,2.479399920E0,-1.215299964E0,-3.860999942E-1
3.186199844E1,8.992999792E-1,-1.128600001E0,-1.960399985E0
3.188199844E1,-9.099999443E-3,-9.610999823E-1,-3.051899910E0
3.190199844E1,-2.137999982E-1,-8.586999774E-1,-3.703099966E0
3.192199844E1,-5.153999925E-1,-3.957999945E-1,-3.153899908E0
3.194199844E1,-5.999999642E-1,-2.193999887E-1,-2.768699884E0
3.196199844E1,-6.086999774E-1,-9.910000116E-2,-2.783399820E0
3.198199844E1,-3.709000051E-1,1.237000003E-1,-2.925099850E0
3.200199844E1,-1.144999936E-1,2.597999871E-1,-2.863099813E0
3.202199844E1,5.109999701E-2,2.107999921E-1,-3.130699873E0
3.204199844E1,-5.669999868E-2,2.685999870E-1,-3.230499983E0
3.206199844E1,-2.897000015E-1,5.281000137E-1,-2.785099983E0
3.208199844E1,-5.972999930E-1,6.966999769E-1,-1.998799920E0
3.210199844E1,-7.098000050E-1,7.592999935E-1,-8.618999720E-1
3.212199844E1,-7.791999578E-1,8.113999963E-1,5.888000131E-1
3.214199844E1,-4.274999797E-1,8.596000075E-1,1.562899947E0
3.216199844E1,2.827999890E-1,1.017499924E0,2.209199905E0
3.218199844E1,2.719999850E-1,1.071099997E0,3.084599972E0
3.220199844E1,2.427999973E-1,4.379999936E-1,3.680299997E0
3.222199844E1,2.981999815E-1,2.064999938E-1,3.671799898E0
3.224200000E1,2.775000036E-1,-5.799999833E-2,3.867699862E0
3.226200000E1,-2.583999932E-1,-4.955999851E-1,4.512399673E0
3.229199844E1,-1.776600003E0,-7.447999716E-1,3.768299818E0
3.231200000E1,-1.918599963E0,-8.743000031E-1,2.969499826E0
3.234199844E1,-8.003999591E-1,-1.146899939E0,1.424399972E0
3.236199844E1,-2.180999964E-1,-1.115800023E0,1.113899946E0
3.238200000E1,4.849999771E-2,-8.988999724E-1,1.019899964E0
3.241199844E1,1.656999886E-1,-7.231000066E-1,6.284999847E-1
3.243199844E1,-3.441999853E-1,-6.248999834E-1,-7.979999483E-2
3.245199844E1,-3.781999946E-1,-6.104999781E-1,-1.584599972E0
3.247199844E1,-1.620000042E-2,-3.628000021E-1,-3.089399815E0
3.249199844E1,8.269999921E-2,1.099999994E-2,-3.128999949E0
3.251199844E1,1.603000015E-1,-5.579999834E-2,-2.721400023E0
3.253199844E1,1.535999924E-1,4.299999774E-2,-3.317799807E0
3.255199844E1,9.139999747E-2,2.940999866E-1,-3.809599876E0
3.257199844E1,2.989999950E-2,3.095999956E-1,-3.878399849E0
3.259199844E1,1.106999964E-1,2.899999917E-1,-3.671599865E0
3.261199844E1,3.894999921E-1,3.199999928E-1,-3.551299810E0
3.263199844E1,1.087999940E-1,4.658999741E-1,-2.942600012E0
3.265199844E1,-3.149999976E-1,3.814999759E-1,-1.357599974E0
3.267199844E1,-2.412999868E-1,1.217999980E-1,7.164999843E-1
3.269199844E1,-1.257999986E-1,-7.999999821E-2,1.833099961E0
3.271199844E1,-4.693000019E-1,-2.699999809E-1,2.804299831E0
3.273199844E1,-7.770000100E-1,-3.361999989E-1,2.882900000E0
3.275199844E1,-8.036999702E-1,1.902999878E-1,2.362299919E0
3.277199844E1,5.187999606E-1,-2.827999890E-1,3.032899857E0
3.279199844E1,1.632099986E0,-8.513000011E-1,4.335999966E0
3.281200000E1,5.956999660E-1,-1.319399953E0,5.125499725E0
3.283200000E1,-1.082099915E0,-1.356899977E0,4.706299782E0
3.286199844E1,-1.395999938E-1,-1.583199978E0,2.671900034E0
3.288199844E1,1.324199915E0,-1.414999962E0,1.172399998E0
3.290199844E1,1.439000010E0,-1.176399946E0,2.654999793E-1
3.292199844E1,4.041999876E-1,-1.094200015E0,-3.858000040E-1
3.294199844E1,-5.205999613E-1,-8.652999997E-1,-1.181299925E0
3.296199844E1,-1.139099956E0,-4.952999949E-1,-2.320499897E0
3.298199844E1,-1.066299915E0,-1.974999905E-1,-3.348399878E0
3.300199844E1,-9.800999761E-1,2.352999896E-1,-3.451099873E0
3.302199844E1,-6.514999866E-1,2.694999874E-1,-3.610199928E0
3.304200000E1,-5.813999772E-1,3.816999793E-1,-4.168499947E0
3.307199844E1,-4.912000000E-1,5.115000010E-1,-4.390899658E0
3.309199844E1,-2.626999915E-1,4.442999959E-1,-3.802799940E0
3.311199844E1,-1.132999957E-1,3.323999941E-1,-2.363800049E0
3.313199844E1,-8.999999845E-4,3.800999820E-1,-1.054399967E0
3.315199844E1,-2.344999909E-1,4.644999802E-1,1.206000000E-1
3.317199844E1,-4.562999904E-1,4.558999836E-1,1.076399922E0
3.319199844E1,-3.856999874E-1,5.870000124E-1,1.792199969E0
3.321200000E1,-2.337999940E-1,6.728000045E-1,2.269799948E0
3.324199844E1,7.683999538E-1,3.849000037E-1,2.616099834E0
3.326199844E1,8.757999539E-1,3.928000033E-1,2.948999882E0
3.328199844E1,2.479999959E-1,1.393999904E-1,3.213999987E0
3.330199844E1,-3.497000039E-1,-4.384999871E-1,3.709800005E0
3.332199844E1,-9.335999489E-1,-8.572999835E-1,4.040800095E0
3.334200000E1,-1.613699913E0,-1.019299984E0,3.162599802E0
3.337199844E1,-9.615999460E-1,-9.508999586E-1,8.542999625E-1
3.339199844E1,2.856999934E-1,-9.599999785E-1,2.302999943E-1
3.341199844E1,2.908000052E-1,-8.331999779E-1,7.008000016E-1
3.343199844E1,-6.947999597E-1,-9.523999691E-1,1.043399930E0
3.345199844E1,-1.498799920E0,-9.322999716E-1,1.484300017E0
3.347199844E1,-1.410899997E0,-8.300999999E-1,1.146799922E0
3.349199844E1,-8.786000013E-1,-4.346999824E-1,-2.070000023E-2
3.351199844E1,-1.564999968E-1,-8.969999850E-2,-1.713099957E0
3.353199844E1,2.175000012E-1,1.502999961E-1,-3.159799814E0
3.355199844E1,1.296999902E-1,3.590999842E-1,-3.371199846E0
3.357199844E1,1.344999969E-1,2.395000011E-1,-3.405699968E0
3.359199844E1,3.859999776E-2,2.687999904E-1,-3.367399931E0
3.361199844E1,1.277000010E-1,1.938999891E-1,-3.784600019E0
3.363200000E1,2.286999971E-1,1.881999969E-1,-4.140100002E0
3.366199844E1,4.490000010E-1,2.132999897E-1,-3.188099861E0
3.368199844E1,4.362999797E-1,2.730999887E-1,-1.361099958E0
3.370199844E1,5.409999937E-2,-2.400000021E-2,-1.640000008E-2
3.372200000E1,-4.969999790E-1,-2.910999954E-1,8.452999592E-1
3.375199844E1,-2.201999873E-1,-3.655000031E-1,2.732599974E0
3.377199844E1,-7.599999662E-3,-4.976999760E-1,3.483599901E0
3.379199844E1,-6.697999835E-1,-5.306999683E-1,2.922600031E0
3.381200000E1,-6.929000020E-1,-4.961999953E-1,2.380199909E0
3.383200000E1,2.563999891E-1,-4.906999767E-1,2.815899849E0
3.386199844E1,1.745199919E0,-1.318400025E0,4.402999878E0
3.388199844E1,1.309299946E0,-1.610199928E0,3.635299921E0
3.390199844E1,1.547999978E0,-1.460399985E0,2.243199825E0
3.392199844E1,2.663599968E0,-1.385599971E0,8.628999591E-1
3.394199844E1,3.085599899E0,-1.251999974E0,9.799999744E-2
3.396199844E1,2.169899940E0,-8.266999722E-1,-6.232999563E-1
3.398199844E1,8.069999814E-1,-4.885999858E-1,-6.538000107E-1
3.400199844E1,-2.390999943E-1,7.519999892E-2,-1.205299973E0
3.402199844E1,-8.078999519E-1,5.331000090E-1,-2.271600008E0
3.404199844E1,-9.034000039E-1,9.103999734E-1,-2.942999840E0
3.406200000E1,-7.039999962E-1,1.142599940E0,-3.110699892E0
3.408200000E1,-7.213000059E-1,1.075999975E0,-3.314499855E0
3.411200000E1,-1.266899943E0,1.019099951E0,-3.673599958E0
3.414199844E1,-1.084299922E0,9.142999649E-1,-3.289199829E0
3.416199844E1,-3.786999881E-1,9.838999510E-1,-1.610399961E0
3.418200000E1,-4.919999838E-2,9.958999753E-1,-3.296000063E-1
3.420200938E1,-2.509999871E-1,8.532999754E-1,9.044999480E-1
3.423200000E1,2.329999954E-2,5.005999804E-1,2.129699945E0
3.425200000E1,5.748999715E-1,4.046999812E-1,2.799299955E0
3.427200000E1,1.056699991E0,2.151999921E-1,3.432899952E0
3.430199844E1,-1.366999894E-1,1.700999886E-1,3.214499950E0
3.432199844E1,-8.287999630E-1,2.412000000E-1,2.499699831E0
3.434199844E1,-7.784999609E-1,4.069999978E-2,2.464099884E0
3.436199844E1,-2.384999990E-1,-5.365999937E-1,3.372799873E0
3.438199844E1,-2.579999864E-1,-1.606400013E0,3.863099813E0
3.440200000E1,-1.097499967E0,-2.156399965E0,2.876600027E0
3.443199844E1,-7.075999975E-1,-2.277099848E0,1.034199953E0
3.445199844E1,1.122099996E0,-1.950199962E0,7.971000075E-1
3.447200000E1,1.965499997E0,-1.472800016E0,9.088999629E-1
3.450199844E1,3.093999922E-1,-8.570999503E-1,1.061999947E-1
3.452199844E1,-8.827999830E-1,-6.518999934E-1,-5.945999622E-1
3.454200000E1,-1.199199915E0,-3.350999951E-1,-1.309099913E0
3.456200000E1,-4.876999855E-1,-1.439999938E-1,-2.592200041E0
3.459199844E1,3.075999916E-1,3.958999813E-1,-4.271100044E0
3.461199844E1,3.929999769E-1,4.540999830E-1,-4.827099800E0
3.463200000E1,1.401000023E-1,5.220000148E-1,-5.000799656E0
3.466199844E1,2.180999964E-1,5.514999628E-1,-4.458499908E0
3.468200000E1,2.841999829E-1,7.998999953E-1,-3.730999947E0
3.471199844E1,2.352999896E-1,8.913999796E-1,-2.059799910E0
3.473199844E1,5.985999703E-1,5.205000043E-1,-1.800999939E-1
3.475199844E1,2.662999928E-1,2.329999954E-1,2.162899971E0
3.477199844E1,5.229999870E-2,-5.981000066E-1,3.884499788E0
3.479199844E1,6.949999928E-2,-1.165099978E0,4.365200043E0
3.481200625E1,-2.669999897E-1,-5.745999813E-1,3.915499926E0
3.484199844E1,4.538999796E-1,1.184000000E-1,1.139899969E0
3.486199844E1,1.443899989E0,4.465000033E-1,8.661999702E-1
3.488199844E1,2.211899996E0,-1.142999977E-1,3.014499903E0
3.490199844E1,1.345199943E0,-1.016899943E0,5.070899963E0
3.492199844E1,6.929999590E-2,-1.577899933E0,4.848299980E0
3.494199844E1,-1.507999897E-1,-1.422399998E0,2.382099867E0
3.496199844E1,1.197499990E0,-1.083299994E0,3.398999870E-1
3.498199844E1,2.487900019E0,-7.292000055E-1,-6.639999747E-1
3.500199844E1,2.697499990E0,-7.008000016E-1,-7.544999719E-1
3.502200000E1,1.884199977E0,-7.576999664E-1,-8.934999704E-1
3.505199844E1,-7.400000095E-2,-3.190000057E-1,-2.405900002E0
3.507199844E1,-1.316200018E0,3.267999887E-1,-2.462999821E0
3.509199844E1,-1.792299986E0,7.736999989E-1,-2.296399832E0
3.511199844E1,-2.015100002E0,7.929999828E-1,-2.984699965E0
3.513199844E1,-2.116799831E0,9.124999642E-1,-3.772499800E0
3.515199844E1,-2.194599867E0,9.346999526E-1,-4.046999931E0
3.517199844E1,-2.406800032E0,9.138999581E-1,-3.576999903E0
3.519199844E1,-2.131500006E0,8.062999845E-1,-2.268300056E0
3.521199844E1,-1.588599920E0,7.951999903E-1,-6.956999898E-1
3.523199844E1,-1.231999993E0,1.040099978E0,8.112999797E-1
3.525199844E1,-1.350700021E0,8.877999783E-1,2.197200060E0
3.527199844E1,-1.953799963E0,7.673000097E-1,2.887499809E0
3.529199844E1,-1.918199897E0,7.468000054E-1,2.983799934E0
3.531200000E1,-1.185699940E0,6.029999852E-1,3.178499937E0
3.534199844E1,-6.358999610E-1,1.819999963E-1,3.278299809E0
3.536199844E1,-9.338999987E-1,9.369999915E-2,2.811100006E0
3.538199844E1,-7.678999901E-1,1.257999986E-1,2.875799894E0
3.540199844E1,-3.242999911E-1,-4.426999986E-1,4.017199993E0
3.542199844E1,-1.046100020E0,-1.359399915E0,5.098899841E0
3.544200000E1,-1.875199914E0,-2.337800026E0,4.101999760E0
3.547199844E1,-1.008499980E0,-2.330299854E0,1.523100019E0
3.549199844E1,1.376999915E-1,-1.883999944E0,6.891999841E-1
3.551199844E1,2.415999919E-1,-1.465999961E0,4.014999866E-1
3.553199844E1,-3.966999948E-1,-1.337999940E0,-2.796999812E-1
3.555199844E1,-8.455999494E-1,-1.187399983E0,-1.829399943E0
3.557199844E1,-9.510999918E-1,-8.456999660E-1,-3.181299925E0
3.559199844E1,-1.225099921E0,-4.966999888E-1,-3.534399986E0
3.561199844E1,-1.508599997E0,-2.861000001E-1,-3.355099916E0
3.563199844E1,-1.463499904E0,-3.771999776E-1,-3.339599848E0
3.565199844E1,-8.368999958E-1,-3.283999860E-1,-3.563699961E0
3.567199844E1,-1.953999996E-1,-2.566999793E-1,-3.668699980E0
3.569199844E1,-5.079999939E-2,-3.771999776E-1,-3.942299843E0
3.571199844E1,-4.010000080E-2,-2.635999918E-1,-4.047999859E0
3.573199844E1,1.442999989E-1,-2.388999909E-1,-3.034600019E0
3.575199844E1,-3.677999973E-1,1.048000008E-1,-1.233099937E0
3.577199844E1,-1.302999973E0,3.279999793E-1,6.295999885E-1
3.579199844E1,-1.973799944E0,4.075999856E-1,2.203899860E0
3.581200000E1,-1.934399962E0,4.384999871E-1,3.202499866E0
3.583200156E1,-1.360899925E0,5.019999743E-1,3.695999861E0
3.586200000E1,-1.272300005E0,9.303999543E-1,2.966399908E0
3.589199844E1,-1.018999934E0,4.382999837E-1,2.355099916E0
3.591199844E1,-4.156999886E-1,-4.781000018E-1,3.708199978E0
3.593199844E1,-9.264000058E-1,-1.334699988E0,4.987999916E0
3.595199844E1,-2.113499880E0,-1.557599902E0,4.060599804E0
3.597199844E1,-1.346199989E0,-1.407599926E0,2.486999989E0
3.599199844E1,9.763999581E-1,-1.269899964E0,1.367599964E0
3.601199844E1,1.941299915E0,-1.102299929E0,4.897999763E-1
3.603199844E1,1.226999998E0,-1.001500010E0,-6.480000019E-1
3.605199844E1,-9.429999441E-2,-7.405999899E-1,-1.333400011E0
3.607199844E1,-1.181399941E0,-4.491999745E-1,-2.012599945E0
3.609199844E1,-1.640699983E0,-1.193000004E-1,-3.104699850E0
3.611199844E1,-1.470299959E0,2.610999942E-1,-4.111899853E0
3.613199844E1,-1.103999972E0,5.070999861E-1,-4.692999840E0
3.615199844E1,-8.621999621E-1,5.654999614E-1,-4.926399708E0
3.617199844E1,-7.135999799E-1,4.975999892E-1,-4.882800102E0
3.619199844E1,-4.387999773E-1,5.080000162E-1,-4.141699791E0
3.621199844E1,-2.820999920E-1,5.015999675E-1,-2.939699888E0
3.623199844E1,-1.791999936E-1,6.374999881E-1,-1.444999933E0
3.625199844E1,-4.149999917E-1,7.705000043E-1,5.769000053E-1
3.627199844E1,-7.084999681E-1,7.204999924E-1,2.304600000E0
3.629199844E1,-8.282999992E-1,8.933999538E-1,3.082199812E0
3.631200000E1,-4.499999881E-1,1.031800032E0,3.200699806E0
3.634199844E1,3.236999810E-1,8.141999841E-1,3.207999945E0
3.636199844E1,4.522999823E-1,5.491999984E-1,3.225199938E0
3.638199844E1,-6.768999696E-1,6.600999832E-1,3.506799936E0
3.640199844E1,-1.151999950E0,-7.959999889E-2,3.829299927E0
3.642199844E1,-1.907799959E0,-1.204399943E0,3.320899963E0
3.644199844E1,-3.068099976E0,-1.988499999E0,2.599400043E0
3.646199844E1,-3.034600019E0,-2.604699850E0,2.016000032E0
3.648199844E1,-1.465399981E0,-2.674700022E0,2.108299971E0
3.650199844E1,-1.140999943E-1,-2.406199932E0,2.649600029E0
3.652199844E1,1.826999933E-1,-1.961399913E0,2.090299845E0
3.654199844E1,-4.253000021E-1,-1.192299962E0,5.464999676E-1
3.656199844E1,-7.250999808E-1,-6.829999685E-1,-7.569999695E-1
3.658199844E1,-9.278999567E-1,-2.389999926E-1,-1.494099975E0
3.660199844E1,-6.757999659E-1,4.749999940E-2,-2.386199951E0
3.662199844E1,-2.642000020E-1,3.470999897E-1,-3.372200012E0
3.664199844E1,1.551000029E-1,5.133999586E-1,-4.354399681E0
3.666199844E1,3.761999905E-1,5.974000096E-1,-5.255799770E0
3.668199844E1,4.875999987E-1,6.448999643E-1,-5.500299931E0
3.670200000E1,4.117999971E-1,6.825999618E-1,-5.255300045E0
3.673199844E1,1.630999893E-1,7.598999739E-1,-4.011199951E0
3.675199844E1,2.597999871E-1,6.633999944E-1,-2.109499931E0
3.677199844E1,4.870999753E-1,4.542999864E-1,1.762999892E-1
3.679199844E1,3.727999926E-1,2.800000012E-1,1.955599904E0
3.681200000E1,-3.024999797E-1,1.520999968E-1,2.600600004E0
3.683200000E1,-5.534999967E-1,-2.149999887E-2,3.206499815E0
3.686199844E1,-2.265999913E-1,-1.312000006E-1,4.346899986E0
3.688199844E1,-3.109000027E-1,9.019999951E-2,3.921700001E0
3.690199844E1,3.590000048E-2,3.335999846E-1,3.221199989E0
3.692199844E1,1.316599965E0,-1.392000020E-1,3.630100012E0
3.694199844E1,1.544600010E0,-9.688999653E-1,4.696899891E0
3.696199844E1,6.269999743E-1,-1.712599993E0,5.961599827E0
3.698200000E1,7.838999629E-1,-2.338799953E0,5.346699715E0
3.701199844E1,2.378000021E0,-1.763899922E0,1.598099947E0
3.703200000E1,2.451699972E0,-1.090199947E0,-9.110999703E-1
3.705200000E1,1.225899935E0,-3.052999973E-1,-2.473999977E0
3.708199844E1,-5.852000117E-1,1.340000033E-1,-3.119699955E0
3.710199844E1,-1.136199951E0,9.369999915E-2,-3.632299900E0
3.712199844E1,-1.316299915E0,3.698000014E-1,-4.258899689E0
3.714199844E1,-1.132900000E0,3.714999855E-1,-4.842899799E0
3.716199844E1,-1.339299917E0,3.974999785E-1,-5.375999928E0
3.718199844E1,-1.500599980E0,4.689999819E-1,-5.351199627E0
3.720199844E1,-1.333199978E0,2.965999842E-1,-4.828499794E0
3.722199844E1,-9.770999551E-1,3.825999796E-1,-3.827899933E0
3.724200000E1,-6.133999825E-1,2.848999798E-1,-2.357300043E0
3.726200000E1,-9.650999904E-1,4.311999977E-1,-5.629999638E-1
3.729199844E1,-1.017599940E0,2.861999869E-1,1.146700025E0
3.731199844E1,-1.020300031E0,6.017999649E-1,1.934599996E0
3.733199844E1,-3.937999904E-1,9.490999579E-1,2.858000040E0
3.735199844E1,2.838000059E-1,7.470999956E-1,3.720799923E0
3.737199844E1,6.509000063E-1,3.646000028E-1,3.996299982E0
3.739199844E1,-6.599999964E-3,-1.286000013E-1,4.007499695E0
3.741199844E1,-6.970999837E-1,-5.676000118E-1,4.067800045E0
3.743199844E1,-1.077600002E0,-1.020300031E0,4.332799911E0
3.745199844E1,-1.578199983E0,-1.687699914E0,3.980799913E0
3.747199844E1,-2.010299921E0,-1.733199954E0,2.584199905E0
3.749199844E1,-1.537899971E0,-1.554399967E0,1.102999926E0
3.751200000E1,-7.729999721E-2,-1.446699977E0,3.240999877E-1
3.754200000E1,1.127300024E0,-1.028200030E0,9.619999528E-1
3.757199844E1,2.500999868E-1,-6.058999896E-1,6.262999773E-1
3.759200000E1,-6.905999780E-1,-2.371999919E-1,-5.611000061E-1
3.761200000E1,-1.012199998E0,1.196999997E-1,-1.580799937E0
3.763200469E1,-5.636999607E-1,2.248999923E-1,-2.437700033E0
3.766200000E1,5.882999897E-1,4.555999935E-1,-4.160799980E0
3.768200000E1,9.171999693E-1,5.318999887E-1,-5.125499725E0
3.770200000E1,7.902999520E-1,4.245999753E-1,-5.568199635E0
3.773200000E1,3.966999948E-1,4.689999819E-1,-5.259900093E0
3.776200000E1,4.141999781E-1,5.040000081E-1,-3.250099897E0
3.779199844E1,-5.762000084E-1,5.855999589E-1,-4.444999993E-1
3.781200000E1,-9.581999779E-1,2.556000054E-1,1.120399952E0
3.783200000E1,-1.185400009E0,2.266999930E-1,2.462399960E0
3.786199844E1,-6.938999891E-1,2.284999937E-1,3.874300003E0
3.788199844E1,-1.145999953E-1,1.648000032E-1,4.288700104E0
3.790200000E1,6.059999764E-2,1.225999966E-1,3.689299822E0
3.793199844E1,1.770000011E-1,5.746999979E-1,2.642099857E0
3.795199844E1,9.723999500E-1,4.605000019E-1,3.765399933E0
3.797200000E1,1.363299966E0,-7.220000029E-2,5.295000076E0
3.800199844E1,6.754999757E-1,-1.537499905E0,3.872299910E0
3.802199844E1,4.969999790E-1,-1.386799932E0,1.480999947E0
3.804200000E1,1.995999932E0,-1.485399961E0,-6.129999757E-1
3.807199844E1,2.345000029E0,-1.129199982E0,-2.300400019E0
3.809200000E1,8.855999708E-1,-9.168999791E-1,-2.362999916E0
3.811200000E1,-8.619999886E-1,-7.750999928E-1,-2.238199949E0
3.813200000E1,-1.728799939E0,-4.399999976E-1,-2.669999838E0
3.816200000E1,-1.431499958E0,1.457999945E-1,-2.784299850E0
3.818200000E1,-9.411999583E-1,4.475999773E-1,-2.397099972E0
3.820200000E1,-6.965999603E-1,4.932999909E-1,-2.749399900E0
3.823200000E1,-1.214399934E0,5.205999613E-1,-4.548699856E0
3.826200000E1,-1.044399977E0,8.169999719E-1,-4.514699936E0
3.829199844E1,1.457999945E-1,9.089999795E-1,-1.043399930E0
3.831199844E1,6.430000067E-2,9.204999804E-1,1.086199999E0
3.833200000E1,-6.527000070E-1,9.036999941E-1,2.169899940E0
3.835200000E1,-8.736000061E-1,1.203099966E0,2.712199926E0
3.837200000E1,-2.958000004E-1,1.250399947E0,3.310699940E0
3.840200000E1,4.590999782E-1,7.109000087E-1,4.428899765E0
3.843200000E1,2.318999916E-1,-1.832000017E-1,2.625699997E0
3.846200000E1,4.839999974E-2,-6.750999689E-1,2.673699856E0
3.848200000E1,6.898999810E-1,-1.102699995E0,4.467299938E0
3.851199844E1,-6.764000058E-1,-2.177700043E0,3.450999975E0
3.853199844E1,-1.871199965E0,-1.635499954E0,4.833000004E-1
3.855200000E1,-1.781999946E0,-9.930999875E-1,-1.291800022E0
3.858200000E1,3.403999805E-1,-6.401000023E-1,2.248999923E-1
3.860200000E1,5.600999594E-1,-6.207999587E-1,1.415300012E0
3.862200000E1,-4.463000000E-1,-5.187999606E-1,1.430799961E0
3.864200000E1,-1.225000024E0,-3.775999844E-1,-9.470000118E-2
3.866200000E1,-1.180999994E0,-1.653999984E-1,-2.146899939E0
3.868200000E1,-5.712000132E-1,1.081999987E-1,-3.462800026E0
3.870200000E1,8.179999888E-2,1.940999925E-1,-4.309000015E0
3.872200000E1,1.431999952E-1,3.041000068E-1,-4.467700005E0
3.875199844E1,-3.601000011E-1,1.351999938E-1,-4.410699844E0
3.877200000E1,-5.324999690E-1,1.368999928E-1,-4.438399792E0
3.880200000E1,-1.587999910E-1,2.712999880E-1,-3.766599894E0
3.882200000E1,3.506000042E-1,2.018999904E-1,-2.173500061E0
3.884200000E1,3.841999769E-1,2.321999967E-1,-4.018999934E-1
3.887200000E1,-6.528999805E-1,2.193999887E-1,1.412799954E0
3.889200000E1,-9.815999866E-1,-1.100999936E-1,2.716500044E0
3.891200000E1,-9.019999951E-2,-1.021999940E-1,3.693199873E0
3.894200000E1,4.350000024E-1,1.026999950E-1,3.763700008E0
3.897200000E1,-1.200999990E-1,6.692999601E-1,2.157799959E0
3.899200000E1,6.222999692E-1,6.057999730E-1,1.986799955E0
3.901200000E1,1.525799990E0,1.634999961E-1,3.678099871E0
3.903200000E1,1.423299909E0,-8.783999681E-1,5.549200058E0
3.905200000E1,3.003999889E-1,-1.685899973E0,5.589799881E0
3.908199844E1,1.017300010E0,-1.870999932E0,2.244099855E0
3.910199844E1,2.265399933E0,-1.395699978E0,8.699999750E-2
3.912200000E1,2.505199909E0,-1.113099933E0,-1.228699923E0
3.915199844E1,1.280099988E0,-6.685999632E-1,-3.133399963E0
3.917199844E1,-1.272999942E-1,-2.054999918E-1,-3.598099947E0
3.919199844E1,-1.304399967E0,2.865000069E-1,-3.257099867E0
3.921199844E1,-1.712999940E0,4.939000010E-1,-2.952899933E0
3.923202344E1,-1.421100020E0,6.819999814E-1,-2.631999969E0
3.926199844E1,-8.019999862E-1,7.701999545E-1,-3.551599979E0
3.928199844E1,-7.347999811E-1,9.177999496E-1,-4.489099979E0
3.930199844E1,-9.050999880E-1,1.003299952E0,-4.985499859E0
3.932199844E1,-1.065999985E0,9.485999942E-1,-4.377200127E0
3.934199844E1,-9.553999901E-1,9.983999729E-1,-2.447999954E0
3.936199844E1,-5.859000087E-1,8.849999905E-1,3.147999942E-1
3.938199844E1,-3.666999936E-1,9.865999818E-1,2.473000050E0
3.940199844E1,-3.700000048E-1,8.687999845E-1,3.007499933E0
3.942199844E1,-2.768999934E-1,9.054999948E-1,2.886099815E0
3.944199844E1,6.449999809E-1,7.994999886E-1,3.283399820E0
3.946199844E1,1.842700005E0,2.594999969E-1,3.934999943E0
3.948199844E1,1.601899981E0,2.172999978E-1,4.406599998E0
3.950199844E1,2.115999907E-1,3.770999908E-1,4.112299919E0
3.952199844E1,-3.698999882E-1,3.590000048E-2,3.671399832E0
3.954199844E1,-7.856000066E-1,-7.439000010E-1,3.819000006E0
3.956199844E1,-1.398100019E0,-1.582999945E0,3.340999842E0
3.958199844E1,-1.594599962E0,-1.712599993E0,1.466300011E0
3.960199844E1,1.242999956E-1,-1.662400007E0,-8.169999719E-2
3.962199844E1,1.791099906E0,-1.431299925E0,3.206999898E-1
3.964199844E1,1.492799997E0,-1.500499964E0,1.132699966E0
3.966199844E1,-2.040999979E-1,-1.320599914E0,8.527999520E-1
3.968199844E1,-1.259999990E0,-8.495999575E-1,-3.269000053E-1
3.970199844E1,-1.083500028E0,-3.403999805E-1,-1.387300014E0
3.972199844E1,-6.601999998E-1,1.296000034E-1,-2.213899851E0
3.974199844E1,-3.156999946E-1,3.942999840E-1,-2.891899824E0
3.976199844E1,-6.989999861E-2,3.527999818E-1,-3.980199814E0
3.978199844E1,-8.799999952E-2,4.632000029E-1,-4.900300026E0
3.980199844E1,-3.292999864E-1,5.845999718E-1,-5.191699982E0
3.982199844E1,-6.675999761E-1,6.509999633E-1,-4.748600006E0
3.984200000E1,-6.410999894E-1,6.742999554E-1,-4.051700115E0
3.987199844E1,1.074000001E-1,6.563000083E-1,-1.116799951E0
3.989199844E1,-2.133999914E-1,6.757999659E-1,6.064000130E-1
3.991199844E1,-8.693999648E-1,5.072000027E-1,1.429199934E0
3.993199844E1,-8.238999844E-1,4.101999998E-1,1.409999967E0
3.995199844E1,-3.411999941E-1,4.718999863E-1,1.250100017E0
3.997199844E1,4.820999801E-1,1.286000013E-1,2.173699856E0
3.999199844E1,5.864999890E-1,-2.008000016E-1,2.866699934E0
4.001199844E1,-1.116999984E-1,1.755999923E-1,2.714299917E0
4.003199844E1,-2.532999814E-1,5.659999698E-2,2.346299887E0
4.005200000E1,7.915999889E-1,-1.823000014E-1,2.440999985E0
4.008199844E1,1.886899948E0,-1.238199949E0,4.213299751E0
4.010199844E1,1.109899998E0,-2.129799843E0,4.232299805E0
4.012200000E1,8.027999997E-1,-2.307600021E0,2.908099890E0
4.014200000E1,1.981799960E0,-2.148000002E0,1.290199995E0
4.017199844E1,2.658900023E0,-1.520799994E0,-7.304999828E-1
4.019199844E1,1.320099950E0,-9.878999591E-1,-1.429299951E0
4.021199844E1,1.782999933E-1,-5.195999742E-1,-1.599399924E0
4.023199844E1,-6.545000076E-1,9.420000017E-2,-1.630800009E0
4.025199844E1,-1.075299978E0,3.700999916E-1,-1.788299918E0
4.027199844E1,-1.206200004E0,6.193000078E-1,-1.964699984E0
4.029199844E1,-1.215799928E0,7.926999927E-1,-2.876199961E0
4.031199844E1,-1.303399920E0,1.055099964E0,-4.003099918E0
4.033199844E1,-1.135599971E0,1.173699975E0,-4.364799976E0
4.035199844E1,-8.861999512E-1,1.342800021E0,-3.294499874E0
4.037199844E1,-8.549999595E-1,1.169399977E0,-1.458599925E0
4.039199844E1,-1.043200016E0,9.664999843E-1,-1.319999993E-2
4.041199844E1,-8.434000015E-1,8.349999785E-1,5.216000080E-1
4.043200156E1,-1.729999930E-1,1.002599955E0,1.223399997E0
4.046199844E1,6.009999663E-2,1.124499917E0,2.104300022E0
4.048199844E1,8.949999511E-2,1.031599998E0,2.090699911E0
4.050199844E1,2.798999846E-1,9.088000059E-1,2.155299902E0
4.052199844E1,2.469999939E-1,6.150999665E-1,2.688299894E0
4.054199844E1,-4.758999944E-1,6.502999663E-1,2.939699888E0
4.056199844E1,-2.574999928E-1,2.206999958E-1,3.565399885E0
4.058199844E1,2.395999879E-1,-9.494999647E-1,4.574599743E0
4.060199844E1,-7.666999698E-1,-1.808099985E0,4.457299709E0
4.062199844E1,-1.462700009E0,-2.047699928E0,2.665699959E0
4.064199844E1,-8.036999702E-1,-1.724499941E0,6.495000124E-1
4.066199844E1,5.509999990E-1,-1.434799910E0,-1.616999954E-1
4.068199844E1,1.529500008E0,-1.127499938E0,2.739000022E-1
4.070199844E1,1.416099906E0,-1.228699923E0,4.148999751E-1
4.072199844E1,-1.630000025E-2,-1.160399914E0,-8.314999938E-1
4.074199844E1,-1.099900007E0,-9.868999720E-1,-2.281100035E0
4.076199844E1,-1.210500002E0,-8.476999998E-1,-3.266700029E0
4.078199844E1,-8.569999933E-1,-5.777999759E-1,-3.740599871E0
4.080199844E1,-4.736999869E-1,-4.233999848E-1,-4.158800125E0
4.082199844E1,-1.341999918E-1,-2.233999968E-1,-4.275099754E0
4.084199844E1,5.790000036E-2,-1.656999886E-1,-4.119400024E0
4.086199844E1,-1.712999940E-1,-2.333999872E-1,-4.094999790E0
4.088199844E1,-6.141999960E-1,-1.988999993E-1,-3.844399929E0
4.090199844E1,-7.523999810E-1,-1.919999905E-2,-3.654199839E0
4.092199844E1,-4.359999895E-1,4.921999872E-1,-2.899399996E0
4.094199844E1,-4.559999704E-2,8.123999834E-1,-1.334999919E0
4.096199844E1,-1.270999908E-1,8.709999919E-1,3.473999798E-1
4.098199844E1,-7.166999578E-1,7.736999989E-1,1.603399992E0
4.100199844E1,-1.191599965E0,8.021000028E-1,2.825099945E0
4.102199844E1,-1.066699982E0,4.861999750E-1,4.703099728E0
4.104199844E1,-6.342999935E-1,-4.989999905E-2,5.083600044E0
4.106199844E1,-7.705000043E-1,2.601999938E-1,3.631299973E0
4.108199844E1,-8.559999615E-2,4.993999898E-1,2.514099836E0
4.110199844E1,1.875199914E0,8.529999852E-2,3.689199924E0
4.112199844E1,2.477200031E0,-3.576000035E-1,6.115399837E0
4.114199844E1,9.170999527E-1,-1.302299976E0,7.114099979E0
4.116200000E1,-3.366000056E-1,-1.779099941E0,5.015899658E0
4.119199844E1,1.100799918E0,-1.241199970E0,3.200999796E-1
4.121200000E1,1.773799896E0,-7.476999760E-1,-1.669299960E0
4.124199844E1,7.547000051E-1,-4.807999730E-1,-3.414799929E0
4.126199844E1,-3.696999848E-1,-4.777999818E-1,-3.961599827E0
4.128199844E1,-1.296299934E0,-1.493999958E-1,-3.105099916E0
4.130199844E1,-1.362499952E0,-7.180000097E-2,-1.924799919E0
4.132199844E1,-1.258999944E0,1.430999935E-1,-1.969899893E0
4.134199844E1,-1.151299953E0,3.552999794E-1,-3.150599957E0
4.136199844E1,-1.217000008E0,5.171999931E-1,-4.354099751E0
4.138199844E1,-1.169899940E0,4.273999929E-1,-4.546799660E0
4.140199844E1,-7.709999681E-1,4.580999911E-1,-4.115600109E0
4.142199844E1,-4.386999905E-1,6.000999808E-1,-2.933699846E0
4.144199844E1,-2.009999938E-2,7.346000075E-1,-1.119799972E0
4.146199844E1,2.419999987E-1,5.878999829E-1,3.120999932E-1
4.148199844E1,-6.309999526E-2,7.527999878E-1,1.444999933E0
4.150199844E1,-4.493999779E-1,1.042999983E0,2.051899910E0
4.152199844E1,-5.063999891E-1,9.723999500E-1,2.404000044E0
4.154200000E1,-3.267999887E-1,1.068400025E0,2.725199938E0
4.156200000E1,-1.040000003E-2,7.858999968E-1,2.937700033E0
4.159199844E1,-3.358999789E-1,4.560999870E-1,2.524199963E0
4.161200000E1,-8.008999825E-1,2.389999926E-1,2.811800003E0
4.163200000E1,-1.163900018E0,-4.359000027E-1,3.458400011E0
4.166200000E1,-2.213999987E0,-1.435400009E0,3.266299963E0
4.169200000E1,-2.296000004E0,-1.406399965E0,9.585999846E-1
4.171200000E1,-1.022400022E0,-1.436499953E0,1.680999994E-1
4.174199844E1,-5.327000022E-1,-1.063199997E0,7.846999764E-1
4.176200000E1,-9.409999847E-1,-1.078999996E0,8.023999929E-1
4.179199844E1,-1.380199909E0,-8.314999938E-1,-1.078199983E0
4.181200000E1,-7.789999843E-1,-7.385999560E-1,-2.495499849E0
4.183200000E1,1.114999950E-1,-5.206999779E-1,-3.418399811E0
4.185200000E1,4.014999866E-1,-1.050999984E-1,-3.765399933E0
4.187200000E1,-1.064999998E-1,-9.719999880E-2,-3.581599951E0
4.190200000E1,-3.470000029E-1,-2.412999868E-1,-3.922799826E0
4.193199844E1,-1.633999944E-1,2.569999918E-2,-4.564499855E0
4.195199844E1,2.609999850E-2,2.334999889E-1,-3.824699879E0
4.197200000E1,-2.442999929E-1,3.987999856E-1,-2.437500000E0
4.199200000E1,-5.570999980E-1,5.600000024E-1,-1.017699957E0
4.202199844E1,-3.946000040E-1,4.183000028E-1,4.731999934E-1
4.204200000E1,-7.046999931E-1,6.042000055E-1,1.929399967E0
4.206200000E1,-8.356999755E-1,5.184999704E-1,3.456199884E0
4.208200000E1,-7.023999691E-1,3.445000052E-1,4.345900059E0
4.211199844E1,-7.184999585E-1,8.955999613E-1,3.781099796E0
4.213199844E1,-5.094000101E-1,9.453999996E-1,2.968600035E0
4.215199844E1,5.898000002E-1,4.481999874E-1,3.055399895E0
4.217199844E1,9.218999743E-1,-3.669999838E-1,4.199599743E0
4.219199844E1,-4.003999829E-1,-1.073199987E0,4.946799755E0
4.221199844E1,-1.213099957E0,-1.538900018E0,3.709999800E0
4.223200000E1,-5.059999824E-1,-1.421399951E0,1.777799964E0
4.225200000E1,1.415099978E0,-1.223999977E0,1.983999908E-1
4.227200000E1,2.349299908E0,-8.029999733E-1,-7.647999525E-1
4.230200000E1,1.446599960E0,-8.667999506E-1,-1.052999973E0
4.233200000E1,-3.261999786E-1,-5.762000084E-1,-2.349900007E0
4.236199844E1,-9.091999531E-1,5.900000036E-2,-3.069799900E0
4.238199844E1,-1.010100007E0,6.213999987E-1,-3.054399967E0
4.240200000E1,-7.946999669E-1,6.674000025E-1,-3.209599972E0
4.243199844E1,-9.732999802E-1,1.023100019E0,-3.488499880E0
4.245199844E1,-1.060199976E0,1.167599916E0,-3.049299955E0
4.247200000E1,-9.151999950E-1,1.130999923E0,-2.598599911E0
4.250199844E1,-5.899999738E-1,1.165400028E0,-9.192999601E-1
4.252200000E1,-1.631999910E-1,1.143199921E0,4.373999834E-1
4.254200000E1,2.282999903E-1,1.068400025E0,1.627699971E0
4.256200000E1,4.453999996E-1,9.957000017E-1,2.207900047E0
4.259199844E1,3.181999922E-1,8.537999988E-1,2.813199997E0
4.261199844E1,3.168999851E-1,6.340999603E-1,3.211999893E0
4.263200000E1,-1.118999943E-1,4.333999753E-1,3.131399870E0
4.266199844E1,-1.072700024E0,5.078999996E-1,2.491699934E0
4.268199844E1,-9.256999493E-1,-6.599999964E-3,2.824800014E0
4.270200000E1,-1.172699928E0,-6.990999579E-1,3.433699846E0
4.273200000E1,-2.749199867E0,-1.403599977E0,1.951999903E0
4.276200000E1,-1.976799965E0,-1.335500002E0,3.769999743E-2
4.279199844E1,-9.999999776E-3,-1.051100016E0,3.890999854E-1
4.281200000E1,9.380000085E-2,-8.615999818E-1,8.823999763E-1
