"Time (s)","Acceleration x (m/s^2)","Acceleration y (m/s^2)","Acceleration z (m/s^2)"
0.000000000E0,-2.547334909E0,4.120296478E0,9.703900337E0
2.000156200E-2,-2.110919714E0,3.498426676E0,1.241165638E1
4.201093700E-2,-3.450140357E-1,2.537135601E0,9.540337563E0
6.400156200E-2,7.682801485E-1,2.453386545E0,7.848633766E0
8.402031200E-2,6.784880161E-1,3.678307772E0,7.243686199E0
1.060000000E-1,9.319095016E-1,3.580681801E0,7.026177883E0
1.260078120E-1,1.672052979E0,3.275823593E0,6.683270454E0
1.480000000E-1,2.764718771E0,2.594241858E0,8.025239944E0
1.680000000E-1,1.928519845E0,1.382134318E0,7.552250385E0
1.880015620E-1,2.342429399E0,-9.597014189E-1,9.786979675E0
2.080078120E-1,1.149389148E0,2.792558670E0,8.733406067E0
2.300015620E-1,-1.072822690E0,3.340332747E0,9.733253479E0
2.500078120E-1,1.612111807E0,1.664707661E0,1.068573475E1
2.720015620E-1,3.757086754E0,5.465483293E-2,9.874952316E0
2.920078120E-1,2.795412302E0,1.052242041E0,9.786758423E0
3.140000000E-1,4.422760904E-1,2.581361294E0,8.921734810E0
3.340015620E-1,-4.209581316E-1,2.359840155E0,9.327503204E0
3.540015620E-1,2.891199589E0,2.360290289E0,9.357335091E0
3.760015620E-1,2.574149847E0,3.121330261E0,8.869396210E0
3.980078120E-1,2.809404135E0,1.064442873E0,7.231724739E0
4.200000000E-1,8.234329820E-1,-8.250419497E-1,9.171612740E0
4.400062500E-1,2.971970439E-1,1.932245255E0,1.074475574E1
4.620078120E-1,4.893384457E0,1.753063202E0,5.840942383E0
4.840203120E-1,5.999036312E0,2.359897375E0,5.256086826E0
5.060078120E-1,5.150320530E0,9.175825715E-1,6.314266682E0
5.280000000E-1,3.378831625E0,-8.886127472E-1,6.383736610E0
5.480046870E-1,3.887896299E0,-1.275257230E0,5.657891273E0
5.700000000E-1,4.257197380E0,-1.728326231E-1,6.511069775E0
5.900015620E-1,3.058353186E0,-1.891630054E0,7.004437923E0
6.100015620E-1,2.065200090E0,-5.304784775E-1,6.187230110E0
6.320015620E-1,1.267452002E0,2.058534473E-1,5.079432964E0
6.520015620E-1,2.240206599E-1,9.115204960E-2,4.646024704E0
6.740000000E-1,2.827571392E0,-2.350627333E-1,4.708408356E0
6.940000000E-1,6.563866615E0,-7.786518335E-1,5.376295090E0
7.140015620E-1,7.225853920E0,-6.474783421E-1,7.165070057E0
7.340015620E-1,6.474390507E0,-2.163678408E0,9.436057091E0
7.540015620E-1,9.306328773E0,-1.919354916E0,8.857244492E0
7.740015620E-1,1.199083233E1,-1.838737249E0,8.450133324E0
7.940015620E-1,1.265751266E1,-2.956522942E0,1.035813046E1
8.160015620E-1,1.145129395E1,-2.696618080E0,1.099468136E1
8.380015620E-1,1.349486065E1,-3.446099043E0,9.759360313E0
8.600000000E-1,1.381389236E1,-3.468566179E0,9.066765785E0
8.800000000E-1,1.231636715E1,-2.989773750E0,8.225270271E0
9.000000000E-1,1.233072281E1,-2.481360197E0,6.060969830E0
9.200000000E-1,1.263583946E1,-1.861683369E0,4.015900135E0
9.400015620E-1,1.115775585E1,-3.577167273E0,1.731831431E0
9.620015620E-1,1.128397751E1,-3.296959400E0,1.763645649E0
9.820046870E-1,1.268337059E1,-3.740011215E0,1.918119550E0
1.004001562E0,1.292397785E1,-3.556739807E0,6.674076319E-1
1.024001562E0,1.222035027E1,-3.384347677E0,-4.334462807E-2
1.044007812E0,1.230984592E1,-3.476907492E0,-1.081863165E0
1.066001562E0,1.274298573E1,-3.606587172E0,-2.790250540E0
1.088000000E0,9.893157005E0,-2.035588741E0,-8.683233261E0
1.108000000E0,9.076562881E0,-1.993642211E0,-4.917240143E0
1.128001562E0,1.044503021E1,-2.944877625E0,7.308061719E-1
1.148001562E0,1.013118935E1,-3.573480129E0,-1.302397847E0
1.170000000E0,7.632753372E0,-1.540209055E0,-2.613740444E0
1.190001562E0,8.149805069E0,-1.859815866E-1,-5.240620375E-1
1.212000000E0,9.631480217E0,-2.126664162E0,9.074503183E-1
1.232006250E0,7.410562038E0,-1.717169285E0,-9.878475964E-2
1.254001562E0,2.817592382E0,3.165479422E0,-4.053958058E-1
1.274001562E0,4.772046566E0,-2.208497763E0,-6.294931173E-1
1.294001562E0,3.118390083E0,-7.652031422E0,6.229396820E0
1.316000000E0,7.290066242E0,-1.015827274E1,3.793612480E0
1.336000000E0,1.106748390E1,-8.438584328E0,-1.755610585E0
1.356001562E0,8.520370483E0,-5.700766563E0,-6.081233978E0
1.376001562E0,9.921830177E0,-3.235524178E0,-5.510159492E0
1.398000000E0,9.658525467E0,-1.983232141E0,-4.594128609E0
1.418001562E0,7.414134026E0,7.239778638E-1,-2.009214163E0
1.440001562E0,8.232318878E0,1.264732242E0,2.209082097E-1
1.462007812E0,8.725706100E0,-1.748418450E0,-6.609145999E-1
1.484025000E0,6.162292004E0,-5.923465729E0,1.861683369E0
1.506000000E0,5.198645115E0,-6.555870056E0,4.900471210E0
1.526001562E0,1.952375770E0,-8.018976212E0,2.191498995E0
1.548001562E0,1.406919122E0,-9.154335976E0,-6.633796215E0
1.570000000E0,-1.254944682E0,-6.253903866E0,-2.689186573E0
1.590001562E0,2.174988538E-1,-6.960432529E0,9.689525962E-1
1.612001562E0,2.474168062E0,-9.079923630E0,1.225764275E0
1.634001562E0,4.792981148E0,-6.490786076E0,1.946773231E-1
1.654001562E0,4.142169952E0,-3.627828360E0,1.045844674E0
1.676001562E0,3.223553181E0,-4.275594234E0,2.216111422E0
1.696001562E0,3.316132069E0,-5.336120129E0,3.434827089E0
1.718000000E0,1.912315965E0,-2.427621841E1,5.997273922E0
1.738000000E0,3.272682190E0,-3.655015182E1,6.909474373E0
1.758000000E0,-1.902672172E0,-2.477648163E1,2.652986050E0
1.778001562E0,-2.477558136E0,-1.295694065E1,1.585018992E0
1.800001562E0,-4.896171570E0,-6.788893223E0,2.251507156E-2
1.822007812E0,-8.002284050E0,-8.116430283E0,-1.144246459E0
1.844000000E0,-5.950309753E0,-1.175445843E1,-2.957519054E0
1.864001562E0,-7.705402851E0,-1.013527870E1,-4.266294956E0
1.884020312E0,-6.806131363E0,-9.988369942E0,-5.088253498E0
1.906001562E0,-7.715841532E-1,-1.403331661E1,-4.024116516E0
1.926001562E0,-5.539416671E-1,-1.496268845E1,-1.877858639E0
1.946001562E0,2.726229429E-1,-1.439112473E1,-4.188244343E0
1.968000000E0,1.393616945E-1,-1.190276432E1,-5.898910522E0
1.988001562E0,2.823913097E-1,-1.236528492E1,-8.952686191E-1
2.010001562E0,7.554376721E-1,-1.362118816E1,5.126359463E0
2.032001562E0,2.625577450E-1,-1.406292820E1,5.092629910E0
2.052001562E0,-5.788701177E-1,-1.402167130E1,4.953670502E0
2.072001562E0,-6.429197788E-1,-1.405617619E1,2.336204529E0
2.092001562E0,1.788085699E-1,-1.457205963E1,-2.713664770E0
2.112001562E0,-1.580374241E0,-1.411460495E1,-1.362032652E0
2.134001562E0,-3.347860098E0,-1.465034103E1,-1.838019013E0
2.154001562E0,-4.855172634E0,-1.257381058E1,1.215268016E0
2.176001562E0,-3.666317701E0,-9.882996559E0,-2.089506149E0
2.198001562E0,-1.612399101E0,-8.167484283E0,3.737636209E-1
2.220001562E0,-7.490116358E-1,-6.730206490E0,2.255414486E0
2.242000000E0,-2.710964203E0,-3.890846014E0,1.380391359E0
2.262001562E0,-3.101554155E0,-2.260222197E0,1.269731283E0
2.282001562E0,-2.912795305E0,-1.637365818E0,1.251363039E0
2.302007812E0,-3.184747934E0,-8.589725494E-1,4.410885572E-1
2.324001562E0,-3.376580954E0,-1.905976087E-1,-1.230140850E-1
2.346000000E0,-3.212041855E0,6.721960753E-2,-1.272135139E0
2.366000000E0,-3.045817137E0,-7.080228925E-1,-4.191644192E0
2.386007812E0,-1.308661103E0,-4.704319000E0,-1.008642673E1
2.408001562E0,5.849130154E-1,-1.188196278E1,-1.658229828E1
2.430001562E0,-2.420442104E0,-2.053054619E1,-1.743760300E1
2.450001562E0,-3.891631126E0,-1.692882538E1,-1.067819691E1
2.472001562E0,6.313030720E-1,-9.013038635E0,-8.715583801E0
2.492009375E0,5.769221783E0,-8.747790337E0,-9.739574432E0
2.514001562E0,-2.157108545E0,-6.696457386E0,1.566772270E1
2.534001562E0,-7.507201195E0,-1.705734634E1,-3.146059608E1
2.554001562E0,-1.331458664E1,-1.588119888E1,8.091817856E0
2.574001562E0,-7.127768040E0,-1.155203342E1,1.613982201E1
2.596001562E0,-5.775178432E0,-8.624049187E0,4.905087471E0
2.618001562E0,-4.443312645E0,-9.861736298E0,9.359892011E-1
2.640007812E0,-3.635039806E0,-1.378614807E1,1.761644006E0
2.662000000E0,-1.723461270E0,-1.406314850E1,1.797806025E0
2.682003125E0,1.326962262E-1,-1.106892109E1,1.354122162E0
2.702009375E0,4.164474607E-1,-7.320252419E0,-2.517656326E0
2.722018750E0,-1.189429760E0,-4.210117817E0,-3.241365850E-1
2.744001562E0,-3.110125542E0,-4.726680756E0,-8.145811081E0
2.764001562E0,-8.250706196E-1,-8.122961044E0,-4.956945896E0
2.784020312E0,3.879085779E-1,-8.551686287E0,-2.249572754E0
2.806007812E0,3.661117554E-1,-7.837447643E0,9.797647595E-1
2.828000000E0,4.672906995E-1,-6.530424118E0,1.853667617E0
2.848001562E0,-2.056523412E-1,-6.131042957E0,2.694731474E0
2.870001562E0,-1.383101583E0,-1.084435463E1,3.937867880E0
2.892006250E0,-4.383745193E0,-1.298906136E1,-1.596179771E1
2.914000000E0,-1.317050457E0,-1.428845215E1,-8.501456261E0
2.934001562E0,1.520452142E0,-1.464431667E1,-4.160566807E0
2.954003125E0,1.778671622E0,-1.318342304E1,-1.632395506E0
2.976000000E0,9.420704842E-1,-9.200026512E0,-8.022932053E0
2.996004687E0,1.415710568E0,-1.030632019E1,-4.599720955E0
3.018000000E0,1.954214454E0,-1.424361324E1,6.493237972E0
3.038000000E0,2.459745407E0,-1.832851410E1,9.471796989E0
3.058001562E0,1.293654203E0,-1.926421738E1,7.218336105E0
3.078006250E0,-5.534244776E-1,-2.045005417E1,4.973168850E0
3.100000000E0,-6.327003479E0,-2.005064392E1,-3.515636206E0
3.120006250E0,-8.015796661E0,-1.818684387E1,-2.055661678E0
3.142000000E0,-5.469333649E0,-1.826110268E1,2.345168442E-1
3.162000000E0,-9.419775963E0,-1.393402481E1,5.067663193E-1
3.182003125E0,-8.068852425E0,-1.030395412E1,2.122364044E0
3.204006250E0,-4.040387630E0,-7.222559452E0,2.521477640E-1
3.226001562E0,-1.918502569E0,-4.679859638E0,-1.042435467E-1
3.246001562E0,-1.421169400E0,-2.508184910E0,3.036096573E0
3.266001562E0,-2.873789072E0,-3.730740845E-1,4.473757267E0
3.286006250E0,-2.832972765E0,9.643557072E-1,4.130965233E0
3.308001562E0,-2.581150532E0,1.681572437E0,2.486311436E0
3.328004687E0,-2.880885601E0,1.776363492E0,2.117862940E0
3.350000000E0,-3.267118216E0,8.514738679E-1,2.712525129E0
3.370001562E0,-3.157875538E0,-6.676758528E-1,9.226391315E-1
3.392001562E0,-3.285256624E0,-4.275459766E0,-7.454279900E0
3.414001562E0,-8.243045211E-1,-1.519746399E1,-3.944152451E1
3.434001562E0,-1.712773561E0,-2.246075439E1,-1.695044899E1
3.454001562E0,1.951628804E0,-1.687382698E1,-9.567670822E0
3.474001562E0,2.982811213E0,-9.041223526E0,-7.850309372E0
3.494006250E0,9.490041137E-1,-5.650919437E0,-1.494131279E1
3.516000000E0,8.467620611E-1,-1.238551140E1,-2.652775496E-2
3.536006250E0,-4.915162086E0,-7.108068943E0,1.531972027E1
3.558001562E0,-1.341111088E1,-1.317231369E1,-4.901821136E0
3.580001562E0,-1.117266655E1,-1.544931412E1,3.870552778E0
3.602029687E0,-1.013830471E1,-1.270943737E1,5.368911266E0
3.624001562E0,-8.567526817E0,-1.292105675E1,1.257559180E0
3.644001562E0,-4.435076714E0,-1.260456276E1,1.811022043E0
3.664001562E0,-1.549584866E0,-1.191074085E1,3.485306501E0
3.684026562E0,-4.388284385E-1,-1.085948658E1,4.316506386E0
3.706001562E0,1.100959182E0,-1.012583637E1,4.020237923E0
3.726001562E0,1.511622310E0,-8.328517914E0,7.647578239E0
3.746001562E0,6.327597141E0,-5.768187523E0,-1.919615364E1
3.768004687E0,3.759155273E0,-7.439531803E0,-6.894075394E0
3.790001562E0,2.408854246E0,-9.037105560E0,-1.061110198E-2
3.810001562E0,1.238769531E0,-6.622993946E0,1.430085421E0
3.832001562E0,4.152216315E-1,-5.507803917E0,1.856243730E0
3.854001562E0,-4.710735381E-1,-8.257495880E0,1.910084605E0
3.874001562E0,-9.914676547E-1,-1.218098068E1,9.008806348E-1
3.894001562E0,-3.710131645E0,-1.318152618E1,-8.546821594E0
3.916000000E0,-2.188568592E0,-1.461392021E1,-1.122293568E1
3.936000000E0,3.453061342E0,-1.540317249E1,-4.540076852E-1
3.956001562E0,4.579121590E0,-1.405328465E1,1.729762852E-1
3.978001562E0,2.669228554E0,-1.094834995E1,-1.205492115E1
4.000000000E0,2.416199684E0,-1.310338020E1,3.754654169E0
4.020000000E0,2.138060570E0,-1.354903603E1,8.014312744E0
4.040000000E0,1.700764298E0,-1.832710457E1,6.556080818E0
4.060000000E0,-1.008926153E0,-2.073332596E1,4.154552937E0
4.080001562E0,-3.381455660E0,-2.065798569E1,1.469474912E0
4.102006250E0,-4.241787910E0,-1.904811478E1,1.837157130E0
4.124004687E0,-4.831824780E0,-1.887426758E1,1.707334042E0
4.146000000E0,-5.983694553E0,-1.681136513E1,3.923043311E-1
4.166001562E0,-9.105512619E0,-1.099955654E1,-1.064644098E0
4.186001562E0,-6.729593277E0,-6.304230213E0,2.412819147E0
4.206001562E0,-3.776000738E0,-3.440927505E0,4.603130341E0
4.226001562E0,-2.265642643E0,-1.743984342E0,6.719163895E0
4.246001562E0,-1.608635426E0,2.801886201E-1,5.986825466E0
4.268001562E0,-1.309436798E0,1.798840284E0,3.281808853E0
4.288001562E0,-1.729619145E0,2.689713240E0,3.474101543E0
4.308001562E0,-2.045701742E0,3.107788801E0,1.669055462E0
4.330000000E0,-2.204954386E0,3.708426952E-1,-4.623711109E0
4.350000000E0,-3.603608608E0,-5.841880798E0,-1.033822918E1
4.370001562E0,-3.725770473E0,-1.188042164E1,-2.780946732E1
4.390001562E0,-5.725972652E-1,-1.206336689E1,-8.336102486E0
4.410001562E0,1.701798588E-1,-1.074933434E1,-3.512973785E0
4.432007812E0,-7.025449872E-1,-8.595653534E0,-2.031049252E0
4.454000000E0,-1.009510398E0,-5.161266804E0,-4.900107384E0
4.474001562E0,1.631629229E0,-3.726517677E0,-3.505408287E0
4.494001562E0,4.882419109E0,-5.549137115E0,-1.135928059E1
4.514001562E0,-9.738577843E0,-1.021344471E1,-1.665674806E0
4.534001562E0,-8.849956512E0,-5.325279236E0,7.026608467E0
4.556000000E0,-6.147840977E0,-9.111613274E0,5.137909412E0
4.576000000E0,-5.068965435E0,-9.805568695E0,4.615063190E0
4.596001562E0,-9.135412216E0,-9.487187386E0,5.069386959E-1
4.618001562E0,-4.115498543E0,-1.410564995E1,-3.129068375E0
4.638001562E0,-5.089680195E0,-1.390004635E1,3.228667259E0
4.660001562E0,-2.473909378E0,-1.751575089E1,4.290734768E0
4.682001562E0,8.303091526E-1,-2.388609695E1,1.529395008E1
4.702001562E0,9.344808578E0,-3.105960464E1,-1.475827122E1
4.722001562E0,9.901134491E0,-2.669254303E1,-1.441505718E1
4.742001562E0,6.260779858E0,-2.184550095E1,-1.191854668E1
4.762001562E0,1.285494864E-1,-1.702598190E1,-1.555157566E1
4.784020312E0,-2.956532717E0,-1.002276039E1,-4.213239670E0
4.806001562E0,-2.004435062E0,-9.155714512E-1,-3.421103477E0
4.826001562E0,8.422418594E0,-8.924530745E-1,-2.107686806E1
4.848000000E0,5.681948185E0,-3.053162575E0,-1.810389996E0
4.868000000E0,2.436483383E0,-1.369081140E0,-3.863465786E0
4.888000000E0,-1.052922010E0,-5.041422844E-1,7.815344930E-1
4.908001562E0,-1.492727280E0,-2.444451094E0,5.098692179E-1
4.930000000E0,-8.945599198E-1,-1.036176014E1,-7.176380157E-1
4.950000000E0,-2.757248878E0,-2.474625778E1,-3.718520641E0
4.970000000E0,-8.138150215E0,-3.218339539E1,-1.309632111E1
4.990000000E0,-1.483180141E1,-4.065687943E1,-1.927573586E1
5.010001562E0,-4.754654884E0,-3.409910965E1,-6.607824326E0
5.030001562E0,-2.333618879E0,-1.767865944E1,8.978447914E-1
5.052001562E0,6.376045942E-1,-1.127964973E1,7.839124203E0
5.074001562E0,-3.592260182E-1,-6.072164536E0,7.591582298E0
5.094001562E0,-2.861454189E-1,4.303146601E-1,7.380270481E0
5.114001562E0,-1.198163867E0,6.470799446E0,5.457190037E0
5.134001562E0,6.441264749E-1,1.034536457E1,6.440900326E0
5.154001562E0,4.122288704E0,6.280948639E0,8.593499184E0
5.176000000E0,3.053584099E0,9.558610618E-2,5.322770119E0
5.196000000E0,2.759097099E0,-1.746847868E0,-5.497470379E0
5.216000000E0,1.761442900E0,-1.055013561E1,-3.624994659E1
5.236001562E0,1.108352542E0,-6.988071442E0,-1.264464140E0
5.256001562E0,-7.022960186E0,-6.950195312E0,1.120834923E1
5.278000000E0,-1.220180988E1,-1.160750198E1,1.254749393E1
5.298000000E0,-8.088771820E0,-1.579116821E1,1.311221886E1
5.318000000E0,-3.307829142E0,-2.054721069E1,8.285373688E0
5.338000000E0,6.324331760E-1,-4.340748215E1,1.048942852E1
5.358000000E0,7.238112450E0,-3.519154739E1,-2.892022324E1
5.378000000E0,-9.268434048E-1,-2.343865967E1,-1.266018486E1
5.398000000E0,-9.757837296E0,-1.538496780E1,-1.241540146E1
5.418000000E0,-1.246827412E1,-7.610055923E0,-1.762710953E1
5.438000000E0,-5.892772198E0,-4.031021595E0,-5.763982773E0
5.458000000E0,-2.114175797E0,3.803572416E0,-4.935235023E0
5.478000000E0,1.177630234E1,-5.613636971E-1,-1.392557716E1
5.498000000E0,1.294735432E1,-5.067931175E0,-1.474550533E1
5.518000000E0,1.715052843E0,-4.216332912E0,1.350435019E0
5.538000000E0,-4.220613956E0,-2.937867403E0,4.285697937E0
5.558000000E0,-5.832983971E0,-3.927668810E0,-6.494425297E0
5.578000000E0,-2.155384779E0,-1.313429356E1,2.062288761E0
5.598000000E0,1.410491228E0,-3.093628502E1,-1.310126305E0
5.618000000E0,-3.704289913E0,-3.768956375E1,-1.092216587E1
5.638000000E0,-1.032600975E1,-3.244918060E1,-8.962310791E0
5.658001562E0,-9.326948166E0,-2.613929176E1,-5.510226727E0
5.680000000E0,3.851025701E-1,-1.696115685E1,-1.404036522E0
5.700000000E0,5.612822533E0,-1.360144043E1,4.646398544E0
5.720001562E0,5.928139091E-1,-6.173324585E0,7.251807213E0
5.740001562E0,-4.882016659E0,1.180188179E0,9.080345154E0
5.762012500E0,-5.108852863E0,7.045321941E0,7.747531414E0
5.784021875E0,-1.985061407E0,8.953117371E0,1.019701099E1
5.806001562E0,1.978443742E0,6.194422245E0,6.415100574E0
5.826001562E0,2.763981342E0,1.739444971E0,5.132373333E0
5.848000000E0,8.721501827E-1,-4.222902298E0,5.428297043E0
5.868000000E0,8.576384544E0,-1.895478821E1,-4.399263382E1
5.888000000E0,6.743891835E-1,-1.575596428E1,-6.094928741E0
5.908000000E0,-7.206968307E0,-1.031762123E1,1.453277493E1
5.928001562E0,-1.425024033E1,-1.413016701E1,1.845306015E1
5.948001562E0,-9.560871124E0,-9.141608238E0,8.653257370E0
5.970000000E0,-8.004688263E0,-1.867317390E1,1.222611523E1
5.990010937E0,-4.283782005E0,-3.882161713E1,9.191359520E0
6.012001562E0,1.705284595E0,-4.205632782E1,-2.671526909E0
6.032017187E0,-3.944399357E0,-1.982112694E1,-2.686290359E1
6.054000000E0,-6.726040363E0,-1.247506428E1,-2.105756760E1
6.074003125E0,-2.850910187E0,-1.040534496E1,-5.613828659E0
6.096001562E0,-1.713721633E0,1.316284180E0,7.802741528E0
6.116006250E0,1.027386379E1,2.668107986E0,-1.486591434E1
6.138000000E0,1.168859768E1,-1.718443155E0,-1.825470543E1
6.158001562E0,1.300482392E0,-3.592451572E0,-2.223926038E-1
6.180000000E0,-5.117012024E0,-3.593035936E0,-1.014758423E-1
6.200009375E0,-6.891719341E0,-5.392479420E0,-5.574055672E0
6.222007812E0,-1.962986827E0,-1.467489529E1,4.280458927E0
6.244000000E0,1.190990806E0,-3.410055923E1,3.701359034E0
6.264000000E0,-5.227998257E0,-4.403445435E1,-1.668464661E1
6.284021875E0,-9.980297089E0,-3.213959122E1,-7.884968281E0
6.306003125E0,-1.005495834E1,-2.278328133E1,-1.037694931E0
6.328000000E0,3.589195609E-1,-1.578665733E1,9.373874664E-1
6.348001562E0,5.208250523E0,-1.257082367E1,6.873925209E0
6.370001562E0,-4.340304434E-1,-2.281205177E0,9.981254578E0
6.390007812E0,-3.413719654E0,4.387930393E0,8.567392349E0
6.412001562E0,-3.394939661E0,8.766924858E0,7.930237770E0
6.434001562E0,-1.353202701E0,9.945274353E0,8.521126747E0
6.454001562E0,-3.582875133E-1,7.130507469E0,6.814146996E0
6.474001562E0,-1.055689692E0,1.619744539E0,6.205224991E0
6.494001562E0,-1.966827154E0,-4.325862885E0,3.223390341E0
6.514003125E0,6.781241417E0,-1.226109982E1,-2.824148560E1
6.534012500E0,5.199123859E0,-5.404325962E0,-8.639687538E0
6.556003125E0,-8.858527184E0,-1.269369316E1,-7.446446419E0
6.578000000E0,-1.586675739E1,-2.174382401E1,1.507897949E1
6.598000000E0,-8.060434341E0,-2.114946938E1,2.066713333E1
6.618000000E0,-2.218036413E0,-2.723592186E1,1.347655964E1
6.638000000E0,-3.573489785E-1,-4.056221771E1,1.139305782E1
6.658000000E0,-6.032334566E-1,-3.753212738E1,3.266859293E0
6.678000000E0,-1.227699661E1,-1.674307442E1,-4.094973755E1
6.698001562E0,-7.057426929E0,-1.107460976E1,-1.145461750E1
6.718001562E0,-6.571633816E0,-4.739015579E0,-8.151787758E0
6.738010937E0,-1.985281587E0,1.419187069E0,5.669373989E0
6.760000000E0,1.044295216E1,-7.157800794E-1,-1.109316063E1
6.780007812E0,1.461213875E1,-4.418604374E0,-2.212180138E1
6.802001562E0,5.093041658E-1,-2.435554504E0,4.294144213E-1
6.822004687E0,-3.083281755E0,-2.818099737E0,3.465329409E0
6.844000000E0,-5.610418797E0,-3.688621998E0,-1.383187771E0
6.864001562E0,-3.589176416E0,-8.696506500E0,6.219274402E-1
6.884020312E0,-1.045500040E0,-2.647904778E1,5.865037441E0
6.906000000E0,-7.916954517E0,-4.309925079E1,-1.376212978E1
6.926001562E0,-1.217508125E1,-3.531755829E1,-1.353010368E1
6.946001562E0,-8.334187508E0,-2.550582504E1,-5.041585445E0
6.968000000E0,1.098689556E0,-1.895197487E1,-7.088369131E-1
6.988001562E0,6.052177906E0,-1.505496979E1,6.474764347E0
7.010001562E0,2.640804350E-1,-5.567036152E0,8.517813683E0
7.032001562E0,-4.042810917E0,3.200798512E0,8.713629723E0
7.052014062E0,-3.714105844E0,9.103645325E0,6.720753670E0
7.074001562E0,-1.230878353E0,1.038961887E1,9.738539696E0
7.096000000E0,1.242111802E0,5.889592171E0,6.528739452E0
7.116000000E0,1.346862912E0,1.995605469E0,5.338964462E0
7.136000000E0,-1.950508207E-1,-3.171445847E0,5.627696037E0
7.156000000E0,7.589274406E0,-1.396034050E1,-4.032867050E1
7.176000000E0,3.133454561E0,-1.183240318E1,-2.225594330E1
7.196000000E0,-7.717584610E0,-1.579678059E1,1.890116930E0
7.216000000E0,-1.370193958E1,-2.099441910E1,2.290904236E1
7.236009375E0,-8.672881126E0,-1.806186676E1,1.498743439E1
7.258000000E0,-4.410703659E0,-2.130570221E1,1.220063210E1
7.278004687E0,-2.234920263E0,-2.992251205E1,8.851277351E0
7.300001562E0,-3.586399078E0,-3.724817657E1,7.819635391E0
7.322001562E0,-1.689605522E1,-1.583105564E1,-6.698701477E1
7.342001562E0,-9.828533173E0,-7.244950294E0,-3.083059502E1
7.364001562E0,-2.077985048E0,-7.333209991E0,-4.487605572E0
7.384020312E0,-6.026492715E-1,1.131087899E0,6.579026699E0
7.406000000E0,4.479148865E0,2.928089619E0,1.002716637E1
7.426007812E0,1.318242645E1,-2.771364927E0,-2.861280823E1
7.448000000E0,2.946486473E0,-3.233005285E0,-7.542865276E0
7.468000000E0,-1.411152124E0,-2.811875105E0,3.757728338E0
7.488001562E0,-2.737271786E0,-3.312062025E0,3.173897505E0
7.510001562E0,-1.962833643E0,-7.161277294E0,1.508174658E0
7.532001562E0,1.792203665E0,-2.817430496E1,-1.554353952E0
7.552003125E0,-3.850968122E0,-4.213051987E1,-1.308116150E1
7.574001562E0,-1.325540257E1,-3.969775009E1,-1.256383228E1
7.594001562E0,-8.097343445E0,-2.663652039E1,-3.116005659E0
7.616001562E0,9.948482513E-1,-1.614821053E1,-2.137160152E-1
7.636001562E0,3.321983576E0,-1.341586113E1,3.943690777E0
7.658000000E0,8.045092225E-1,-7.087890625E0,8.680082321E0
7.678000000E0,-3.658771276E0,-5.365980864E-1,6.634227753E0
7.698001562E0,-3.554364681E0,4.475490570E0,5.996737957E0
7.720001562E0,-3.483458042E0,8.435471535E0,7.956372738E0
7.742009375E0,-1.293615937E0,8.477092743E0,7.572773933E0
7.764001562E0,-3.103747368E-1,6.221208572E0,5.319351196E0
7.784021875E0,-1.906627297E0,1.236825466E0,2.327058554E0
7.806001562E0,-2.843957186E0,-4.497651577E0,2.272212505E0
7.826004687E0,1.655351073E-1,-1.256829453E1,-3.584225464E1
7.848003125E0,6.493650079E-1,9.830592275E-1,-1.173628092E0
7.870001562E0,-4.659595191E-1,-6.082756996E0,1.256748009E1
7.890007812E0,-8.815076828E0,-2.113299561E1,-1.500101447E0
7.912001562E0,-1.245908070E1,-3.851251602E1,1.557724094E1
7.934001562E0,1.061205983E0,-3.061840248E1,1.836167908E1
7.956001562E0,4.374589622E-1,-3.634349060E1,7.864569426E-1
7.978001562E0,-8.310273886E-1,-2.352142143E1,-3.328371429E1
7.998001562E0,-7.943855762E0,-1.773904228E1,-2.015444756E1
8.020001562E0,-9.749257088E0,-7.754570484E0,-1.105523586E1
8.042001562E0,-7.743212223E0,-1.199897170E0,-8.658352852E0
8.062012500E0,-1.193490386E0,2.560646534E0,-1.645400763E0
8.084020312E0,8.903030396E0,-1.772647858E0,-7.393151283E0
8.106001562E0,1.191757870E1,-2.358614206E0,-1.210680771E1
8.126001562E0,6.076771021E-1,2.578842342E-1,-6.434445858E0
8.146001562E0,-2.622426510E0,-2.505493641E0,3.914424181E0
8.166001562E0,-4.892302036E0,-3.932897806E0,4.867229939E0
8.188001562E0,-4.007098675E0,-7.035993576E0,-2.453616142E0
8.208001562E0,-2.678058147E-1,-2.441112709E1,4.610227108E0
8.230001562E0,-3.860640526E0,-3.996279526E1,4.864701748E0
8.252001562E0,-6.425213814E0,-3.391102219E1,-1.881371307E1
8.272001562E0,-8.287213326E0,-2.589315796E1,-1.405925941E1
8.292001562E0,-7.820286274E0,-1.842133141E1,-5.705258369E0
8.312001562E0,-2.331167221E0,-1.327853012E1,1.230265379E0
8.332001562E0,1.383187771E0,-1.059234047E1,7.143369198E0
8.352017187E0,2.542259097E-1,-5.709596634E0,7.014292717E0
8.374001562E0,-2.964490891E0,9.413234591E-1,5.438410282E0
8.394001562E0,-2.662936449E0,5.201412678E0,4.134499073E0
8.416000000E0,-3.179308474E-1,7.528720856E0,7.220059872E0
8.436001562E0,2.744243622E0,6.019894600E0,1.004575348E1
8.456003125E0,2.783987284E0,3.683000565E0,6.997485161E0
8.478001562E0,6.207016110E-1,3.106907606E-1,2.605332136E0
8.500000000E0,-1.066731811E0,-3.298482180E0,8.667584658E-1
8.520000000E0,3.948287487E0,-1.628357887E1,-4.911878967E1
8.540000000E0,-9.931205750E0,-1.071648502E1,2.092139721E0
8.560000000E0,-1.346737480E1,-2.566307449E1,1.730407333E1
8.580001562E0,-5.733873367E0,-1.485170174E1,1.869445229E1
8.602001562E0,1.824065685E0,-1.742679024E1,1.941542435E1
8.622007812E0,3.075668097E0,-3.713537216E1,8.160521507E0
8.644001562E0,1.822006583E0,-3.554648590E1,9.453170300E-1
8.664001562E0,-6.842494011E0,-1.606479645E1,-4.300680542E1
8.684020312E0,-5.858085155E0,-1.792474556E1,-4.264532566E0
8.706000000E0,-1.075009918E1,-1.164954376E1,-4.420117855E0
8.726000000E0,-1.355702305E1,-3.703810692E0,-9.876044273E0
8.746001562E0,-1.072387791E1,-4.620426297E-1,-1.173301601E1
8.768001562E0,-2.413661957E0,-1.986478806E0,-1.169384575E1
8.788001562E0,7.419085026E0,-1.825885296E0,-4.182392597E0
8.810001562E0,1.036638546E1,-3.316160917E0,-9.843425155E-1
8.832001562E0,8.533547401E0,-3.071550131E0,-8.600020409E0
8.852001562E0,-7.511664629E-1,-1.046189547E0,-1.326234460E0
8.872001562E0,-3.231425285E0,-3.274291039E0,1.648436666E0
8.892001562E0,-5.276389599E0,-5.310837269E0,1.035540104E-1
8.912001562E0,-3.177124739E0,-1.620718384E1,-1.956646919E0
8.934001562E0,5.355158448E-1,-3.927925491E1,-2.812717676E0
8.956001562E0,-2.374032974E0,-3.811777878E1,-1.019261456E1
8.978001562E0,-4.785243034E0,-2.498495102E1,-6.008469105E0
9.000000000E0,-3.289192677E0,-1.866183662E1,-3.784821033E0
9.020001562E0,9.041654468E-1,-1.682646942E1,-4.420701504E0
9.042001562E0,1.894014597E0,-1.309698200E1,1.799482107E0
9.062018750E0,-1.183061242E0,-6.840674877E0,6.831883430E0
9.084020312E0,-4.933281422E0,-1.272997022E0,5.312456131E0
9.106001562E0,-3.038998604E0,2.171292067E0,5.820419312E0
9.128001562E0,-1.103822708E0,3.110029697E0,4.718511581E0
9.150001562E0,8.069322109E-1,3.412417412E0,3.742414951E0
9.172001562E0,7.198119760E-1,2.919595003E0,1.799884319E0
9.192020312E0,4.603954256E-1,1.310605168E0,2.505953312E0
9.214001562E0,-4.390075207E0,-4.886766434E0,-3.162887955E1
9.234003125E0,-9.725726247E-1,-1.485496879E0,-1.852482986E1
9.256001562E0,-5.819729567E-1,1.779274940E0,1.415634036E0
9.276004687E0,-1.543771744E0,-3.352581501E0,9.242613792E0
9.298000000E0,-7.818390369E0,-1.332760143E1,8.769261360E0
9.318004687E0,-6.976234436E0,-3.588695526E1,5.348962307E0
9.340000000E0,2.276713371E0,-2.953802299E1,8.445115089E0
9.360004687E0,1.135272980E0,-1.895746994E1,3.618864536E0
9.382010937E0,2.042110443E0,-1.833355141E1,8.226380944E-1
9.402014062E0,-2.288780212E0,-1.946615219E1,-6.629467964E0
9.422014062E0,-5.199669838E0,-1.970933533E1,-6.044707775E0
9.444001562E0,-6.699790478E0,-1.246528721E1,-4.909492493E0
9.464001562E0,-1.326262283E1,-6.524305344E0,-2.537471771E1
9.484021875E0,-6.961677551E0,-7.677534580E0,-6.971245289E0
9.506001562E0,4.677408040E-1,-3.917373896E0,-3.419753075E0
9.526003125E0,5.585193634E0,-1.852278948E0,-7.034863949E0
9.548000000E0,7.863075733E0,-2.111513376E0,-4.812211514E0
9.568000000E0,5.130851269E0,-3.682789803E0,-3.940578461E0
9.588000000E0,-1.225668430E0,-3.851341486E0,-1.650878668E0
9.608000000E0,-4.875618935E0,-3.856627941E0,8.333162665E-1
9.628001562E0,-5.218813896E0,-6.633317947E0,8.817365766E-1
9.650001562E0,-3.274118662E0,-2.120606613E1,3.835625887E0
9.672001562E0,-7.329953671E0,-3.351559830E1,-8.308674812E0
9.692001562E0,-1.074523449E1,-2.918677330E1,-1.420504761E1
9.714001562E0,-8.165406227E0,-2.048486710E1,-9.460103989E0
9.734001562E0,-3.770819902E0,-1.617243958E1,-5.253271103E0
9.754001562E0,-1.552055717E0,-1.359920883E1,-1.227172017E-1
9.776000000E0,-3.786765039E-1,-1.203284550E1,2.917679548E0
9.796000000E0,-3.344671249E0,-7.654550076E0,3.104302645E0
9.816001562E0,-4.420548916E0,-1.423056006E0,1.715005040E0
9.838001562E0,-2.471620560E0,4.524178982E0,-1.065113306E0
9.860000000E0,-1.152942181E0,7.183715820E0,-2.422405481E0
9.880001562E0,2.941027880E0,6.176667213E0,1.758292079E0
9.902028125E0,5.896440029E0,2.491588116E0,7.897781849E0
9.924001562E0,4.446865559E0,-3.435239077E0,5.185802937E0
9.944001562E0,6.745739937E0,-6.876990318E0,-1.618065643E1
9.966001562E0,8.693921089E0,-1.204801559E1,-1.008094883E1
9.988001562E0,-5.678299427E0,-2.251183510E1,-1.656444740E1
1.001000156E1,-8.733310699E0,-1.642805481E1,1.604552841E1
1.003200938E1,-8.514758110E0,-6.366230011E0,4.192304611E0
1.005400000E1,-3.917843103E0,-1.704590225E1,4.731248856E0
1.007400156E1,-3.546166897E0,-2.499997711E1,7.603371620E0
1.009404375E1,-1.503127694E0,-2.322186852E1,-1.570308954E-1
1.011600000E1,2.314810038E0,-2.162804031E1,-3.527185678E0
1.013600000E1,-2.106476068E0,-1.581846237E1,-2.301024246E1
1.015600000E1,-4.741218090E0,-1.652902412E1,-5.636601925E0
1.017600156E1,-5.298186302E0,-1.284333134E1,-7.387606621E0
1.019600156E1,-4.640930176E0,-8.764962196E0,-1.120663548E1
1.021600156E1,-1.217173815E0,-4.209399223E0,-1.172274876E1
1.023600156E1,4.547537327E0,-1.982082963E0,-4.499164581E0
1.025600156E1,7.727362633E0,-2.134727716E0,2.816002607E0
1.027800156E1,9.505507469E0,-2.078214884E0,-3.336061478E0
1.030000156E1,5.504096985E0,-3.090052605E0,-1.244615269E1
1.032200156E1,-3.311659813E0,-6.609777927E0,-1.394957662E0
1.034201875E1,-4.300752640E0,-1.504703140E1,7.319046021E0
1.036400156E1,-7.430050850E0,-2.226464844E1,2.835826635E0
1.038402031E1,-1.217533016E1,-2.452013016E1,-6.147505283E0
1.040600000E1,-1.246465397E1,-2.501953316E1,-1.238038826E1
1.042600156E1,-8.955224991E0,-2.279591179E1,-9.673868179E0
1.044600156E1,7.197640538E-1,-1.908414268E1,-3.643553734E0
1.046600156E1,3.653044224E0,-1.687031937E1,3.538151383E-1
1.048800156E1,3.071291447E0,-1.287647629E1,4.045722008E0
1.051000156E1,-1.687644005E0,-5.368278980E0,4.632923603E0
1.053200156E1,-4.021454334E0,1.803647995E0,4.575721741E0
1.055200156E1,-1.875684738E0,7.427474499E0,3.443743229E0
1.057200156E1,4.623778164E-1,9.718189240E0,5.007559299E0
1.059200781E1,3.638736486E0,6.708103180E0,7.062569141E0
1.061400156E1,3.256219625E0,1.447869539E0,4.619554520E0
1.063600000E1,3.001831055E0,-6.906294823E0,-9.905118942E0
1.065600000E1,1.060396671E1,-1.453705692E1,-2.523967361E1
1.067600156E1,-6.189212322E0,-1.342472935E1,4.728797436E0
1.069800156E1,-1.390756321E1,-2.038434792E1,1.298370838E1
1.072000000E1,-9.498046875E0,-1.115896225E1,8.204268456E0
1.074000156E1,-3.220028877E0,-1.095904732E1,5.678902626E0
1.076200156E1,9.012732655E-2,-2.535471153E1,9.440232277E0
1.078402188E1,1.397275209E0,-2.951611137E1,1.372528791E0
1.080600000E1,1.144754052E0,-2.080004883E1,-2.060366631E1
1.082600625E1,-5.794217110E0,-1.388634109E1,-1.724222565E1
1.084800000E1,-7.370799065E0,-1.087224197E1,-7.661579609E0
1.086800000E1,-8.330184937E0,-6.998041153E0,-9.806564331E0
1.088800000E1,-4.645402431E0,-4.795710564E0,-9.152286530E0
1.090800156E1,1.556585431E0,-3.103402615E0,-6.289644718E0
1.093000000E1,7.337002277E0,-2.964328051E0,6.950175762E-1
1.095000156E1,1.041078377E1,-3.265997648E0,-6.084681511E0
1.097200156E1,9.275098801E0,-3.236242533E0,-5.849590302E0
1.099200781E1,-4.031835496E-2,-2.814996958E0,-1.741896629E0
1.101400156E1,-1.671612382E0,-6.777420044E0,3.884822130E0
1.103400156E1,-2.209187269E0,-1.711422348E1,7.004802227E0
1.105400156E1,-8.762902260E0,-2.505141449E1,-2.682118893E0
1.107400156E1,-1.347207737E1,-2.854413223E1,-1.459133816E1
1.109600156E1,-1.281043434E1,-2.466154099E1,-8.002523422E0
1.111800000E1,-6.004763126E0,-1.946812439E1,-2.191144705E0
1.113800156E1,-2.765207291E-1,-1.559838676E1,-1.408710003E0
1.116000156E1,2.216772318E0,-1.328195763E1,1.733258367E0
1.118200313E1,-1.795067191E0,-7.547691822E0,4.509498119E0
1.120400000E1,-1.783115268E0,-9.034089446E-1,2.698265314E0
1.122400156E1,-7.938693762E-1,4.140876770E0,1.884179354E0
1.124600156E1,-2.494662404E-1,5.660074711E0,2.811396122E0
1.126800156E1,1.204858065E0,3.781929016E0,4.419648647E0
1.129000000E1,1.432278395E0,9.163471460E-1,3.806148767E0
1.131000156E1,1.501997709E0,-1.749462247E0,2.343799114E0
1.133200156E1,1.100255394E1,-9.637246132E0,-2.482203865E1
1.135400156E1,-1.913254410E-1,-5.470061302E0,3.414658546E0
1.137400156E1,-7.543229580E0,-1.157955647E1,6.156268120E0
1.139600000E1,-1.416962337E1,-2.169736671E1,8.808958054E0
1.141600000E1,-7.213327408E0,-1.769691467E1,6.043846130E0
1.143600156E1,-2.584071636E0,-2.170565033E1,1.167822647E1
1.145600156E1,-5.988664627E-1,-2.677423286E1,6.949984550E0
1.147800156E1,1.057566762E0,-2.765327835E1,5.814079642E-1
1.149800156E1,-4.005662441E0,-1.633859825E1,-4.319224167E1
1.152000156E1,-7.135056019E0,-1.462062359E1,-1.511686516E1
1.154000156E1,-5.730119705E0,-1.221991062E1,-9.304183960E0
1.156000156E1,-1.713463187E0,-7.990101814E0,-5.775140285E0
1.158000156E1,1.728115559E0,-7.256921530E-1,-3.403549433E0
1.160200156E1,8.344520569E0,-3.186203539E-2,-1.110845375E1
1.162201719E1,7.510677814E0,-3.258288383E0,-1.577884316E0
1.164400156E1,5.265089035E0,-1.451211810E0,-3.499326944E0
1.166600156E1,-2.572895288E0,-2.169596910E0,-4.238599300E0
1.168600156E1,-3.011972666E0,-6.354699612E0,1.829380751E0
1.170800156E1,-3.165632486E0,-1.767554855E1,6.758458138E0
1.173000156E1,-7.683414459E0,-2.686135292E1,-2.540946960E0
1.175200156E1,-1.149439907E1,-3.127699852E1,-1.543438339E1
1.177200156E1,-1.271212864E1,-2.766799736E1,-7.959149837E0
1.179200156E1,-7.190669060E0,-1.859046936E1,-1.419684887E0
1.181200156E1,1.379720926E0,-1.480527401E1,-1.038834572E0
1.183200156E1,3.931470633E0,-1.369616508E1,2.197819471E0
1.185201250E1,1.089936376E0,-9.131696701E0,4.176665306E0
1.187400156E1,-2.031834364E0,-2.423832178E0,3.916033030E0
1.189600156E1,-9.715479016E-1,3.716548204E0,2.843535900E0
1.191600156E1,2.712247372E-1,7.046260357E0,1.442161798E0
1.193800000E1,2.642020702E0,6.753017902E0,3.381455660E0
1.195800000E1,2.555149317E0,4.755832672E0,4.169779778E0
1.197800000E1,1.558452845E0,3.045137227E-1,3.818225145E0
1.199800156E1,9.242586136E0,-9.198225975E0,-3.170968056E1
1.202000156E1,-1.642518193E-1,-4.984277725E0,2.573364496E0
1.204200156E1,-7.643805027E0,-1.550409412E1,2.432461023E0
1.206200469E1,-1.130269146E1,-1.967303085E1,4.502545357E0
1.208402031E1,-5.863265991E0,-2.208878136E1,5.358223438E0
1.210600156E1,-3.442287147E-1,-2.396725273E1,1.237953568E1
1.212800156E1,-4.458290935E-1,-2.441917229E1,9.060626984E0
1.214800156E1,-1.952500224E0,-2.297597694E1,3.556232214E0
1.216800156E1,-3.628661633E0,-2.216506767E1,1.961894989E0
1.219000000E1,-1.483889866E1,-9.466750145E0,-3.501081085E1
1.221000000E1,-5.048423290E0,-1.053501511E1,-7.065576553E0
1.223000156E1,-2.695420980E0,-6.926904202E0,-3.069088936E0
1.225200156E1,1.341768026E0,5.547364950E-1,-2.514840841E0
1.227201563E1,7.623473644E0,1.151859999E0,-5.529418468E0
1.229400156E1,8.731174469E0,-6.968563199E-1,-3.759959698E0
1.231600156E1,7.861102581E0,-5.900155544E0,-1.479913592E0
1.233800156E1,-9.823888540E-2,-5.996536732E0,-3.995702505E0
1.236000000E1,-1.950144291E0,-1.262219334E1,3.957567692E0
1.238000156E1,-5.553034782E0,-2.172100258E1,3.753849506E0
1.240200156E1,-1.387400627E1,-3.182547188E1,-7.754148960E0
1.242200313E1,-1.460526276E1,-3.154428673E1,-1.422961235E1
1.244400156E1,-1.254504204E1,-2.210675621E1,-5.734496117E0
1.246400156E1,-2.590152740E0,-1.524961948E1,-1.020408794E-1
1.248402031E1,3.214148760E0,-1.306419182E1,2.551922083E0
1.250600000E1,3.130246401E0,-9.691183090E0,4.048135281E0
1.252600156E1,-1.033816338E0,-2.604211330E0,4.973360538E0
1.254800000E1,-1.417396069E0,2.666173458E0,4.242851257E0
1.256800156E1,-5.188043714E-1,6.171993256E0,3.469791889E0
1.259000156E1,1.993048429E0,6.479619503E0,5.946210384E0
1.261200156E1,3.337967396E0,3.712928057E0,4.525443554E0
1.263200469E1,2.444546938E0,1.289066911E0,4.669804096E0
1.265401563E1,1.155773163E1,-1.258299541E1,-5.100377274E1
1.267600156E1,1.339057803E0,-1.620912933E1,-1.677800941E1
1.269800156E1,-1.026128960E1,-1.347021008E1,1.239211082E1
1.272000000E1,-1.441685867E1,-1.719936180E1,1.027491760E1
1.274000156E1,-8.117224693E0,-1.402415180E1,6.131148338E0
1.276200156E1,-3.330727339E0,-2.221212006E1,1.230114937E1
1.278200156E1,2.632281184E-1,-2.973326492E1,1.090886402E1
1.280200781E1,-1.095557928E0,-2.866862106E1,3.917047977E0
1.282200781E1,-3.682512045E0,-2.683994865E1,2.608999968E0
1.284200938E1,-1.539543533E1,-1.120916367E1,-4.509410858E1
1.286400156E1,-5.547777176E0,-9.614558220E0,-9.927145958E0
1.288402344E1,-3.284452200E0,-6.634246349E0,-4.140015125E0
1.290600000E1,-1.638840675E0,-8.261432648E-1,4.423239827E-1
1.292600156E1,5.468701839E0,9.453553557E-1,-3.287602901E0
1.294800000E1,7.574804306E0,6.167463586E-2,-6.640653610E0
1.296800000E1,7.600977421E0,-1.110526443E0,-8.085343361E0
1.298800156E1,2.964979410E0,-1.186633468E0,1.471572071E-1
1.301000000E1,-1.321493983E0,-2.605312824E0,-1.549575210E0
1.303000000E1,-9.882498384E-1,-5.418298721E0,4.150396287E-1
1.305000000E1,1.022640109E0,-2.102943230E1,4.601416111E0
1.307000000E1,-1.794291377E0,-3.629330063E1,-3.395121574E0
1.309000156E1,-1.369341564E1,-4.015775299E1,-1.025216293E1
1.311200781E1,-1.279523659E1,-3.127552414E1,-6.407544613E0
1.313400000E1,-5.273823261E0,-1.733305359E1,-8.947993517E-1
1.315400156E1,-6.423739195E-1,-1.296964931E1,-1.580077410E-1
1.317600156E1,2.617101908E0,-1.296492767E1,5.996632099E0
1.319800156E1,-2.097358942E0,-5.724545956E0,5.211631298E0
1.322000000E1,-3.552430153E0,8.490414023E-1,7.938339710E0
1.324000156E1,-1.761069417E0,1.621841788E0,3.580768108E0
1.326200156E1,5.532042384E-1,4.637214184E0,1.547152400E0
1.328402031E1,1.742902279E0,5.949878216E0,2.382594824E0
1.330600000E1,1.503242731E0,4.838863850E0,3.234748602E0
1.332600000E1,1.021749496E0,1.764287233E0,3.022660494E0
1.334600000E1,3.266447783E0,-8.873993874E0,-3.409931183E1
1.336600000E1,4.291165829E0,-8.354681969E0,-1.798691940E1
1.338600156E1,-2.249409914E0,-4.652987480E0,3.180955648E0
1.340800469E1,-7.693681240E0,-7.559816360E0,7.097821712E0
1.343000000E1,-1.862010002E1,-1.820489693E1,1.450679398E1
1.345000469E1,-9.994671822E0,-2.547348213E1,8.017644882E0
1.347200156E1,-4.948920250E0,-3.306240082E1,1.221255493E1
1.349400000E1,-2.072852135E0,-3.029541397E1,1.362245178E1
1.351400000E1,-9.588202834E-1,-2.696147919E1,8.801353455E0
1.353400000E1,-7.821722507E0,-2.181448174E1,-5.239793777E1
1.355400000E1,-8.925717354E0,-1.281209183E1,-2.315890312E1
1.357400938E1,-2.785567284E0,-1.116230488E1,-5.148730755E0
1.359600000E1,-1.857249260E0,-4.178887844E0,-4.778060317E-1
1.361600000E1,1.554612637E0,1.564457655E0,-1.425162911E0
1.363600312E1,7.999200344E0,3.082773983E-1,-7.848470688E0
1.365600313E1,7.177778244E0,-1.546242595E0,-5.181292057E0
1.367800000E1,3.878692865E0,-6.598898768E-1,-7.250830173E0
1.369800000E1,-2.251105070E0,-9.666637182E-1,-3.689857483E0
1.371800000E1,-3.153058290E0,-2.525959492E0,-1.780376196E0
1.373800000E1,-1.376800060E0,-7.973036766E0,2.230706453E0
1.375800000E1,-3.866060972E-1,-2.320630646E1,6.402391911E0
1.377800000E1,-8.103146553E0,-3.778679276E1,8.375271797E0
1.379800469E1,-1.018206024E1,-3.709243011E1,-2.070735550E1
1.382000000E1,-9.827795982E0,-2.280760574E1,-1.130465412E1
1.384000312E1,-7.873839855E0,-1.582596111E1,-3.561662436E0
1.386200781E1,-2.137744427E0,-1.294060230E1,1.180331945E0
1.388402031E1,1.604622722E0,-1.214614964E1,8.906956673E0
1.390600469E1,1.811203957E0,-9.715719223E0,5.567620277E0
1.392800000E1,-2.118983507E0,-3.278706074E0,3.524868250E0
1.394800000E1,-1.388215542E0,6.284683943E-1,4.453732491E0
1.396800000E1,2.811079919E-1,2.743669033E0,2.930560350E0
1.398800469E1,2.789695024E0,4.523834705E0,2.538054943E0
1.401000156E1,2.862028837E0,5.089316368E0,2.068130732E0
1.403000469E1,2.681582451E0,3.444509268E0,5.906686783E-1
1.405200781E1,7.358808517E0,-8.399787903E0,-3.212161636E1
1.407201875E1,3.907748938E0,-4.757699966E0,-6.574276924E0
1.409400156E1,-1.154838324E0,-9.706476927E-1,2.470911980E0
1.411400156E1,-2.965410471E0,-4.049591064E0,1.638716221E0
1.413400156E1,-2.318592834E1,-1.941520309E1,2.455838203E0
1.415400469E1,-9.955282211E0,-3.383525085E1,9.067311287E0
1.417600156E1,-5.813112259E0,-2.962274742E1,1.829292679E1
1.419600156E1,-3.312387705E0,-2.505587769E1,1.317461205E1
1.421800000E1,-1.961454630E0,-2.274497223E1,7.180105686E0
1.423800469E1,-2.435257673E0,-2.197013283E1,-3.127785206E0
1.426000000E1,-7.055731297E0,-1.271080780E1,-2.685771561E1
1.428000000E1,-3.506183863E0,-1.256543159E1,-9.287214279E0
1.430000156E1,-1.998382688E0,-9.154296875E0,1.753139734E0
1.432200000E1,-1.490687490E0,7.127730250E-1,-4.771165177E-2
1.434201875E1,5.041001320E0,3.406862736E0,-1.068952656E1
1.436400156E1,4.411125183E0,4.533660412E-2,-3.086221516E-1
1.438402188E1,4.576726913E0,-5.385230184E-1,-1.867180467E0
1.440600156E1,4.621948719E0,-5.578585863E-1,-8.446341515E0
1.442600156E1,5.023992807E-2,-3.013514757E0,-5.995846987E-1
1.444800000E1,1.133252263E0,-9.260743141E0,5.475769043E0
1.446800000E1,6.334962249E-1,-2.669860458E1,8.707798004E0
1.448800156E1,-1.172712612E1,-4.208495331E1,-9.919637680E0
1.451000156E1,-1.172027874E1,-3.168178177E1,-1.451411057E1
1.453000156E1,-1.257525730E1,-2.510657692E1,-6.202188969E0
1.455000156E1,-9.843137741E0,-1.661365318E1,-1.896389604E0
1.457200156E1,-2.870111465E0,-1.363424110E1,1.518891096E0
1.459200156E1,2.503750801E0,-1.330830479E1,3.109359264E0
1.461200156E1,2.879353285E0,-7.754263878E0,2.892760754E0
1.463200312E1,-1.028405428E0,-1.101313591E0,4.889295101E0
1.465200312E1,-1.248327136E0,1.442066073E0,5.489482880E0
1.467400156E1,7.593449950E-2,2.476887941E0,3.780406237E0
1.469400156E1,1.602333903E0,2.439040184E0,4.083559990E0
1.471400156E1,1.282679200E0,2.567522764E0,4.602278233E0
1.473400156E1,9.055253863E-1,2.928903580E0,4.661108494E0
1.475400156E1,8.349059820E-1,1.292706013E0,2.744923592E0
1.477600781E1,3.221503735E0,-4.913457394E0,-3.327193451E1
1.479800000E1,-9.794966578E-1,-2.212136984E0,-1.669476748E0
1.481800000E1,-5.004188061E0,-5.226638317E0,1.638226700E1
1.483800156E1,-1.917094707E0,-2.632319450E0,-4.364907265E0
1.486000469E1,-3.912470341E0,-1.043062687E1,1.058230495E1
1.488200000E1,-1.332311058E1,-3.731253052E1,1.583506870E1
1.490200312E1,2.437843323E0,-4.243057632E1,5.033061981E0
1.492400312E1,-2.602928162E0,-2.205028152E1,7.992017746E0
1.494600156E1,-5.213575363E0,-2.219504547E1,-1.034180164E0
1.496600156E1,-1.380691147E1,-1.220432854E1,-5.363840866E1
1.498800156E1,-4.912672043E0,-1.262625408E1,-6.937620640E0
1.500800156E1,-4.909253120E0,-8.729537010E0,-6.330058575E0
1.503000156E1,-2.495773077E0,-3.865926981E0,-3.520529985E0
1.505200625E1,6.056717396E0,-2.866998911E0,-5.021033764E0
1.507400156E1,8.637733459E0,-4.886249542E0,-3.047406912E0
1.509400156E1,6.943740368E0,-3.402792692E0,1.418995559E-1
1.511400156E1,5.349642754E0,-7.200705409E-1,-1.560665131E0
1.513600000E1,1.401546478E0,-4.679792881E0,-1.225084186E0
1.515600156E1,1.669620574E-1,-1.467659950E1,4.267415524E0
1.517600156E1,-3.886871576E0,-2.188850975E1,2.364561558E0
1.519800156E1,-1.228304958E1,-2.610412407E1,-5.499404907E0
1.522000000E1,-1.210674000E1,-2.703230858E1,-7.000233650E0
1.524000156E1,-1.285037994E1,-2.268639183E1,-5.154754162E0
1.526200313E1,-5.669306755E0,-1.718250656E1,-3.700545073E0
1.528200313E1,-6.188628674E-1,-1.460290623E1,-1.570692211E-1
1.530400156E1,1.683593035E0,-1.349116421E1,1.202071190E0
1.532400156E1,-1.448013186E-1,-9.258607864E0,3.460674763E0
1.534600000E1,-2.368593216E0,-2.066186428E0,2.507131338E0
1.536600000E1,-5.056554079E-1,2.391395807E0,1.194361925E0
1.538600156E1,4.723855555E-1,5.028762341E0,6.397306919E-1
1.540800000E1,2.421074152E0,4.987294197E0,5.150722504E0
1.542800156E1,2.750162125E0,4.026060581E0,6.749426842E0
1.545000156E1,2.800976515E0,2.396078825E0,5.269686222E0
1.547200156E1,8.838875771E0,-7.277214527E0,-2.768453789E1
1.549200625E1,6.135965347E0,-8.064255714E0,-1.193712616E1
1.551400156E1,-5.491226196E0,-1.059924603E1,-9.513312340E0
1.553400156E1,-1.016864395E1,-1.523486137E1,7.186885834E0
1.555600000E1,-1.153843403E1,-2.329570770E1,5.151373863E0
1.557600000E1,-5.421267509E0,-2.110972404E1,7.810546875E0
1.559600156E1,-3.943317175E0,-2.038920403E1,1.700461769E1
1.561800000E1,-1.016961098E0,-2.503053474E1,3.116953611E0
1.563800156E1,-9.657730460E-1,-2.477310181E1,3.397803307E0
1.566000156E1,-8.028831482E0,-1.732120705E1,-5.253310394E1
1.568200156E1,-2.430469036E0,-1.301295471E1,-6.842580795E0
1.570200156E1,-2.034104347E0,-1.034612083E1,-2.906129837E0
1.572200156E1,-2.761491537E0,-3.209427595E0,-2.985368490E0
1.574200156E1,2.154772043E0,1.834581017E0,-1.018427372E1
1.576200156E1,7.012751102E0,-1.356870770E0,-6.857060432E0
1.578200781E1,7.216315269E0,-2.743640184E0,1.701894403E-1
1.580400156E1,7.222683907E0,-2.781085491E0,-5.057445049E0
1.582600156E1,-1.807737231E0,-2.722226620E0,-8.591448784E0
1.584600156E1,-3.318660498E0,-5.966111183E0,-1.405817747E0
1.586800000E1,-1.992646217E0,-1.650172806E1,6.712604046E0
1.588800000E1,-2.850728035E0,-2.666108322E1,8.775314331E0
1.590800000E1,-9.382359505E0,-3.200458908E1,5.053777099E-1
1.592800156E1,-8.529170990E0,-2.926554298E1,-2.062085724E1
1.595000156E1,-8.664835930E0,-2.056656647E1,-7.239663601E0
1.597200156E1,-5.082420826E0,-1.420789146E1,-1.628488183E0
1.599200625E1,-1.187064290E0,-1.239684105E1,8.522112966E-1
1.601400156E1,7.831242085E-1,-1.046583080E1,3.198155403E0
1.603400156E1,-1.840499520E0,-4.692032337E0,5.016091824E0
1.605400156E1,-2.387785196E0,4.835425317E-1,3.166379690E0
1.607400156E1,-4.915870726E-1,4.009981632E0,1.365020633E0
1.609400156E1,3.219818175E-1,5.162377834E0,-2.351201773E-1
1.611400156E1,1.582835436E0,4.331072807E0,2.613922358E0
1.613600000E1,2.168294430E0,3.397822380E0,6.055415154E0
1.615600156E1,2.123704910E0,5.993070006E-1,7.093147755E0
1.617600156E1,1.191695690E1,-1.021003532E1,-3.787461472E1
1.619800156E1,3.364178896E0,-1.117369175E1,-7.507306576E0
1.622000000E1,-5.529456615E0,-1.139492512E1,8.357248306E0
1.624000156E1,-1.237037086E1,-2.052425575E1,8.360360146E0
1.626200156E1,-6.641275883E0,-1.840119362E1,4.249076366E0
1.628200156E1,-6.407056332E0,-1.936712837E1,1.316747761E1
1.630400156E1,-4.751657009E0,-2.213406754E1,8.021781921E0
1.632400312E1,-2.226760626E0,-2.575458908E1,3.558607340E0
1.634600000E1,-3.413758039E0,-2.477647209E1,3.445361614E0
1.636600156E1,-8.290535927E0,-1.719858551E1,-5.127075958E1
1.638600781E1,-3.928358078E0,-1.254885387E1,-1.122237968E1
1.640800156E1,-1.877734184E0,-1.042212296E1,-6.769624710E0
1.642800156E1,-1.931603670E0,-4.463845253E0,-1.875502706E0
1.645000000E1,2.928711891E0,1.418459058E0,-2.946630239E0
1.647000000E1,6.955107689E0,-7.574200630E-1,-5.138052940E0
1.649000000E1,9.520734787E0,-2.807220697E0,-1.072157001E1
1.651000156E1,4.469763756E0,-1.323399782E0,-7.868256569E0
1.653000156E1,-1.138184309E0,-2.653082132E0,-7.187201977E-1
1.655000156E1,-1.896466255E0,-5.888443470E0,1.602324247E0
1.657000156E1,-3.056006908E0,-1.926363373E1,6.136712551E0
1.659000156E1,-7.225949764E0,-3.115839958E1,2.410281181E0
1.661200156E1,-1.113550854E1,-3.832902527E1,-1.994869995E1
1.663400156E1,-1.070504093E1,-2.601994514E1,-7.190956116E0
1.665400156E1,-6.996058464E0,-1.617574501E1,1.636676304E-2
1.667400156E1,-6.777506322E-2,-1.391181564E1,2.745862007E-1
1.669400156E1,3.662716866E0,-1.320485592E1,3.640584707E0
1.671400156E1,2.999503613E0,-8.373336792E0,5.978762150E0
1.673400156E1,-8.999708295E-1,-1.177094817E0,6.051938534E0
1.675400156E1,-1.386003375E0,2.394287825E0,3.398320198E0
1.677600000E1,-9.515323639E-1,5.872536182E0,1.568192482E0
1.679600000E1,1.001216888E0,5.294968605E0,3.129489660E0
1.681600156E1,1.135272980E0,3.647336483E0,3.502793789E0
1.683800156E1,9.987364411E-1,4.773846865E-1,4.113908768E0
1.685800156E1,8.045484543E0,-8.013431549E0,-3.134426498E1
1.688000156E1,2.854740620E0,-4.152148724E0,1.929985166E0
1.690200469E1,-3.162883997E0,-7.892495632E0,-6.242737174E-1
1.692400156E1,-1.082100677E1,-1.274335861E1,3.421620607E0
1.694400156E1,-1.542864704E1,-2.680877686E1,7.610219002E0
1.696400156E1,-7.403877258E0,-2.347181511E1,9.244117737E0
1.698402813E1,-5.328037262E0,-2.404040909E1,1.158247757E1
1.700600000E1,-1.168475866E0,-2.955160332E1,3.755085230E0
1.702600313E1,-1.181203365E0,-2.888553429E1,3.005786180E0
1.704800000E1,-6.763418674E0,-1.770308113E1,-4.207098770E1
1.706800156E1,-4.147753239E0,-1.195979404E1,-9.568369865E0
1.709000156E1,-2.915065289E0,-8.655461311E0,-6.392489910E0
1.711200156E1,-2.919058561E0,-1.618346334E0,-1.068484336E-1
1.713200156E1,5.041738987E0,1.648800492E0,-7.102274895E0
1.715200469E1,7.445219994E0,-1.138471723E0,-4.846074581E0
1.717201250E1,1.120846462E1,-3.588055849E0,-1.340708923E1
1.719400156E1,2.560455084E0,-1.556777000E0,-4.223592281E0
1.721400156E1,-1.452820778E0,-2.831037998E0,-5.688719153E-1
1.723400156E1,-3.762737036E0,-4.644434929E0,-1.805180192E0
1.725600156E1,-1.467636108E0,-1.338015938E1,3.282948494E0
1.727800156E1,-1.871499658E0,-3.171875763E1,1.086877537E1
1.729800312E1,-8.288668633E0,-4.777697754E1,-2.293410492E1
1.732000000E1,-1.134607410E1,-3.026562119E1,-1.558597565E1
1.734000000E1,-6.422895908E0,-1.651313400E1,-2.946496308E-1
1.736000000E1,-1.774792910E0,-1.426873302E1,4.692893982E0
1.738000156E1,3.108775139E0,-1.227237129E1,4.855010033E0
1.740200156E1,1.609765530E0,-7.734832287E0,4.214637756E0
1.742200938E1,-3.322136641E0,-2.649260759E0,6.782706738E0
1.744400156E1,-4.037074089E0,7.115759254E-1,5.801705837E0
1.746400312E1,-2.889064074E0,4.465137959E0,1.740479231E0
1.748402031E1,-4.380144179E-1,9.551082611E0,1.221071601E0
1.750600938E1,1.926537514E0,9.050121307E0,1.428045511E0
1.752800000E1,1.300769806E0,3.006724596E0,2.112298727E0
1.754800312E1,3.598456621E0,-1.965256453E0,-1.536821747E1
1.757000000E1,4.141250610E0,-3.310596704E0,-6.323996544E0
1.759000156E1,-3.080858849E-2,-2.955297232E0,-1.954137802E0
1.761200156E1,-3.555437565E0,-2.163050270E1,5.509460449E0
1.763400156E1,-7.784220219E0,-2.487994194E1,8.836491585E0
1.765400156E1,-2.459869862E0,-1.967999458E1,9.236553192E0
1.767400156E1,-7.871177793E-2,-1.678703117E1,1.102812386E1
1.769600781E1,-1.525901318E0,-2.292399216E1,9.525637627E0
1.771800000E1,-5.568405628E0,-2.705070496E1,7.017711639E0
1.773800000E1,-7.096107483E0,-2.506272507E1,1.403720498E0
1.775800000E1,-1.685184860E1,-1.837028885E1,-2.715343475E1
1.777800156E1,-1.729101181E1,-8.532120705E0,-2.591913795E1
1.780000156E1,-8.921590805E0,-8.341934204E0,-1.745695686E1
1.782200156E1,-5.377808094E0,-5.003412247E0,-6.185611725E0
1.784200625E1,1.585344553E0,-2.044552416E-1,3.064022779E0
1.786201406E1,6.535241604E0,-7.656849027E-1,1.468986422E-1
1.788402031E1,1.033853626E1,-1.516822457E0,-4.461355686E0
1.790600156E1,7.034461498E0,3.369695246E-1,-6.156038761E0
1.792600156E1,-9.694984555E-1,-1.374932647E0,-1.845958233E0
1.794600625E1,-9.297451377E-1,-7.157648087E0,1.672838211E0
1.796800000E1,-1.742892742E0,-2.175103569E1,5.515713692E0
1.798800156E1,-8.776386261E0,-3.882140732E1,5.039066792E0
1.801000156E1,-1.147306252E1,-4.018585205E1,-1.531070900E1
1.803200000E1,-1.362481785E1,-2.151694870E1,-9.220069885E0
1.805200156E1,-8.212015152E0,-1.362531567E1,-5.814107895E0
1.807200156E1,-2.445619583E0,-1.229389095E1,-2.622598886E0
1.809200156E1,4.623395205E-1,-1.257510376E1,5.492116928E0
1.811200156E1,2.205844879E0,-1.020584011E1,7.864885807E0
1.813200156E1,-2.220507145E0,-1.964394689E0,6.995186806E0
1.815400156E1,-1.611240268E0,4.720149517E0,6.016313076E0
1.817600156E1,9.682151489E-3,7.932804108E0,5.436934948E0
1.819800156E1,2.150022030E0,6.213269711E0,5.177221775E0
1.822000000E1,3.538974762E0,3.381790876E0,4.674353123E0
1.824000000E1,2.337985754E0,-9.649302959E-1,2.959089518E0
1.826000000E1,6.192104340E0,-1.178844643E1,-4.755640411E1
1.828000000E1,9.179264069E0,-1.554074383E1,-2.074581528E1
1.830000156E1,1.060526013E0,-5.168027878E-1,2.600543499E0
1.832000156E1,-4.930341244E0,-9.343036652E0,1.098246193E1
1.834200156E1,-1.715386200E1,-3.299552917E1,4.245321751E0
1.836201094E1,-1.220232677E1,-1.853750992E1,9.861084938E0
1.838402188E1,-3.376044750E0,-1.315837860E1,1.129540348E1
1.840600000E1,-4.374541283E0,-2.544326782E1,5.616146088E0
1.842600156E1,-1.396853924E0,-3.457825089E1,3.292621136E0
1.844800000E1,-4.103134632E0,-2.621196938E1,-2.411104679E0
1.846800000E1,-1.149234104E1,-1.221248722E1,-3.307590485E1
1.848800156E1,-7.833780289E0,-8.670830727E0,-1.070244503E1
1.851000156E1,-5.362542629E0,-6.825735092E0,3.323420048E0
1.853000156E1,-2.752048492E0,-3.107961118E-1,4.217031956E0
1.855200156E1,4.821395397E0,2.672398329E0,-8.468540192E0
1.857200156E1,8.765661240E0,-2.824545145E0,-1.328755188E1
1.859400156E1,6.893404961E0,-2.760648727E0,-1.811280608E0
1.861400156E1,2.536244869E0,1.910189837E-1,-4.627733231E0
1.863600000E1,-2.055661678E0,-1.480306149E0,-2.690316677E0
1.865600000E1,-2.691676617E0,-3.520750284E0,1.096620917E0
1.867600156E1,-2.767764091E0,-5.459057808E0,1.139553785E0
1.869800156E1,7.158854604E-1,-2.117277718E1,-2.222604513E0
1.872000000E1,2.198087931E0,-4.384507370E1,-1.761174761E-2
1.874000156E1,-9.205696106E0,-4.225717163E1,-3.262655258E0
1.876200156E1,-9.102123260E0,-2.135515785E1,-1.096861362E1
1.878200938E1,-4.360492706E0,-1.140997028E1,-5.787934780E0
1.880200938E1,-4.505447388E0,-9.637485504E0,-5.482990265E0
1.882400781E1,-2.165172338E0,-9.022003174E0,-2.660197496E0
1.884600000E1,2.727953494E-1,-8.564721107E0,3.516086340E0
1.886600156E1,-2.514888763E0,-5.235688210E0,3.238061905E0
1.888600156E1,-4.713972569E0,2.972736657E-1,3.346327782E0
1.890600156E1,-3.940233469E0,3.935483456E0,1.407723546E0
1.892600156E1,-1.419694543E0,5.839026928E0,1.745085716E-1
1.894600156E1,2.975647926E0,4.214044094E0,4.055222034E0
1.896600156E1,3.094314098E0,-1.460807920E0,5.495688915E0
1.898600156E1,4.369676590E0,-4.275259018E0,1.096601844E0
1.900800000E1,1.266543293E1,-1.042060947E1,-2.858818626E1
1.902800156E1,5.101852417E-1,-1.925905347E0,3.135504007E0
1.905000000E1,-3.641389132E0,-9.012129784E0,1.912121391E1
1.907000000E1,-1.549458408E1,-2.109315681E1,9.233458519E0
1.909000156E1,-1.390936470E1,-2.975468063E1,1.702947736E0
1.911200156E1,-2.390064478E0,-2.231767654E1,1.058172035E1
1.913200469E1,1.631782651E0,-2.193524361E1,5.075324178E-1
1.915400156E1,1.675874114E0,-2.230973625E1,-3.107824135E1
1.917600156E1,-1.705284595E0,-2.056786919E1,-9.549216270E0
1.919800156E1,-5.978647232E0,-1.232355022E1,-7.639820576E0
1.922000000E1,-7.124540806E0,-7.467754364E0,-7.389071465E0
1.924000156E1,-6.351175308E0,-6.547586441E0,-1.117575932E1
1.926201250E1,-4.235228062E0,-5.626479626E0,-1.006018639E1
1.928402031E1,1.486042738E0,-3.857939959E0,-1.960736275E0
1.930600000E1,5.833874702E0,-1.028328776E0,1.084908605E0
1.932600156E1,7.182011127E0,2.082093507E-1,-3.224970341E0
1.934600156E1,6.412361622E0,9.221602678E-1,-6.241338730E0
1.936800000E1,1.018206105E-1,1.080694795E0,-2.500437260E0
1.938800156E1,-1.634904504E0,-2.295608282E0,-5.699349642E-1
1.941000000E1,-2.335946083E0,-7.190007687E0,-7.170155644E-2
1.943000000E1,-1.544336677E0,-2.561550522E1,-5.969893932E-1
1.945000156E1,-5.520579338E0,-4.150198364E1,-3.610829592E0
1.947000156E1,-7.839631557E0,-3.556080246E1,-7.997380733E0
1.949200156E1,-2.628048182E0,-1.882991791E1,-6.675772190E0
1.951200156E1,1.238242745E0,-1.464453697E1,-7.518224239E0
1.953200156E1,1.663261533E0,-1.376349926E1,-6.449471474E0
1.955200156E1,6.724546552E-1,-1.128731060E1,1.203067303E0
1.957200156E1,-8.007263541E-1,-9.413522720E0,8.281304359E0
1.959400000E1,-3.286903858E0,-3.706186056E0,6.528557301E0
1.961400156E1,-1.631792068E0,8.807981014E-1,4.747251987E0
1.963600000E1,-1.476552129E0,3.231157303E0,3.824832916E0
1.965600000E1,7.138072848E-1,3.593763590E0,3.125247240E0
1.967600156E1,1.088796735E0,3.118687153E0,2.378515005E0
1.969800156E1,8.289109468E-1,6.347794533E-1,2.350991249E0
1.972000000E1,-6.631344795E0,-8.731557727E-1,-4.097430038E1
1.974000000E1,-4.307954311E0,-3.002060890E0,-1.464118481E1
1.976000000E1,-1.514648557E0,-4.838260174E0,1.357858086E1
1.978000000E1,-3.290418386E0,-1.536976910E1,1.610820770E1
1.980000000E1,-6.744006157E0,-2.864602852E1,4.694330692E0
1.982000000E1,-2.686294317E-1,-3.152356339E1,9.119763374E0
1.984000000E1,4.159925461E0,-2.587872505E1,3.916760683E0
1.986000000E1,3.119357347E0,-2.209581757E1,2.119443178E0
1.988000156E1,-1.774764299E0,-2.064553642E1,-1.734086800E1
1.990200156E1,-5.792349815E0,-1.963692665E1,-1.047331047E1
1.992200156E1,-7.008882046E0,-1.497138405E1,-4.258594990E0
1.994200938E1,-1.195482349E1,-6.060194016E0,-1.107222557E1
1.996400000E1,-8.950272560E0,-4.281838417E0,-1.430371761E1
1.998402031E1,-2.413949013E0,-4.781019688E0,-1.042858696E1
2.000600000E1,4.020123482E0,-3.368277788E0,-3.666633844E0
2.002600156E1,6.999515533E0,-3.316036463E0,-1.203996092E-1
2.004600156E1,8.161824226E0,-2.910410643E0,-2.068025112E0
2.006600156E1,5.129337788E0,-5.567668676E-1,-6.393495560E0
2.008600156E1,-8.014733791E-1,-4.486092091E0,-2.216130733E0
2.010600156E1,-1.970111966E0,-1.438578129E1,3.903755426E0
2.012600156E1,-5.365903854E0,-2.676341248E1,6.286570549E0
2.014600156E1,-6.834861755E0,-2.813448524E1,-8.249326706E0
2.016800000E1,-5.921885967E0,-2.635825539E1,-1.860712242E1
2.018800000E1,-8.013623238E0,-2.455192566E1,-1.344658375E1
2.020800156E1,-6.593554497E0,-2.532651711E1,-8.616980553E0
2.023000156E1,-2.112969160E0,-2.114386559E1,-7.350869775E-1
2.025202031E1,-3.138127923E-1,-1.616190529E1,1.799510717E0
2.027400000E1,-4.465186298E-1,-7.450717449E0,2.681496382E0
2.029400156E1,-1.596980453E0,1.737424284E-1,2.699270964E0
2.031600156E1,-2.150730371E0,5.295102596E0,3.534598351E0
2.033800000E1,-8.253004551E-1,6.586583138E0,4.418087482E0
2.035800000E1,8.269093633E-1,5.077958107E0,4.937878609E0
2.037800000E1,2.023713350E0,3.382614374E0,4.311420918E0
2.039800000E1,2.314627886E0,2.186126471E0,4.939123154E0
2.041800000E1,1.017679334E0,-1.233588457E-1,3.532424212E0
2.043800000E1,5.006697178E0,-1.549876022E1,-3.534282303E1
2.045800156E1,-2.859251499E-1,-6.454183578E0,5.776720047E0
2.048000000E1,-4.118036747E0,-5.439741135E0,1.164240932E1
2.050000000E1,-5.003450871E0,-5.112348557E0,3.457868814E0
2.052000156E1,-8.779614449E0,-1.230584240E1,1.012435150E1
2.054200156E1,-3.938299179E0,-3.311746979E1,5.740500927E0
2.056200156E1,1.165123940E0,-2.806045532E1,3.657267570E0
2.058201719E1,-4.756416976E-1,-1.370275402E1,-1.743436432E1
2.060400000E1,-2.007202953E-1,-1.492047405E1,-3.206947088E0
2.062400156E1,-6.492117047E-1,-1.224883175E1,-3.202857733E0
2.064400156E1,-1.579703808E0,-1.029913807E1,-1.764545798E0
2.066400156E1,-2.266341686E0,-7.931769848E0,-2.002893388E-1
2.068402031E1,-3.592078447E0,-6.347459316E0,-6.489244103E-2
2.070600000E1,-6.230794907E0,-4.863715172E0,-6.200915337E0
2.072600000E1,-3.419399023E0,-5.511711121E0,-5.531046391E0
2.074600156E1,-1.835682392E0,-6.083915710E0,-4.190695763E0
2.076800000E1,-5.425357223E-1,-6.518549442E0,-3.723337889E0
2.078800156E1,8.045475483E-1,-6.169609070E0,-6.691669464E0
2.081000156E1,2.614985466E0,-7.215156555E0,-8.844794273E0
2.083200156E1,2.492201090E0,-1.020280457E1,-3.937303066E0
2.085200156E1,-3.191470802E-1,-9.495987892E0,-3.913130999E0
2.087200781E1,-1.742174387E0,-9.098770142E0,-7.468884945E0
2.089400000E1,1.135205984E0,-1.469929695E1,3.973991573E-1
2.091400000E1,4.552909732E-1,-2.122344971E1,5.429820061E0
2.093400156E1,-1.166292191E0,-1.952382469E1,5.102139473E0
2.095600156E1,-2.240216255E0,-1.669522858E1,1.516774654E0
2.097800000E1,-3.756062031E0,-1.676191139E1,-1.978530049E0
2.099800156E1,-6.063143730E0,-1.467970276E1,-4.262215137E0
2.102000156E1,-7.075603485E0,-1.228013897E1,-4.703782558E0
2.104200312E1,-5.038348675E0,-1.113094997E1,-1.256055713E0
2.106400000E1,-3.634675980E0,-8.826282501E0,2.690029442E-1
2.108402188E1,-1.881047606E0,-6.894975185E0,1.174145222E0
2.110600156E1,3.879755735E-1,-5.135524273E0,1.364024520E0
2.112800156E1,1.174585819E0,-3.967929602E0,2.272920847E0
2.115000000E1,2.851972878E-1,-2.918541431E0,3.516546011E0
2.117000156E1,-1.104971990E-1,-2.706606627E0,4.765639305E0
2.119200000E1,-5.784391761E-1,-2.573067665E0,3.794397831E0
2.121200000E1,-9.772557020E-1,-2.467205763E0,1.937196493E0
2.123200156E1,-4.855345190E-1,-3.615483999E0,-2.399277389E-1
2.125400000E1,-4.353999197E-1,-8.184865952E0,-1.274981308E1
2.127400000E1,-1.845919967E0,-1.589369774E1,-3.349109650E1
2.129400156E1,-1.773538470E0,-1.541590977E1,-1.163262177E1
2.131400156E1,-1.779131174E0,-9.968364716E0,-1.089937305E1
2.133400156E1,-3.341434002E0,-8.338890076E0,-4.963965416E0
2.135600000E1,-8.353235245E0,-1.565621185E1,-1.175310707E1
2.137600000E1,-7.276687622E0,-1.802202797E1,5.784343243E0
2.139600156E1,-4.413912296E0,-9.262486458E0,1.136830139E1
2.141600156E1,-1.185417056E0,-2.110900640E0,8.897724152E0
2.143800000E1,-2.489241838E0,-4.311258316E0,6.538650990E0
2.145800000E1,-3.578527212E0,-1.729162216E1,-4.522493839E0
2.147800000E1,1.108592033E0,-2.135789871E1,-7.998299599E0
2.149800156E1,2.813637257E0,-1.290689278E1,-3.583717823E0
2.152000156E1,1.007978082E0,-1.041072655E1,2.348232985E0
2.154000156E1,-7.343016267E-1,-9.880956650E0,1.187562346E0
2.156200156E1,-2.386348724E0,-8.675907135E0,-5.427176356E-1
2.158200156E1,-1.785116792E0,-7.946096897E0,-1.235216558E-1
2.160200156E1,-9.229838848E-1,-7.674431801E0,-3.691284359E-1
2.162200781E1,-5.487222672E-1,-7.669404030E0,-2.790413380E0
2.164401094E1,-5.064406991E-1,-7.814214706E0,-4.865036964E0
2.166600000E1,-4.422569275E-1,-7.460265636E0,-2.817295313E0
2.168600156E1,-7.185477614E-1,-7.015508652E0,9.784623981E-2
2.170800156E1,-7.718044519E-1,-7.371832848E0,2.019461393E0
2.172800156E1,-1.020313054E-1,-8.121898651E0,1.793285728E0
2.174800156E1,9.139338136E-1,-8.712681770E0,9.246407151E-1
2.177000000E1,2.169232845E0,-9.593690872E0,-1.004836798E0
2.179000000E1,2.041478157E0,-1.211464119E1,-4.264743805E0
2.181000156E1,-4.320863783E-1,-1.281647778E1,-1.247013283E1
2.183200156E1,-6.645537615E-1,-1.215495014E1,-8.290603638E0
2.185200156E1,-1.172526717E0,-1.186020470E1,-1.345225334E0
2.187200156E1,-2.428907871E0,-1.181162167E1,-1.412349105E0
2.189200156E1,-1.863033652E0,-1.444097233E1,8.568847775E-1
2.191200156E1,-1.802039027E0,-1.594941521E1,3.191633701E0
2.193400156E1,-1.466400623E0,-1.664885712E1,1.743055463E0
2.195400156E1,-1.076835275E0,-1.668171501E1,1.896533370E0
2.197400156E1,-2.308355331E0,-1.646475220E1,2.527510643E0
2.199400156E1,-4.289202690E0,-1.470588589E1,2.157510996E0
2.201400156E1,-5.897675514E0,-1.227248669E1,3.228245974E-1
2.203400156E1,-5.533163071E0,-1.091265583E1,-3.598312855E0
2.205400156E1,-3.945740223E0,-9.646114349E0,-4.231406689E0
2.207400156E1,-2.936201096E0,-7.950310707E0,-1.631054640E0
2.209400156E1,-1.328609586E0,-6.775389671E0,3.189555407E-1
2.211400156E1,-4.717056155E-1,-5.918954849E0,1.810533643E0
2.213400156E1,2.356756479E-1,-5.354124546E0,2.985665321E0
2.215400156E1,2.376388907E-1,-5.426104069E0,3.528517008E0
2.217400156E1,-3.642634153E-1,-5.206574917E0,2.460693359E0
2.219400156E1,-5.478603840E-1,-4.218774796E0,1.468622446E0
2.221400156E1,2.135627903E-3,-3.040981054E0,1.171607375E0
2.223400156E1,9.014360905E-1,-2.722743750E0,1.112269521E0
2.225600156E1,1.726755738E0,-4.518308640E0,-2.235734463E0
2.227800156E1,1.876067758E0,-1.124473286E1,-1.563450050E1
2.230000156E1,-3.592786789E0,-1.486939049E1,-2.290947533E1
2.232200156E1,-1.323227406E0,-1.259518623E1,-1.045412922E1
2.234200156E1,3.214551210E-1,-9.073267937E0,-4.854052067E0
2.236400156E1,-1.005717993E0,-1.029409122E1,-1.876211405E0
2.238402188E1,-7.677927017E0,-1.297257996E1,1.971567631E0
2.240600000E1,-1.379717159E1,-2.376807404E1,-9.307793975E-1
2.242600156E1,-6.934173107E0,-6.903460503E0,7.885619164E0
2.244800000E1,-3.842521191E0,-5.259994030E0,9.266058922E0
2.246800000E1,-2.780817270E0,-1.535818195E1,4.553101063E-1
2.248800000E1,-6.380355954E-1,-1.623083878E1,-1.340772152E0
2.250800000E1,2.367108822E0,-1.342717171E1,1.936679363E0
2.252800000E1,5.909473896E0,-1.103078651E1,-9.899343491E0
2.254800000E1,1.366562486E0,-9.365618706E0,-4.072575569E0
2.256800156E1,-1.414111257E-1,-9.947046280E0,-4.449288547E-1
2.259000156E1,-4.212071300E-1,-8.546801567E0,3.793564737E-1
2.261200156E1,-9.528922439E-1,-6.606598854E0,-9.582552910E-1
2.263400000E1,-1.491989851E0,-5.526248455E0,-2.355904102E0
2.265400156E1,-7.970106006E-1,-6.720859528E0,-3.600773811E0
2.267400156E1,-1.488906145E-1,-8.070662498E0,-1.800324678E0
2.269400156E1,1.639453620E-1,-7.977527618E0,5.787360072E-1
2.271400156E1,7.951048017E-1,-7.968028069E0,1.772370100E0
2.273400156E1,1.403816342E0,-9.590663910E0,1.577884316E0
2.275600156E1,1.175878644E0,-1.070022392E1,4.806599319E-1
2.277800156E1,3.087562621E-1,-1.042839527E1,-1.075025320E0
2.280000156E1,-4.862815142E-1,-1.200402927E1,-4.026970863E0
2.282201563E1,-3.482893109E-1,-1.249782944E1,-5.185582638E0
2.284400781E1,-3.615435958E-1,-1.219604397E1,-1.611393571E0
2.286600156E1,-1.311926723E0,-1.171237659E1,-1.514198542E0
2.288600156E1,-1.522013187E0,-1.280244732E1,-4.808706284E0
2.290600156E1,-6.755766869E-1,-1.378724003E1,-6.720275402E0
2.292800000E1,-7.353072762E-1,-1.349663162E1,-5.258461952E0
2.294800000E1,-7.800596356E-1,-1.380666256E1,-3.961254656E-1
2.296800000E1,-6.207016110E-1,-1.459935379E1,3.584819078E0
2.298800156E1,-8.118833899E-1,-1.506618500E1,3.723242283E0
2.301000000E1,-2.317548752E0,-1.491067696E1,4.510972500E0
2.303000000E1,-3.371438265E0,-1.253400993E1,4.468720436E0
2.305000000E1,-4.196393967E0,-1.115752506E1,-3.767516091E-2
2.307000000E1,-4.037533760E0,-1.132874966E1,-8.355783463E0
2.309000156E1,-3.197092533E0,-1.022012901E1,-5.864281178E0
2.311200156E1,-2.163381577E0,-8.923093796E0,-1.997932673E0
2.313200156E1,-1.204293132E0,-7.773158550E0,-5.481668711E-1
2.315200156E1,-6.954197884E-1,-7.156412601E0,2.801407576E-1
2.317200156E1,6.667372584E-2,-6.595000744E0,2.287362814E0
2.319202188E1,3.947176933E-1,-6.198588371E0,2.863072395E0
2.321400156E1,-3.963744640E-1,-5.632426739E0,1.672455192E0
2.323400156E1,-1.142302394E0,-4.930446625E0,7.924233079E-1
2.325400938E1,-1.458538055E0,-3.628288031E0,1.655063778E-1
2.327600000E1,-9.200725555E-1,-1.861788750E0,-1.145692468E0
2.329600000E1,1.085818410E0,-1.402580857E0,-1.367606282E0
2.331600156E1,3.861617327E0,-4.555102825E0,-5.039402008E0
2.333800000E1,5.246136189E0,-1.508261776E1,-5.189373779E1
2.335800156E1,-6.115336895E0,-1.956279373E1,2.442660332E0
2.338000156E1,-5.466096878E0,-1.185746574E1,1.108560371E1
2.340200156E1,-1.084064865E1,-1.078230667E1,2.637452507E1
2.342200781E1,-1.055558491E1,-9.527850151E0,-4.095741749E0
2.344400625E1,-4.770896912E0,-2.124460411E1,9.944968224E0
2.346600156E1,6.388046265E0,-2.535227013E1,-3.298520565E0
2.348800000E1,5.531065464E0,-1.761956215E1,-4.494854927E0
2.350800000E1,2.072124004E0,-1.259042645E1,-2.359006882E0
2.352800000E1,-9.531891346E-1,-1.125907803E1,1.730529033E-2
2.354800000E1,-4.016531944E0,-8.809513092E0,-2.994140863E0
2.356800156E1,-3.118428469E0,-7.920709133E0,-2.537576199E0
2.359000156E1,-1.207051158E0,-7.802119255E0,-1.889350653E0
2.361200000E1,-8.671128154E-1,-7.324169636E0,-1.548770785E0
2.363200156E1,-1.743007541E0,-6.924663544E0,-2.535574436E0
2.365200156E1,-2.509879827E0,-6.677610397E0,-3.081548452E0
2.367200156E1,-2.804941416E0,-7.301807404E0,-2.855573893E0
2.369200156E1,-2.594050646E0,-8.181859016E0,-4.277145386E0
2.371200156E1,-1.870924950E0,-8.976523399E0,-6.312255383E0
2.373200156E1,-1.126538992E0,-9.341466904E0,-4.925284863E0
2.375400000E1,-7.559356689E-1,-9.207965851E0,-4.936958790E0
2.377400000E1,-7.475942969E-1,-9.283823013E0,-6.406931877E0
2.379400156E1,-1.217777252E0,-8.334531784E0,-8.047782898E0
2.381600156E1,-1.173273802E0,-9.313693047E0,-6.644714355E0
2.383600156E1,-1.299917459E0,-1.237236309E1,-3.106275558E0
2.385800156E1,-2.847318888E0,-1.577136326E1,-1.650275439E-1
2.388000156E1,-6.324762821E0,-1.534446812E1,-1.475115567E-1
2.390200156E1,-4.867977142E0,-1.210226822E1,-4.241759479E-1
2.392200156E1,-2.270928860E0,-1.279269791E1,6.106650829E-1
2.394200313E1,-3.100337982E0,-1.322019768E1,2.178513050E0
2.396200625E1,-1.230638742E0,-1.223238850E1,-6.524390578E-1
2.398402188E1,-7.730110884E-1,-1.144887066E1,-5.877372742E0
2.400600000E1,-2.504880905E0,-9.272973061E0,-3.578392982E0
2.402600156E1,-2.679820299E0,-8.170337677E0,-3.143950701E0
2.404600156E1,-2.256803274E0,-7.086827755E0,-1.520729899E0
2.406604375E1,-2.125457287E0,-6.258471966E0,-1.695477962E-1
2.408800000E1,-1.759853125E0,-5.598448277E0,-1.119768143E0
2.410800000E1,-9.107639194E-1,-5.693622589E0,5.560293794E-2
2.412800156E1,-2.632664144E-2,-5.983914375E0,5.608561635E-1
2.414800156E1,6.191118360E-1,-6.318949699E0,-3.540737033E-1
2.417000156E1,8.355476856E-1,-6.468252182E0,-1.855142474E0
2.419200156E1,1.606030390E-2,-5.299785614E0,-3.038012266E0
2.421400156E1,-5.563262701E-1,-3.881843805E0,-3.959032774E0
2.423400469E1,-1.830414981E-1,-3.821069241E0,-5.225718975E0
2.425600156E1,-8.401732892E-2,-5.325863361E0,-7.687044621E0
2.427800156E1,-1.434893012E-1,-8.284819603E0,-1.118522167E1
2.430000156E1,-1.888163209E0,-1.227877808E1,-1.395301437E1
2.432201406E1,-2.496252298E0,-1.301612473E1,-1.069482231E1
2.434400000E1,-3.227671146E0,-8.969540596E0,-8.643566132E0
2.436400156E1,-7.797934055E0,-9.947735786E0,-1.059460163E1
2.438402031E1,-7.426287174E0,-1.449140358E1,-5.796773911E0
2.440600000E1,-5.201853752E0,-1.784429169E1,-4.190130711E0
2.442600156E1,-3.516114950E0,-7.183907509E0,7.515744209E0
2.444800000E1,-1.104617715E0,-2.641589880E0,5.562362671E0
2.446800000E1,6.398265064E-2,-3.520194769E0,-1.394948125E0
2.448800156E1,-1.647316217E0,-9.103453636E0,-7.670533657E0
2.451000000E1,-4.397621632E0,-1.491728401E1,2.402198315E0
2.453000000E1,3.956274748E0,-2.038810158E1,-6.835733056E-1
2.455000000E1,3.106179953E0,-1.203547955E1,-3.977391720E0
2.457000000E1,6.712575555E-1,-9.268365860E0,-8.488786221E-1
2.459000156E1,1.453663409E-1,-9.604751587E0,-1.596740961E0
2.461200156E1,4.850652814E-2,-8.473079681E0,-3.638592720E0
2.463200156E1,-8.929222822E-1,-7.519871712E0,-3.859482050E0
2.465200156E1,-1.762582541E0,-8.099613190E0,-2.312530756E0
2.467200156E1,-2.185523272E0,-8.658007622E0,-2.962326765E0
2.469200156E1,-1.867103934E0,-8.699896812E0,-2.721613407E0
2.471200156E1,-7.260464430E-1,-8.057475090E0,-2.923023462E0
2.473200156E1,-2.285696417E-1,-8.149374008E0,-4.387432098E0
2.475200156E1,-2.883768082E-1,-9.253685951E0,-1.612542748E0
2.477200156E1,2.534023225E-1,-9.845148087E0,-9.588394761E-1
2.479200156E1,7.269275188E-1,-9.203138351E0,-1.984343171E0
2.481200781E1,5.736411810E-1,-9.111545563E0,-3.214378595E0
2.483400156E1,-2.364705205E-1,-1.046880913E1,-2.231692791E0
2.485600000E1,-9.420225620E-1,-9.955138206E0,-1.375622034E0
2.487600625E1,-7.786518335E-1,-8.887975693E0,-2.599892378E0
2.489800313E1,-9.452691674E-1,-8.530923843E0,-2.974766731E0
2.492000000E1,-7.757213712E-1,-9.595395088E0,-1.443923950E0
2.494000625E1,6.279512495E-2,-1.013401413E1,-9.088293910E-1
2.496200156E1,5.337920785E-1,-1.029560375E1,-2.217586279E0
2.498200313E1,8.759905398E-2,-1.038757896E1,-2.058927298E0
2.500400156E1,-2.757162601E-2,-1.061500835E1,-2.309542656E0
2.502401250E1,4.112089276E-1,-1.049754047E1,-6.094105244E-1
2.504600156E1,1.271062493E0,-1.072377300E1,1.034400463E0
2.506800156E1,1.612140536E0,-9.902543068E0,2.123436451E0
2.509000156E1,2.018139601E0,-9.579412460E0,1.223073125E0
2.511200156E1,1.261217475E0,-1.039245415E1,1.271608472E-1
2.513200156E1,-5.876616240E-1,-1.087348747E1,-1.431368709E0
2.515200156E1,-3.117221832E0,-1.128573036E1,-4.124280930E0
2.517201406E1,-4.483430386E0,-1.097058678E1,-7.409719467E0
2.519400156E1,-3.921836376E0,-1.135788155E1,-7.103175163E0
2.521400625E1,-3.587807178E0,-1.080683327E1,-3.367377758E0
2.523600000E1,-1.502371073E0,-9.739717484E0,-1.061876297E0
2.525600156E1,-2.670013718E-2,-9.189855576E0,-1.509113163E-1
2.527800156E1,-8.725428581E-2,-9.563150406E0,2.430018932E-1
2.530000156E1,-6.560112834E-1,-1.043695736E1,6.246567965E-1
2.532202188E1,-9.635129571E-1,-1.121918201E1,1.144380450E0
2.534400156E1,-1.722302437E0,-1.058256340E1,-6.865804195E-1
2.536400156E1,-1.886755466E0,-9.068555832E0,-1.750084877E0
2.538402031E1,-2.167844296E0,-7.779115677E0,-1.054837346E0
2.540600156E1,-2.320833683E0,-7.925755978E0,-5.646102428E-1
2.542600156E1,-2.723461866E0,-9.222139359E0,-9.486018419E-1
2.544800000E1,-2.765762806E0,-9.750912666E0,-1.386271477E0
2.546800000E1,-1.884638906E0,-9.261768341E0,-1.458183765E0
2.548800156E1,-1.423544407E0,-8.601869583E0,-1.209359169E0
2.551000000E1,-1.789292216E0,-8.288477898E0,-7.884201407E-1
2.553000000E1,-2.291806459E0,-8.172827721E0,-8.308837414E-1
2.555000000E1,-2.371485710E0,-8.211718559E0,-1.094016075E0
2.557000000E1,-1.999886274E0,-7.880495548E0,-1.505435705E0
2.559000156E1,-1.212873936E0,-7.706542492E0,-2.011627436E0
2.561200000E1,-1.095385671E0,-9.069743156E0,-1.721172452E0
2.563200156E1,-1.629905462E0,-1.076540375E1,-1.266111374E0
2.565200156E1,-2.096813202E0,-1.110643387E1,-1.712792754E0
2.567200156E1,-2.205816507E0,-9.878285408E0,-3.692376137E0
2.569200156E1,-2.395733833E0,-8.634870529E0,-4.678882599E0
2.571400156E1,-2.588409662E0,-7.887352467E0,-4.311172009E0
2.573400156E1,-2.685279131E0,-7.932497501E0,-2.848046541E0
2.575600000E1,-3.146268368E0,-8.109381676E0,-4.356000900E0
2.577600000E1,-1.723298430E0,-8.621817589E0,-4.390008450E0
2.579600000E1,-7.865909934E-1,-9.651007652E0,-2.364973307E0
2.581600156E1,-1.162451863E0,-9.174369812E0,-2.423200130E0
2.583800156E1,-1.099302530E0,-9.057015419E0,-2.617264748E0
2.586000000E1,1.034860134E0,-1.038626766E1,1.893717766E0
2.588000156E1,4.746265337E-2,-1.168487263E1,1.569686532E0
2.590202031E1,-2.445801497E0,-1.422731304E1,-1.161934853E0
2.592400000E1,-4.094611645E0,-1.438741875E1,-2.245196104E0
2.594400156E1,-1.826421499E0,-1.074253464E1,4.558751583E-1
2.596400156E1,-3.844274044E0,-6.266947269E0,8.244481087E-1
2.598402188E1,-4.635442734E0,-6.343073368E0,2.091392517E0
2.600600000E1,-4.076099396E0,-9.219141960E0,1.085847020E0
2.602600156E1,-2.435879946E0,-1.108928108E1,2.764153779E-1
2.604601094E1,-1.851551175E0,-1.014703941E1,5.880159326E-3
2.606800156E1,-1.184689283E0,-9.556848526E0,-2.960956991E-1
2.608800156E1,-7.057723403E-1,-9.773773193E0,5.411949754E-1
2.611000000E1,-4.455992579E-1,-1.048872948E1,-2.322337389E0
2.613000000E1,3.372664154E-1,-1.021692944E1,-5.503044128E0
2.615000156E1,7.715171576E-1,-9.422524452E0,-5.563482761E0
2.617000156E1,5.524572730E-1,-9.908480644E0,-4.243627071E0
2.619200156E1,-3.316256702E-1,-9.700606346E0,-2.430526495E0
2.621400156E1,-1.020686507E0,-9.153799057E0,-1.402791500E0
2.623400156E1,-1.054684162E0,-9.786242485E0,-6.677907109E-1
2.625600156E1,-1.427815676E0,-1.004367542E1,2.877447605E-1
2.627800156E1,-1.753915548E0,-1.057520771E1,1.098794937E0
2.630000156E1,-1.906110048E0,-1.035673237E1,5.755277872E-1
2.632200000E1,-1.474186659E0,-1.074853897E1,-9.281840920E-2
2.634200156E1,-1.127764821E0,-9.320704460E0,1.130446270E-1
2.636200156E1,-1.263956547E0,-8.203483582E0,5.588737130E-1
2.638200625E1,-2.101592064E0,-8.657701492E0,9.592896104E-1
2.640400156E1,-2.685192823E0,-9.362726212E0,7.922030687E-1
2.642600156E1,-2.632826805E0,-9.160991669E0,6.311211586E-1
2.644800000E1,-3.097800016E0,-9.625648499E0,3.093978763E-1
2.646800000E1,-3.076683283E0,-9.777929306E0,-4.582214653E-1
2.648800156E1,-2.493982315E0,-1.001193810E1,-9.180709720E-1
2.651000000E1,-2.160135031E0,-9.649639130E0,-1.081374764E0
2.653000156E1,-2.181328297E0,-8.391638756E0,-9.332885742E-1
2.655000156E1,-2.193069696E0,-9.256338120E0,-5.454757810E-1
2.657200000E1,-2.623307705E0,-9.247479439E0,-7.182604820E-2
2.659200156E1,-2.479895115E0,-8.819069862E0,1.443607807E-1
2.661200156E1,-2.511125088E0,-9.586603165E0,9.534668922E-2
2.663200156E1,-2.650572777E0,-9.809742928E0,1.623364538E-1
2.665400156E1,-2.541675091E0,-8.831069946E0,1.719803065E-1
2.667600156E1,-2.449871540E0,-8.317379951E0,2.789723873E-1
2.669800000E1,-2.771575689E0,-8.650739670E0,4.569381773E-1
2.671800000E1,-2.936593771E0,-8.832104683E0,6.199066639E-1
2.673800000E1,-3.167069197E0,-8.491908073E0,7.168623209E-1
2.675800000E1,-3.106256247E0,-8.555095673E0,6.370012760E-1
2.677800156E1,-3.394212008E0,-8.945723534E0,5.362532735E-1
2.680000156E1,-4.073810577E0,-1.016733170E1,5.817910433E-1
2.682200781E1,-4.726345539E0,-1.071451283E1,3.602411449E-1
2.684400000E1,-4.510627747E0,-1.049491596E1,-2.565626614E-2
2.686400156E1,-3.595056534E0,-9.365369797E0,-3.613999486E-1
2.688402031E1,-2.949646950E0,-8.489714622E0,5.702988431E-2
2.690600156E1,-2.820130110E0,-9.490300179E0,5.160557628E-1
2.692600156E1,-2.908466578E0,-1.057260323E1,6.689495444E-1
2.694600156E1,-2.087954521E0,-1.035853291E1,-6.477081776E-1
2.696600156E1,-1.395139694E0,-8.593814850E0,-1.381023407E0
2.698600156E1,-2.396816254E0,-9.342031479E0,-7.204632163E-1
2.700600156E1,-2.623374701E0,-9.851842880E0,-2.891620994E-1
2.702600156E1,-3.186366558E0,-1.001313591E1,-5.097925663E-1
2.704600156E1,-3.353309393E0,-9.755970001E0,-3.097139299E-1
2.706800156E1,-3.156103849E0,-9.370264053E0,1.001734007E-2
2.709000156E1,-3.007615328E0,-8.852168083E0,8.148904890E-2
2.711201719E1,-3.190465450E0,-8.539159775E0,5.157014728E-1
2.713400156E1,-3.558626413E0,-8.427571297E0,7.638365626E-1
2.715400156E1,-3.857882500E0,-9.234387398E0,7.197831869E-1
2.717600156E1,-3.672839642E0,-1.016070461E1,3.735912219E-2
2.719800156E1,-3.559766054E0,-1.041341782E1,-4.542375207E-1
2.722000000E1,-3.244114399E0,-9.862262726E0,4.410119727E-2
2.724000156E1,-3.060575008E0,-9.837458611E0,4.386177287E-2
2.726201406E1,-3.477644920E0,-9.382866859E0,-1.603636295E-1
2.728402188E1,-3.725885391E0,-9.208415985E0,3.458184749E-2
2.730600000E1,-3.949647427E0,-8.890340805E0,1.420432031E-1
2.732600156E1,-4.128484726E0,-8.772555351E0,-1.019929908E-2
2.734800156E1,-4.410397530E0,-9.022069931E0,-1.670290828E-1
2.737000000E1,-4.570693970E0,-9.148704529E0,4.556644708E-2
2.739000156E1,-4.427127838E0,-8.675849915E0,2.189353853E-1
2.741200156E1,-4.127651691E0,-8.329465866E0,1.559774429E-1
2.743200156E1,-3.877256393E0,-9.152592659E0,6.627150346E-3
2.745200469E1,-3.553895473E0,-9.775056839E0,-1.734359711E-1
2.747400156E1,-3.247083426E0,-9.596879959E0,-7.623808384E-1
2.749600000E1,-3.426255941E0,-8.973947525E0,-7.084442973E-1
2.751600000E1,-3.724180698E0,-8.754599571E0,-2.508069873E-1
2.753600469E1,-3.870887995E0,-9.270473480E0,-9.960836917E-2
2.755800156E1,-3.725253344E0,-9.029625893E0,-1.937579513E-1
2.757800156E1,-3.240073204E0,-9.043532372E0,8.886318654E-2
2.760000156E1,-3.054129839E0,-9.284082413E0,5.879201367E-2
2.762200156E1,-3.182870865E0,-9.281400681E0,-2.728432417E-1
2.764200781E1,-3.139392138E0,-8.976618767E0,-2.943814695E-1
2.766200781E1,-3.563319206E0,-9.272312164E0,-2.706405520E-1
2.768402344E1,-3.890712023E0,-9.105512619E0,-4.684878290E-1
2.770600000E1,-3.672580719E0,-8.954085350E0,-4.369130731E-1
2.772600000E1,-3.432634115E0,-9.273308754E0,-2.246144265E-1
2.774600156E1,-3.449690104E0,-9.268826485E0,-8.676586673E-3
2.776800000E1,-3.521286726E0,-9.262380600E0,-3.581725806E-2
2.778800000E1,-3.528239250E0,-9.283334732E0,-5.929958820E-2
2.780800000E1,-3.502142668E0,-9.046835899E0,2.012278587E-1
2.782800000E1,-3.541809559E0,-8.867969513E0,2.727378905E-1
2.784800156E1,-3.581304550E0,-9.185316086E0,2.214445025E-1
2.787000000E1,-3.707804441E0,-9.228143692E0,-9.629479051E-2
2.789000000E1,-3.872324467E0,-8.999161720E0,-4.122719467E-1
2.791000000E1,-3.860142469E0,-8.860835075E0,-2.425517887E-1
2.793000000E1,-3.467953444E0,-8.984509468E0,-1.259924769E-1
2.795000156E1,-2.939917088E0,-9.484553337E0,-5.793201923E-1
2.797000156E1,-2.819220543E0,-9.607644081E0,-5.639207363E-1
2.799000156E1,-3.079211473E0,-9.359327316E0,-1.690306365E-1
2.801200156E1,-3.243779182E0,-9.271795273E0,-1.873319298E-1
2.803200156E1,-3.619372129E0,-9.222331047E0,-3.290016055E-1
2.805200156E1,-3.919585943E0,-9.078985214E0,-3.335888982E-1
2.807200156E1,-4.012567043E0,-9.012618065E0,-2.584684491E-1
2.809200156E1,-3.863982916E0,-9.024253845E0,-1.967746466E-1
2.811400000E1,-3.603943825E0,-8.793443680E0,2.699893415E-1
2.813400156E1,-3.622197151E0,-8.644006729E0,5.214284062E-1
2.815400156E1,-3.570137739E0,-9.012435913E0,3.339911401E-1
2.817600000E1,-3.742750168E0,-9.360695839E0,1.859815866E-1
2.819600000E1,-3.796763420E0,-9.506320953E0,6.377195567E-2
2.821600000E1,-3.419178724E0,-9.368549347E0,-3.452534378E-1
2.823600000E1,-3.416401386E0,-9.330750465E0,-1.100183576E-1
2.825600156E1,-3.729830980E0,-9.136445999E0,1.211178750E-1
2.827800156E1,-3.854903936E0,-8.825257301E0,-8.535807580E-2
2.830000000E1,-3.758274078E0,-9.053827286E0,-2.167327106E-1
2.832000156E1,-3.582788706E0,-9.270176888E0,-4.170699418E-2
2.834200469E1,-3.390151262E0,-9.211259842E0,3.711012751E-2
2.836400156E1,-3.446482182E0,-9.022817612E0,1.565233320E-1
2.838402188E1,-3.584761381E0,-9.087672234E0,1.081508771E-1
2.840600156E1,-3.711625576E0,-9.043837547E0,-5.555505678E-2
2.842600156E1,-3.650257349E0,-8.959753990E0,-1.157069802E-1
2.844600156E1,-3.659623623E0,-9.149767876E0,-4.233906046E-2
2.846600156E1,-3.714268684E0,-9.192546844E0,1.200740039E-1
2.848800156E1,-3.864710808E0,-9.031703949E0,1.341997981E-1
2.850800156E1,-3.784543514E0,-9.188755035E0,-3.161782920E-1
2.853000000E1,-3.405043125E0,-9.219974518E0,-4.752011597E-2
2.855000000E1,-3.205548763E0,-9.156452179E0,2.193280309E-1
2.857000000E1,-3.394422531E0,-9.263205528E0,2.080944330E-1
2.859000000E1,-3.609833717E0,-9.186274529E0,1.634377837E-1
2.861000000E1,-3.850221157E0,-8.988963127E0,2.405215055E-1
2.863000000E1,-3.914845467E0,-9.053836823E0,3.372089565E-1
2.865000000E1,-3.854367971E0,-9.070595741E0,2.941994965E-1
2.867000156E1,-3.716567039E0,-9.034873962E0,3.029527068E-1
2.869200156E1,-3.585834265E0,-9.113816261E0,7.321469486E-2
2.871200156E1,-3.540986061E0,-9.161930084E0,7.754340023E-2
2.873200156E1,-3.608981371E0,-9.223662376E0,2.536129951E-1
2.875200156E1,-3.603733063E0,-9.191445351E0,1.219606325E-1
2.877200156E1,-3.671805143E0,-9.174792290E0,3.077985719E-2
2.879400156E1,-3.657104731E0,-9.055225372E0,5.372588523E-3
2.881600156E1,-3.685969353E0,-9.116287231E0,1.896303594E-1
2.883600156E1,-3.741418839E0,-9.038351059E0,3.052415848E-1
2.885600156E1,-3.697107077E0,-9.014485359E0,1.628823280E-1
2.887800000E1,-3.665723801E0,-9.154804230E0,2.131318301E-1
2.889800000E1,-3.650449038E0,-9.222694397E0,1.934993714E-1
2.891800156E1,-3.554364681E0,-9.232261658E0,7.209420204E-2
2.894000000E1,-3.542681217E0,-9.049728394E0,9.415916353E-2
2.896000156E1,-3.516182184E0,-9.006383896E0,1.194131970E-1
2.898200313E1,-3.498828888E0,-9.190909386E0,7.000645250E-2
2.900400156E1,-3.692720890E0,-9.225682259E0,1.104301587E-1
2.902400156E1,-3.757651567E0,-8.994451523E0,6.691315025E-2
2.904600156E1,-3.546282053E0,-9.151462555E0,-1.066952050E-1
2.906600156E1,-3.452764511E0,-9.379045486E0,-1.819593308E-4
2.908800000E1,-3.535393000E0,-9.293227196E0,6.451894343E-2
2.910800000E1,-3.637462616E0,-9.017271996E0,-2.194046415E-2
2.912800000E1,-3.670895576E0,-8.971351624E0,-1.510453969E-1
2.914800156E1,-3.660380125E0,-9.201759338E0,-1.506431680E-2
2.917000156E1,-3.595765352E0,-9.116823196E0,3.595420420E-1
2.919200156E1,-3.435583830E0,-9.022644997E0,1.453759372E-1
2.921200156E1,-3.466353893E0,-9.161259651E0,1.011502296E-1
2.923200156E1,-3.576018095E0,-9.181408882E0,1.395340711E-1
2.925200156E1,-3.553215504E0,-9.200265884E0,-3.237918392E-2
2.927200156E1,-3.549356222E0,-9.282635689E0,-1.342764199E-1
2.929200156E1,-3.594386339E0,-9.061660767E0,1.785021126E-1
2.931200156E1,-3.791151285E0,-8.957091331E0,2.852356136E-1
2.933200156E1,-3.706549883E0,-9.171708107E0,-1.282909065E-1
2.935200156E1,-3.452994347E0,-9.228555679E0,-1.610818952E-1
2.937200156E1,-3.273467541E0,-9.085775375E0,-3.374866769E-2
2.939400000E1,-3.286989927E0,-9.086512566E0,-1.744894311E-2
2.941400156E1,-3.515473366E0,-9.282971382E0,-2.149993181E-2
2.943400156E1,-3.625769615E0,-9.208961487E0,4.698381573E-2
2.945400156E1,-3.573690891E0,-9.153578758E0,2.688209713E-2
2.947600156E1,-3.633287430E0,-9.111882210E0,-3.408385441E-2
2.949800156E1,-3.633105278E0,-9.187002182E0,-1.386721618E-2
2.952000156E1,-3.473670721E0,-9.096472740E0,1.629780978E-1
2.954200312E1,-3.407552242E0,-9.067206383E0,1.335485727E-1
2.956400000E1,-3.513969660E0,-9.130335808E0,3.736870363E-2
2.958402188E1,-3.572407484E0,-9.228211403E0,-4.357446916E-3
2.960600156E1,-3.525672674E0,-9.169457436E0,-8.549215645E-2
2.962600156E1,-3.495094061E0,-9.178593636E0,-1.210891455E-1
2.964600781E1,-3.541953325E0,-9.147420883E0,-3.267606348E-2
2.966800000E1,-3.550974607E0,-9.192192078E0,6.011361629E-2
2.968800000E1,-3.606175184E0,-9.265982628E0,8.016745001E-2
2.970800000E1,-3.587280273E0,-9.152554512E0,-6.052541547E-3
2.972800000E1,-3.578527212E0,-9.159497261E0,3.484999761E-2
2.974800000E1,-3.477118254E0,-9.029089928E0,3.244622052E-2
2.976800000E1,-3.468614101E0,-9.119447708E0,9.295248240E-2
2.978800156E1,-3.479780436E0,-9.169974327E0,5.552632362E-2
2.981000156E1,-3.524245739E0,-9.229351044E0,-1.186662167E-1
2.983200156E1,-3.549193382E0,-9.248188019E0,-1.699308604E-1
2.985200156E1,-3.596933603E0,-9.132223129E0,4.865017533E-2
2.987200156E1,-3.592394352E0,-9.114380836E0,3.698562458E-2
2.989200156E1,-3.529934406E0,-9.145745277E0,-4.860229418E-2
2.991200625E1,-3.504182339E0,-9.178833008E0,2.546472847E-2
2.993400156E1,-3.511604309E0,-9.129530907E0,2.849100158E-2
2.995400156E1,-3.493523359E0,-9.120654106E0,-7.038952783E-3
2.997400156E1,-3.502630949E0,-9.154402733E0,1.340752933E-4
2.999400156E1,-3.606117964E0,-9.306203842E0,1.239909232E-1
3.001400156E1,-3.554441452E0,-9.086483002E0,6.540958770E-3
3.003400156E1,-3.604825020E0,-9.106471062E0,-8.945695311E-2
3.005404375E1,-3.610149622E0,-9.009649277E0,3.307829052E-2
3.007600000E1,-3.602315903E0,-9.113557816E0,1.069825068E-1
3.009600000E1,-3.553167820E0,-9.320713997E0,1.520318091E-1
3.011600156E1,-3.592604876E0,-9.094011307E0,6.697060913E-2
3.013800156E1,-3.700573921E0,-9.075489044E0,1.995806582E-2
3.016000156E1,-3.519610643E0,-9.014666557E0,-9.391016513E-2
3.018000156E1,-3.451787710E0,-9.172311783E0,7.213250548E-2
3.020000938E1,-3.505532742E0,-9.161987305E0,4.937801883E-2
3.022200625E1,-3.613808155E0,-9.270914078E0,-1.166933924E-1
3.024201094E1,-3.672542572E0,-9.248953819E0,-8.370129764E-2
3.026400156E1,-3.582396269E0,-9.165655136E0,-2.344498187E-1
3.028402656E1,-3.591886759E0,-9.059084892E0,8.475474082E-3
3.030600000E1,-3.638037443E0,-9.063978195E0,2.114080042E-1
3.032600156E1,-3.587069511E0,-9.161728859E0,3.541503102E-2
3.034800156E1,-3.413930416E0,-9.174792290E0,-5.091030523E-2
3.037000000E1,-3.466622114E0,-9.251961708E0,-1.150653288E-1
3.039000156E1,-3.620358706E0,-9.106279373E0,4.348828271E-2
3.041200000E1,-3.671929598E0,-9.157811165E0,7.946834713E-2
3.043200625E1,-3.582750559E0,-9.092670441E0,1.019738391E-1
3.045400156E1,-3.502889395E0,-9.075374603E0,-1.508921683E-1
3.047400156E1,-3.512332201E0,-9.061334610E0,-1.177468449E-1
3.049600000E1,-3.543217182E0,-9.303006172E0,2.436722666E-1
3.051600000E1,-3.592863560E0,-9.182931900E0,1.281951368E-1
3.053600156E1,-3.691887617E0,-9.026935577E0,-9.018479288E-2
3.055800000E1,-3.610293388E0,-9.122665405E0,-1.449641287E-1
3.057800156E1,-3.410875559E0,-9.100389481E0,7.212293148E-2
3.060000000E1,-3.377825975E0,-9.185153008E0,5.185841024E-2
3.062000156E1,-3.439998627E0,-9.201444626E0,-1.275151819E-1
3.064200156E1,-3.540440083E0,-9.249290466E0,-1.298136115E-1
3.066200156E1,-3.645813704E0,-9.222397804E0,-1.048277318E-1
3.068200156E1,-3.703102350E0,-9.111258507E0,-9.791327268E-2
3.070202031E1,-3.697049618E0,-9.037086487E0,-3.748362511E-2
3.072400156E1,-3.634158611E0,-9.041481972E0,2.969767712E-2
3.074600156E1,-3.512169361E0,-9.162064552E0,4.190810770E-2
3.076600156E1,-3.450935364E0,-9.261414528E0,-5.607220531E-2
3.078800000E1,-3.531907320E0,-9.126323700E0,-9.969456121E-3
3.080800000E1,-3.629705667E0,-9.069561958E0,-9.404424578E-2
3.082800000E1,-3.672676802E0,-9.088915825E0,-7.940130681E-2
3.084800156E1,-3.663367987E0,-9.103224754E0,1.524531841E-1
3.087000000E1,-3.560608864E0,-9.126975060E0,-4.792233929E-2
3.089000000E1,-3.526046038E0,-9.211729050E0,-2.895547450E-1
3.091000000E1,-3.610465765E0,-9.263261795E0,-9.614156187E-2
3.093000000E1,-3.683316469E0,-9.070087433E0,1.453376114E-1
3.095000156E1,-3.770264387E0,-9.076590538E0,2.748543583E-2
3.097200000E1,-3.568088293E0,-9.123507500E0,-1.039083526E-1
3.099200156E1,-3.492632866E0,-9.149930954E0,9.983821213E-2
3.101200156E1,-3.500916719E0,-9.040907860E0,9.481038898E-3
3.103200156E1,-3.574725151E0,-9.118528366E0,-5.024950579E-2
3.105205000E1,-3.632703066E0,-9.241570473E0,-9.710881859E-2
3.107400156E1,-3.615857363E0,-9.198916435E0,-1.351862103E-1
3.109400156E1,-3.678173780E0,-9.141196251E0,5.381207541E-2
3.111600156E1,-3.776958466E0,-8.995159149E0,2.171062231E-1
3.113800156E1,-3.687175989E0,-9.147794724E0,6.598419510E-3
3.116000156E1,-3.491282463E0,-9.162150383E0,-4.714662209E-2
3.118200156E1,-3.510388136E0,-9.115165710E0,2.181788236E-1
3.120200156E1,-3.668635368E0,-9.102745056E0,1.780903041E-1
3.122400156E1,-3.741400003E0,-9.059687614E0,-5.059427023E-2
3.124401250E1,-3.622618675E0,-9.082758904E0,-7.581000775E-2
3.126600156E1,-3.599471569E0,-9.281045914E0,3.916914016E-2
3.128800000E1,-3.673404455E0,-9.122654915E0,5.928043276E-3
3.130800000E1,-3.701617718E0,-8.992334366E0,-1.248911396E-1
3.132800000E1,-3.627972126E0,-9.081063271E0,-1.451365054E-1
3.134800000E1,-3.662199736E0,-9.212169647E0,1.044925377E-1
3.136800000E1,-3.673107624E0,-9.208539963E0,5.097734183E-2
3.138800000E1,-3.573623896E0,-9.171381950E0,-1.459217966E-1
3.140800000E1,-3.458644629E0,-9.032097816E0,-6.276638806E-2
3.142800000E1,-3.486905813E0,-9.056211472E0,7.580042630E-2
3.144800000E1,-3.614737034E0,-9.225003242E0,6.336972862E-2
3.146800000E1,-3.621766329E0,-9.276956558E0,-1.643284261E-1
3.148800000E1,-3.557122946E0,-9.140295982E0,-1.448491961E-1
3.150800000E1,-3.566268682E0,-9.140113831E0,-2.860592306E-2
3.152800000E1,-3.708302498E0,-9.068221092E0,1.045500040E-1
3.154800000E1,-3.692979574E0,-9.008576393E0,2.002893388E-1
3.156800000E1,-3.513672829E0,-9.131792068E0,2.236184292E-2
3.158800000E1,-3.413566589E0,-9.323605537E0,-1.860773377E-2
3.160800000E1,-3.563060522E0,-9.227531433E0,1.710034609E-1
3.162800156E1,-3.870227098E0,-9.084692955E0,3.014778793E-1
3.164800156E1,-4.097791195E0,-9.098493576E0,2.399373204E-1
3.166800156E1,-3.979077101E0,-9.016793251E0,1.890461743E-1
3.168800156E1,-3.724219084E0,-8.946969032E0,1.941122860E-1
3.170800156E1,-3.758877516E0,-8.995493889E0,3.202484250E-1
3.173000000E1,-3.915802956E0,-8.938953400E0,6.303454041E-1
3.175000156E1,-3.888729572E0,-9.008432388E0,7.954400182E-1
3.177000156E1,-3.896094084E0,-9.007858276E0,3.776039183E-1
3.179200000E1,-3.664862156E0,-9.023909569E0,-1.069633588E-1
3.181200000E1,-3.431915760E0,-9.013719559E0,1.254561692E-1
3.183200156E1,-3.364150286E0,-8.955071449E0,6.357754469E-1
3.185200156E1,-3.489625454E0,-9.089212418E0,6.904973984E-1
3.187200469E1,-3.755171299E0,-9.203387260E0,5.627043843E-1
3.189400156E1,-3.765150309E0,-8.977308273E0,1.991975904E-1
3.191400156E1,-3.712363005E0,-8.834775925E0,1.089840569E-2
3.193400156E1,-3.534473896E0,-8.803833961E0,9.638097882E-2
3.195400156E1,-3.405694246E0,-8.901172638E0,1.612542719E-1
3.197600000E1,-3.502449036E0,-9.297930717E0,-7.286609411E-1
3.199600000E1,-3.740786791E0,-9.375990868E0,-1.467674375E0
3.201600000E1,-3.932591200E0,-9.371106148E0,-1.578142881E0
3.203600156E1,-4.004781246E0,-9.506532669E0,-1.243739843E0
3.205601562E1,-3.773855686E0,-9.362411499E0,-5.224339366E-1
3.207800156E1,-3.298817396E0,-9.214975357E0,-1.939399093E-1
3.210000156E1,-2.950547218E0,-9.211135864E0,-1.126328260E-1
3.212200156E1,-2.833432436E0,-9.230873108E0,-4.655477405E-1
3.214200469E1,-3.332479715E0,-9.330088615E0,-6.125134230E-1
3.216400156E1,-3.814317703E0,-9.181419373E0,-5.188522339E-1
3.218402031E1,-3.622283459E0,-9.193562508E0,-5.267052054E-1
3.220600000E1,-3.486043930E0,-9.275759697E0,-6.109140515E-1
3.222600156E1,-3.662525177E0,-9.243438721E0,-2.744616866E-1
3.224600156E1,-3.734016180E0,-9.145323753E0,-3.176626936E-2
3.226600156E1,-3.700688839E0,-9.007265091E0,5.256709456E-2
3.228800156E1,-3.524322271E0,-8.985352516E0,-1.148259118E-1
3.230800156E1,-3.385583162E0,-9.169333458E0,-2.164549828E-1
3.232800156E1,-3.453932762E0,-9.222934723E0,-2.788766101E-2
3.234800156E1,-3.597038984E0,-9.161968231E0,2.477519959E-2
3.237000000E1,-3.731526136E0,-9.152257919E0,-3.280822337E-1
3.239000000E1,-3.682339668E0,-9.129942894E0,-3.535661399E-1
3.241000000E1,-3.525069237E0,-9.063613892E0,-1.056800634E-1
3.243000000E1,-3.355157614E0,-9.174342155E0,-2.216839343E-1
3.245000156E1,-3.275459528E0,-9.188687325E0,-3.230257034E-1
3.247200000E1,-3.431752920E0,-9.181734085E0,-2.234747857E-1
3.249200625E1,-3.618242264E0,-9.245295525E0,-3.080762923E-1
3.251400156E1,-3.557783604E0,-9.184540749E0,-3.381378949E-1
3.253400156E1,-3.544424057E0,-9.166794777E0,-2.897654474E-1
3.255400156E1,-3.401030540E0,-9.161833763E0,-4.015267491E-1
3.257400156E1,-3.438992977E0,-9.153119087E0,-3.068025708E-1
3.259400156E1,-3.386540890E0,-9.115079880E0,-1.170764640E-1
3.261600156E1,-3.310137033E0,-9.251626015E0,-4.070142657E-2
3.263800156E1,-3.261180401E0,-9.196674347E0,-2.937110960E-1
3.266000156E1,-3.381149054E0,-9.177962303E0,-2.542833686E-1
3.268000156E1,-3.460713148E0,-9.210541725E0,-2.339805514E-1
3.270200938E1,-3.563529730E0,-9.177779198E0,-4.097723961E-1
3.272400156E1,-3.656855822E0,-9.092575073E0,-2.702574730E-1
3.274600156E1,-3.461718798E0,-9.121266365E0,-2.248825878E-1
3.276600156E1,-3.309734821E0,-9.243391037E0,-2.428103685E-1
3.278600781E1,-3.324799061E0,-9.305582047E0,-3.225564361E-1
3.280800000E1,-3.416947365E0,-9.156519890E0,-3.058831990E-1
3.282800000E1,-3.480470181E0,-9.149528503E0,-2.353308648E-1
3.284800156E1,-3.504364252E0,-9.143236160E0,-2.648274601E-1
3.287000000E1,-3.511048794E0,-9.106231689E0,-2.789244950E-1
3.289000000E1,-3.560158730E0,-9.186254501E0,-3.019854426E-1
3.291000000E1,-3.430115223E0,-9.122071266E0,-4.725483656E-1
3.293000000E1,-3.432145596E0,-9.232789040E0,-3.585652113E-1
3.295000156E1,-3.540832758E0,-9.274141312E0,-2.280237675E-1
3.297200156E1,-3.570750713E0,-9.072635651E0,-3.819805384E-1
3.299200156E1,-3.453511477E0,-9.148129463E0,-3.620799184E-1
3.301200156E1,-3.347208977E0,-9.163644791E0,-3.552229404E-1
3.303201250E1,-3.391003609E0,-9.218088150E0,-3.679409325E-1
3.305400000E1,-3.514084816E0,-9.156203270E0,-3.739647269E-1
3.307400156E1,-3.500294209E0,-9.155819893E0,-2.392190546E-1
3.309400156E1,-3.503167152E0,-9.213405609E0,-2.086881995E-1
3.311600156E1,-3.510416746E0,-9.183382034E0,-2.922266722E-1
3.313600156E1,-3.467886209E0,-9.114715576E0,-3.153259158E-1
3.315800000E1,-3.422607183E0,-9.157793045E0,-3.534320593E-1
3.317800156E1,-3.480987310E0,-9.149528503E0,-3.275555074E-1
3.319800156E1,-3.483467817E0,-9.126122475E0,-3.665810227E-1
3.321800156E1,-3.413968801E0,-9.186742783E0,-4.230362773E-1
3.324000156E1,-3.405531645E0,-9.314344406E0,-2.804759443E-1
3.326200938E1,-3.389346838E0,-9.208224297E0,-2.481829524E-1
3.328402031E1,-3.480853319E0,-9.124542236E0,-2.408758402E-1
3.330600000E1,-3.590239525E0,-9.120941162E0,-2.534789145E-1
3.332600156E1,-3.546885252E0,-9.132615089E0,-3.429167271E-1
3.334600156E1,-3.540564775E0,-9.271421432E0,-2.297859043E-1
3.336800000E1,-3.523182631E0,-9.111833572E0,-3.355138600E-1
3.338800000E1,-3.483410120E0,-9.105187416E0,-3.710725307E-1
3.340800000E1,-3.373535633E0,-9.200619698E0,-3.793852031E-1
3.342800156E1,-3.401557446E0,-9.267006874E0,-3.318746686E-1
3.345000156E1,-3.468393803E0,-9.074349403E0,-2.038902193E-1
3.347200000E1,-3.555504322E0,-9.157257080E0,-3.302466273E-1
3.349200156E1,-3.614478588E0,-9.285911560E0,-2.882714570E-1
3.351200156E1,-3.536331892E0,-9.178133965E0,-1.648647338E-1
3.353200156E1,-3.446137190E0,-9.080613136E0,-1.679963320E-1
3.355200625E1,-3.557295322E0,-9.151348114E0,-2.458653599E-1
3.357400000E1,-3.582396269E0,-9.147891045E0,-2.649327815E-1
3.359400156E1,-3.451538563E0,-9.081494331E0,-3.586993217E-1
3.361600156E1,-3.405282736E0,-9.226401329E0,-3.278524280E-1
3.363600156E1,-3.540354013E0,-9.167561531E0,-1.837023050E-1
3.365600156E1,-3.545075178E0,-9.169620514E0,-2.852356136E-1
3.367600156E1,-3.448081255E0,-9.182299614E0,-3.844034374E-1
3.369800156E1,-3.472779989E0,-9.150159836E0,-2.249017358E-1
3.372000000E1,-3.506700993E0,-9.113510132E0,-2.487767041E-1
3.374000156E1,-3.526582479E0,-9.162399292E0,-1.897548586E-1
3.376200781E1,-3.579599619E0,-9.240115166E0,-7.267838717E-2
3.378402031E1,-3.533238173E0,-9.027423859E0,-2.424464375E-1
3.380600000E1,-3.549183846E0,-9.124484062E0,-2.419963330E-1
3.382600156E1,-3.494509697E0,-9.141004562E0,-2.004808784E-1
3.384800156E1,-3.487125874E0,-9.187672615E0,-1.766633540E-1
3.386800156E1,-3.538362026E0,-9.155542374E0,-3.622139990E-1
3.389000156E1,-3.635097265E0,-9.167360306E0,-2.493513227E-1
3.391200156E1,-3.604355812E0,-9.148503304E0,-1.068580076E-1
3.393200156E1,-3.511700153E0,-9.168002129E0,-1.694807410E-1
3.395200156E1,-3.572149038E0,-9.149441719E0,-6.054457277E-2
3.397400156E1,-3.597211361E0,-9.075586319E0,-1.992646158E-1
3.399400156E1,-3.535010099E0,-9.187844276E0,-2.590430677E-1
3.401400156E1,-3.536006212E0,-9.232654572E0,-1.443320662E-1
3.403400156E1,-3.565981388E0,-9.215808868E0,-1.738381982E-1
3.405400156E1,-3.665589809E0,-9.131102562E0,-2.307052761E-1
3.407400156E1,-3.650132895E0,-8.994087219E0,-1.545122117E-1
3.409400156E1,-3.616661787E0,-9.073372841E0,1.435563341E-2
3.411400156E1,-3.472511768E0,-9.200888634E0,-2.030283026E-2
3.413400156E1,-3.414361477E0,-9.156547546E0,-2.608722150E-1
3.415400156E1,-3.612850428E0,-9.182529449E0,-3.126731515E-1
3.417600156E1,-3.685672283E0,-9.078880310E0,-2.214636505E-1
3.419600156E1,-3.591474771E0,-9.132117271E0,-2.445820570E-1
3.421800156E1,-3.453032732E0,-9.193456650E0,-3.242898285E-1
3.424000156E1,-3.375020027E0,-9.172052383E0,-2.096363008E-1
3.426200156E1,-3.450935364E0,-9.172502518E0,-3.247878253E-1
3.428200156E1,-3.529014826E0,-9.258425713E0,-4.245781600E-1
3.430200781E1,-3.511345625E0,-9.189635277E0,-3.233608603E-1
3.432201250E1,-3.514783859E0,-9.118623734E0,-1.868051887E-1
3.434201250E1,-3.488256216E0,-9.190833092E0,-2.465165854E-1
3.436400156E1,-3.497986078E0,-9.140439034E0,-2.814527750E-1
3.438402188E1,-3.510866880E0,-9.125528336E0,-1.218361333E-1
3.440600156E1,-3.497909307E0,-9.118959427E0,-2.843162417E-1
3.442800000E1,-3.468652248E0,-9.175481796E0,-3.552708030E-1
3.444800000E1,-3.428286076E0,-9.153329849E0,-2.849674821E-1
3.446800000E1,-3.423603058E0,-9.150283813E0,-2.303796709E-1
3.448800000E1,-3.424417019E0,-9.254201889E0,-2.726133764E-1
3.450800156E1,-3.470673084E0,-9.223039627E0,-2.828797400E-1
3.453000156E1,-3.430804968E0,-9.169533730E0,-2.450800687E-1
3.455200156E1,-3.515033007E0,-9.187633514E0,-1.720186025E-1
3.457200156E1,-3.620023489E0,-9.159143448E0,-1.281376742E-2
3.459200156E1,-3.557151556E0,-9.081714630E0,-1.493311524E-1
3.461200156E1,-3.469763279E0,-9.145198822E0,-2.673174143E-1
3.463200156E1,-3.456020594E0,-9.221755981E0,-3.232076466E-1
3.465200156E1,-3.468202353E0,-9.141139030E0,-2.822955251E-1
3.467200156E1,-3.408663273E0,-9.185163498E0,-2.720962167E-1
3.469200156E1,-3.390409946E0,-9.252795219E0,-3.376877606E-1
3.471200156E1,-3.500744343E0,-9.193754196E0,-2.100097984E-1
3.473400156E1,-3.565215349E0,-9.145189285E0,-1.306468099E-1
3.475400156E1,-3.556280375E0,-9.112006187E0,-2.238004059E-1
3.477400156E1,-3.488821030E0,-9.134990692E0,-2.577980757E-1
3.479400156E1,-3.354257345E0,-9.110358238E0,-2.943718731E-1
3.481400156E1,-3.336301088E0,-9.233478546E0,-2.203431726E-1
3.483600156E1,-3.508549213E0,-9.208425522E0,-2.109770477E-1
3.485800156E1,-3.603551388E0,-9.087767601E0,-2.061599344E-1
3.488000156E1,-3.534425735E0,-9.143830299E0,-2.881852686E-1
3.490201094E1,-3.474475145E0,-9.255437851E0,-3.035751879E-1
3.492400000E1,-3.441042423E0,-9.174035072E0,-1.440639049E-1
3.494400156E1,-3.420777798E0,-9.158654213E0,-2.102971077E-1
3.496400156E1,-3.487125874E0,-9.081829071E0,-2.805525661E-1
3.498402031E1,-3.626554728E0,-9.256921768E0,-1.374654919E-1
3.500600000E1,-3.571114779E0,-9.128947258E0,-3.000605106E-1
3.502600312E1,-3.432002068E0,-9.221286774E0,-2.221148908E-1
3.504800000E1,-3.349105120E0,-9.170538902E0,-2.864614427E-1
3.506800156E1,-3.461603642E0,-9.115147591E0,-2.298050523E-1
3.509000156E1,-3.602239370E0,-9.063326836E0,-1.852633208E-1
3.511200000E1,-3.569735527E0,-9.242299080E0,-1.973013729E-1
3.513200156E1,-3.574466467E0,-9.265560150E0,-1.558337957E-1
3.515200156E1,-3.601990223E0,-9.173556328E0,-1.227363572E-1
3.517200156E1,-3.566307068E0,-9.100513458E0,-1.038030088E-1
3.519200156E1,-3.443790913E0,-9.057657242E0,-1.609765440E-1
3.521200156E1,-3.491358995E0,-9.130652428E0,-1.202942729E-1
3.523200781E1,-3.606864691E0,-9.189472198E0,-1.557284594E-1
3.525400156E1,-3.588927507E0,-9.125759125E0,-2.310883552E-1
3.527400156E1,-3.483448505E0,-9.226084709E0,-2.463537753E-1
3.529400156E1,-3.407111883E0,-9.257180214E0,-8.100063354E-2
3.531400156E1,-3.451174736E0,-9.176984787E0,-1.589558423E-1
3.533400156E1,-3.507926702E0,-9.134214401E0,-2.109291703E-1
3.535600000E1,-3.473143816E0,-9.065166473E0,-1.760408580E-1
3.537600000E1,-3.492029190E0,-9.154105186E0,-1.069633588E-1
3.539600156E1,-3.673979044E0,-9.328413010E0,-1.687433384E-2
3.541800000E1,-3.630375862E0,-9.072031975E0,-2.886162400E-1
3.543800156E1,-3.440716743E0,-9.137614250E0,-3.576937318E-1
3.546000000E1,-3.347467422E0,-9.232118607E0,-1.840279251E-1
3.548000000E1,-3.425451517E0,-9.183773994E0,-2.941995114E-2
3.550000000E1,-3.519897938E0,-9.106777191E0,-1.779274940E-1
3.552000000E1,-3.540976286E0,-9.164573669E0,-2.568020523E-1
3.554000156E1,-3.544845343E0,-9.280864716E0,-1.289708614E-1
3.556200313E1,-3.499393940E0,-9.148311615E0,-2.168188989E-2
3.558200625E1,-3.518872976E0,-9.109525681E0,-5.801629648E-2
3.560400156E1,-3.603197098E0,-9.134339333E0,-1.353777498E-1
3.562400156E1,-3.572713852E0,-9.119945526E0,-2.186480761E-1
3.564400156E1,-3.493896723E0,-9.163356781E0,-2.399851978E-1
3.566400156E1,-3.537528753E0,-9.230270386E0,-1.575767845E-1
3.568402031E1,-3.581246853E0,-9.165521622E0,1.742978813E-3
3.570600000E1,-3.514621019E0,-9.104038239E0,-5.987419561E-2
3.572600156E1,-3.449652195E0,-9.184301376E0,-1.977897882E-1
3.574800000E1,-3.506835222E0,-9.175721169E0,-1.294401288E-1
3.576800000E1,-3.579456091E0,-9.117991447E0,4.118026700E-3
3.578800000E1,-3.640527248E0,-9.070184708E0,-4.954082146E-2
3.580800000E1,-3.672245502E0,-9.186350822E0,-4.558560252E-2
3.582800000E1,-3.640661478E0,-9.146731377E0,-6.321649998E-2
3.584800156E1,-3.652948380E0,-9.086426735E0,2.119347453E-2
3.586800156E1,-3.558607340E0,-9.144997597E0,-5.067088455E-2
3.589000156E1,-3.374454737E0,-9.147612572E0,-1.731678098E-1
3.591200156E1,-3.449096441E0,-9.184377670E0,-3.867689073E-1
3.593200156E1,-3.630146027E0,-9.154661179E0,-3.585077524E-1
3.595200156E1,-3.761760235E0,-9.087823868E0,-1.771709323E-1
3.597200156E1,-3.709997654E0,-9.121190071E0,-1.611680686E-1
3.599200156E1,-3.557391167E0,-9.111373901E0,-1.705916524E-1
3.601400156E1,-3.593380690E0,-9.113806725E0,-3.019375503E-1
3.603600156E1,-3.742759705E0,-9.259555817E0,-4.273554385E-1
3.605800000E1,-3.614823341E0,-9.172809601E0,-6.244078279E-3
3.607800156E1,-3.451548100E0,-9.064600945E0,9.422620386E-2
3.610000156E1,-3.412810087E0,-9.097851753E0,-8.541554213E-2
3.612200156E1,-3.509162426E0,-9.167886734E0,-8.012913913E-2
3.614400000E1,-3.528421164E0,-9.193897247E0,-1.525010616E-1
3.616400156E1,-3.533334255E0,-9.130958557E0,-1.812506467E-1
3.618402031E1,-3.660408735E0,-9.155466080E0,-1.311256438E-1
3.620600000E1,-3.632616997E0,-9.114706993E0,-1.698734015E-1
3.622600156E1,-3.584646702E0,-9.158999443E0,-5.042188615E-2
3.624800000E1,-3.566488981E0,-9.127012253E0,-1.050671488E-1
3.626800000E1,-3.641705275E0,-9.160100937E0,-1.317481399E-1
3.628800156E1,-3.608425856E0,-9.110042572E0,-6.562028080E-2
3.631000156E1,-3.484109402E0,-9.067569733E0,6.742072292E-3
3.633000156E1,-3.444586039E0,-9.074704170E0,4.957912862E-2
3.635201562E1,-3.499336481E0,-9.084041595E0,7.694964856E-2
3.637400156E1,-3.603953600E0,-9.159056664E0,-7.556100190E-2
3.639400156E1,-3.677666187E0,-9.242145538E0,-1.605743319E-1
3.641600000E1,-3.787655830E0,-9.109612465E0,6.588842720E-3
3.643600000E1,-3.772716045E0,-8.996423721E0,2.647029236E-2
3.645600000E1,-3.671201944E0,-9.054363251E0,-1.973301023E-1
3.647600000E1,-3.555916309E0,-9.149040222E0,-2.910487354E-1
3.649600000E1,-3.570252657E0,-9.133237839E0,-6.455725431E-2
3.651600000E1,-3.611576557E0,-9.089222908E0,9.992440045E-2
3.653600156E1,-3.573968410E0,-9.097726822E0,-1.067335159E-1
3.655600156E1,-3.504527092E0,-9.220990181E0,-2.311075032E-1
3.657800156E1,-3.599423647E0,-9.254825592E0,-2.109387517E-1
3.660000156E1,-3.733738184E0,-9.132931709E0,-1.000489071E-1
3.662200938E1,-3.499499321E0,-8.931148529E0,-2.309063822E-1
3.664400156E1,-3.534128904E0,-9.197661400E0,3.999274597E-2
3.666400156E1,-3.695450544E0,-9.209363937E0,-1.300721914E-1
3.668402031E1,-3.828232765E0,-9.149480820E0,-3.010852337E-1
3.670600156E1,-3.762823343E0,-9.077222824E0,-2.014672905E-1
3.672800000E1,-3.571076393E0,-9.009151459E0,-2.347275428E-2
3.674800000E1,-3.474350691E0,-9.053797722E0,3.763685003E-3
3.676800000E1,-3.469341755E0,-9.178325653E0,5.659892783E-2
3.678800156E1,-3.575462341E0,-9.280299187E0,7.315722853E-2
3.681000156E1,-3.620799065E0,-9.252038002E0,-1.379634887E-1
3.683200156E1,-3.539635658E0,-9.226707458E0,-1.012172699E-1
3.685200156E1,-3.551051378E0,-9.153157234E0,-1.203804612E-1
3.687200156E1,-3.627138853E0,-9.188696861E0,-3.116005659E-1
3.689200156E1,-3.702450991E0,-9.260934830E0,-4.226723611E-1
3.691200781E1,-4.003067017E0,-9.601400375E0,-1.238568425E-1
3.693400156E1,-4.121857643E0,-9.203963280E0,-4.362809956E-1
3.695400156E1,-3.762583733E0,-8.576375008E0,-4.307743609E-1
3.697600156E1,-3.649769068E0,-8.732946396E0,1.761557758E-1
3.699800156E1,-3.722217560E0,-9.095476151E0,6.492978930E-1
3.702000156E1,-3.756856680E0,-9.156480789E0,2.935961485E-1
3.704004375E1,-3.579206944E0,-8.847639084E0,1.100470871E-1
3.706201250E1,-3.621718407E0,-8.940169334E0,6.189873219E-1
3.708402031E1,-3.683594227E0,-8.999219894E0,3.910976350E-1
3.710600156E1,-3.746925831E0,-9.204977989E0,8.943779767E-2
3.712600156E1,-3.557257175E0,-9.113575935E0,6.220135838E-2
3.714800156E1,-3.472913980E0,-9.110828400E0,1.164539754E-1
3.717000156E1,-3.661912441E0,-9.022568703E0,4.016512632E-2
3.719200156E1,-3.788211107E0,-8.960740089E0,-1.208880320E-1
3.721200156E1,-3.649137020E0,-9.188524246E0,-3.164177015E-2
3.723200156E1,-3.520798206E0,-9.257534981E0,-1.263180841E-2
3.725400000E1,-3.804261923E0,-9.175165176E0,-2.958275564E-2
3.727400156E1,-3.934200287E0,-8.965528488E0,1.161187813E-1
3.729400156E1,-3.762057066E0,-8.907905579E0,9.308656305E-2
3.731400156E1,-3.674065351E0,-9.002140999E0,1.609190851E-1
3.733400156E1,-3.510723352E0,-9.002725601E0,3.483084589E-2
3.735600000E1,-3.373181105E0,-9.121726990E0,3.071090281E-1
3.737600000E1,-3.342372656E0,-9.119590759E0,6.018065214E-1
3.739600156E1,-3.394096851E0,-9.139625549E0,1.167412698E-1
3.741800000E1,-3.596110106E0,-9.307870865E0,-9.553822130E-2
3.743800156E1,-3.785386324E0,-9.252153397E0,9.343133122E-2
3.746000156E1,-3.759413719E0,-8.939681053E0,-1.864221245E-1
3.748200156E1,-3.627770901E0,-9.343112946E0,-3.750660717E-1
3.750200781E1,-3.585096598E0,-9.375789642E0,-1.231577396E-1
3.752400312E1,-3.583631516E0,-9.286293983E0,-1.770943105E-1
3.754600156E1,-3.467426538E0,-9.251597404E0,-2.026260793E-1
3.756800156E1,-3.483927488E0,-9.111432076E0,1.173158828E-2
3.759000000E1,-3.589703083E0,-8.922490120E0,-6.362830102E-2
3.761000156E1,-3.533133030E0,-9.042401314E0,4.687846825E-2
3.763200625E1,-3.499374866E0,-9.134138107E0,1.003362015E-1
3.765400312E1,-3.505685806E0,-9.173766136E0,4.193683714E-2
3.767600000E1,-3.571746826E0,-9.200687408E0,2.883576602E-2
3.769600156E1,-3.707498074E0,-9.219515800E0,9.162130952E-2
3.771800000E1,-3.664603472E0,-9.102324486E0,-8.405563235E-2
3.773800000E1,-3.533679008E0,-9.191703796E0,-1.594634056E-1
3.775800000E1,-3.507831097E0,-9.117837906E0,-1.289708614E-1
3.777800156E1,-3.543504715E0,-9.109784126E0,7.430644333E-2
3.780000000E1,-3.591829300E0,-9.081360817E0,1.271512657E-1
3.782000000E1,-3.554642677E0,-9.192594528E0,-1.096448600E-1
3.784000000E1,-3.505637884E0,-9.227282524E0,-2.593686581E-1
3.786000000E1,-3.560676098E0,-9.154593468E0,-2.026643902E-1
3.788000156E1,-3.564353466E0,-9.141166687E0,3.137362003E-2
3.790200625E1,-3.558396816E0,-9.179608345E0,9.827718884E-2
3.792400156E1,-3.579781771E0,-9.131705284E0,1.020600274E-1
3.794400156E1,-3.764585257E0,-9.245429993E0,8.722555637E-2
3.796400156E1,-3.857930422E0,-9.233191490E0,1.706970036E-1
3.798402031E1,-3.681679010E0,-9.206912041E0,-5.698200315E-2
3.800600000E1,-3.419465780E0,-8.982709885E0,-1.765005477E-2
3.802600938E1,-3.473622799E0,-8.855214119E0,3.734667301E-1
3.804800156E1,-3.601511478E0,-8.885006905E0,4.604432881E-1
3.806800156E1,-3.666279316E0,-9.006804466E0,2.022430152E-1
3.808800156E1,-3.619132757E0,-9.140736580E0,-3.543418716E-4
3.810800312E1,-3.657124043E0,-9.157008171E0,2.473689318E-1
3.813000156E1,-3.754970312E0,-9.113949776E0,1.592335701E-1
3.815200156E1,-3.675597668E0,-9.187624931E0,4.299986176E-3
3.817200938E1,-3.560695171E0,-9.147498131E0,7.340622693E-2
3.819400156E1,-3.621450424E0,-9.207821846E0,1.137245819E-1
3.821600000E1,-3.720474720E0,-9.116458893E0,1.112824958E-2
3.823600000E1,-3.702719212E0,-9.009974480E0,3.361459449E-2
3.825600156E1,-3.623528481E0,-9.047362328E0,3.786669672E-2
3.827800156E1,-3.498761892E0,-9.043263435E0,9.948386997E-2
3.829800156E1,-3.599298954E0,-9.091971397E0,1.089074463E-1
3.832000156E1,-3.642615080E0,-9.074206352E0,6.174167246E-2
3.834200156E1,-3.628297806E0,-9.291034698E0,-1.787989773E-2
3.836200156E1,-3.659470320E0,-9.229839325E0,6.008488312E-2
3.838200313E1,-3.770139933E0,-9.173584938E0,-4.909071326E-2
3.840400000E1,-3.688277245E0,-9.153214455E0,-1.532289088E-1
3.842400000E1,-3.624390364E0,-9.150773048E0,1.188673228E-1
3.844400156E1,-3.580298901E0,-8.952150345E0,2.731305361E-1
3.846400156E1,-3.547996283E0,-9.040113449E0,-3.714843467E-2
3.848402656E1,-3.466813803E0,-9.161182404E0,-2.324099392E-1
3.850600000E1,-3.538505554E0,-9.312324524E0,2.059013350E-3
3.852600156E1,-3.659498930E0,-9.259613037E0,-8.327991515E-2
3.854600156E1,-3.661538839E0,-9.037698746E0,1.862688735E-2
3.856800156E1,-3.565378189E0,-9.145074844E0,-6.224924582E-4
3.859000000E1,-3.578536510E0,-9.126035690E0,1.100566611E-1
3.861000156E1,-3.553177357E0,-9.155282974E0,-1.130637825E-1
3.863201250E1,-3.592413664E0,-9.129138947E0,-1.968895793E-1
3.865400156E1,-3.488897800E0,-9.192604065E0,-2.901772559E-1
3.867600000E1,-3.528785229E0,-9.205781937E0,-2.174318284E-1
3.869600156E1,-3.577512026E0,-9.132662773E0,1.911530644E-2
3.871800156E1,-3.457304001E0,-9.221220016E0,-2.428486645E-1
3.874000156E1,-3.543332338E0,-9.236293793E0,-3.027228713E-1
3.876200156E1,-3.644406080E0,-9.181121826E0,-4.452161491E-1
3.878402188E1,-3.604978323E0,-9.210953712E0,7.661445416E-4
3.880600000E1,-3.480872393E0,-9.181485176E0,-1.713290811E-2
3.882600156E1,-3.576621294E0,-9.206740379E0,-1.449353993E-1
3.884600156E1,-3.804625988E0,-9.134607315E0,-7.902780920E-2
3.886600156E1,-3.735519886E0,-8.888262749E0,4.812345654E-2
3.888800000E1,-3.553158283E0,-8.935035706E0,-1.169423908E-1
3.890800000E1,-3.518691063E0,-9.134263039E0,1.560540646E-1
3.892800156E1,-3.527453899E0,-9.074033737E0,3.306105435E-1
3.895000156E1,-3.456614256E0,-9.220827103E0,-5.853344500E-2
3.897200000E1,-3.488093376E0,-9.348946571E0,3.213018924E-2
3.899200156E1,-3.477606773E0,-9.255341530E0,4.606444016E-2
3.901200781E1,-3.367799044E0,-9.135277748E0,2.341050357E-1
3.903400156E1,-3.450063705E0,-9.097104073E0,3.951964974E-1
3.905400156E1,-3.580384970E0,-9.079339981E0,5.382165685E-2
3.907600000E1,-3.510359287E0,-9.051451683E0,-1.079306081E-1
3.909600000E1,-3.503109694E0,-9.126132011E0,4.982812330E-2
3.911600156E1,-3.574887991E0,-9.207726479E0,2.090616897E-2
3.913800156E1,-3.564516068E0,-9.182950974E0,-1.934227645E-1
3.916000000E1,-3.478190899E0,-9.297327042E0,-1.746043414E-1
3.918000000E1,-3.455331087E0,-9.293716431E0,4.280832782E-2
3.920001406E1,-3.478583574E0,-9.139281273E0,6.138733588E-3
3.922200000E1,-3.313536882E0,-9.088370323E0,-1.025292948E-1
3.924200000E1,-3.512705803E0,-9.213193893E0,1.481915116E-1
3.926200156E1,-3.658234835E0,-9.114209175E0,1.277258694E-1
3.928200156E1,-3.807709694E0,-9.102965355E0,7.834785432E-2
3.930400156E1,-3.705649614E0,-8.823897362E0,1.304552555E-1
3.932400156E1,-3.671584845E0,-9.165827751E0,3.117920756E-1
3.934400156E1,-3.507879019E0,-9.162610054E0,-4.317224398E-2
3.936400156E1,-3.468834162E0,-9.259651184E0,-3.339815736E-1
3.938402188E1,-3.506662846E0,-9.156547546E0,-1.972439140E-1
3.940600156E1,-3.447458982E0,-9.149413109E0,-1.558816880E-1
3.942600156E1,-3.544950724E0,-9.203215599E0,-1.340848655E-1
3.944800000E1,-3.751388311E0,-9.131523132E0,9.155427106E-3
3.946800156E1,-3.661165237E0,-9.099326134E0,-7.020757347E-2
3.949000000E1,-3.429674864E0,-9.299826622E0,-4.466622695E-2
3.951000156E1,-3.414275408E0,-9.232253075E0,3.895844892E-2
3.953000156E1,-3.568270206E0,-9.240037918E0,1.562647521E-1
3.955200156E1,-3.534387589E0,-9.174734116E0,1.664448902E-2
3.957400156E1,-3.603024721E0,-9.119265556E0,1.859720200E-1
3.959400156E1,-3.710284948E0,-9.071476936E0,9.276095033E-2
3.961400156E1,-3.574686766E0,-9.143302917E0,-5.046019331E-2
3.963400156E1,-3.415606499E0,-9.159113884E0,-2.202665433E-2
3.965400156E1,-3.581859827E0,-9.164649010E0,2.349478006E-1
3.967600000E1,-3.690001249E0,-8.936165810E0,-1.279269904E-1
3.969600156E1,-3.573614359E0,-9.229130745E0,-1.218552962E-1
3.971600469E1,-3.416324615E0,-9.430673599E0,2.456546724E-1
3.973800000E1,-3.434041739E0,-9.204997063E0,3.150482178E-1
3.975800000E1,-3.648935795E0,-9.041223526E0,3.031825423E-1
3.977800000E1,-3.848008871E0,-9.053175926E0,2.134670317E-1
3.979800000E1,-3.783499479E0,-8.961660385E0,5.408022553E-2
3.981800000E1,-3.531792164E0,-9.019340515E0,-2.191173285E-2
3.983800000E1,-3.402438164E0,-8.977509499E0,2.625960298E-2
3.985800000E1,-3.534923792E0,-9.064179420E0,2.751416564E-1
3.987800000E1,-3.578862190E0,-9.245008469E0,6.277596951E-2
3.989800000E1,-3.463864088E0,-9.394865990E0,-2.365950197E-1
3.991800000E1,-3.374655962E0,-9.159229279E0,-2.149609923E-1
3.993800000E1,-3.578728199E0,-9.187940598E0,2.015917748E-2
3.995800000E1,-3.737367868E0,-9.211375237E0,2.692806423E-1
3.997800000E1,-3.714546442E0,-9.248332024E0,9.269391745E-2
3.999800000E1,-3.619899035E0,-9.145687103E0,-3.887225688E-2
4.001800000E1,-3.539003611E0,-9.058040619E0,-4.272213206E-2
4.003800000E1,-3.536408186E0,-9.040468216E0,-8.783847094E-2
4.005800000E1,-3.489826679E0,-9.122473717E0,6.117664278E-2
4.007800000E1,-3.484061480E0,-9.259115219E0,1.165880412E-1
4.009800000E1,-3.555782318E0,-9.252259254E0,-2.202569693E-1
4.011800000E1,-3.702479839E0,-9.053510666E0,-2.540726662E-1
4.013800000E1,-3.763541460E0,-9.026044846E0,-1.307329834E-1
4.015800000E1,-3.804922819E0,-9.201855659E0,8.459193259E-2
4.017800000E1,-3.766998529E0,-9.054602623E0,2.185810357E-1
4.019800000E1,-3.587960243E0,-9.015921593E0,8.698613942E-2
4.021800000E1,-3.418728590E0,-9.195391655E0,1.830702424E-1
4.023800000E1,-3.413336754E0,-9.175970078E0,2.282057405E-1
4.025800000E1,-3.494222403E0,-9.037287712E0,2.186193317E-1
4.027800156E1,-3.521133184E0,-9.082643509E0,2.309447080E-1
4.030000000E1,-3.532816887E0,-9.122453690E0,9.172665328E-2
4.032000000E1,-3.585000992E0,-9.177281380E0,6.715257466E-2
4.034000000E1,-3.643965244E0,-9.194299698E0,-8.025364019E-3
4.036000000E1,-3.648868561E0,-9.205677032E0,-9.062532336E-2
4.038000000E1,-3.613041878E0,-9.155819893E0,-5.314170197E-2
4.040000000E1,-3.573604584E0,-9.202315331E0,3.016694076E-2
4.042000000E1,-3.490516186E0,-9.275721550E0,-2.123178169E-2
4.044000000E1,-3.378180265E0,-9.173853874E0,-1.393138170E-1
4.046000000E1,-3.572886229E0,-9.052207947E0,-5.225105584E-2
4.048000000E1,-3.806196451E0,-9.102525711E0,5.438668281E-2
4.050000000E1,-3.718137741E0,-9.215138435E0,-7.044699043E-2
4.052000000E1,-3.380698919E0,-9.203560829E0,-3.561614454E-2
4.054000000E1,-3.313938856E0,-9.014428139E0,5.211698264E-2
4.056000000E1,-3.572713852E0,-9.021859169E0,2.616479397E-1
4.058000156E1,-3.609689951E0,-9.092326164E0,1.991209686E-1
4.060000156E1,-3.567494631E0,-9.281535149E0,1.295741927E-2
4.062200156E1,-3.456307888E0,-9.237385750E0,-1.639549285E-1
4.064200625E1,-3.608751535E0,-9.156759262E0,9.883265197E-2
4.066400156E1,-3.774688721E0,-9.044825554E0,1.707832068E-1
4.068402031E1,-3.645172119E0,-9.056116104E0,-8.187212050E-2
4.070600156E1,-3.353031397E0,-9.133141518E0,-8.397901803E-2
4.072600156E1,-3.145780087E0,-9.229187965E0,1.679771952E-2
4.074800156E1,-3.268803358E0,-9.348103523E0,4.657201096E-2
4.076800156E1,-3.614564657E0,-9.236580849E0,1.221521646E-1
4.078800156E1,-3.838795900E0,-9.082624435E0,8.170931041E-2
4.081000156E1,-3.745336056E0,-9.085018158E0,2.531149983E-2
4.083200156E1,-3.497277260E0,-9.071476936E0,7.747636735E-2
4.085200156E1,-3.423650980E0,-9.123670578E0,1.742978841E-1
4.087200156E1,-3.485775709E0,-9.242613792E0,1.307234168E-1
4.089200156E1,-3.477616310E0,-9.226669312E0,-1.092043296E-1
4.091200156E1,-3.546176672E0,-9.117588997E0,-7.251557708E-2
4.093200625E1,-3.660887718E0,-9.103846550E0,1.145864949E-1
4.095400156E1,-3.725061655E0,-9.193772316E0,2.256008387E-1
4.097400156E1,-3.611260414E0,-9.130335808E0,1.881938279E-1
4.099600000E1,-3.497086048E0,-9.027260780E0,1.211561784E-1
4.101600000E1,-3.565952539E0,-9.093340874E0,9.569144994E-2
4.103600000E1,-3.534732342E0,-9.142374039E0,5.227978900E-2
4.105600000E1,-3.571593523E0,-9.344377518E0,8.327991515E-2
4.107600000E1,-3.544701815E0,-9.277195930E0,1.134851668E-2
4.109600000E1,-3.542288542E0,-9.105569839E0,-2.078166930E-3
4.111600000E1,-3.594922543E0,-9.129368782E0,-1.206677640E-3
4.113600000E1,-3.569352627E0,-9.180145264E0,1.025867537E-1
4.115600000E1,-3.476926804E0,-9.158923149E0,2.480393089E-2
4.117600000E1,-3.437566280E0,-9.117503166E0,9.152553976E-2
4.119600000E1,-3.531054974E0,-9.083428383E0,5.130295455E-2
4.121600000E1,-3.557525158E0,-9.116593361E0,-2.095405385E-2
4.123600000E1,-3.490822792E0,-9.218605042E0,8.190084994E-2
4.125600000E1,-3.468106508E0,-9.307420731E0,1.440830529E-1
4.127600000E1,-3.569764376E0,-9.208731651E0,3.240791336E-2
4.129600000E1,-3.716299057E0,-9.092191696E0,-1.343626063E-2
4.131600000E1,-3.800881386E0,-9.002026558E0,-6.709510833E-2
4.133600000E1,-3.719756365E0,-8.997017860E0,1.672397703E-1
4.135600000E1,-3.672801256E0,-8.865536690E0,3.285802305E-1
4.137600000E1,-3.836622000E0,-9.127405167E0,1.864795834E-1
4.139600000E1,-4.044668674E0,-9.126399994E0,3.327269852E-1
4.141600000E1,-3.890615940E0,-8.812098503E0,7.358914018E-1
4.143600000E1,-3.255472660E0,-9.003309250E0,8.084357381E-1
4.145600000E1,-2.678546667E0,-9.496074677E0,2.128062248E-1
4.147600000E1,-2.712113380E0,-9.623627663E0,1.609861106E-2
4.149600000E1,-3.064367533E0,-9.277254105E0,3.643975034E-2
4.151600000E1,-3.678987741E0,-9.279734612E0,-3.859453136E-3
4.153600000E1,-4.200205803E0,-9.201654434E0,-3.530968726E-2
4.155600000E1,-4.295083046E0,-8.930841446E0,-2.297188789E-1
4.157600000E1,-3.951294661E0,-8.991749763E0,-1.431062222E-1
4.159600000E1,-3.752221584E0,-9.085727692E0,5.597643554E-2
4.161600000E1,-3.558549881E0,-9.051566124E0,2.324769944E-1
4.163600000E1,-3.228705645E0,-9.260887146E0,3.225564361E-1
4.165600000E1,-3.159934282E0,-9.377579689E0,4.018428028E-1
4.167600000E1,-3.394432068E0,-9.126898766E0,2.269894779E-1
4.169600000E1,-3.620262623E0,-9.019121170E0,2.527989745E-1
4.171600000E1,-3.739072800E0,-9.055512428E0,2.195099890E-1
4.173600000E1,-3.811731815E0,-9.138026237E0,1.021749526E-1
4.175600000E1,-3.607094765E0,-9.155886650E0,-1.535162143E-2
4.177600000E1,-3.503100157E0,-9.246407509E0,-1.203804612E-1
4.179600000E1,-3.540210247E0,-9.150830269E0,8.901641518E-2
4.181600000E1,-3.523939133E0,-9.032911301E0,2.352542579E-1
4.183600000E1,-3.542470455E0,-9.114515305E0,1.502409577E-1
4.185600000E1,-3.472310781E0,-9.289281845E0,-6.512228400E-3
4.187600000E1,-3.530949354E0,-9.208990097E0,-1.574427076E-2
4.189600000E1,-3.626583576E0,-9.080459595E0,-4.686889425E-2
4.191600000E1,-3.623423100E0,-9.234819412E0,-1.377815306E-1
4.193600000E1,-3.577521563E0,-9.129234314E0,-3.877649084E-2
4.195600000E1,-3.591829300E0,-9.018833160E0,2.354745269E-1
4.197600000E1,-3.545783997E0,-9.155934334E0,1.850239001E-2
4.199600000E1,-3.636715889E0,-9.159785271E0,1.659277529E-1
4.201600000E1,-3.639531136E0,-9.214534760E0,-2.484223805E-2
4.203600000E1,-3.509554863E0,-9.136771202E0,1.031900942E-1
4.205600000E1,-3.479272842E0,-9.039069176E0,1.497525275E-1
4.207600000E1,-3.638276815E0,-9.097104073E0,1.014854237E-1
4.209600000E1,-3.665292978E0,-9.100379944E0,-1.878011972E-2
4.211600156E1,-3.554144621E0,-9.165033340E0,-7.958326489E-2
4.213800000E1,-3.561240911E0,-9.293830872E0,2.103641331E-1
4.215800000E1,-3.558683872E0,-9.061679840E0,2.500791550E-1
4.217800000E1,-3.583612204E0,-8.982413292E0,1.912775636E-1
4.219800000E1,-3.626190901E0,-9.153415680E0,5.615839362E-2
4.221800000E1,-3.599749327E0,-9.234215736E0,9.547118098E-2
4.223800000E1,-3.481284142E0,-9.141560555E0,-1.158793573E-3
4.225800000E1,-3.455388546E0,-9.069743156E0,1.966118440E-2
4.227800000E1,-3.594175577E0,-9.220645905E0,1.130637825E-1
4.229800000E1,-3.709690809E0,-9.222512245E0,1.437382996E-1
