"Time (s)","Gyroscope x (rad/s)","Gyroscope y (rad/s)","Gyroscope z (rad/s)"
1.508588120E-1,2.746973634E-1,-6.929131746E-1,4.709247351E-1
1.728525620E-1,-1.262745708E-1,-3.640407622E-1,1.920909435E-1
1.928603750E-1,-5.848773122E-1,-9.369450808E-1,-5.564458966E-1
2.148556870E-1,-9.613622427E-1,-1.183333278E0,-7.696552873E-1
2.368525620E-1,-8.786685467E-1,-1.182478070E0,-1.451590359E-1
2.588541250E-1,-7.000690103E-1,-1.169527650E0,-2.151990868E-2
2.808510000E-1,-4.353898466E-1,-3.053278923E-1,-3.571467102E-1
3.008525620E-1,-5.363397002E-1,-6.187715530E-1,-6.053848863E-1
3.228525620E-1,-5.233369470E-1,-3.316125572E-1,-4.237310290E-1
3.448525620E-1,-3.677059710E-1,-4.522497058E-1,-7.564257085E-2
3.648525620E-1,1.124341115E-1,-2.508212626E-1,-5.836381018E-2
3.848728750E-1,3.463082314E-1,2.875255346E-1,2.174331248E-1
4.068510000E-1,7.168765068E-1,9.244136214E-1,5.086238384E-1
4.268603750E-1,1.196458101E0,9.074141383E-1,5.228483081E-1
4.488510000E-1,6.191729903E-1,-4.924795628E-1,7.718369365E-1
4.688510000E-1,1.999972761E-1,-6.303780079E-1,7.616617084E-1
4.888510000E-1,3.442487419E-1,-4.880987704E-1,-2.428974658E-1
5.088525620E-1,8.422958851E-2,-2.356491089E0,-9.090198278E-1
5.308510000E-1,2.757969201E-1,-3.486155510E0,-6.009517908E-1
5.508510000E-1,6.405707598E-1,-3.761708021E0,-3.111921996E-2
5.708510000E-1,1.028470159E0,-3.386811495E0,5.593780279E-1
5.908525620E-1,8.917061687E-1,-4.147879601E0,7.184822559E-1
6.108525620E-1,4.456174672E-1,-4.627635956E0,6.703286171E-1
6.328525620E-1,2.055299729E-1,-3.975703001E0,1.305593491E0
6.528525620E-1,-2.341359109E-1,-3.047571659E0,2.444543123E0
6.748510000E-1,-8.833460212E-1,-2.522594213E0,3.418506622E0
6.948510000E-1,-1.674015045E0,-2.397035122E0,3.387579441E0
7.148525620E-1,-2.200633287E0,-1.993043780E0,3.030118465E0
7.348525620E-1,-1.725554705E0,-1.880662084E0,2.932048321E0
7.548525620E-1,-1.325437903E0,-1.537041664E0,3.179064751E0
7.748525620E-1,-1.425305724E0,-1.037493467E0,3.124732733E0
7.948525620E-1,-1.396926641E0,-1.160190105E0,2.499939680E0
8.168525620E-1,-7.630056143E-1,-1.999065161E0,2.226726055E0
8.388525620E-1,-1.054527909E-1,-2.208120823E0,2.164487600E0
8.608510000E-1,5.178566575E-1,-1.945797801E0,2.066452265E0
8.808510000E-1,1.282956600E0,-2.190109015E0,1.970162511E0
9.008510000E-1,1.865722060E0,-2.834746361E0,1.730633616E0
9.208510000E-1,2.064759493E0,-3.323071957E0,1.299467444E0
9.408525620E-1,1.972693324E0,-3.191491604E0,1.143906236E0
9.628525620E-1,1.958067417E0,-2.875133276E0,1.130903482E0
9.828556870E-1,2.364851236E0,-2.776522160E0,8.417548537E-1
1.004852562E0,2.830766916E0,-2.448400259E0,4.007973969E-1
1.024852562E0,3.003432274E0,-2.055282354E0,3.804817796E-3
1.044858812E0,2.939204216E0,-1.884554148E0,-3.665365875E-1
1.066852562E0,2.495367050E0,-1.598739028E0,-7.901803851E-1
1.088851000E0,7.780154347E-1,-7.004704475E-1,-5.939878821E-1
1.108851000E0,-5.690122247E-1,1.015781611E-1,-1.570796408E-2
1.128852562E0,-5.365142226E-2,-6.252816319E-1,-1.938362718E-1
1.148852562E0,5.720491409E-1,-1.317985415E0,-6.332578063E-1
1.170851000E0,1.158514619E0,-2.591639459E-1,-9.465269446E-1
1.190852562E0,1.107550979E0,-2.410299629E-1,-8.724901080E-1
1.212851000E0,8.095884323E-1,-4.278325438E-1,-1.254752159E0
1.232857250E0,8.265181184E-1,7.843509316E-2,-1.272781372E0
1.254852562E0,8.986874819E-1,6.092944145E-1,-2.661801577E-1
1.274852562E0,4.948183000E-1,2.239082903E-1,3.650006950E-1
1.294852562E0,3.281393647E-1,-2.714161575E-1,5.834460855E-1
1.316851000E0,1.021820426E0,-1.415078044E0,1.140834451E0
1.336851000E0,1.600362182E0,-1.974560738E0,7.421314716E-1
1.356852562E0,9.038013220E-1,-2.296102762E0,5.997649431E-1
1.376852562E0,-1.409527957E-1,-1.866193295E0,6.716026664E-1
1.398851000E0,-1.207750440E0,-1.594410658E0,2.426705807E-1
1.418852562E0,-8.161508441E-1,6.671870351E-1,1.686459303E0
1.440852562E0,-2.737723589E-1,6.217386127E-1,3.272736788E0
1.462858812E0,-4.470835328E-1,-1.667312980E-1,4.194323063E0
1.484876000E0,-5.890486240E-1,3.648087084E-1,5.122384071E0
1.506851000E0,2.161939293E-1,-1.014908910E0,5.000629902E0
1.526852562E0,8.766963482E-1,-3.560052872E0,3.482193708E0
1.548852562E0,2.149041414E0,-1.883978248E0,2.014144897E0
1.570851000E0,2.804621935E0,1.952691793E0,3.322042227E0
1.590852562E0,2.129371405E0,2.237564564E0,5.113727570E0
1.612852562E0,1.293899894E0,7.335095406E-1,6.212202549E0
1.634852562E0,8.919330835E-1,2.146405876E-1,6.048054695E0
1.654852562E0,1.240754604E0,5.949652791E-1,6.565160751E0
1.676852562E0,1.819086909E0,8.444775343E-1,6.929201603E0
1.696852562E0,2.395080328E0,1.006496429E0,6.560500622E0
1.718851000E0,2.166913509E0,-5.503721237E-1,6.486515999E0
1.738851000E0,-2.684316412E-2,-3.868853807E0,3.006050348E0
1.758851000E0,-1.655340075E0,-5.231205463E0,-6.144605875E-1
1.778852562E0,-1.272030830E0,-3.618433952E0,-1.511489987E0
1.800852562E0,5.060756803E-1,-1.929269552E0,-1.853923678E0
1.822858812E0,2.371832609E0,-8.974483013E-1,-1.335176826E0
1.844851000E0,2.058929920E0,1.046202660E0,-2.715208828E-1
1.864852562E0,1.153296113E0,1.674713254E0,-8.718966842E-1
1.884871312E0,9.305222631E-1,1.582542419E0,3.764849603E-1
1.906852562E0,2.371204346E-1,1.976847172E0,4.034852087E-1
1.926852562E0,-3.649657965E-1,2.169810772E0,2.955366075E-1
1.946852562E0,-9.757263064E-1,2.062333345E0,1.694889218E-1
1.968851000E0,-2.288144112E0,2.199656010E0,1.692445725E-1
1.988852562E0,-3.441667080E0,2.216655493E0,1.582839042E-1
2.010852562E0,-3.554799318E0,1.248451471E0,-2.572615445E-1
2.032852562E0,-3.178768158E0,2.092824280E-1,-6.190508008E-1
2.052852562E0,-2.650404692E0,-5.816135406E-1,-6.098180413E-1
2.072852562E0,-2.480776072E0,-1.150084734E0,-5.592558384E-1
2.092852562E0,-3.274098158E0,-1.759815514E-1,-7.889586091E-1
2.112852562E0,-3.552163839E0,1.799067974E0,-6.086835861E-1
2.134852562E0,-3.427844048E0,3.276157618E0,-4.459665418E-1
2.154852562E0,-2.409252405E0,1.535662889E0,-5.694660544E-1
2.176852562E0,-1.514509439E0,8.180358410E-1,-9.843133092E-1
2.198852562E0,-1.155844331E0,1.321353912E0,-1.368966460E0
2.220852562E0,-1.209844828E0,-9.545205534E-2,-1.838442564E0
2.242851000E0,-1.961226463E0,-1.970947981E0,-1.637974024E0
2.262852562E0,-2.353716135E0,-2.601517916E0,-9.368927479E-1
2.282852562E0,-1.999135017E0,-2.422063112E0,-3.391349316E-1
2.302858812E0,-1.319084883E0,-2.027793407E0,-4.204498231E-2
2.324852562E0,-6.395933628E-1,-1.774633288E0,1.855808645E-1
2.346851000E0,6.517059356E-2,-2.006133795E0,5.330933928E-1
2.366851000E0,6.838200092E-1,-2.552351952E0,9.763022661E-1
2.386858812E0,6.376037002E-1,-3.278461456E0,1.286988378E0
2.408852562E0,-3.456973732E-1,-2.449395180E0,1.033810854E0
2.430852562E0,-3.378433883E-1,2.489712238E-1,7.504915446E-2
2.450852562E0,9.029809833E-1,5.072973967E-1,-5.456771851E-1
2.472852562E0,1.288838387E0,8.108450770E-1,-1.090708613E0
2.492860375E0,-1.898569167E-1,9.562484622E-1,-1.649458289E0
2.514852562E0,2.150716782E0,1.694714651E-2,-1.174868345E0
2.534852562E0,5.454502702E-1,1.597412586E0,2.621310055E-1
2.554852562E0,-2.445398331E0,5.731574059E0,1.686982870E0
2.574852562E0,-4.061032236E-1,-4.669279456E-1,3.163060248E-1
2.596852562E0,2.855533123E0,-4.579447269E0,-4.548327923E-1
2.618852562E0,3.759002924E0,-2.174872160E0,-2.240479141E-1
2.640858812E0,3.600282669E0,-9.211498499E-1,9.009389579E-2
2.662851000E0,2.827363491E0,-6.180909276E-1,5.334599018E-1
2.682854125E0,2.067726374E0,-5.603030324E-1,6.562438011E-1
2.702860375E0,1.370153308E0,-2.539105117E-1,7.005577087E-1
2.722869750E0,1.707490563E0,-7.734775543E-1,7.004180551E-1
2.744852562E0,3.158941269E0,-1.779642463E0,4.756371379E-1
2.764852562E0,2.555755377E0,-5.070006847E-1,3.657861054E-1
2.784871312E0,2.065632105E0,5.233369470E-1,1.131671518E-1
2.806858812E0,1.875670433E0,1.563727736E0,1.544092745E-1
2.828851000E0,1.664328456E0,2.112494230E0,2.244493365E-1
2.848852562E0,1.621533036E0,1.809225798E0,3.477045000E-1
2.870852562E0,2.974896193E0,-1.369629622E0,2.029119730E-1
2.892857250E0,1.896021008E0,-2.224858522E0,3.495720029E-1
2.914851000E0,-5.045747012E-2,5.269498229E-1,5.058487654E-1
2.934852562E0,2.022836655E-1,2.030690670E0,1.955466866E-1
2.954854125E0,-7.431612015E-1,2.167541742E0,-1.220159680E-1
2.976851000E0,-1.813117862E0,1.514282584E0,-6.332054734E-2
2.996855687E0,-3.257744312E0,2.366718769E0,-1.635373533E-1
3.018851000E0,-3.292999983E0,1.721941829E0,-1.207471132E0
3.038851000E0,-3.011356115E0,-8.681966066E-1,-2.181347370E0
3.058852562E0,-3.113894224E0,-2.993484020E0,-2.524199963E0
3.078857250E0,-2.876913548E0,-3.836373329E0,-2.362023830E0
3.100851000E0,-2.894296885E0,-3.289072990E0,-1.500442147E0
3.120857250E0,-3.447356939E0,-1.269046307E0,9.028588235E-2
3.142851000E0,-3.115796566E0,1.068438172E0,-7.074168324E-1
3.162851000E0,-2.515979290E0,2.486640453E0,-1.425602436E0
3.182854125E0,-1.741838574E0,1.138827324E0,-1.208972096E0
3.204857250E0,-1.330481887E0,1.701696068E-1,-1.069223642E0
3.226852562E0,-1.206231952E0,6.405707598E-1,-1.166508198E0
3.246852562E0,-1.006548882E0,7.970918715E-2,-1.336259007E0
3.266852562E0,-8.852833509E-1,-1.185933828E0,-1.217628956E0
3.286857250E0,-9.422334433E-1,-2.218924284E0,-8.429765701E-1
3.308852562E0,-1.023653030E0,-2.356909990E0,-4.169766009E-1
3.328855687E0,-9.255306721E-1,-2.130523443E0,2.715732343E-2
3.350851000E0,-3.110700250E-1,-2.629722595E0,5.719967484E-1
3.370852562E0,3.975510895E-1,-3.532825708E0,8.568170071E-1
3.392852562E0,6.934716702E-1,-5.271994114E0,9.773145914E-1
3.414852562E0,-2.373769999E0,-2.490043879E0,2.772455513E-1
3.434852562E0,-1.454121113E0,3.170216084E-1,-3.194127083E-1
3.454852562E0,6.418797374E-1,-7.082895041E-1,-5.072101355E-1
3.474852562E0,1.362630844E0,-5.680174232E-1,-1.066745281E0
3.494857250E0,-4.421791732E-1,2.091078907E-1,-1.242988586E0
3.516851000E0,-1.614185214E0,1.054161429E0,-1.240510225E0
3.536857250E0,1.236827612E0,1.802052408E-1,-3.091327250E-1
3.558852562E0,-2.620088160E-1,1.629247427E0,9.460731745E-1
3.580852562E0,-5.506688356E-1,4.951324463E-1,-8.046491146E-1
3.602880687E0,2.190859556E0,7.205417156E-1,-9.835977554E-1
3.624852562E0,3.905662775E0,3.195680380E0,6.708347201E-1
3.644852562E0,4.107283115E0,3.991044283E0,1.348825336E0
3.664852562E0,3.854053497E0,3.219155073E0,1.294912100E0
3.684877562E0,3.491147280E0,1.520129442E0,1.244960785E0
3.706852562E0,3.162536621E0,-3.034429550E-1,1.173157930E0
3.726852562E0,3.790698051E0,-2.959066153E0,1.290444136E0
3.746852562E0,3.621523380E0,-2.643004417E0,1.251750112E0
3.768855687E0,2.442989588E0,4.043753445E-1,1.079521060E0
3.790852562E0,1.914922833E0,1.031489611E0,4.734729230E-1
3.810852562E0,1.720179081E0,9.286373258E-1,1.563989520E-1
3.832852562E0,1.726287723E0,7.623074651E-1,2.079734355E-1
3.854852562E0,2.146702528E0,5.611931682E-1,2.724109888E-1
3.874852562E0,2.453967810E0,-2.715732343E-2,1.958608478E-1
3.894852562E0,2.293310165E0,-3.680550456E-1,1.284911335E-1
3.916851000E0,9.819222242E-2,1.905445695E0,6.158917546E-1
3.936851000E0,-2.926568091E-1,2.453531504E0,4.934743941E-1
3.956852562E0,-5.263040066E-1,1.170906544E0,2.069960535E-2
3.978852562E0,-1.696215630E0,1.465797305E0,-8.122762293E-2
4.000851000E0,-2.545702219E0,1.620887280E0,-4.713436067E-1
4.020851000E0,-2.285805464E0,7.611380816E-1,-1.358389735E0
4.040851000E0,-2.705173016E0,-1.301631689E0,-2.256361723E0
4.060851000E0,-3.059073448E0,-2.719310284E0,-2.469850302E0
4.080852562E0,-3.114173412E0,-3.275581598E0,-2.146877050E0
4.102857250E0,-3.344783783E0,-3.441771746E0,-1.349715471E0
4.124855687E0,-3.289003134E0,-2.203949451E0,-7.105235457E-1
4.146851000E0,-3.018983364E0,1.253844500E-1,-9.374512434E-1
4.166852562E0,-2.945470095E0,1.951958776E0,-8.995601535E-1
4.186852562E0,-2.885046721E0,1.397851706E0,-9.008865952E-1
4.206852562E0,-1.991246104E0,-2.331934422E-1,-9.610480666E-1
4.226852562E0,-1.200332761E0,-1.540305376E0,-1.027719617E0
4.246852562E0,-9.631948471E-1,-3.367158890E0,-1.150712967E0
4.268852562E0,-1.496968865E0,-4.614755154E0,-1.269290686E0
4.288852562E0,-1.892844439E0,-4.574699879E0,-1.200105786E0
4.308852562E0,-1.916511178E0,-3.514778852E0,-7.808428407E-1
4.330851000E0,-2.476377964E0,-2.022714376E0,-1.115439907E-1
4.350851000E0,-3.429030895E0,-4.895037651E0,4.051607251E-1
4.370852562E0,-2.024756432E0,-2.372251511E0,6.545857191E-1
4.390852562E0,2.518160939E-1,7.906341553E-1,3.307224512E-1
4.410852562E0,6.968924999E-1,-3.456450105E-1,-2.041337043E-1
4.432858812E0,3.883008361E-1,-1.586940646E0,-5.438620448E-1
4.454851000E0,-3.508111695E-3,-1.143277884E0,-6.557725668E-1
4.474852562E0,6.053674221E-1,-2.210110426E-1,-1.384709358E0
4.494852562E0,1.549904704E0,2.101306677E0,-2.787831783E0
4.514852562E0,5.408775434E-2,4.605225563E0,-1.622702360E0
4.534852562E0,2.327623367E0,4.796321869E0,1.073586941E0
4.556851000E0,3.482472897E0,5.796063900E0,1.774005055E0
4.576851000E0,4.760629654E0,2.095773935E0,-7.402464747E-1
4.596852562E0,5.155109406E0,3.381872177E0,9.498082101E-2
4.618852562E0,3.473816156E0,2.985979080E0,1.371671677E0
4.638852562E0,2.502331018E0,2.494808435E0,1.882250309E0
4.660852562E0,2.301757574E0,1.651500344E0,2.068110466E0
4.682852562E0,4.526772976E0,-4.075047016E0,2.139354706E0
4.702852562E0,5.591703415E0,-6.330972195E0,8.914094567E-1
4.722852562E0,3.520957470E0,1.944471300E-1,-5.116432905E-1
4.742852562E0,5.223473549E0,2.384503603E0,9.459335208E-1
4.762852562E0,2.864224911E0,2.598900080E0,1.093675613E0
4.784871312E0,5.025501251E-1,-1.522380829E0,2.526887655E-1
4.806852562E0,3.377735615E-1,-9.506459236E-1,8.622798920E-1
4.826852562E0,-9.094038010E-1,3.557696581E0,-4.485496134E-2
4.848851000E0,-1.878846884E0,4.380165577E0,-8.898910284E-1
4.868851000E0,-2.711438894E0,2.083451986E0,-1.305942655E0
4.888851000E0,-3.673638821E0,-4.607669264E-2,-9.440311193E-1
4.908852562E0,-4.390672207E0,-6.235537529E-1,-5.673716068E-1
4.930851000E0,-5.525503159E0,-9.325119853E-1,-5.321683288E-1
4.950851000E0,-6.753621101E0,-2.678364754E0,-1.252779841E0
4.970851000E0,-5.942461967E0,-4.320789337E0,-1.230666518E0
4.990851000E0,-7.452747822E0,1.306623340E0,3.504272103E-1
5.010852562E0,-5.376486778E0,1.491314054E0,6.416877508E-1
5.030852562E0,-4.110354900E0,2.060099363E0,-1.796816438E-1
5.052852562E0,-3.502893209E0,-4.742408693E-1,-8.018391728E-1
5.074852562E0,-2.748666763E0,-2.704474926E0,-6.925640702E-1
5.094852562E0,-1.442078233E0,-2.991319895E0,-2.183755934E-1
5.114852562E0,6.778858900E-1,-8.673239350E-1,-3.248930275E-1
5.134852562E0,2.718769073E0,4.541521370E-1,-1.414938420E-1
5.154852562E0,3.914668798E0,2.027897984E-1,-2.008699477E-1
5.176851000E0,4.136220932E0,1.948311031E-1,-7.730935812E-1
5.196851000E0,3.082495689E0,1.448169470E0,-1.226268291E0
5.216851000E0,-3.421892524E-1,3.868522167E0,-1.579121590E0
5.236852562E0,-6.098180413E-1,5.204572082E-1,-1.602508903E0
5.256852562E0,1.413193107E0,5.788210034E-1,-7.178713679E-1
5.278851000E0,2.569700718E0,7.117277980E-1,1.078927636E0
5.298851000E0,3.771935701E0,-8.340404630E-1,2.733691692E0
5.318851000E0,4.493507385E0,-1.977911830E0,3.214931488E0
5.338851000E0,7.128151417E0,-4.933051109E0,1.480894446E0
5.358851000E0,6.949621677E0,-3.677356243E0,-6.149318814E-1
5.378851000E0,4.645892143E0,9.253037572E-1,-9.855699539E-1
5.398851000E0,4.690118790E0,2.822197378E-1,-6.485294700E-1
5.418851000E0,2.582371712E0,-7.350803018E-1,9.477137774E-2
5.438851000E0,1.131165385E0,1.469654441E0,1.981297731E-1
5.458851000E0,8.145451546E-1,2.311217308E0,6.484596133E-1
5.478851000E0,-8.711287379E-1,2.223514557E0,5.227784514E-1
5.498851000E0,-2.015419006E0,3.595168829E0,-4.615174234E-1
5.518851000E0,-3.306212187E0,1.799277425E0,-1.582071185E0
5.538851000E0,-3.594034433E0,-8.813388944E-1,-1.379839897E0
5.558851000E0,-4.838052750E0,-1.259830952E0,-3.564136922E-1
5.578851000E0,-5.688534260E0,4.121071398E-1,6.881484389E-1
5.598851000E0,-4.997767925E0,-9.202771783E-1,-9.323548526E-2
5.618851000E0,-5.538226604E0,7.824311256E-1,-1.380101681E0
5.638851000E0,-5.166942596E0,2.384940147E0,-9.820618629E-1
5.658852562E0,-4.860166073E0,1.431396842E0,-1.109645486E0
5.680851000E0,-3.661037445E0,1.976794839E0,-1.011453152E0
5.700851000E0,-2.817519903E0,7.769333124E-1,-1.434660673E0
5.720852562E0,-2.157418966E0,-1.525627255E0,-1.195986867E0
5.740852562E0,-8.147022128E-1,-2.552090168E0,-6.259797812E-1
5.762863500E0,1.334967375E0,-1.104531646E0,-3.090977967E-1
5.784872875E0,3.004601717E0,-5.086587667E-1,5.810026526E-1
5.806852562E0,3.606565714E0,-5.148546696E-1,1.133818269E0
5.826852562E0,3.687932968E0,2.684141994E-1,1.321057200E0
5.848851000E0,3.964131355E0,-7.344694734E-1,1.133172512E0
5.868851000E0,-1.866420150E0,1.149718165E0,-5.708448291E-1
5.888851000E0,-2.297411680E0,-5.684013963E-1,-2.330590487E0
5.908851000E0,3.085218370E-1,2.415832281E0,-2.020113945E0
5.928852562E0,2.476569891E0,1.645164847E0,-1.156472564E0
5.948852562E0,4.171214581E0,1.623679847E-1,7.440338731E-1
5.970851000E0,5.451082230E0,-1.791231394E0,3.191648722E0
5.990861937E0,7.126144409E0,-4.270366669E0,3.037152052E0
6.012852562E0,7.540764809E0,-5.284123898E0,1.326432824E0
6.032868187E0,3.538410664E0,-1.038540721E0,3.257308006E-1
6.054851000E0,4.053893566E0,1.583572149E0,3.445105255E-1
6.074854125E0,1.867380142E0,5.294491291E0,-3.193428814E-1
6.096852562E0,1.717630863E0,3.217462063E0,-4.775220752E-1
6.116857250E0,7.753624916E-1,-7.742629647E-1,2.921855748E-1
6.138851000E0,-2.389373302E0,2.038213015E0,-2.204176337E-1
6.158852562E0,-2.968787670E0,1.262658477E0,-1.294021964E0
6.180851000E0,-3.495021820E0,-1.418254524E-1,-1.275207400E0
6.200860375E0,-4.871126652E0,-8.078256249E-1,-4.785518348E-1
6.222858812E0,-6.122876644E0,4.977853596E-1,5.632352233E-1
6.244851000E0,-5.208271980E0,-2.496187449E0,-2.163510174E-1
6.264851000E0,-5.739218712E0,3.362900317E-1,-1.243110776E0
6.284872875E0,-5.385108471E0,3.293628216E0,-9.791471362E-1
6.306854125E0,-4.605906487E0,1.758872986E0,-7.380473614E-1
6.328851000E0,-3.549353838E0,1.324198723E0,-9.313251376E-1
6.348852562E0,-2.371169329E0,8.411614299E-1,-1.495293379E0
6.370852562E0,-1.386262655E0,-2.360889435E0,-1.567741990E0
6.390858812E0,-2.926568091E-1,-2.948035717E0,-1.070916533E0
6.412852562E0,1.704645634E0,-8.428195119E-2,-8.869065046E-1
6.434852562E0,2.888397694E0,7.044323087E-1,-1.292939931E-1
6.454852562E0,3.520468712E0,1.457698941E0,4.769984782E-1
6.474852562E0,4.617599964E0,2.158710480E0,5.736373663E-1
6.494852562E0,5.632090092E0,1.571564317E0,8.162904978E-1
6.514854125E0,-7.746818662E-1,-2.436968327E0,2.619913816E-1
6.534863500E0,-9.297369123E-1,-5.952096581E-1,-6.755296588E-1
6.556854125E0,3.150144815E-1,1.459653735E0,1.716880351E-1
6.578851000E0,-2.983116806E-1,4.765865803E0,1.772259712E0
6.598851000E0,2.851431608E0,-1.348179579E0,2.658764839E0
6.618851000E0,4.328451633E0,-4.240260124E0,3.180740356E0
6.638851000E0,6.472780228E0,-8.089322090E0,1.405565977E0
6.658851000E0,8.159431458E0,-8.528708458E0,-3.399377763E-1
6.678851000E0,3.854228020E0,1.079294205E0,1.339889318E-1
6.698852562E0,3.540086269E0,1.667923927E0,-3.042981625E-1
6.718852562E0,1.694557667E0,3.572706461E0,-1.756848395E-1
6.738861937E0,1.084774494E0,3.484724283E0,3.617194891E-1
6.760851000E0,6.707300544E-1,-6.991090775E-1,1.107446313E0
6.780858812E0,-2.093679428E0,2.454421520E0,-1.315978263E-2
6.802852562E0,-3.053278923E0,1.425776958E0,-1.426387787E0
6.822855687E0,-3.487586737E0,-1.586504281E-2,-1.531282067E0
6.844851000E0,-4.010504723E0,-1.022797823E0,-9.542238712E-1
6.864852562E0,-5.373031139E0,1.958957613E-1,3.025179207E-1
6.884871312E0,-5.044315815E0,-1.806939363E0,-3.975860029E-2
6.906851000E0,-5.402980804E0,-1.028103590E0,-1.667016268E0
6.926852562E0,-4.942318439E0,3.605658293E0,-1.023583293E0
6.946852562E0,-4.021727085E0,3.666099072E0,-7.364416718E-1
6.968851000E0,-3.544205189E0,1.707909346E0,-8.626813293E-1
6.988852562E0,-2.824937582E0,9.367356300E-1,-1.353677392E0
7.010852562E0,-2.278230667E0,-1.570342541E0,-1.474506497E0
7.032852562E0,-8.381420374E-1,-1.977737308E0,-7.800923586E-1
7.052865062E0,1.132858276E0,-2.952747941E-1,-2.933025658E-1
7.074852562E0,2.586926937E0,-7.339109480E-2,6.556154490E-1
7.096851000E0,3.004305124E0,-2.473829687E-1,1.227106094E0
7.116851000E0,3.224949598E0,7.139967680E-1,1.192757964E0
7.136851000E0,3.880495310E0,3.942698613E-2,8.746717572E-1
7.156851000E0,-3.666936606E-2,-1.273357272E0,-1.359436959E-1
7.176851000E0,-2.573994160E0,3.410373330E-1,-1.386698961E0
7.196851000E0,-1.824130893E0,2.572318554E0,1.960877478E-1
7.216851000E0,1.022431374E0,4.466210365E0,5.428497791E-1
7.236860375E0,3.793333530E0,1.623034000E0,1.737004042E0
7.258851000E0,4.856902122E0,-1.057844043E0,2.913547993E0
7.278855687E0,5.484452724E0,-4.490034103E0,2.580015421E0
7.300852562E0,6.086539268E0,-7.397927284E0,1.116714001E0
7.322852562E0,4.762811661E0,-8.930675507E0,-1.944820434E-1
7.342852562E0,2.175046682E0,9.077631831E-1,6.420193911E-1
7.364852562E0,2.198591232E0,6.482484341E0,3.061307408E-2
7.384871312E0,8.464323282E-1,6.008452892E0,8.280190825E-1
7.406851000E0,4.701742530E-1,-2.648711801E-1,1.559067726E0
7.426858812E0,-4.779584110E-1,-2.241177320E0,7.310660481E-1
7.448851000E0,-3.885766029E0,2.787744522E0,-1.249830246E0
7.468851000E0,-3.624053955E0,1.318596244E0,-1.383574843E0
7.488852562E0,-3.727464676E0,7.740185857E-1,-1.041106343E0
7.510852562E0,-4.525202274E0,7.744200230E-1,-4.519180954E-1
7.532852562E0,-4.824282169E0,-1.735415816E0,-1.022570968E0
7.552854125E0,-5.165982723E0,-1.983060598E0,-2.159792662E0
7.574852562E0,-4.811384201E0,2.639496326E0,-9.023701549E-1
7.594852562E0,-4.012267590E0,2.415535688E0,-5.782625079E-1
7.616852562E0,-2.912744999E0,1.315838575E0,-1.236181855E0
7.636852562E0,-2.074550629E0,4.760036469E-1,-1.561964989E0
7.658851000E0,-1.399387479E0,-1.769711494E0,-1.653036237E0
7.678851000E0,-1.029273033E0,-2.829702377E0,-1.398794174E0
7.698852562E0,1.162563786E-1,-1.460823178E0,-1.497317910E0
7.720852562E0,1.611043572E0,-3.507588208E-1,-1.056831717E0
7.742860375E0,2.640578508E0,-1.438500434E-1,-2.504547536E-1
7.764852562E0,3.470796585E0,6.010913849E-2,1.356120855E-1
7.784872875E0,3.710604906E0,2.919586897E-1,5.704433918E-1
7.806852562E0,3.379830122E0,-1.330377221E0,7.242069244E-1
7.826855687E0,-3.988024950E0,-6.068405151E0,1.842194945E-1
7.848854125E0,-1.922584891E0,-1.617606044E0,1.409004331E-1
7.870852562E0,6.988996267E-1,2.414383650E0,-7.883652300E-2
7.890858812E0,1.694208503E0,3.496191263E0,4.058588743E-1
7.912852562E0,2.793224812E0,5.098141670E0,3.379742861E0
7.934852562E0,5.249060154E0,-3.506488562E0,2.294915915E0
7.956852562E0,6.804689884E0,-8.909522057E0,-1.224173903E-1
7.978852562E0,6.157818317E0,-4.496421814E0,-9.668949246E-1
7.998852562E0,4.245426178E0,2.141658545E0,-7.176619172E-1
8.020852562E0,3.262037754E0,1.759431481E0,-5.128824711E-1
8.042852562E0,1.655375004E0,1.873663306E0,-1.990198940E-1
8.062863500E0,1.175461769E0,3.353545427E0,9.438391328E-1
8.084871312E0,3.532371819E-1,1.959097147E0,2.179497242E0
8.106852562E0,-2.134851933E0,1.382475346E-1,6.980444193E-1
8.126852562E0,-3.904336452E0,-5.915269852E-1,-1.058140755E0
8.146852562E0,-3.419169903E0,1.206825376E0,-1.381881833E0
8.166852562E0,-2.441558599E0,7.460060716E-1,-6.779556870E-1
8.188852562E0,-3.667844296E0,1.182722330E0,6.426127553E-1
8.208852562E0,-5.122611046E0,5.898165703E-1,5.935341120E-1
8.230852562E0,-4.121036530E0,-4.398316860E0,-1.468223333E0
8.252852562E0,-4.101541042E0,-2.022696972E0,-9.622873068E-1
8.272852562E0,-4.349133492E0,1.450438380E0,-8.167966604E-1
8.292852562E0,-3.835430861E0,2.205380678E0,-5.333726406E-1
8.312852562E0,-2.545772076E0,3.306316853E0,-4.491255879E-1
8.332852562E0,-1.366697550E0,1.907854319E0,-8.135502934E-1
8.352868187E0,-8.785463572E-1,9.119345248E-2,-9.429664612E-1
8.374852562E0,-5.274733901E-1,-2.147802114E-1,-3.703239560E-1
8.394852562E0,1.772032827E-1,3.953170776E-1,1.215970889E-1
8.416851000E0,1.044457436E0,2.349911332E-1,6.346366405E-1
8.436852562E0,1.823519945E0,-8.990714550E-1,6.583032608E-1
8.456854125E0,2.610000372E0,-8.516159654E-1,2.616946697E-1
8.478852562E0,2.908364296E0,-6.817256212E-1,-1.151568219E-1
8.500851000E0,2.034600019E0,-3.101013660E0,-7.077310234E-2
8.520851000E0,-5.815629005E0,-4.330179214E0,-1.281682491E0
8.540851000E0,-4.090213776E0,1.669459820E0,-8.032005280E-2
8.560851000E0,-1.392580748E0,3.025545597E0,9.747315049E-1
8.580852562E0,1.502204835E-1,-1.239532828E-1,1.431501627E0
8.602852562E0,2.459343433E0,-2.313329220E0,2.104448080E0
8.622858812E0,5.683908939E0,-5.919458866E0,8.544782996E-1
8.644852562E0,6.808267593E0,-5.417292595E0,-1.565542936E0
8.664852562E0,6.050759792E0,-6.647086143E-1,-2.138831139E0
8.684871312E0,4.715582848E0,1.698833704E0,-1.520879865E0
8.706851000E0,3.879971743E0,-1.256829023E0,-1.373539209E0
8.726851000E0,1.695901513E0,-2.942817211E0,2.114466429E-1
8.746852562E0,1.101023555E0,-2.170282125E0,1.769903541E0
8.768852562E0,6.783571243E-1,1.794739485E0,2.089438438E0
8.788852562E0,-1.569574624E-1,3.293087244E0,1.340849161E0
8.810852562E0,-1.046656489E0,2.222519636E0,1.112280846E0
8.832852562E0,-2.543956995E0,6.138322875E-2,-1.746376455E-1
8.852852562E0,-3.886289835E0,-1.241679549E0,-7.896916866E-1
8.872852562E0,-4.010452271E0,-1.647817731E0,-8.749335408E-1
8.892852562E0,-4.112903118E0,-9.522167444E-1,-2.908765674E-1
8.912852562E0,-4.370601177E0,4.929507971E-1,8.642172217E-1
8.934852562E0,-3.656848669E0,4.831594825E-1,2.154783458E-1
8.956852562E0,-3.466468334E0,2.237704039E0,-1.343170524E0
8.978852562E0,-3.766542673E0,1.600397110E0,-1.449426174E0
9.000851000E0,-3.234217167E0,-5.926963687E-1,-1.121810317E0
9.020852562E0,-1.828494191E0,9.487435222E-1,-1.319294333E0
9.042852562E0,-6.117379069E-1,9.634566307E-1,-1.812524438E0
9.062869750E0,-1.007404029E-1,-1.605441093E0,-1.831496119E0
9.084871312E0,3.024830222E-1,-2.182377100E0,-1.286831260E0
9.106852562E0,1.027719617E0,-1.450054407E0,-8.092393875E-1
9.128852562E0,1.954280019E0,-8.188211918E-1,-6.668728590E-1
9.150852562E0,2.775858879E0,-5.500056148E-1,-6.495242715E-1
9.172852562E0,3.200706959E0,-1.145285070E-1,-4.793721437E-1
9.192871312E0,3.644282341E0,-7.254984379E-1,-8.576373458E-1
9.214852562E0,-1.096049309E0,-5.346519470E0,-1.203823447E0
9.234854125E0,-2.803277969E0,-1.361828089E0,-1.280059338E0
9.256852562E0,-1.508051753E0,2.541810274E0,-5.093219876E-1
9.276855687E0,-7.941771746E-1,4.029267311E0,2.443460980E-4
9.298851000E0,1.264595747E0,9.194918275E-1,1.583449960E0
9.318855687E0,8.198858500E-1,2.420475006E0,3.887109995E0
9.340851000E0,2.544812202E0,-3.279334068E0,3.211056888E-1
9.360855687E0,2.206096172E0,-5.360796452E0,-3.713711500E-1
9.382861937E0,3.292476416E0,-7.036696434E0,-1.137972116E0
9.402865062E0,3.792181492E0,-4.896259308E0,-1.992781997E0
9.422865062E0,4.145977497E0,-6.095737219E-1,-2.092108727E0
9.444852562E0,5.390624046E0,1.606034517E0,-1.860294104E0
9.464852562E0,3.765949249E0,3.688194752E0,-4.635245502E-1
9.484872875E0,1.007613540E0,4.083895683E0,4.878020585E-1
9.506852562E0,2.101899981E-1,1.702097416E0,7.724827528E-1
9.526854125E0,-8.901702762E-1,1.591408610E0,5.236162543E-1
9.548851000E0,-1.672636271E0,1.639248133E0,-1.198517606E-1
9.568851000E0,-2.220250845E0,9.002931714E-1,-9.937730432E-1
9.588851000E0,-3.111817360E0,1.247561350E-1,-1.456250310E0
9.608851000E0,-3.722734928E0,-5.265309215E-1,-1.268383145E0
9.628852562E0,-4.247276306E0,1.125737354E-1,-4.033979475E-1
9.650852562E0,-3.827070713E0,-3.054326214E-2,2.548180753E-3
9.672852562E0,-3.667442799E0,-1.900855541E0,-6.821793914E-1
9.692852562E0,-4.704500198E0,-1.860520989E-2,-1.163960099E-1
9.714852562E0,-4.441845417E0,1.262431502E0,2.624451518E-1
9.734852562E0,-3.588815689E0,2.877559185E0,6.280741692E-1
9.754852562E0,-2.685765028E0,2.842478037E0,4.335921407E-1
9.776851000E0,-1.810656905E0,9.590060711E-1,-1.209338605E-1
9.796851000E0,-1.213806629E0,-1.125545382E0,-3.153809905E-1
9.816852562E0,-2.292490005E-1,-1.743531585E0,6.265731901E-2
9.838852562E0,1.614673853E0,1.484926194E-1,3.539004028E-1
9.860851000E0,3.102322817E0,2.981825113E0,7.781550288E-1
9.880852562E0,3.498739481E0,3.753260612E0,1.195742488E0
9.902879125E0,3.647074938E0,1.835231185E0,1.425846696E0
9.924852562E0,3.676937580E0,4.404512942E-1,1.251994491E0
9.944852562E0,2.382950306E0,7.434229851E-1,7.094065547E-1
9.966852562E0,5.968502164E-1,2.858692169E0,-7.029837370E-1
9.988852562E0,-2.520203114E0,1.183385611E0,-7.211002111E-1
1.001085256E1,-1.856192589E0,-3.143407822E0,-7.374365330E-1
1.003286038E1,-1.940806061E-1,-4.249684811E0,-5.422737822E-2
1.005485100E1,1.774546027E0,-8.450011611E-1,7.086909413E-1
1.007485256E1,4.769932270E0,-2.142775536E0,2.496518940E-1
1.009489475E1,6.123801708E0,-1.726863623E0,1.649859697E-1
1.011685100E1,6.634363174E0,1.082976833E-1,-2.465801090E-1
1.013685100E1,4.674026489E0,3.797365189E0,-6.585127115E-2
1.015685100E1,3.632414103E0,1.639056206E0,2.148500271E-2
1.017685256E1,2.214473724E0,3.127979040E-1,2.832843959E-1
1.019685256E1,1.645932794E0,8.934165835E-1,7.163005471E-1
1.021685256E1,1.404047608E0,3.256435394E0,9.114458561E-1
1.023685256E1,3.356617093E-1,4.016648293E0,6.828949451E-1
1.025685256E1,-5.969549417E-1,2.087343931E0,3.304431736E-1
1.027885256E1,-7.623249292E-1,6.154379845E-1,-2.876127958E-1
1.030085256E1,-2.165621996E0,2.020550251E0,-1.594637513E0
1.032285256E1,-4.217885017E0,1.479306221E0,-1.787705898E0
1.034286975E1,-4.729056835E0,-7.956258059E-1,-1.452183723E0
1.036485256E1,-4.701288700E0,-3.643270016E0,-1.621882081E0
1.038487131E1,-4.769775391E0,-3.282213926E0,-9.705078006E-1
1.040685100E1,-4.904794216E0,-5.185373425E-1,3.690498769E-1
1.042685256E1,-4.111699104E0,2.276293278E0,9.465618730E-1
1.044685256E1,-2.916811705E0,3.987850428E0,8.122064471E-1
1.046685256E1,-2.239588976E0,3.769125700E0,2.505420148E-1
1.048885256E1,-2.054392099E0,1.501087904E0,-3.387858570E-1
1.051085256E1,-1.915411592E0,-8.629431129E-1,-4.648858905E-1
1.053285256E1,-6.087010503E-1,-1.255362988E0,-1.185427606E-1
1.055285256E1,1.112193584E0,-4.687779844E-1,4.104839861E-1
1.057285256E1,2.135148525E0,-6.499606371E-2,1.033234954E0
1.059285881E1,2.880212069E0,-3.580019474E-1,1.199826598E0
1.061485256E1,3.540609837E0,-2.687806962E-3,8.110370636E-1
1.063685100E1,3.253764868E0,-1.080533341E-1,3.985284865E-1
1.065685100E1,-1.019150138E0,3.378154516E0,-1.590466142E0
1.067685256E1,-1.334548593E0,3.145956039E0,-1.630347013E0
1.069885256E1,-9.025272131E-1,-5.517334938E-1,-7.220950723E-1
1.072085100E1,1.265974522E0,-2.122023582E0,1.171901345E0
1.074085256E1,1.947944522E0,-2.067290068E0,2.379861116E0
1.076285256E1,3.995145798E0,-4.553005695E0,2.041476727E0
1.078487288E1,5.480892181E0,-5.230088711E0,3.419623673E-1
1.080685100E1,5.620745659E0,-2.320258141E0,-1.020110011E0
1.082685725E1,4.269092560E0,3.184789658E0,-6.544809937E-1
1.084885100E1,3.628260136E0,1.384709358E0,-3.004235327E-1
1.086885100E1,1.913561583E0,-2.590243220E-1,5.056742430E-1
1.088885100E1,8.737118244E-1,3.892782331E-1,1.112176180E0
1.090885256E1,4.384441674E-1,2.293921232E0,1.179615736E0
1.093085100E1,-1.956688613E-1,2.274897099E0,1.227088690E0
1.095085256E1,-4.179539979E-1,2.299104691E0,8.629431129E-1
1.097285256E1,-1.625023723E0,2.390245914E0,-5.068436265E-1
1.099285881E1,-3.140405893E0,4.120896757E-1,-1.487648845E0
1.101485256E1,-4.631021500E0,-5.622054338E-1,-1.372491956E0
1.103485256E1,-4.860515118E0,-2.871677399E0,-1.746428847E0
1.105485256E1,-4.511571407E0,-5.291367054E0,-1.838407636E0
1.107485256E1,-4.535883904E0,-1.250441194E0,-5.919109583E-1
1.109685256E1,-3.559983015E0,3.531586409E0,4.237659276E-1
1.111885100E1,-2.689360380E0,3.157178402E0,4.300491139E-2
1.113885256E1,-2.134101391E0,2.630839586E0,-3.903777897E-1
1.116085256E1,-1.462149620E0,1.468694568E0,-9.063669443E-1
1.118285412E1,-1.080289006E0,-1.557811022E0,-8.431510925E-1
1.120485100E1,-2.998824716E-1,-2.520604610E0,-4.986929297E-1
1.122485256E1,1.004052997E0,-7.318863869E-1,-4.988500178E-1
1.124685256E1,2.216760159E0,1.023653030E0,-6.112143025E-2
1.126885256E1,2.937877893E0,1.302259922E0,6.403961778E-1
1.129085100E1,3.033015728E0,9.379224777E-1,8.552985787E-1
1.131085256E1,2.867314100E0,-1.850398034E-1,6.223669648E-1
1.133285256E1,-9.195441604E-1,1.025887132E0,-1.146768570E0
1.135485256E1,-6.873281002E-1,1.638741970E0,-1.887521267E0
1.137485256E1,-4.893903136E-1,9.199630618E-1,-9.282184243E-1
1.139685100E1,4.917116165E-1,-1.314267874E0,9.734050035E-1
1.141685100E1,9.754819870E-1,-1.609682202E0,1.827499390E0
1.143685256E1,2.523117781E0,-3.533035040E0,1.944436431E0
1.145685256E1,5.293217182E0,-5.770878792E0,1.168759704E0
1.147885256E1,7.130821705E0,-4.820337772E0,1.518436372E-1
1.149885256E1,6.247755051E0,1.314023495E0,-3.163234591E-1
1.152085256E1,3.960518599E0,5.297510624E0,4.480260313E-1
1.154085256E1,2.365601778E0,1.128983617E0,4.739441574E-1
1.156085256E1,4.628613293E-1,4.313232303E-1,3.129375279E-1
1.158085256E1,1.513375044E-1,8.041430116E-1,4.404512942E-1
1.160285256E1,-8.537976146E-1,1.884658933E0,4.121420383E-1
1.162286819E1,-1.582437634E0,2.123821259E0,-3.974638283E-1
1.164485256E1,-2.099945307E0,1.493879676E0,-1.402581453E0
1.166685256E1,-3.307678223E0,7.919780612E-1,-1.637153745E0
1.168685256E1,-4.679262638E0,4.606098533E-1,-1.343781352E0
1.170885256E1,-4.701201439E0,-2.101934910E0,-1.111181259E0
1.173085256E1,-4.192839146E0,-4.258149624E0,-8.814436197E-1
1.175285256E1,-4.364806652E0,2.557954490E-1,1.514596790E-1
1.177285256E1,-3.807714939E0,3.817785501E0,5.194099993E-2
1.179285256E1,-3.044779301E0,2.844101191E0,3.516838327E-2
1.181285256E1,-2.201086998E0,2.181417227E0,7.065092772E-2
1.183285256E1,-1.422024488E0,1.567794323E0,-3.322059810E-1
1.185286350E1,-1.147623777E0,-4.940677881E-1,-4.771032035E-1
1.187485256E1,-5.766393542E-1,-1.932969570E0,-3.047868609E-1
1.189685256E1,7.328811884E-1,-1.253216267E0,-4.862312675E-1
1.191685256E1,1.901396632E0,4.902455211E-1,-2.404889166E-1
1.193885100E1,2.461210966E0,1.978470325E0,4.122293293E-1
1.195885100E1,2.801829338E0,2.423180103E0,7.433357239E-1
1.197885100E1,3.308655500E0,1.151725292E0,6.932273507E-1
1.199885256E1,-6.686530709E-1,2.325825691E-1,-2.667386830E-1
1.202085256E1,-1.043270588E0,1.371392488E0,-1.082802296E0
1.204285256E1,9.487609863E-1,-7.027044892E-1,-4.174652994E-1
1.206285569E1,1.443683982E0,9.001710415E-1,1.042380452E0
1.208487131E1,1.732658148E0,2.264407635E0,2.428835154E0
1.210685256E1,2.691559553E0,-1.193473577E0,1.944802880E0
1.212885256E1,4.399032593E0,-6.275610447E0,1.015118361E0
1.214885256E1,4.907167912E0,-7.963658333E0,-5.773549154E-2
1.216885256E1,6.218346119E0,-7.828499794E0,-1.103781104E0
1.219085100E1,2.624643564E0,2.013848066E0,6.100274920E-1
1.221085100E1,2.249502420E0,4.112466812E0,9.790598750E-1
1.223085256E1,1.450054407E0,3.173811436E0,6.689497828E-1
1.225285256E1,9.089674801E-2,1.882704139E0,8.078605533E-1
1.227286662E1,-8.850913644E-1,1.550218940E0,7.813664675E-1
1.229485256E1,-1.797148108E0,1.725886226E0,5.601285100E-1
1.231685256E1,-2.678801060E0,-1.149648353E-1,-8.003730774E-1
1.233885256E1,-3.888750553E0,4.238706529E-1,-1.687855601E0
1.236085100E1,-4.612329006E0,2.686061561E-1,-1.985050201E0
1.238085256E1,-4.277296066E0,-2.516886950E0,-2.172498465E0
1.240285256E1,-4.226838589E0,-2.150315523E0,-7.940375209E-1
1.242285412E1,-4.201740742E0,1.770008206E0,8.265879005E-2
1.244485256E1,-3.589496374E0,3.568517685E0,-3.892607689E-1
1.246485256E1,-2.701001644E0,3.211370945E0,-2.095965892E-1
1.248487131E1,-1.784616590E0,2.885552883E0,-5.251346827E-1
1.250685100E1,-1.513095737E0,4.302760065E-1,-7.497760057E-1
1.252685256E1,-1.115684271E0,-1.579383373E0,-2.070135027E-1
1.254885100E1,5.708971992E-2,-2.203356028E0,-1.080533341E-1
1.256885256E1,1.278209329E0,-8.584925532E-1,2.092126161E-1
1.259085256E1,2.075859785E0,1.663124263E-1,7.869514823E-1
1.261285256E1,2.555039883E0,1.167380929E0,7.498981357E-1
1.263285569E1,3.151645660E0,1.474436641E0,6.169564128E-1
1.265486662E1,-5.081002712E-1,1.009585738E0,-9.234537184E-2
1.267685256E1,-2.845619678E0,3.508094311E0,-1.604341507E0
1.269885256E1,-5.668305755E-1,1.739185691E0,-5.070879459E-1
1.272085100E1,1.548438668E0,-9.064716697E-1,-8.590510488E-2
1.274085256E1,1.947577953E0,1.909390278E-2,1.837674618E0
1.276285256E1,3.193463802E0,-1.924103379E0,3.215908766E0
1.278285256E1,5.370657444E0,-5.316657066E0,1.881290436E0
1.280285881E1,6.378619671E0,-7.274514675E0,2.640683204E-2
1.282285881E1,7.389427185E0,-7.659342289E0,-5.748765469E-1
1.284286038E1,3.104818583E0,1.079241753E0,6.068509817E-1
1.286485256E1,2.125950575E0,2.923635960E0,8.568693995E-1
1.288487444E1,1.399265409E0,3.200881481E0,4.548327923E-1
1.290685100E1,5.343499780E-1,2.466988087E0,7.766191363E-1
1.292685256E1,-1.404117346E-1,1.193054676E0,9.601928592E-1
1.294885100E1,-8.222594857E-1,1.234907746E0,9.494940042E-1
1.296885100E1,-1.704017282E0,2.467040300E0,2.634749115E-1
1.298885256E1,-2.389617443E0,1.544406891E0,-5.679475665E-1
1.301085100E1,-3.201021194E0,3.673568964E-1,-8.423656821E-1
1.303085100E1,-4.280594349E0,5.920854807E-1,-6.496289968E-1
1.305085100E1,-4.323006153E0,-5.341056585E-1,-1.003738880E0
1.307085100E1,-3.636114120E0,-1.580308318E0,-2.561497450E0
1.309085256E1,-3.441946268E0,9.534384608E-1,-1.750984073E0
1.311285881E1,-3.297485352E0,4.380601883E0,-4.500505924E-1
1.313485100E1,-2.279766560E0,2.459081650E0,-1.215639234E0
1.315485256E1,-1.334600925E0,2.182883263E0,-1.205900311E0
1.317685256E1,-9.921498895E-1,7.116405368E-1,-1.435288906E0
1.319885256E1,-1.384622097E0,-2.520813942E0,-1.367901802E0
1.322085100E1,-6.114062667E-1,-4.458513260E0,-2.759016454E-1
1.324085256E1,6.475869417E-1,-4.363550186E0,2.638937905E-2
1.326285256E1,1.135825396E0,-1.568841577E0,-5.284333229E-1
1.328487131E1,1.492082000E0,-1.666789502E-2,-3.011740148E-1
1.330685100E1,2.241561174E0,5.731835961E-1,3.536036983E-2
1.332685100E1,3.226223707E0,-5.019567013E-1,-2.844363153E-1
1.334685100E1,-1.882756472E0,-3.555829048E0,-1.327898860E0
1.336685100E1,-3.765966654E0,-1.441711783E0,-2.353943110E0
1.338685256E1,-1.119122624E0,3.908158779E0,-2.166564465E0
1.340885569E1,2.435607016E-1,7.982856750E0,-1.549573064E0
1.343085100E1,2.541565895E0,5.328071117E0,2.280150414E0
1.345085569E1,2.395411968E0,1.302504301E0,4.174583435E0
1.347285256E1,2.382077694E0,-3.309824944E0,3.203010798E0
1.349485100E1,4.121211052E0,-8.482648849E0,2.259189129E0
1.351485100E1,5.962568283E0,-1.074107075E1,1.266009450E0
1.353485100E1,6.023707390E0,-7.514986515E0,-9.564404376E-3
1.355485100E1,2.739433765E0,2.636023045E0,7.739662528E-1
1.357486038E1,2.458139181E0,3.437199116E0,4.291764498E-1
1.359685100E1,1.311632395E0,3.521690369E0,5.962568521E-1
1.361685100E1,8.711636662E-1,1.579418302E0,6.009168625E-1
1.363685413E1,-1.758768260E-1,4.729143977E-1,4.362275898E-1
1.365685412E1,-1.161289692E0,8.721235991E-1,1.137605608E-1
1.367885100E1,-2.353698730E0,1.186405063E0,-5.685061216E-1
1.369885100E1,-3.090297461E0,4.769984782E-1,-1.001417518E0
1.371885100E1,-3.704304218E0,3.505668342E-1,-9.908059835E-1
1.373885100E1,-4.584875107E0,6.906616688E-1,-9.413433075E-1
1.375885100E1,-5.082084656E0,-6.476916671E-1,-1.717630863E0
1.377885100E1,-3.429554462E0,-4.812378883E0,-1.115073442E0
1.379885569E1,-3.934582949E0,-2.773345709E0,-4.339412153E-1
1.382085100E1,-4.199244499E0,2.960671902E0,-8.521220684E-1
1.384085413E1,-2.763798714E0,4.138088226E0,-3.078586161E-1
1.386285881E1,-1.410644889E0,3.940499544E0,-8.936085738E-3
1.388487131E1,-3.466922045E-1,1.430000663E0,-2.528632879E-1
1.390685569E1,-3.587349653E-1,-2.288877249E0,-5.113640428E-1
1.392885100E1,-2.741737664E-1,-2.364310265E0,-3.819478452E-1
1.394885100E1,5.598841906E-1,-1.887957573E0,-4.779409468E-1
1.396885100E1,1.595614910E0,-1.050269365E0,-5.065643787E-1
1.398885569E1,2.208522081E0,-5.066690966E-2,-6.606071442E-2
1.401085256E1,2.910161972E0,4.227710962E-1,7.492523789E-1
1.403085569E1,3.173619509E0,4.514119625E-1,8.838521838E-1
1.405285881E1,-2.348724365E0,-1.455185771E0,-7.583106756E-1
1.407286975E1,-2.720776320E0,-2.337205410E0,-2.523292303E0
1.409485256E1,-3.805690408E-1,7.102966309E-1,-2.626127005E0
1.411485256E1,6.310936213E-1,3.615519285E0,-2.710426569E0
1.413485256E1,1.448605776E0,7.740901947E0,1.812280059E0
1.415485569E1,9.912422895E-1,7.151870728E0,4.266056061E0
1.417685256E1,2.032261372E0,-2.236988544E-1,1.660750628E0
1.419685256E1,4.220764637E0,-7.497759819E0,2.376754522E0
1.421885100E1,5.258258343E0,-9.877062798E0,1.175339580E0
1.423885569E1,5.102836609E0,-8.785062790E0,3.218038082E-1
1.426085100E1,3.148224831E0,4.366168022E0,7.081847787E-1
1.428085100E1,2.409077883E0,5.155458450E0,1.011540413E0
1.430085256E1,1.004314780E0,3.055373430E0,3.229906261E-1
1.432285100E1,7.205417156E-1,8.699418902E-1,3.503050208E-1
1.434286975E1,-1.522974372E-1,9.210800529E-1,4.693539441E-1
1.436485256E1,-7.474197745E-1,1.584828734E0,1.490511149E-1
1.438487288E1,-1.113310575E0,1.328963518E0,-1.618792862E-1
1.440685256E1,-2.559473038E0,1.914102554E0,-7.089003921E-1
1.442685256E1,-3.673708677E0,1.161813378E0,-8.108974099E-1
1.444885100E1,-4.325850964E0,-3.362551332E-1,-9.408895373E-1
1.446885100E1,-4.801453114E0,-3.723572731E0,-1.907714725E0
1.448885256E1,-3.625188351E0,-4.596691132E0,-9.836152196E-1
1.451085256E1,-4.179941177E0,1.306553483E0,5.378929973E-1
1.453085256E1,-3.635119438E0,3.921545267E0,-1.375441670E0
1.455085256E1,-2.153177738E0,4.421512604E0,-8.627511263E-1
1.457285256E1,-8.668352365E-1,4.112763882E0,-1.662426144E-1
1.459285256E1,2.132792398E-2,2.048318386E0,-2.884854674E-1
1.461285256E1,-2.448173314E-1,-5.091997981E-1,-5.255360603E-1
1.463285413E1,-4.285306931E-1,-1.518436432E0,-8.545131981E-2
1.465285413E1,2.254616320E-1,-1.519204378E0,2.838603556E-1
1.467485256E1,8.892103434E-1,-6.949028373E-1,3.479488492E-1
1.469485256E1,1.405513644E0,2.056870461E-1,2.118829638E-1
1.471485256E1,2.139372110E0,6.814289093E-1,2.387435883E-1
1.473485256E1,2.821551561E0,-9.379399568E-2,3.793647587E-1
1.475485256E1,3.372255325E0,-2.849581718E0,1.207069680E-1
1.477685881E1,-1.582647085E0,-2.356246948E0,-9.202597737E-1
1.479885100E1,-2.181120396E0,3.009506226E0,-1.004157782E0
1.481885100E1,8.369377255E-1,1.500634104E-1,-1.460962772E0
1.483885256E1,9.030333757E-1,3.341415405E0,-6.450213194E-1
1.486085569E1,2.481858134E-1,6.472553730E0,3.107384145E-1
1.488285100E1,2.871345758E0,-2.195519447E0,5.566448212E0
1.490285413E1,2.047218800E0,-5.193349361E0,3.438717604E0
1.492485413E1,4.141212463E0,-9.754174232E0,-3.491007686E-1
1.494685256E1,6.277146339E0,-9.375751495E0,-7.413983941E-1
1.496685256E1,3.431369543E0,-1.486845911E-1,-4.832816496E-2
1.498885256E1,2.714807272E0,3.758444309E0,3.518583626E-2
1.500885256E1,1.453248382E0,3.386671782E0,2.949606478E-1
1.503085256E1,4.406956434E-1,2.566017866E0,9.662840962E-1
1.505285725E1,1.729272157E-1,1.822839260E0,1.016095757E0
1.507485256E1,-9.269443750E-1,1.839210510E0,3.989997208E-1
1.509485256E1,-1.185043693E0,1.314285278E0,-2.691123188E-1
1.511485256E1,-1.657434464E0,7.141538262E-1,-7.733902931E-1
1.513685100E1,-3.260728836E0,2.774200737E-1,-1.236722827E0
1.515685256E1,-3.830369473E0,-1.524265885E0,-1.895462513E0
1.517685256E1,-3.761202097E0,-4.122537613E0,-2.425588846E0
1.519885256E1,-3.961914778E0,-2.709326982E0,-9.525134563E-1
1.522085100E1,-3.860546112E0,2.852216959E-1,-1.043706909E-1
1.524085256E1,-3.353911877E0,2.117223978E0,-5.706005096E-1
1.526285412E1,-2.775579691E0,3.109984636E0,2.014284432E-1
1.528285412E1,-2.171521187E0,2.956849575E0,1.233075112E-1
1.530485256E1,-1.376000166E0,1.787060022E0,-2.504023910E-1
1.532485256E1,-1.116940856E0,-2.740341425E-1,-4.594579339E-1
1.534685100E1,-6.482152939E-1,-1.627816200E0,-3.342654705E-1
1.536685100E1,4.014955461E-1,-1.134149909E0,-3.719645739E-1
1.538685256E1,1.260494232E0,9.927258492E-1,-1.794023961E-1
1.540885100E1,1.742781043E0,2.143683195E0,2.104343474E-1
1.542885256E1,2.208138227E0,1.860608220E0,5.535660982E-1
1.545085256E1,2.995159626E0,-2.764950693E-1,9.519898295E-1
1.547285256E1,5.593780056E-2,-1.161429405E0,2.648188174E-1
1.549285725E1,-9.056338668E-1,1.297774434E0,-1.156385303E0
1.551485256E1,-1.173227787E0,7.914195657E-1,-1.058961034E0
1.553485256E1,-1.254420519E0,1.749867052E-1,7.915068418E-2
1.555685100E1,4.477293193E-1,8.060104847E-1,1.412791610E0
1.557685100E1,1.230334997E0,1.605702877E0,9.111316800E-1
1.559685256E1,4.319131374E0,-4.220973969E0,1.717404008E0
1.561885100E1,5.634202003E0,-6.408604622E0,1.629160166E0
1.563885256E1,6.490443230E0,-6.498122692E0,2.089159042E-1
1.566085256E1,3.370108604E0,-1.106015146E-1,2.574360669E-1
1.568285256E1,2.994234562E0,2.445380688E0,5.670923591E-1
1.570285256E1,1.946478486E0,2.752942801E0,-8.410741389E-2
1.572285256E1,1.455168247E0,1.651290894E0,6.340780854E-2
1.574285256E1,4.482180178E-1,1.329417229E0,8.421213627E-1
1.576285256E1,-9.227730036E-1,1.736375690E0,7.769682407E-1
1.578285881E1,-1.492448449E0,1.249585986E0,4.205196202E-1
1.580485256E1,-1.877206326E0,-9.009389579E-2,-7.686430216E-1
1.582685256E1,-3.425819397E0,1.133242249E-1,-1.500337362E0
1.584685256E1,-4.702475548E0,7.606843114E-1,-1.280146599E0
1.586885100E1,-5.222356796E0,3.033382297E-1,-1.223929644E0
1.588885100E1,-3.913377285E0,-3.154036760E0,-1.807585120E0
1.590885100E1,-2.751686096E0,-4.020243645E0,-9.466142058E-1
1.592885256E1,-3.485823870E0,-8.333947510E-2,-2.848377265E-2
1.595085256E1,-3.700883389E0,2.545719862E0,-3.530626595E-1
1.597285256E1,-2.620856285E0,2.499538422E0,-2.175901979E-1
1.599285725E1,-1.259569168E0,2.980655909E0,-2.603158653E-1
1.601485256E1,-5.385038853E-1,1.603329301E0,-3.775147200E-1
1.603485256E1,-5.388703942E-1,-1.095770001E0,-1.263618376E-2
1.605485256E1,-3.303908184E-2,-1.928641200E0,3.993138671E-1
1.607485256E1,9.679770470E-1,-9.735097289E-1,5.226737261E-1
1.609485256E1,1.588005304E0,1.103955626E0,8.699070215E-1
1.611485256E1,1.718992233E0,2.432168722E0,1.196754813E0
1.613685100E1,2.075336218E0,2.072962523E0,1.583607078E0
1.615685256E1,2.573470592E0,-1.098370552E0,1.685726285E0
1.617685256E1,-1.703580976E0,-3.917269230E0,5.553288460E-1
1.619885256E1,-3.065182209E0,9.650972486E-1,-1.733181715E0
1.622085100E1,-8.206014633E-1,2.165307760E0,-1.702062488E0
1.624085256E1,1.265957117E0,4.333652556E-1,-8.937831223E-2
1.626285256E1,1.721226215E0,2.844589949E0,5.923996568E-1
1.628285256E1,3.163566351E0,3.592760265E-1,1.013198495E0
1.630485256E1,5.156784534E0,-4.605225563E0,1.974962234E0
1.632485412E1,6.001838207E0,-5.828806400E0,1.063917756E0
1.634685100E1,6.844919682E0,-6.353626728E0,1.046499386E-1
1.636685256E1,2.276694775E0,-3.688264608E0,5.148895979E-1
1.638685881E1,2.189183950E0,3.622605503E-1,1.022047400E0
1.640885256E1,1.939357519E0,3.400442362E0,3.627492189E-1
1.642885256E1,1.309101701E0,3.295391083E0,1.640609503E-1
1.645085100E1,4.535936117E-1,1.269604802E0,6.741159558E-1
1.647085100E1,-7.255333662E-1,1.316850930E-1,1.215534568E0
1.649085100E1,-1.593293667E0,6.514441371E-1,4.855156839E-1
1.651085256E1,-3.063401937E0,1.474890471E0,-8.330631256E-1
1.653085256E1,-3.953676939E0,2.231752574E-1,-1.441432476E0
1.655085256E1,-5.018571854E0,1.637118906E-1,-1.386227727E0
1.657085256E1,-4.988954067E0,-9.942966104E-1,-1.053707600E0
1.659085256E1,-3.861104727E0,-3.923709631E0,-6.605722308E-1
1.661285256E1,-4.743089199E0,-1.575508714E-1,2.846980989E-1
1.663485256E1,-4.500907421E0,4.547175884E0,-4.902629927E-2
1.665485256E1,-3.511358023E0,3.417232513E0,-1.551423222E-1
1.667485256E1,-2.242765427E0,2.647804022E0,-1.478991956E-1
1.669485256E1,-1.018312335E0,2.257897615E0,-6.248103976E-1
1.671485256E1,-5.312956572E-1,-3.977605402E-1,-1.052834988E0
1.673485256E1,-2.296329737E-1,-2.948489428E0,-8.733103871E-1
1.675485256E1,6.843959689E-1,-2.648205519E0,-1.019778371E0
1.677685100E1,1.570394874E0,-1.725432426E-1,-5.697453022E-1
1.679685100E1,1.975468397E0,1.467821836E0,1.939235330E-1
1.681685256E1,2.309978247E0,1.977859497E0,7.001911998E-1
1.683885256E1,2.933584213E0,1.331162602E-1,9.100495577E-1
1.685885256E1,-7.711213827E-1,-1.853958488E0,3.193428814E-1
1.688085256E1,-5.117305517E-1,-4.720417559E-1,-1.388950467E0
1.690285569E1,2.940530777E-1,6.143035293E-1,-1.784546852E0
1.692485256E1,-4.161039591E-1,3.715579033E0,-5.682268143E-1
1.694485256E1,1.454068661E0,2.333889246E0,1.967474699E0
1.696485256E1,2.352215052E0,3.463431299E-1,1.508872032E0
1.698487913E1,4.494170666E0,-5.715621471E0,2.465155363E0
1.700685100E1,5.511714935E0,-7.252017498E0,1.680595040E0
1.702685412E1,7.081882954E0,-7.871417522E0,5.026548170E-3
1.704885100E1,3.105185032E0,-1.966462433E-1,1.827359647E-1
1.706885256E1,3.261898279E0,2.452309847E0,3.806388676E-1
1.709085256E1,1.920507908E0,3.537887096E0,-1.193805188E-1
1.711285256E1,1.074703932E0,3.412153482E0,1.383347958E-1
1.713285256E1,4.175351262E-1,1.203596473E0,4.491430223E-1
1.715285569E1,-9.120218158E-1,3.577052355E-1,8.341451883E-1
1.717286350E1,-1.627694011E0,1.415095448E0,-3.917042315E-1
1.719485256E1,-2.645378113E0,2.788599730E0,-1.600414515E0
1.721485256E1,-2.985542774E0,1.657888293E0,-1.798073053E0
1.723485256E1,-4.046144485E0,7.105235457E-1,-1.104391932E0
1.725685256E1,-5.294857502E0,2.914525270E-1,-4.775744379E-1
1.727885256E1,-4.932754040E0,-3.331397295E0,-7.224790454E-1
1.729885413E1,-4.417690277E0,-3.485160589E0,-6.266430020E-1
1.732085100E1,-4.834265232E0,5.406401634E0,-1.040373325E0
1.734085100E1,-2.951945066E0,6.130329132E0,-1.182478070E0
1.736085100E1,-1.294947028E0,3.507500887E0,-1.011819720E0
1.738085256E1,-9.549394250E-1,-4.534365237E-2,-9.996547699E-1
1.740285256E1,-1.314477324E0,-3.403147697E0,-8.990365267E-1
1.742286038E1,-1.776623011E0,-4.606552124E0,-7.964810133E-1
1.744485256E1,-4.940328896E-1,-3.819827557E0,-1.107062340E0
1.746485413E1,1.254315734E0,-1.330097914E0,-1.347778201E0
1.748487131E1,2.276171207E0,7.415031195E-1,-3.392570913E-1
1.750686038E1,2.942921877E0,1.492378712E0,1.021227002E0
1.752885100E1,3.338151693E0,1.079678178E0,1.271838903E0
1.754885413E1,1.919949412E0,7.516609430E-1,9.106429815E-1
1.757085100E1,-4.331907257E-2,2.353157520E0,3.567627370E-1
1.759085256E1,3.499908745E-1,2.892080307E0,5.810724497E-1
1.761285256E1,-1.840432286E0,1.325752139E-1,-1.714262366E-1
1.763485256E1,1.239148855E0,1.374673724E0,1.520879865E-1
1.765485256E1,1.857100129E0,1.823101163E0,6.984458566E-1
1.767485256E1,2.438067913E0,-9.780476093E-1,9.597914815E-1
1.769685881E1,3.380772591E0,-5.052606106E0,7.708072066E-1
1.771885100E1,5.490404606E0,-8.962701797E0,-3.075270057E-1
1.773885100E1,6.123644829E0,-8.952649117E0,-1.370868802E0
1.775885100E1,5.126433372E0,-9.462320328E0,-1.776884794E0
1.777885256E1,1.763882041E0,-6.606019020E0,1.494350880E-1
1.780085256E1,2.400840044E0,2.952957392E0,2.935469151E-1
1.782285256E1,1.492989540E0,8.783229828E0,9.000313878E-1
1.784285725E1,1.498557091E0,8.359987259E0,4.854633212E-1
1.786286506E1,1.224418283E0,5.163591385E0,3.053627908E-1
1.788487131E1,-8.274257183E-1,1.507720113E0,-4.813443422E-1
1.790685256E1,-2.984704971E0,-1.106957674E0,-1.464470863E0
1.792685256E1,-3.992039204E0,-1.623103857E0,-8.811993003E-1
1.794685725E1,-4.707362652E0,-1.266498208E0,-2.717303038E-1
1.796885100E1,-5.331945896E0,-1.796729207E0,1.298699528E-1
1.798885256E1,-4.280908585E0,-4.774522781E0,7.000864744E-1
1.801085256E1,-5.290511608E0,-2.623456717E0,4.090179205E-1
1.803285100E1,-4.858734608E0,1.205324411E0,-5.991715193E-2
1.805285256E1,-3.730588913E0,2.605252981E0,3.833615780E-1
1.807285256E1,-2.456376314E0,3.780191183E0,7.047639489E-1
1.809285256E1,-1.227472663E0,3.511480331E0,3.647563457E-1
1.811285256E1,-7.841240764E-1,7.954163551E-1,-3.527484834E-1
1.813285256E1,-6.956009865E-1,-1.241854072E0,-6.961245537E-1
1.815485256E1,5.167919770E-2,-1.350500822E0,-3.282440603E-1
1.817685256E1,1.379420996E0,-1.484402567E-1,5.262167454E-1
1.819885256E1,2.505263090E0,4.572588205E-1,9.934239388E-1
1.822085100E1,3.092880487E0,5.960648656E-1,1.007107377E0
1.824085100E1,3.425121307E0,4.643622935E-1,5.318192840E-1
1.826085100E1,1.542853594E0,-1.076152563E0,-2.281843424E-1
1.828085100E1,-2.507828712E0,-2.816437781E-1,-2.322038412E0
1.830085256E1,-1.320167035E-1,1.838931203E0,-2.175413370E0
1.832085256E1,3.520678282E-1,3.447321892E0,-1.260441899E0
1.834285256E1,-1.162965178E0,4.897778034E0,-1.305855364E-1
1.836286194E1,1.379700184E0,-9.353044629E-1,8.187339455E-2
1.838487288E1,1.991717339E0,-3.711180925E0,1.266166568E0
1.840685100E1,4.696628571E0,-8.293298721E0,1.625913858E0
1.842685256E1,5.595577717E0,-6.874188900E0,-3.796265721E-1
1.844885100E1,7.163407326E0,-4.950678825E0,-1.507423401E0
1.846885100E1,3.596268415E0,4.719701767E0,-2.406459898E-1
1.848885256E1,2.056608677E0,4.380183220E0,-4.484798014E-1
1.851085256E1,4.469613731E-1,2.916078568E0,-1.448099613E-1
1.853085256E1,1.015868902E0,4.044800401E-1,5.116781592E-1
1.855285256E1,1.029796600E0,-7.975456715E-1,1.487805963E0
1.857285256E1,-7.005402446E-1,1.907487750E0,1.221730471E0
1.859485256E1,-1.541893721E0,2.124100685E0,-1.220334172E-1
1.861485256E1,-2.135497570E0,8.367282748E-1,-9.788853526E-1
1.863685100E1,-3.408209085E0,1.973618269E-1,-1.073290229E0
1.865685100E1,-4.176415920E0,-1.171709299E0,-8.097629547E-1
1.867685256E1,-4.724205017E0,-1.515242457E0,-3.801327199E-2
1.869885256E1,-5.274960995E0,-1.823868975E-2,6.392268538E-1
1.872085100E1,-3.778969526E0,1.441432476E0,-5.335820317E-1
1.874085256E1,-2.513099670E0,6.766292453E-1,-7.735124826E-1
1.876285256E1,-4.157496452E0,-1.224540472E0,-1.541492224E0
1.878286038E1,-4.008392811E0,-1.314791441E0,-1.210647583E0
1.880286038E1,-2.582005262E0,2.029294372E-1,-6.086486578E-1
1.882485881E1,-8.329060078E-1,2.146126747E0,2.050412744E-1
1.884685100E1,1.902757883E-1,1.277423978E0,4.953418970E-1
1.886685256E1,7.124084830E-1,1.051211804E-1,-2.139773592E-2
1.888685256E1,9.921149611E-1,-1.023810133E-1,6.359979510E-2
1.890685256E1,1.453545094E0,3.304082751E-1,4.959352911E-1
1.892685256E1,1.976951838E0,1.513759017E0,1.226041436E0
1.894685256E1,2.259468317E0,1.270913839E0,2.103139162E0
1.896685256E1,2.321671963E0,-9.801769257E-2,2.394399643E0
1.898685256E1,1.533550978E0,-3.665802240E0,1.303115129E0
1.900885100E1,-2.983430862E0,2.671575546E-1,-1.302294850E0
1.902885256E1,-2.379861116E0,3.087103367E0,-1.152929544E0
1.905085100E1,-1.151480913E0,5.288172960E-1,-2.029311657E0
1.907085100E1,4.295429885E-1,-5.801317215E0,-1.714506745E0
1.909085256E1,1.294126749E0,-2.028613567E0,1.032362223E0
1.911285256E1,4.186032772E0,-2.648607016E0,1.351303697E0
1.913285569E1,5.673367023E0,-6.197000980E0,8.290313929E-2
1.915485256E1,4.821454525E0,-1.005169988E0,-1.204050303E0
1.917685256E1,4.727119446E0,3.221040010E0,-1.215761423E0
1.919885256E1,3.757728815E0,2.189637661E0,-6.004106998E-1
1.922085100E1,1.311196089E0,-1.828075290E0,7.337887883E-1
1.924085256E1,4.429645538E-1,-3.087382793E0,1.056552529E0
1.926286350E1,4.123863876E-1,7.001562715E-1,1.277895212E0
1.928487131E1,4.113042951E-1,2.264843941E0,1.185829043E0
1.930685100E1,-1.859997362E-1,1.633471131E0,1.075000644E0
1.932685256E1,-7.226535678E-1,6.526658535E-1,1.150643229E0
1.934685256E1,-1.963931680E0,3.055897057E-1,4.631405771E-1
1.936885100E1,-3.333561420E0,-1.519343972E0,-6.242344379E-1
1.938885256E1,-4.279494762E0,-2.627418756E0,-8.578642607E-1
1.941085100E1,-4.735601902E0,-1.803535938E0,-5.122017860E-1
1.943085100E1,-3.884317398E0,-4.045324028E-1,-1.563815027E-1
1.945085256E1,-2.080135822E0,1.676423669E0,-4.976282716E-1
1.947085256E1,-1.778717399E0,2.706202745E0,-3.147177696E-1
1.949285256E1,-2.899044275E0,-1.337445825E-1,-3.043155968E-1
1.951285256E1,-2.380454540E0,-1.390241981E0,-1.170941368E-1
1.953285256E1,-1.447453856E0,9.754994512E-1,-4.474151433E-1
1.955285256E1,-7.875798345E-1,1.409021735E0,-2.721491754E-1
1.957285256E1,-5.235289335E-1,-9.174497724E-1,-4.150393009E-1
1.959485100E1,-2.015855312E-1,-2.457528353E0,-6.170960665E-1
1.961485256E1,1.876752526E-1,-2.454857826E0,-9.288467765E-1
1.963685100E1,8.324871659E-1,-2.028648615E0,-7.885223031E-1
1.965685100E1,1.378094554E0,-1.892617583E0,-4.758291245E-1
1.967685256E1,1.464139223E0,-2.257897615E0,-2.168746144E-1
1.969885256E1,2.046677828E0,-3.312006474E0,-9.087231159E-1
1.972085100E1,-1.336293936E0,-1.645129919E0,-1.485728979E0
1.974085100E1,-5.062118053E0,1.611200690E0,-5.093394518E-1
1.976085100E1,-3.319424152E0,1.856611490E0,-5.791002512E-2
1.978085100E1,-4.653047621E-1,-1.787862897E0,-4.504694641E-1
1.980085100E1,9.161233306E-1,-5.479112267E-1,7.777535915E-1
1.982085100E1,3.302267551E0,-1.830501258E-1,1.202846050E0
1.984085100E1,4.587685108E0,-2.772333384E0,-2.411870509E-1
1.986085100E1,5.043844223E0,-4.944866657E0,-1.603678346E0
1.988085256E1,4.847146034E0,-3.854001045E0,-2.412708282E0
1.990285256E1,3.681649923E0,9.389348030E-1,-1.734647870E0
1.992285256E1,3.591416359E0,1.208012223E0,-1.530549049E0
1.994286038E1,2.297080278E0,-4.579918385E-1,-3.472507000E-1
1.996485100E1,2.609965205E-1,-1.104357123E0,1.147222400E0
1.998487131E1,-3.698352575E-1,9.828821421E-1,1.145634174E0
2.000685100E1,-7.348010540E-1,2.525979996E0,7.607715726E-1
2.002685256E1,-1.228519797E0,2.024686575E0,6.859318614E-1
2.004685256E1,-1.653263092E0,4.615872204E-1,1.951103508E-1
2.006685256E1,-2.924019814E0,-1.042205930E0,-7.919256687E-1
2.008685256E1,-4.605906487E0,-1.058891296E0,-1.024665356E0
2.010685256E1,-5.385126114E0,-1.376157165E0,-1.025747418E0
2.012685256E1,-4.406048775E0,-4.892751217E0,-9.718865752E-1
2.014685256E1,-3.752702236E0,-5.016896725E0,-1.580395699E-1
2.016885100E1,-4.988552570E0,-5.565680265E-1,2.753082216E-1
2.018885100E1,-5.358736515E0,1.556554437E0,8.956156969E-1
2.020885256E1,-4.640533924E0,2.378587008E0,7.796560526E-1
2.023085256E1,-2.984670162E0,1.155757070E0,-8.869763464E-2
2.025287131E1,-2.034582615E0,-7.670896649E-1,-1.084582448E0
2.027485100E1,-1.298891425E0,-1.081632853E0,-1.251662850E0
2.029485256E1,-2.038370073E-1,-1.645321846E-1,-1.347830534E0
2.031685256E1,1.321877480E0,5.441587567E-1,-1.247229695E0
2.033885100E1,2.271790266E0,7.115358114E-1,-3.558900952E-1
2.035885100E1,2.511162281E0,4.602607787E-1,1.443736404E-1
2.037885100E1,2.514862299E0,2.294060737E-1,2.087239176E-1
2.039885100E1,2.854643106E0,-6.638185382E-1,6.614797749E-3
2.041885100E1,3.419571161E0,-2.492784023E0,-4.550422430E-1
2.043885100E1,-5.841285229E0,-2.822738409E0,-1.978854299E0
2.045885256E1,-1.844167233E0,-3.565707803E-2,-2.177123785E0
2.048085100E1,2.160874605E0,2.665850878E0,-1.710806608E0
2.050085100E1,2.625219584E0,3.749438524E0,-4.657410979E-1
2.052085256E1,2.927720070E0,3.340979099E0,2.067988157E0
2.054285256E1,3.992161512E0,-1.328579545E0,3.218631506E0
2.056285256E1,2.730009079E0,-3.704286814E0,6.589316130E-1
2.058286819E1,8.946732283E-1,-6.590782166E0,-1.899441779E-1
2.060485100E1,1.185270548E0,-5.044717312E0,-9.049008489E-1
2.062485256E1,1.994475007E0,-2.875220537E0,-1.531945348E0
2.064485256E1,2.200371504E0,-9.347634315E-1,-1.695639729E0
2.066485256E1,2.635918379E0,4.303632975E-1,-1.553465247E0
2.068487131E1,3.209957123E0,3.899240196E-1,-1.188569188E0
2.070685100E1,2.639827967E0,-6.454227865E-2,-4.226489365E-1
2.072685100E1,2.052123308E0,3.978129029E-1,-5.597271025E-2
2.074685256E1,2.035786867E0,1.191082478E0,6.003932562E-3
2.076885100E1,2.458278894E0,1.677558064E0,8.213519305E-2
2.078885256E1,2.590504885E0,2.365863562E0,1.338318437E-1
2.081085256E1,1.596365452E0,3.198786974E0,-3.991568089E-2
2.083285256E1,3.890687823E-1,2.965401649E0,-2.004510611E-1
2.085285256E1,-5.867098570E-1,9.653939605E-1,-1.276359260E-1
2.087285881E1,-2.564010859E0,-4.730191231E-1,1.935221106E-1
2.089485100E1,-3.815743446E0,8.716523051E-1,2.502802201E-2
2.091485100E1,-3.397126198E0,5.756270289E-1,-4.634372890E-1
2.093485256E1,-2.926428556E0,-8.889834285E-1,-7.230899334E-1
2.095685256E1,-2.976641655E0,-2.063904285E0,-6.712012887E-1
2.097885100E1,-3.092409372E0,-2.303171396E0,-6.044424176E-1
2.099885256E1,-3.080872536E0,-1.413454890E0,-3.989298940E-1
2.102085256E1,-2.950583696E0,2.272244096E-1,4.430867434E-1
2.104285412E1,-2.620437384E0,1.364079475E0,7.890807986E-1
2.106485100E1,-2.005400658E0,2.194576979E0,7.866722345E-1
2.108487288E1,-1.520845056E0,2.290482759E0,8.022929430E-1
2.110685256E1,-1.097585201E0,1.822263360E0,6.594901085E-1
2.112885256E1,-7.500203252E-1,1.125178814E0,4.538204968E-1
2.115085100E1,-5.093394518E-1,3.466223776E-1,4.185648561E-1
2.117085256E1,-1.662077010E-1,-4.624598920E-1,2.833541930E-1
2.119285100E1,4.364894032E-1,-1.236967206E0,-5.550146848E-2
2.121285100E1,1.166892171E0,-1.744439125E0,-2.082526833E-1
2.123285256E1,2.147697449E0,-2.293345213E0,-3.788237274E-1
2.125485100E1,2.644487858E0,-1.922183514E0,-5.940577388E-1
2.127485100E1,-3.045599461E-1,1.939741492E0,-4.833689332E-1
2.129485256E1,-1.112821937E0,3.079808056E-1,-1.823345423E-1
2.131485256E1,-4.898266494E-1,-7.514514923E-1,-3.560122550E-1
2.133485256E1,-1.044230461E-1,5.775294304E-1,-6.593504548E-1
2.135685100E1,-1.674154758E0,8.874126673E-1,-2.674368024E-1
2.137685100E1,-2.532821894E0,1.930892706E0,4.487765133E-1
2.139685256E1,-5.240350962E-1,1.465238810E0,4.665265083E-1
2.141685256E1,1.742362231E-1,-7.042403519E-2,1.576032341E-1
2.143885100E1,1.857257247E0,-4.766616344E0,2.020044029E-1
2.145885100E1,2.331114054E0,-1.896579504E0,2.301216573E-1
2.147885100E1,2.380280018E0,3.073594570E0,-4.042357206E-1
2.149885256E1,2.834693909E0,3.662765503E0,-4.323704243E-1
2.152085256E1,3.190077782E0,2.414715290E0,-3.280520737E-1
2.154085256E1,3.306735754E0,6.928084493E-1,-4.813269079E-1
2.156285256E1,2.472276211E0,-3.470238149E-1,-4.009893835E-1
2.158285256E1,1.985032797E0,-8.941496015E-1,-1.577079445E-1
2.160285256E1,1.965275645E0,-9.610480666E-1,-7.836528122E-2
2.162285881E1,2.124030828E0,-5.620309114E-1,-1.174606606E-1
2.164486194E1,1.919233799E0,1.045696616E0,-1.049990058E-1
2.166685100E1,1.589942575E0,2.623142481E0,-1.367640048E-1
2.168685256E1,1.581914067E0,3.009087324E0,-1.075646430E-1
2.170885256E1,1.893961430E0,2.331166506E0,9.976302087E-2
2.172885256E1,2.200005054E0,1.313953638E0,3.587000668E-1
2.174885256E1,2.220687151E0,4.372922480E-1,4.525289536E-1
2.177085100E1,2.102982044E0,-1.448099613E-1,3.802897930E-1
2.179085100E1,1.871691108E0,-1.621585339E-1,5.024803057E-2
2.181085256E1,8.769755960E-1,4.371700585E-1,-2.113070190E-1
2.183285256E1,-8.908509612E-1,1.910734057E0,-1.357691586E-1
2.185285256E1,-1.776500821E0,1.877694964E0,-3.521725237E-1
2.187285256E1,-2.591115713E0,1.289047837E0,-2.846806645E-1
2.189285256E1,-3.509403229E0,1.362735629E0,-3.208438754E-1
2.191285256E1,-3.279386282E0,-2.185152285E-2,-5.075068474E-1
2.193485256E1,-3.243327856E0,-6.964038014E-1,-3.200584650E-1
2.195485256E1,-3.470639467E0,-7.263711095E-1,-3.234618604E-1
2.197485256E1,-3.326283455E0,-9.037663937E-1,-4.573809803E-1
2.199485256E1,-2.778529167E0,-8.547400832E-1,-4.138524830E-1
2.201485256E1,-2.207091093E0,-6.431363821E-1,-5.916666240E-3
2.203485256E1,-2.287917137E0,-3.126408160E-1,6.196442246E-1
2.205485256E1,-2.636773586E0,4.192106426E-1,9.289340377E-1
2.207485256E1,-2.493709087E0,1.147519112E0,1.189494252E0
2.209485256E1,-1.959341526E0,1.897190332E0,1.228083491E0
2.211485256E1,-1.352106571E0,2.097885847E0,1.004629016E0
2.213485256E1,-7.843335271E-1,1.774249315E0,7.186742425E-1
2.215485256E1,-3.137927353E-1,1.038401127E0,3.978129029E-1
2.217485256E1,1.928588748E-2,1.921607554E-1,2.060012072E-1
2.219485256E1,3.098133802E-1,-3.306177258E-1,1.942900568E-1
2.221485256E1,8.002683520E-1,-6.897715926E-1,2.193355262E-1
2.223485256E1,1.618443847E0,-1.179650545E0,1.398706883E-1
2.225685256E1,2.570765257E0,-1.735904455E0,-5.370378122E-2
2.227885256E1,2.470653057E0,-2.587625086E-1,-7.298443317E-1
2.230085256E1,7.172430754E-1,2.727617979E0,-6.392791867E-1
2.232285256E1,-4.837354422E-1,1.265957117E0,-3.667984009E-1
2.234285256E1,-8.086982965E-1,4.802098870E-1,-6.817081571E-1
2.236485256E1,-1.076623797E0,-2.421644330E-1,-8.264308572E-1
2.238487288E1,-8.498531580E-1,1.368198514E0,-1.174257547E-1
2.240685100E1,-1.182251096E0,3.468998909E0,5.710368156E-1
2.242685256E1,-9.186714888E-1,-4.790928960E-2,4.632278383E-1
2.244885100E1,4.449018836E-1,-4.300770283E0,7.330033779E-1
2.246885100E1,1.900017738E0,-3.405434132E0,6.676582694E-1
2.248885100E1,2.401765108E0,2.057917714E-1,3.442312777E-1
2.250885100E1,3.359514475E0,1.677889705E0,2.264913768E-1
2.252885100E1,3.656080723E0,2.745594978E0,-4.017573297E-1
2.254885100E1,3.204843283E0,3.511654854E0,-5.629559755E-1
2.256885256E1,3.180216789E0,2.517899275E0,-4.088259339E-1
2.259085256E1,2.776975870E0,1.381358266E0,-4.079357982E-1
2.261285256E1,2.230408669E0,9.103288054E-1,-3.143686950E-1
2.263485100E1,1.807305932E0,7.901105285E-1,2.757620299E-3
2.265485256E1,1.409615159E0,1.161691189E0,2.435956001E-1
2.267485256E1,9.265952706E-1,1.606942058E0,1.876927018E-1
2.269485256E1,8.652120829E-1,1.531316996E0,2.220058739E-1
2.271485256E1,1.174693823E0,8.847771883E-1,3.815115094E-1
2.273485256E1,1.542905927E0,1.498016119E-1,3.887022734E-1
2.275685256E1,1.752170920E0,-4.144633412E-1,1.803623289E-1
2.277885256E1,1.761002302E0,-6.204470992E-1,9.215338156E-3
2.280085256E1,1.487177610E0,-1.385442317E-1,6.946410239E-2
2.282286663E1,5.968676805E-1,8.764519691E-1,1.690351367E-1
2.284485881E1,-8.587019518E-3,8.815483451E-1,2.532472648E-2
2.286685256E1,-2.451838553E-1,2.315004766E-1,1.855284907E-2
2.288685256E1,-7.947182059E-1,2.123018503E-1,5.283111706E-2
2.290685256E1,-2.183982849E0,1.047075391E0,1.850049011E-2
2.292885100E1,-3.716783285E0,1.735101581E0,-4.274311289E-2
2.294885100E1,-4.341401577E0,1.688414097E0,-1.907295734E-1
2.296885100E1,-4.124177933E0,9.565277100E-1,-5.399525166E-1
2.298885256E1,-3.871122837E0,7.761653662E-1,-6.400995255E-1
2.301085100E1,-3.132220268E0,5.153084397E-1,-5.484871864E-1
2.303085100E1,-2.164923906E0,-5.135107636E-1,-3.269525170E-1
2.305085100E1,-1.819697738E0,-2.265960932E0,-6.792821735E-2
2.307085100E1,-3.157143593E0,-2.988806486E0,2.862339914E-1
2.309085256E1,-3.726138353E0,-1.583764076E0,6.603453159E-1
2.311285256E1,-2.777010918E0,5.525712371E-1,7.171034217E-1
2.313285256E1,-1.897452116E0,1.652023911E0,4.887619913E-1
2.315285256E1,-1.341966152E0,1.925656676E0,2.805791199E-1
2.317285256E1,-9.482722878E-1,1.313115954E0,3.455751762E-2
2.319287288E1,-6.625968218E-1,-5.707226694E-3,-1.587027907E-1
2.321485256E1,-5.013283491E-1,-1.309084177E0,-1.281420738E-1
2.323485256E1,-2.336472273E-1,-1.759815454E0,-1.194852367E-1
2.325486038E1,3.229557276E-1,-1.887137294E0,-1.318421662E-1
2.327685100E1,8.580561876E-1,-2.179287910E0,-1.465902030E-1
2.329685100E1,1.451031804E0,-2.654453754E0,-3.995931447E-1
2.331685256E1,1.859526157E0,-3.113440514E0,-8.977973461E-1
2.333885100E1,-4.087002754E0,-2.547569752E0,-1.430663824E0
2.335885256E1,-6.642356396E0,-1.902583361E0,-3.475125134E-1
2.338085256E1,-1.304284573E0,5.842733860E0,-4.781678617E-1
2.340285256E1,2.258665562E0,-1.458955646E0,-2.330573082E0
2.342285881E1,2.478629351E0,1.693492979E-1,4.055621624E-1
2.344485725E1,2.522524357E0,2.464073181E0,1.888917446E0
2.346685256E1,3.367909431E0,-9.488831758E-1,2.023534775E-1
2.348885100E1,1.832735300E0,-1.617082477E0,-1.166630387E0
2.350885100E1,1.192827821E0,-2.036659718E0,-7.879288793E-1
2.352885100E1,1.400714040E0,-3.107244492E0,-6.627538800E-1
2.354885100E1,1.378932238E0,-3.603162527E0,-4.221777022E-1
2.356885256E1,1.327061057E0,-3.937986374E0,-1.748994440E-1
2.359085256E1,1.561441302E0,-3.782110929E0,-2.989923656E-1
2.361285100E1,1.888306618E0,-3.300557137E0,-4.982565939E-1
2.363285256E1,1.865809321E0,-2.674350500E0,-5.810201168E-1
2.365285256E1,1.622109056E0,-1.936111212E0,-5.116432905E-1
2.367285256E1,1.588528872E0,-1.625704408E0,-4.282688797E-1
2.369285256E1,1.592700243E0,-1.578667760E0,-3.188018501E-1
2.371285256E1,1.192757964E0,-1.170662165E0,-2.539279461E-1
2.373285256E1,9.885370135E-1,-9.244310856E-1,-3.028320670E-1
2.375485100E1,9.736493826E-1,-8.166220784E-1,-2.623229921E-1
2.377485100E1,7.808428407E-1,-1.462760419E-1,-2.517637312E-1
2.379485256E1,2.705260217E-1,1.038715243E0,-2.327396572E-1
2.381685256E1,-6.509554386E-1,2.439551353E0,-1.880592257E-1
2.383685256E1,-1.567899108E0,3.350665569E0,-3.433586359E-1
2.385885256E1,-2.196287394E0,3.227532625E0,-6.450562477E-1
2.388085256E1,-2.490968704E0,7.416776419E-1,-3.057991266E-1
2.390285256E1,-3.122708082E0,-5.013807416E-1,2.326872945E-1
2.392285256E1,-3.011042118E0,1.442758918E0,2.286206782E-1
2.394285412E1,-2.134974003E0,2.244144440E0,2.201907337E-1
2.396285725E1,-1.364341378E0,5.261469483E-1,2.933025658E-1
2.398487288E1,-1.725380182E0,4.799655639E-3,1.219985113E-1
2.400685100E1,-1.764562726E0,8.524362445E-1,2.860943675E-1
2.402685256E1,-1.570604324E0,1.942952871E0,5.784195662E-1
2.404685256E1,-1.362264395E0,2.282070398E0,4.492826462E-1
2.406689475E1,-1.084041476E0,1.729062796E0,1.574636102E-1
2.408885100E1,-1.145843506E0,1.428080797E0,5.534439161E-2
2.410885100E1,-1.211974025E0,8.831191659E-1,9.372418374E-2
2.412885256E1,-1.209094286E0,-9.604547173E-2,1.906597614E-1
2.414885256E1,-1.076379418E0,-9.629853964E-1,3.169692457E-1
2.417085256E1,-6.729815006E-1,-1.350902319E0,2.750464380E-1
2.419285256E1,-1.276708394E-1,-1.242482424E0,1.728574038E-1
2.421485256E1,4.046022296E-1,-1.120588660E0,1.609368026E-1
2.423485569E1,8.454549313E-1,-1.175810814E0,1.023461074E-1
2.425685256E1,1.240265846E0,-1.448326588E0,-6.059783325E-2
2.427885256E1,1.151934743E0,-1.553657174E0,-2.095442265E-1
2.430085256E1,3.060958385E-1,-1.208797574E0,-7.908086479E-2
2.432286506E1,-4.240452051E-1,-9.176940918E-1,-1.936268210E-1
2.434485100E1,-2.967932522E-1,-2.303485572E-1,-4.970697761E-1
2.436485256E1,-2.051809132E-1,1.698886037E0,-3.719820082E-1
2.438487131E1,-4.439070523E-1,3.151785374E0,-1.919164062E-1
2.440685100E1,-2.072875261E0,9.488482475E-1,-5.355717540E-1
2.442685256E1,-2.016029805E-1,1.489010215E0,3.286454827E-2
2.444885100E1,1.334426403E0,1.627606750E0,-1.135162115E-1
2.446885100E1,1.411447763E0,-8.273733258E-1,-2.106088847E-1
2.448885256E1,-1.887224466E-1,7.550469041E-1,6.197664142E-2
2.451085100E1,-3.706381321E-1,1.385651827E0,1.493303657E0
2.453085100E1,1.260319710E0,-3.914948106E-1,9.012356400E-1
2.455085100E1,1.237403512E0,2.400002182E-1,-5.675810575E-1
2.457085100E1,1.477805138E0,5.923647434E-2,-3.285233378E-1
2.459085256E1,1.702463984E0,2.152165473E-1,-1.993515044E-1
2.461285256E1,1.495083928E0,9.069254398E-1,-3.241250813E-1
2.463285256E1,1.198203444E0,9.210277200E-1,-8.485791087E-2
2.465285256E1,1.227821708E0,2.205747068E-1,1.396263391E-1
2.467285256E1,1.147868156E0,-2.504721880E-1,1.593834609E-1
2.469285256E1,9.133831263E-1,-3.549475968E-1,1.627694070E-1
2.471285256E1,7.467914820E-1,-5.113465786E-1,2.242050022E-1
2.473285256E1,3.815464377E-1,-2.695835531E-1,3.499210477E-1
2.475285256E1,1.630137563E-1,-1.907295734E-1,4.923748374E-1
2.477285256E1,3.959104717E-1,-3.438996673E-1,3.560122550E-1
2.479285256E1,5.568124056E-1,-8.164650202E-2,1.641482115E-1
2.481285881E1,5.163730979E-1,4.533318281E-1,1.466600150E-1
2.483485256E1,4.466471970E-1,7.106108069E-1,2.585356236E-1
2.485685100E1,3.596425354E-1,2.365444750E-1,2.276083827E-1
2.487685725E1,2.373298705E-1,-1.436056942E-1,2.501405776E-1
2.489885413E1,2.813645303E-1,5.717524290E-1,2.704736590E-1
2.492085100E1,3.868522346E-1,8.501847982E-1,3.320837915E-1
2.494085725E1,5.747368932E-1,9.595645666E-1,3.056246042E-1
2.496285256E1,5.974261761E-1,1.466617584E0,3.564834893E-1
2.498285413E1,6.997199655E-1,2.051268101E0,4.878195226E-1
2.500485256E1,1.168899298E0,2.616039038E0,4.549724162E-1
2.502486350E1,1.360274673E0,2.482015371E0,3.710221052E-1
2.504685256E1,1.189773440E0,1.418760657E0,4.119849801E-1
2.506885256E1,9.400343299E-1,5.585053470E-3,4.756545722E-1
2.509085256E1,7.818900347E-1,-1.371305227E0,4.727573395E-1
2.511285256E1,6.672393680E-1,-2.120086432E0,4.341681004E-1
2.513285256E1,5.041383505E-1,-2.271964788E0,2.770535648E-1
2.515285256E1,2.524444163E-1,-2.116787672E0,2.922728360E-1
2.517286506E1,-2.072578520E-1,-1.269587398E0,4.354421794E-1
2.519485256E1,-9.424603581E-1,4.267329872E-1,2.104343474E-1
2.521485725E1,-1.329923391E0,1.581826806E0,-9.983283468E-3
2.523685100E1,-1.252256274E0,1.692515612E0,5.883504823E-2
2.525685256E1,-1.227507472E0,1.343816280E0,3.272492439E-2
2.527885256E1,-1.349261642E0,7.786611915E-1,-4.764748737E-2
2.530085256E1,-1.473721147E0,-2.472957075E-1,-8.159413934E-2
2.532287288E1,-1.294091821E0,-1.734700203E0,-2.203827202E-1
2.534485256E1,-1.013669729E0,-2.577467442E0,-4.366988242E-1
2.536485256E1,-1.003354907E0,-2.330607891E0,-5.609662533E-1
2.538487131E1,-9.537177086E-1,-1.610362887E0,-5.664291382E-1
2.540685256E1,-7.208558917E-1,-7.530746460E-1,-5.352051854E-1
2.542685256E1,-5.139122009E-1,-2.989923656E-1,-6.106034517E-1
2.544885100E1,-3.386811316E-1,-3.685786426E-1,-6.432061791E-1
2.546885100E1,-2.134712189E-1,-5.333027840E-1,-6.615146995E-1
2.548885256E1,-1.451939344E-1,-6.566452384E-1,-7.151660919E-1
2.551085100E1,-1.743060350E-1,-8.820021152E-1,-7.277499437E-1
2.553085100E1,-2.946115732E-1,-1.215866208E0,-6.154379845E-1
2.555085100E1,-4.664217830E-1,-1.618129611E0,-4.874006510E-1
2.557085100E1,-5.667433143E-1,-2.058161974E0,-4.047243893E-1
2.559085256E1,-6.475171447E-1,-2.292158365E0,-3.647040129E-1
2.561285100E1,-7.743327618E-1,-2.508038044E0,-3.978652656E-1
2.563285256E1,-7.712435126E-1,-3.000744581E0,-4.291764498E-1
2.565285256E1,-5.588195324E-1,-3.810804129E0,-4.043404162E-1
2.567285256E1,-3.904301524E-1,-4.135924339E0,-4.498760700E-1
2.569285256E1,-3.553315699E-1,-3.554520130E0,-5.695707202E-1
2.571485256E1,-2.838428915E-1,-2.310693741E0,-6.992138028E-1
2.573485256E1,-1.063778177E-1,-1.646508694E0,-7.355690002E-1
2.575685100E1,-1.154709831E-1,-1.848897099E0,-5.663244128E-1
2.577685100E1,-1.450892240E-1,-1.692480683E0,-5.322381258E-1
2.579685100E1,-8.295550197E-2,-1.344392180E0,-7.640876770E-1
2.581685256E1,-2.044653147E-1,-1.480335951E0,-9.561612010E-1
2.583885256E1,-6.612354517E-1,-1.548421144E0,-8.629955053E-1
2.586085100E1,-1.694016606E-1,-1.526971102E0,-1.124341130E0
2.588085256E1,5.192354321E-1,-1.595056415E0,-1.198465228E0
2.590287131E1,4.540823102E-1,-1.628357291E0,-8.207585216E-1
2.592485100E1,-9.502619505E-1,-2.186321497E0,-1.836435497E-1
2.594485256E1,-6.062052250E-1,-1.001661897E0,-9.567545652E-1
2.596485256E1,1.350710243E-1,3.801850677E-1,-9.354441166E-1
2.598487288E1,8.484743834E-1,4.641703069E-1,-5.117828846E-1
2.600685100E1,1.200769067E0,-5.988399386E-1,-2.055648714E-1
2.602685256E1,7.081499100E-1,-1.929636002E0,-1.132020578E-1
2.604686194E1,3.196744919E-1,-2.546871662E0,-1.420174390E-1
2.606885256E1,1.914102584E-1,-2.666357040E0,-1.008625776E-1
2.608885256E1,1.594532728E-1,-3.637423277E0,-1.592612863E-1
2.611085100E1,4.933871329E-1,-4.920868397E0,-2.002241760E-1
2.613085100E1,3.090628982E-1,-3.913761139E0,-3.186971247E-1
2.615085256E1,3.453657627E-1,-1.982694030E0,-2.073625624E-1
2.617085256E1,7.261616588E-1,8.370599151E-2,-7.456046343E-2
2.619285256E1,9.392489195E-1,1.516743422E0,-1.326450263E-3
2.621485256E1,8.055567145E-1,2.155638695E0,1.433089823E-1
2.623485256E1,5.361477137E-1,2.228820324E0,2.348689586E-1
2.625685256E1,3.178244531E-1,1.905061722E0,1.933126599E-1
2.627885256E1,3.368136287E-1,1.131182790E0,1.344078034E-1
2.630085256E1,3.575656116E-1,5.010316372E-1,6.546729803E-2
2.632285100E1,1.560847908E-1,5.840569735E-1,6.768386811E-2
2.634285256E1,-1.986184716E-2,8.369551897E-1,1.717403904E-2
2.636285256E1,1.436406001E-2,9.874374866E-1,-4.858996719E-2
2.638285725E1,2.332807034E-1,9.430188537E-1,-8.967501670E-2
2.640485256E1,4.464028478E-1,7.445051074E-1,4.928809777E-2
2.642685256E1,4.940503538E-1,3.962071836E-1,1.063952744E-1
2.644885100E1,4.456523657E-1,-1.090830788E-1,-9.669124149E-3
2.646885100E1,2.748195529E-1,-5.183278918E-1,5.126031861E-2
2.648885256E1,1.857204884E-1,-3.210183978E-1,3.434807807E-2
2.651085100E1,1.906772256E-1,2.815565169E-1,1.004786044E-1
2.653085256E1,1.982868612E-1,7.225488424E-1,1.924749166E-1
2.655085256E1,1.664520502E-1,9.453401566E-1,2.378360182E-1
2.657285100E1,1.330464482E-1,9.435948133E-1,2.661452591E-1
2.659285256E1,1.386838555E-1,7.499330640E-1,3.145432472E-1
2.661285256E1,1.540776640E-1,6.761580110E-1,2.684490979E-1
2.663285256E1,1.662775129E-1,6.640105247E-1,2.952224314E-1
2.665485256E1,1.707455665E-1,5.710717440E-1,4.390375614E-1
2.667685256E1,9.925687313E-2,4.669453800E-1,5.260946155E-1
2.669885100E1,1.066396199E-2,3.415783942E-1,5.829574466E-1
2.671885100E1,-3.625048697E-2,2.526364028E-1,6.092770100E-1
2.673885100E1,-8.779006079E-3,1.004262418E-1,6.818826795E-1
2.675885100E1,5.717698485E-2,5.412266031E-2,6.825284362E-1
2.677885256E1,1.156106070E-1,9.245008975E-2,4.957956672E-1
2.680085256E1,1.769938320E-1,2.042209804E-1,2.920284867E-1
2.682285881E1,2.117782533E-1,3.396410644E-1,1.803274155E-1
2.684485100E1,1.862964481E-1,1.910437346E-1,4.520926476E-1
2.686485256E1,7.260569837E-3,1.206371561E-1,7.688524127E-1
2.688487131E1,-9.704030305E-2,2.314481139E-1,9.377654195E-1
2.690685256E1,-2.527236752E-2,3.008773029E-1,8.192750216E-1
2.692685256E1,2.046049535E-1,1.309171468E-1,5.886122584E-1
2.694685256E1,2.704562247E-1,1.902408898E-2,4.439768493E-1
2.696685256E1,9.093165398E-2,2.207317948E-1,2.389879376E-1
2.698685256E1,4.995132238E-2,5.765869617E-1,1.471661627E-1
2.700685256E1,1.757372022E-1,6.906442642E-1,-7.347836159E-3
2.702685256E1,2.390053868E-1,8.685281873E-1,-1.073901057E-1
2.704685256E1,2.506641746E-1,1.055959105E0,-5.396557972E-2
2.706885256E1,2.839825153E-1,1.057686925E0,-2.326523885E-2
2.709085256E1,2.693392038E-1,8.588590622E-1,2.111848444E-3
2.711286819E1,2.536661625E-1,5.785940886E-1,1.680752076E-2
2.713485256E1,2.743308544E-1,4.376413226E-1,8.347909898E-2
2.715485256E1,2.695137560E-1,3.374594152E-1,1.633453667E-1
2.717685256E1,1.182809621E-1,1.739220619E-1,1.323308647E-1
2.719885256E1,-1.205848008E-1,6.115633622E-2,9.560913593E-2
2.722085100E1,-1.696110964E-1,-1.718102098E-1,1.320167035E-1
2.724085256E1,-1.054702476E-1,-3.707951903E-1,6.328564137E-2
2.726286506E1,-1.650034338E-1,-3.947585821E-1,-6.688101590E-2
2.728487288E1,-2.332458049E-1,-4.045149684E-1,-1.121548563E-1
2.730685100E1,-1.817934960E-1,-3.926118016E-1,-1.133416817E-1
2.732685256E1,-1.081755087E-1,-2.819055915E-1,-9.412560612E-2
2.734885256E1,-6.244787946E-2,-6.181956083E-2,-7.380997390E-2
2.737085100E1,-3.750712425E-2,8.237954229E-2,-3.422590718E-2
2.739085256E1,-1.038470864E-2,5.918411538E-2,-1.289798319E-2
2.741285256E1,3.438298590E-3,-2.450442314E-2,3.609341010E-2
2.743285256E1,7.295476273E-3,-5.459389836E-2,4.689699784E-2
2.745285569E1,2.766346931E-2,-5.342452973E-2,2.993239649E-2
2.747485256E1,5.255186185E-2,2.602285892E-2,-2.930407785E-2
2.749685100E1,3.640756756E-2,2.539803088E-1,-7.508406043E-2
2.751685100E1,5.129522830E-2,3.448421657E-1,-4.633849114E-2
2.753685569E1,5.457644537E-2,2.895850241E-1,-5.782275647E-2
2.755885256E1,2.516764775E-2,2.557081878E-1,-4.712388909E-4
2.757885256E1,2.722713631E-3,1.451241225E-1,2.530727349E-2
2.760085256E1,1.773254573E-2,-4.614650458E-2,-7.679448463E-4
2.762285256E1,3.195697814E-2,-6.660176069E-2,-4.314453900E-2
2.764285881E1,6.136577576E-2,2.602285892E-2,-8.611454815E-2
2.766285881E1,8.456119895E-2,1.175130159E-1,-1.062556431E-1
2.768487444E1,6.244787946E-2,1.223126724E-1,-6.082472578E-2
2.770685100E1,1.701696031E-2,1.224697530E-1,2.534218132E-2
2.772685100E1,-5.969026126E-3,1.367640048E-1,9.861109778E-3
2.774685256E1,2.129301662E-3,1.086292937E-1,-3.932226822E-2
2.776885100E1,2.155481651E-2,7.309439033E-2,-6.496115774E-2
2.778885100E1,-1.666789502E-2,5.113814771E-2,-5.675810575E-2
2.780885100E1,-4.864232615E-2,-8.276351541E-2,-3.485422581E-2
2.782885100E1,-6.243042648E-2,-3.406708241E-1,9.773843922E-3
2.784885256E1,-1.332907975E-1,-5.691867471E-1,2.111848444E-2
2.787085100E1,-1.535889804E-1,-5.659579039E-1,-3.223622963E-2
2.789085100E1,-5.618214980E-2,-2.032784969E-1,-5.707226694E-2
2.791085100E1,7.068583276E-3,1.271472424E-1,-1.113520097E-2
2.793085100E1,8.695230633E-2,1.151219159E-1,5.592034757E-2
2.795085256E1,1.031489596E-1,-1.045452245E-2,4.303981736E-2
2.797085256E1,2.972295694E-2,-7.215191424E-2,-9.599310579E-4
2.799085256E1,-3.529055789E-2,-2.473480552E-1,1.970476657E-2
2.801285256E1,-1.164309159E-1,-4.749215543E-1,8.150687441E-3
2.803285256E1,-1.565385759E-1,-5.431115627E-1,-2.586578019E-2
2.805285256E1,-1.509011686E-1,-4.931602180E-1,-2.544690110E-2
2.807285256E1,-9.943141043E-2,-4.111297429E-1,1.110029407E-2
2.809285256E1,-6.461209059E-2,-2.071705759E-1,3.801327199E-2
2.811485100E1,-2.303834632E-2,-2.408554312E-3,3.026400879E-2
2.813485256E1,5.057964101E-2,1.930334233E-2,3.481931984E-2
2.815485256E1,6.174974889E-2,-3.787364438E-2,4.508185387E-2
2.817685100E1,1.174606569E-2,-8.246680349E-2,3.853686899E-2
2.819685100E1,3.206169978E-2,-2.119004279E-1,5.389576778E-2
2.821685100E1,-5.864306353E-3,-2.547307909E-1,4.768239334E-2
2.823685100E1,-4.726351425E-2,-1.739918739E-1,-1.314232964E-2
2.825685256E1,-2.520255372E-2,-1.413193047E-1,-4.127703607E-2
2.827885256E1,-2.148500271E-2,-1.508139074E-1,-1.424188633E-2
2.830085100E1,-5.750859901E-2,-1.379682720E-1,2.160717547E-2
2.832085256E1,-5.635667965E-2,-1.498365104E-1,2.303834632E-2
2.834285569E1,-3.548254445E-2,-1.167101637E-1,1.256637089E-2
2.836485256E1,-2.279400080E-2,-8.485791087E-2,-8.866272867E-3
2.838487288E1,-4.974188283E-3,-1.152266338E-1,-1.932079531E-2
2.840685256E1,-1.246165112E-2,-1.230457127E-1,-1.762782596E-2
2.842685256E1,-1.640609466E-3,-1.063603610E-1,4.904375412E-3
2.844685256E1,2.073451132E-2,-7.136651129E-2,8.499753661E-3
2.846685256E1,-1.473057922E-2,-5.347688869E-2,4.188790335E-4
2.848885256E1,-2.080432512E-2,-1.132195070E-1,4.537856148E-4
2.850885256E1,-1.893682219E-2,-4.796164855E-2,1.963495463E-2
2.853085100E1,8.342674002E-3,1.184729487E-1,3.804817796E-3
2.855085100E1,4.468042776E-2,9.154251963E-2,-8.133234456E-3
2.857085100E1,1.506219152E-2,-9.023352526E-3,-2.481858246E-2
2.859085100E1,-4.347615317E-2,-8.107054234E-2,-3.719296679E-2
2.861085100E1,-5.080653355E-2,-7.314674556E-2,-3.291691095E-2
2.863085100E1,-2.307325229E-2,-8.011060953E-2,-1.422443334E-2
2.865085100E1,-2.642428502E-2,-8.443903178E-2,9.669124149E-3
2.867085256E1,-4.014257342E-3,-8.302531391E-2,1.610938832E-2
2.869285256E1,2.701769583E-2,-8.970992640E-3,1.396263367E-3
2.871285256E1,2.661627159E-2,4.954989627E-2,-1.151917269E-3
2.873285256E1,1.769763790E-2,1.277581044E-2,6.911503617E-3
2.875285256E1,-1.272345055E-2,-4.857251421E-2,7.033676840E-3
2.877285256E1,-1.122246683E-2,-2.150245570E-2,-3.420845373E-3
2.879485256E1,9.250245057E-4,4.740314186E-2,-2.740166849E-3
2.881685256E1,-1.223475765E-2,5.241223797E-2,-8.447393775E-3
2.883685256E1,-5.934119225E-3,3.111921996E-2,-1.370083448E-2
2.885685256E1,1.692969352E-2,4.324925691E-2,-3.892084118E-3
2.887885100E1,2.007128671E-2,1.036376506E-1,-3.228859045E-3
2.889885100E1,4.869468510E-2,1.186474785E-1,-6.789330859E-3
2.891885256E1,4.843288660E-2,1.182111502E-1,2.094394993E-3
2.894085100E1,4.948008433E-2,1.267807186E-1,-6.178465672E-3
2.896085256E1,6.277949363E-2,1.077391729E-1,-1.375319436E-2
2.898285413E1,6.455972791E-2,1.249830276E-1,-2.213077433E-2
2.900485256E1,5.824163556E-2,1.678483188E-1,-2.960078418E-2
2.902485256E1,5.251695588E-2,1.047721133E-1,-5.672320258E-3
2.904685256E1,3.275983036E-2,7.051130384E-2,1.474803220E-2
2.906685256E1,1.209513191E-2,1.012465507E-1,-6.335545331E-3
2.908885100E1,2.195624262E-2,1.109331250E-1,-3.150319308E-2
2.910885100E1,2.284635976E-2,9.253735840E-2,-2.935643867E-2
2.912885100E1,7.365289610E-3,8.719664812E-2,-1.202531811E-2
2.914885256E1,-2.469640970E-2,1.115439907E-1,-1.797689125E-3
2.917085256E1,-8.656833321E-3,8.319984376E-2,-5.462880712E-3
2.919285256E1,2.094395086E-2,2.977531776E-2,-3.089232836E-3
2.921285256E1,7.103490178E-3,8.518952131E-2,-1.050688233E-2
2.923285256E1,2.898991853E-2,7.707373798E-2,-1.476548519E-2
2.925285256E1,3.893829510E-2,5.119050667E-2,-1.225221157E-2
2.927285256E1,2.408554405E-2,7.536331564E-2,-1.244419720E-2
2.929285256E1,5.864306353E-3,1.000073627E-1,-2.071705833E-2
2.931285256E1,3.998549283E-2,3.977605328E-2,-6.736970972E-3
2.933285256E1,3.464478627E-2,5.328490213E-2,1.153662615E-2
2.935285256E1,2.234021388E-2,1.129053459E-1,8.883725852E-3
2.937285256E1,4.127703607E-2,1.313360184E-1,-5.166174378E-3
2.939485100E1,6.447245926E-2,9.784315526E-2,-1.167625282E-2
2.941485256E1,2.104867063E-2,7.794640213E-2,-2.539454028E-2
2.943485256E1,-4.555309191E-3,9.215338156E-3,-1.370083448E-2
2.945485256E1,-7.470009383E-3,-2.832669392E-2,-1.612684131E-2
2.947685256E1,-1.768018492E-2,5.777040031E-3,-1.427679323E-2
2.949885256E1,-1.794198528E-2,1.918116771E-2,-8.237954229E-3
2.952085256E1,-1.570796303E-4,2.443460980E-4,-1.692969352E-3
2.954285412E1,2.024581889E-3,-1.710422710E-2,-7.086036727E-3
2.956485100E1,-1.134464052E-3,-1.893682219E-2,8.726646047E-5
2.958487288E1,3.543018363E-3,-2.466150187E-2,6.021386012E-3
2.960685256E1,1.117010717E-3,-3.747221828E-2,1.535889693E-3
2.962685256E1,-1.649336144E-2,-2.450442314E-2,-8.185594343E-3
2.964685881E1,-1.897172816E-2,-3.961897455E-3,-2.670353744E-3
2.966885100E1,-2.352703735E-2,-3.298672382E-3,-8.918632753E-3
2.968885100E1,-2.099631168E-2,-2.926917188E-2,-6.265731994E-3
2.970885100E1,-2.771582827E-2,-1.619665511E-2,-4.886921961E-4
2.972885100E1,-1.385791413E-2,3.031636961E-2,-1.361356815E-3
2.974885100E1,-8.377580671E-4,4.834562168E-2,1.500983140E-3
2.976885100E1,-7.679448463E-4,1.040216256E-2,-2.617993741E-4
2.978885256E1,-1.699950732E-2,-3.628539667E-2,-5.724680144E-3
2.981085256E1,-1.855284907E-2,-3.373721614E-2,-8.255407214E-3
2.983285256E1,-2.340486459E-2,-6.475171540E-3,5.759586347E-4
2.985285256E1,-3.186971322E-2,-1.734857261E-2,-8.587019518E-3
2.987285256E1,-1.862266287E-2,-3.717551380E-2,2.059488557E-3
2.989285256E1,-2.150245570E-2,2.792526735E-3,2.356194425E-3
2.991285725E1,-2.178170905E-2,1.963495463E-2,3.857177682E-3
2.993485256E1,-2.221804112E-2,-1.750565320E-2,-7.644542027E-3
2.995485256E1,-2.867575921E-2,-5.386086181E-2,-2.949606394E-3
2.997485256E1,-2.754129469E-2,-3.632030264E-2,1.500983140E-3
2.999485256E1,-2.389355749E-2,-2.132792398E-2,-5.044001620E-3
3.001485256E1,-8.203047328E-3,-3.946189582E-2,-5.410520826E-3
3.003485256E1,-1.427679323E-2,-1.588249579E-2,-3.473205259E-3
3.005489475E1,-2.499311417E-2,-2.419026382E-2,2.373647876E-3
3.007685100E1,-2.864085324E-2,-3.085742146E-2,3.176499158E-3
3.009685100E1,-1.717403904E-2,-3.570943698E-2,9.302604944E-3
3.011685256E1,-1.719149388E-2,-3.790855035E-2,1.047197584E-4
3.013885256E1,2.340486459E-2,-3.293436393E-2,0.000000000E0
3.016085256E1,3.246312216E-2,3.684389964E-2,7.661995478E-3
3.018085256E1,2.729694918E-2,3.796090931E-2,-2.181661548E-3
3.020086038E1,1.717403904E-2,-3.790855035E-2,-3.682644805E-3
3.022285725E1,-1.788962446E-2,-5.523966998E-2,-4.817108624E-3
3.024286194E1,-1.300270297E-2,-5.115560070E-2,-8.499753661E-3
3.026485256E1,-1.675516134E-3,1.396263367E-3,-2.251474652E-3
3.028487756E1,-2.247984149E-2,4.413937777E-2,-3.839724232E-3
3.030685100E1,-1.507964451E-2,-2.007128671E-2,5.044001620E-3
3.032685256E1,-2.871066518E-2,-5.141739920E-2,6.527531426E-3
3.034885256E1,-9.861109778E-3,-2.979277074E-2,7.504915819E-3
3.037085100E1,-5.759586580E-3,2.286381321E-3,-1.117010694E-2
3.039085256E1,-3.961897455E-3,-1.521927118E-2,-1.005309634E-2
3.041285100E1,-1.680752076E-2,-1.342158206E-2,-4.450589418E-3
3.043285725E1,-1.230457146E-2,-3.764675185E-2,1.413716702E-3
3.045485256E1,5.951572675E-3,-4.105014354E-2,1.357866172E-2
3.047485256E1,-2.167698927E-2,2.478367416E-3,5.794493016E-3
3.049685100E1,-1.462585945E-2,-3.675663471E-2,4.363323096E-4
3.051685100E1,-2.083923109E-2,-4.871213809E-2,-2.617993741E-4
3.053685256E1,-6.300638430E-3,-2.492330223E-2,-1.850049011E-3
3.055885100E1,-3.490658419E-4,1.616174914E-2,1.977458037E-2
3.057885256E1,1.253146399E-2,5.235987483E-4,1.965240762E-2
3.060085100E1,1.684242673E-2,-4.459316283E-2,1.029744279E-2
3.062085256E1,-4.886921961E-3,-7.899360359E-2,3.211405827E-3
3.064285256E1,-3.436553106E-2,-8.255407214E-2,-4.398229532E-3
3.066285256E1,-3.574434295E-2,-7.899360359E-2,-1.797689125E-3
3.068285256E1,-4.178318381E-2,-7.016223669E-2,1.972222002E-3
3.070287131E1,-3.741985932E-2,-7.979645580E-2,6.754423957E-3
3.072485256E1,-3.347541392E-2,-7.052875310E-2,2.403318323E-2
3.074685256E1,-2.998475730E-2,-5.925392732E-2,2.223549411E-2
3.076685256E1,-2.017600648E-2,-5.958554149E-2,1.052433532E-2
3.078885100E1,-1.066396199E-2,-5.206317082E-2,-7.243116386E-3
3.080885100E1,-6.562437862E-3,-4.968952388E-2,-3.385938704E-3
3.082885100E1,-3.736750036E-2,-1.619665511E-2,-2.862340072E-3
3.084885256E1,-3.300417587E-2,-3.996803984E-2,8.115780540E-3
3.087085100E1,3.106686054E-3,-7.836528122E-2,1.027998887E-2
3.089085100E1,-3.595378250E-3,-4.827580601E-2,-6.806784077E-4
3.091085100E1,-3.010693006E-2,-2.104867063E-2,-9.023352526E-3
3.093085100E1,-2.448697016E-2,-3.906046972E-2,-7.696901914E-3
3.095085256E1,-7.888888009E-3,-4.881685972E-2,1.483529806E-3
3.097285100E1,-1.319468953E-2,-1.619665511E-2,1.136209350E-2
3.099285256E1,-1.605702913E-3,-5.759586580E-3,-2.024581889E-3
3.101285256E1,1.069886796E-2,-1.621410809E-2,-5.934119225E-3
3.103285256E1,-3.961897455E-3,-1.675515994E-2,-1.246165112E-2
3.105290100E1,-1.048942842E-2,-6.141813472E-2,-9.721484035E-3
3.107485256E1,-1.813396998E-2,-5.183627829E-2,-1.380555425E-2
3.109485256E1,-3.274237737E-2,6.335545331E-3,-1.596976258E-2
3.111685256E1,-2.457423508E-2,-2.036799304E-2,-1.021017600E-2
3.113885256E1,-6.038838997E-3,-3.454006463E-2,5.969026126E-3
3.116085256E1,-1.659808122E-2,-2.844886621E-3,-3.630284918E-3
3.118285256E1,-7.941247895E-3,-6.056292448E-3,-1.080358773E-2
3.120285256E1,-4.345869645E-3,-3.593632951E-2,-1.490511186E-2
3.122485256E1,2.548180753E-3,-2.858849242E-2,-3.316125658E-4
3.124486350E1,-5.410520826E-3,-6.440265104E-3,-2.426007763E-3
3.126685256E1,-2.035053819E-2,1.801179722E-2,-9.250245057E-3
3.128885100E1,-1.624901593E-2,5.707226694E-3,-1.211258490E-2
3.130885100E1,-7.679448463E-3,3.979350906E-3,-1.256637089E-2
3.132885100E1,-3.316125646E-2,2.268928103E-2,-1.169370604E-3
3.134885100E1,-4.719370231E-2,2.872812003E-2,-8.168140426E-3
3.136885100E1,-2.975786291E-2,-3.385938704E-3,-4.974188283E-3
3.138885100E1,-1.813396998E-2,2.338741161E-2,-7.016223390E-3
3.140885100E1,-1.809906401E-2,7.105235010E-2,-1.521927118E-2
3.142885100E1,-1.137954649E-2,5.913175642E-2,-1.754055917E-2
3.144885100E1,-1.043706853E-2,7.539822254E-3,-1.857030392E-2
3.146885100E1,-2.562143281E-2,-1.193805225E-2,-1.699950732E-2
3.148885100E1,-3.059562109E-2,3.787364578E-3,-1.514945831E-2
3.150885100E1,-4.113740847E-2,3.612831607E-2,-2.076941729E-2
3.152885100E1,-5.756095797E-2,3.792600334E-2,-1.555088349E-2
3.154885100E1,-4.187044874E-2,-1.916371472E-2,-4.014257283E-4
3.156885100E1,-8.604473434E-3,-6.424556673E-2,1.195550524E-2
3.158885100E1,-2.038544603E-2,-7.068583276E-3,-4.677482415E-3
3.160885100E1,-3.775146976E-2,4.874704406E-2,-4.297000542E-2
3.162885256E1,-3.974114731E-2,4.263839498E-2,-3.429571912E-2
3.164885256E1,-4.658283666E-2,1.932079531E-2,-8.168140426E-3
3.166885256E1,-1.576032303E-2,2.981022373E-2,-2.967059612E-3
3.168885256E1,4.520402849E-2,6.065019220E-2,2.769837528E-2
3.170885256E1,6.267477572E-2,8.761552721E-2,4.728097096E-2
3.173085100E1,2.947861142E-2,8.738863468E-2,5.070181563E-2
3.175085256E1,3.227113932E-2,5.026548356E-2,5.639158934E-2
3.177085256E1,8.674286306E-2,2.363175713E-2,7.124433666E-2
3.179285100E1,1.413716674E-1,1.152789965E-1,7.648032904E-2
3.181285100E1,1.544790864E-1,2.127730846E-1,6.215117499E-2
3.183285256E1,1.760339141E-1,1.747598201E-1,3.672172874E-2
3.185285256E1,1.590867639E-1,1.096764877E-1,2.169444226E-2
3.187285569E1,1.223650351E-1,2.864085324E-2,9.040805511E-3
3.189485256E1,1.504299343E-1,-1.260127686E-2,2.042035200E-2
3.191485256E1,1.832072139E-1,-8.726646192E-4,3.607595712E-2
3.193485256E1,1.869596690E-1,8.482300490E-2,4.110250250E-2
3.195485256E1,2.065073550E-1,8.044222742E-2,1.490511186E-2
3.197685100E1,1.350361258E-1,9.805259854E-2,-6.736970972E-3
3.199685100E1,2.968805097E-2,1.992816925E-1,-1.129228063E-2
3.201685100E1,-1.139700040E-2,2.173458487E-1,4.485496320E-3
3.203685256E1,-4.187044874E-2,2.597224414E-1,2.097885683E-2
3.205686663E1,-6.448991597E-2,2.970375717E-1,2.497566119E-2
3.207885256E1,-7.189010829E-2,2.109055817E-1,4.536110535E-2
3.210085256E1,-4.455825686E-2,1.029046103E-1,3.096214123E-2
3.212285256E1,4.537856148E-4,4.822344705E-2,-5.183627829E-3
3.214285569E1,-9.599310579E-4,9.159488231E-2,-4.710643739E-2
3.216485256E1,1.361356815E-3,8.061675727E-2,-4.351105914E-2
3.218487131E1,4.136430100E-3,4.118977115E-2,-2.888519876E-2
3.220685100E1,-4.415683076E-2,9.138543904E-2,-4.267330095E-2
3.222685256E1,-5.344198272E-2,1.253146380E-1,-4.080579802E-2
3.224685256E1,-4.361577705E-2,1.377762854E-1,-4.012512043E-2
3.226685256E1,-9.564404376E-3,1.418603659E-1,-4.722860828E-2
3.228885256E1,3.916518763E-2,1.625774205E-1,-4.687954485E-2
3.230885256E1,3.581415489E-2,2.177472711E-1,-4.237659276E-2
3.232885256E1,2.216568217E-2,2.118480653E-1,-5.101597309E-2
3.234885256E1,3.794345632E-2,1.313011199E-1,-5.609488115E-2
3.237085100E1,3.858922794E-2,1.413542181E-1,-5.049237609E-2
3.239085100E1,1.317723561E-2,2.099805623E-1,-3.790855035E-2
3.241085100E1,2.303834632E-2,1.842718571E-1,-2.234021388E-2
3.243085100E1,4.082325101E-2,1.603259444E-1,-2.724459022E-2
3.245085256E1,3.616322204E-2,1.851270795E-1,-4.110250250E-2
3.247285100E1,2.715732343E-2,1.757546514E-1,-4.876450077E-2
3.249285725E1,4.468042869E-3,1.341460049E-1,-3.330088034E-2
3.251485256E1,-2.242748067E-2,1.202706397E-1,-1.555088349E-2
3.253485256E1,-1.764527895E-2,1.176351905E-1,-2.050761878E-2
3.255485256E1,5.619960371E-3,1.310916841E-1,-1.741838641E-2
3.257485256E1,1.115265395E-2,1.701521426E-1,-1.675515994E-2
3.259485256E1,1.172861271E-2,1.300444752E-1,-3.769911127E-3
3.261685256E1,1.254891697E-2,6.433283538E-2,-5.585053470E-3
3.263885256E1,7.976154797E-3,3.666936606E-2,-1.830850355E-2
3.266085256E1,1.364847459E-2,7.670722157E-2,-3.001966327E-2
3.268085256E1,2.755874954E-2,7.714354992E-2,-3.511602432E-2
3.270286038E1,6.859143730E-3,6.401867419E-2,-3.267256171E-2
3.272485256E1,-4.782202188E-3,5.169665068E-2,-8.918632753E-3
3.274685256E1,3.612831468E-3,3.771656379E-2,1.083849464E-2
3.276685256E1,9.058258496E-3,2.794272080E-2,3.141592722E-3
3.278685881E1,8.028514567E-4,1.178097259E-2,-1.221730467E-2
3.280885100E1,-4.817108624E-3,1.774999872E-2,-1.565560326E-2
3.282885100E1,9.669124149E-3,1.685987972E-2,-1.979203336E-2
3.284885256E1,1.103048120E-2,1.876228862E-2,-8.307767101E-3
3.287085100E1,-8.429939859E-3,8.901178953E-4,-1.448623254E-3
3.289085100E1,-2.443460980E-4,-1.542871073E-2,2.757620299E-3
3.291085100E1,-1.448623254E-3,-6.998770405E-3,6.248278543E-3
3.293085100E1,-2.005383372E-2,1.106538717E-2,-2.949606394E-3
3.295085256E1,-1.820378378E-2,-1.670280099E-2,-3.769911127E-3
3.297285256E1,-8.883725852E-3,1.033234876E-2,-3.124139272E-3
3.299285256E1,1.186823938E-3,7.120943163E-3,1.223475765E-2
3.301285256E1,-5.166174378E-3,-6.876597181E-3,7.784168236E-3
3.303286350E1,-4.694935866E-3,2.321287990E-3,-2.076941775E-3
3.305485100E1,-6.161012221E-3,1.326450263E-3,-1.310742274E-2
3.307485256E1,-4.991641734E-3,-2.480112948E-2,3.141592722E-3
3.309485256E1,-8.569566533E-3,-5.972516537E-2,8.150687441E-3
3.311685256E1,-1.219985168E-2,-3.574434295E-2,-1.308996929E-3
3.313685256E1,-1.012290944E-3,-1.823868975E-2,-6.108652451E-4
3.315885100E1,-2.216568217E-3,-6.457717973E-4,0.000000000E0
3.317885256E1,9.756390937E-3,3.996803891E-3,-2.530727303E-3
3.319885256E1,2.258456126E-2,-9.669124149E-3,4.974188283E-3
3.321885256E1,8.377580671E-4,-1.099557383E-3,7.679448463E-3
3.324085256E1,-6.108652335E-3,-1.134464052E-2,1.050688233E-2
3.326286038E1,-7.016223390E-3,-3.609341010E-2,8.447393775E-3
3.328487131E1,-6.667157635E-3,-2.312561311E-2,-2.897246508E-3
3.330685100E1,1.980948634E-2,-2.802998759E-2,-5.427973811E-3
3.332685256E1,1.043706853E-2,-1.378810150E-3,2.338741207E-3
3.334685256E1,1.584758982E-2,2.513274085E-3,1.553343027E-3
3.336885100E1,2.453932911E-2,1.308996975E-2,-3.839724232E-4
3.338885100E1,2.546435408E-2,2.562143281E-2,1.460840553E-2
3.340885100E1,1.254891697E-2,7.470009383E-3,1.050688233E-2
3.342885256E1,-2.984513063E-3,-8.953538723E-3,3.228859045E-3
3.345085256E1,1.658062800E-3,-2.581341937E-2,6.108652451E-4
3.347285100E1,1.698205434E-2,-2.481858246E-2,1.270599663E-2
3.349285256E1,3.490658477E-3,2.268928103E-3,1.363102160E-2
3.351285256E1,3.089232836E-3,-1.731366664E-2,1.071632188E-2
3.353285256E1,9.075712413E-3,-1.911135577E-2,2.495820867E-3
3.355285725E1,1.200786512E-2,5.899212789E-3,-1.884955564E-3
3.357485100E1,1.743583940E-2,4.502949305E-3,-3.089232836E-3
3.359485256E1,2.052507177E-2,-1.336922217E-2,8.063420653E-3
3.361685256E1,-9.477137588E-3,-2.068215236E-2,1.230457146E-2
3.363685256E1,-1.698205434E-2,-4.050909355E-2,4.764748737E-3
3.365685256E1,7.504915702E-4,-5.141739920E-2,8.726646192E-3
3.367685256E1,-1.553343027E-3,-3.757693991E-2,6.143558770E-3
3.369885256E1,-9.477137588E-3,-2.249729447E-2,-3.490658477E-3
3.372085100E1,2.792526735E-3,-4.653047770E-2,7.871435024E-3
3.374085256E1,-1.490511186E-2,-4.232423380E-2,4.084070213E-3
3.376285881E1,-1.621410809E-2,-6.131341681E-2,4.537856148E-4
3.378487131E1,5.253441166E-3,-2.366666496E-2,9.494591504E-3
3.380685100E1,3.094468825E-2,-2.984513063E-3,7.976154797E-3
3.382685256E1,3.188716620E-2,8.045967668E-3,7.993607782E-3
3.384885256E1,1.596976258E-2,-2.436479554E-2,8.185594343E-3
3.386885256E1,3.001966281E-3,-1.914626174E-2,1.797689125E-3
3.389085256E1,7.400196046E-3,1.158898603E-2,-4.118977115E-3
3.391285256E1,-6.457717973E-4,-1.431170013E-2,9.564404376E-3
3.393285256E1,-1.850049011E-3,2.967059612E-3,5.218534265E-3
3.395285256E1,1.623156108E-2,2.071705833E-2,9.424777818E-4
3.397485256E1,3.309144080E-2,1.574287005E-2,-2.042035107E-3
3.399485256E1,2.303834632E-2,4.386012256E-2,-6.632251199E-3
3.401485256E1,3.506366536E-2,5.914920941E-2,-1.338667516E-2
3.403485256E1,3.504621238E-2,6.323327869E-2,-1.956514083E-2
3.405485256E1,3.132865950E-2,8.079128712E-2,-1.249655709E-2
3.407485256E1,2.644173801E-2,9.269443899E-2,-2.391101094E-3
3.409485256E1,4.277801886E-2,1.023810133E-1,1.186823938E-3
3.411485256E1,5.235987902E-2,1.129751652E-1,-5.881759338E-3
3.413485256E1,5.084143952E-2,1.362404078E-1,-4.241149873E-3
3.415485256E1,3.846705705E-2,1.559277177E-1,-8.011061698E-3
3.417685256E1,2.942625061E-2,1.455604583E-1,-2.251474652E-3
3.419685256E1,4.098033160E-2,1.439198554E-1,1.570796408E-2
3.421885256E1,4.621632025E-2,1.713738739E-1,1.565560326E-2
3.424085256E1,4.255112633E-2,1.838355362E-1,-3.001966281E-3
3.426285256E1,5.658357590E-2,1.425061375E-1,-9.267698042E-3
3.428285256E1,5.225515738E-2,1.716531366E-1,-1.305506285E-2
3.430285881E1,5.316272750E-2,1.937315464E-1,-1.846558414E-2
3.432286350E1,5.462880433E-2,1.562593281E-1,-1.558579039E-2
3.434286350E1,3.911282867E-2,1.264316440E-1,-5.602506921E-3
3.436485256E1,9.250245057E-3,1.274788529E-1,-1.104793418E-2
3.438487288E1,3.083996847E-2,1.133591309E-1,-1.054178830E-2
3.440685256E1,5.098106712E-2,1.088038236E-1,-2.687806962E-3
3.442885100E1,3.672172874E-2,1.329940856E-1,-1.113520097E-2
3.444885100E1,3.911282867E-2,1.250877529E-1,-6.143558770E-3
3.446885100E1,4.403465614E-2,1.023286507E-1,-7.016223390E-3
3.448885100E1,2.673844434E-2,9.053023160E-2,5.410520826E-3
3.450885256E1,1.380555425E-2,1.070410460E-1,-3.909537569E-3
3.453085256E1,2.125811018E-2,1.019097716E-1,-1.190314535E-2
3.455285256E1,1.268854365E-2,9.796532989E-2,-1.635373570E-2
3.457285256E1,1.904154196E-2,8.321730047E-2,-5.009094719E-3
3.459285256E1,3.813544288E-2,7.756242901E-2,-1.082104165E-3
3.461285256E1,4.551818594E-2,7.665485889E-2,9.040805511E-3
3.463285256E1,2.808234841E-2,7.030186057E-2,8.150687441E-3
3.465285256E1,1.994911395E-2,7.407177240E-2,2.251474652E-3
3.467285256E1,1.754055917E-2,3.954916075E-2,-3.560471581E-3
3.469285256E1,7.766715251E-3,2.497566119E-2,-3.420845373E-3
3.471285256E1,6.579891313E-3,2.368411794E-2,-1.038470864E-2
3.473485256E1,6.946410518E-3,1.043706853E-2,4.468042869E-3
3.475485256E1,9.232792072E-3,1.284562331E-2,7.888888009E-3
3.477485256E1,1.509709843E-2,2.426007763E-3,1.499237865E-2
3.479485256E1,1.607448235E-2,-4.101523664E-3,1.689478755E-2
3.481485256E1,1.642354764E-2,-2.234021388E-2,8.482299745E-3
3.483685256E1,3.333578818E-3,-3.787364578E-3,-3.822271014E-3
3.485885256E1,1.204277202E-2,-1.213003788E-2,2.076941775E-3
3.488085256E1,1.462585945E-2,-2.399827726E-2,1.223475765E-2
3.490286194E1,6.405358203E-3,-3.141592722E-3,9.948376566E-3
3.492485100E1,2.195624262E-2,1.117010694E-2,6.457717973E-4
3.494485256E1,2.874557301E-2,-2.158972248E-2,1.012290944E-3
3.496485256E1,6.667157635E-3,-1.953023486E-2,3.874630900E-3
3.498487131E1,-2.862340072E-3,-4.290019348E-2,7.382742595E-3
3.500685100E1,9.843656793E-3,-2.089159191E-2,1.048942842E-2
3.502685412E1,4.040437192E-2,-6.335545331E-3,1.507964451E-2
3.504885100E1,4.118977115E-2,-9.128072299E-3,3.473205259E-3
3.506885256E1,2.223549411E-2,1.057669520E-2,-3.176499158E-3
3.509085256E1,6.405358203E-3,-3.330088034E-2,-2.111848444E-3
3.511285100E1,2.914699726E-3,-7.457792014E-2,8.325220086E-3
3.513285256E1,-3.543018363E-3,-6.736970693E-2,1.230457146E-2
3.515285256E1,-1.226966456E-2,-3.546509147E-2,1.553343027E-3
3.517285256E1,8.028514683E-3,-2.745402977E-2,8.813912980E-3
3.519285256E1,1.066396199E-2,-2.342231758E-2,7.539822254E-3
3.521285256E1,9.913469665E-3,-3.478441015E-2,3.490658419E-4
3.523285881E1,2.366666496E-2,-3.497639671E-2,-3.560471581E-3
3.525485256E1,1.211258490E-2,-9.826203808E-3,4.450589418E-3
3.527485256E1,-1.483529806E-3,-2.391101094E-3,1.319468953E-2
3.529485256E1,-1.261873078E-2,-2.693043090E-2,0.000000000E0
3.531485256E1,2.513274085E-3,-4.122467712E-2,1.937315450E-3
3.533485256E1,1.398008689E-2,-1.394518092E-2,-3.141592722E-3
3.535685100E1,2.323033288E-2,-9.424777701E-3,2.740166849E-3
3.537685100E1,-3.298672382E-3,-1.933824830E-2,1.466076588E-3
3.539685256E1,-1.059414819E-2,-2.869321220E-2,3.630284918E-3
3.541885100E1,2.478367416E-3,-1.406735368E-2,1.099557430E-2
3.543885256E1,3.211405873E-2,4.047418386E-2,1.513200440E-2
3.546085100E1,1.745329238E-2,4.899139330E-2,1.218239777E-2
3.548085100E1,2.844886621E-3,3.193952609E-3,5.253441166E-3
3.550085100E1,2.234021435E-3,-2.209586836E-2,4.939281847E-3
3.552085100E1,7.155850180E-4,-1.043706853E-2,4.188789986E-3
3.554085256E1,4.869468510E-3,-1.366592757E-2,4.398229532E-3
3.556285412E1,1.884955540E-2,-9.686577134E-3,2.251474652E-3
3.558285725E1,1.460840553E-2,2.237512171E-2,1.570796303E-4
3.560485256E1,6.702064537E-3,2.043780498E-2,-8.552113432E-4
3.562485256E1,2.181661502E-2,-1.811651699E-2,7.330382708E-3
3.564485256E1,2.591813914E-2,-8.901178953E-4,1.375319436E-2
3.566485256E1,2.792526735E-3,2.850122750E-2,4.799655639E-3
3.568487131E1,-1.209513191E-2,2.871066518E-2,1.989675453E-3
3.570685100E1,4.084070213E-3,-2.696533687E-2,7.086036727E-3
3.572685256E1,2.356194425E-3,-2.450442314E-2,1.092576142E-2
3.574885100E1,-1.254891697E-2,1.422443334E-2,-3.577925032E-3
3.576885100E1,4.974188283E-3,3.944444004E-3,-6.300638430E-3
3.578885100E1,1.139700040E-2,-1.275835652E-2,-3.665191354E-3
3.580885100E1,-8.168140426E-3,-3.277728334E-2,-4.485496320E-3
3.582885100E1,-4.251622036E-2,-6.632251292E-2,3.804817796E-3
3.584885256E1,-3.810053691E-2,-1.103222594E-1,1.165879890E-2
3.586885256E1,-5.701990798E-2,-2.023185641E-1,3.326597437E-2
3.589085256E1,-8.491026610E-2,-3.150319159E-1,2.535963431E-2
3.591285256E1,-6.550220400E-2,-2.430720031E-1,2.234021435E-3
3.593285256E1,-3.104940802E-2,-8.091346174E-2,-1.546361670E-2
3.595285256E1,-1.041961554E-2,5.078908056E-3,-1.427679323E-2
3.597285256E1,-3.094468825E-2,-2.326523885E-2,3.630284918E-3
3.599285256E1,-5.700245500E-2,-5.550146848E-2,1.534144394E-2
3.601485256E1,-6.108652428E-2,-6.147049740E-2,1.031489577E-2
3.603685256E1,-7.789404690E-2,-2.146754880E-3,1.858775690E-2
3.605885100E1,-5.883504823E-2,-1.635373570E-2,2.459168993E-2
3.607885256E1,-1.640609466E-2,-9.004153311E-2,2.078687213E-2
3.610085256E1,-2.740166849E-3,-6.384414434E-2,4.101523664E-3
3.612285256E1,1.356120780E-2,-2.092649788E-2,3.316125658E-4
3.614485100E1,3.361504152E-2,-3.316125600E-3,-2.705260413E-3
3.616485256E1,2.366666496E-2,3.717551241E-3,-1.286307629E-2
3.618487131E1,2.436479554E-2,-1.635373570E-2,-7.033676840E-3
3.620685100E1,2.124065720E-2,-2.042035200E-2,1.361356815E-3
3.622685256E1,8.988445625E-3,1.134464052E-3,6.091198884E-3
3.624885100E1,6.300638430E-3,3.728023171E-2,-2.809980186E-3
3.626885100E1,8.499753661E-3,5.073672161E-2,9.389871731E-3
3.628885256E1,2.298598550E-2,2.761110850E-2,1.228711754E-2
3.631085256E1,2.993239649E-2,7.522369269E-3,1.136209350E-2
3.633085256E1,1.300270297E-2,-2.185152285E-2,4.869468510E-3
3.635286663E1,3.473205259E-3,-6.300638616E-2,3.822271014E-3
3.637485256E1,1.574287005E-2,-1.260825843E-1,1.727875904E-3
3.639485256E1,-5.811946467E-3,-1.342332661E-1,-3.490658477E-3
3.641685100E1,-3.270747140E-2,-1.461538672E-1,1.274090377E-3
3.643685100E1,-3.070034087E-2,-1.507789940E-1,1.213003788E-2
3.645685100E1,3.036872949E-3,-1.348965019E-1,2.792526782E-2
3.647685100E1,1.588249579E-2,-7.789404690E-2,2.801253460E-2
3.649685100E1,-5.009094719E-3,-3.754203022E-2,8.464846760E-3
3.651685100E1,-2.145009674E-2,-1.038470864E-1,1.549852360E-2
3.653685256E1,-1.884955540E-2,-1.776396036E-1,1.949532703E-2
3.655685256E1,-1.513200440E-2,-1.629090309E-1,1.429424621E-2
3.657885256E1,-2.426007576E-2,-1.090307161E-1,-4.276056774E-3
3.660085256E1,-2.338741207E-3,-1.227839142E-1,-3.281218931E-3
3.662286038E1,-1.331686229E-2,-1.325926632E-1,2.469640970E-2
3.664485256E1,-2.354449220E-2,-1.446179748E-1,2.740166849E-3
3.666485256E1,-4.047418386E-2,-1.517214775E-1,-3.193952609E-3
3.668487131E1,-4.974188283E-2,-1.248259470E-1,5.864306353E-3
3.670685256E1,-3.293436393E-2,-9.243264049E-2,2.487094142E-2
3.672885100E1,3.490658477E-3,-8.248426020E-2,1.605702937E-2
3.674885100E1,7.679448463E-4,-6.824237108E-2,9.093165398E-3
3.676885100E1,8.203047328E-4,-5.485569686E-2,3.717551241E-3
3.678885256E1,1.373574138E-2,-9.417796880E-2,-5.829399452E-3
3.681085256E1,1.553343050E-2,-1.354724616E-1,-8.709193207E-3
3.683285256E1,6.475171540E-3,-1.423141509E-1,-1.410226058E-2
3.685285256E1,2.528982051E-2,-1.380380839E-1,-2.516764775E-2
3.687285256E1,1.069886796E-2,-1.239009202E-1,-3.354522958E-2
3.689285256E1,-2.755874954E-2,-9.035569429E-2,-2.480112948E-2
3.691285881E1,-4.731587693E-2,-7.494443655E-2,-1.082104165E-2
3.693485256E1,-8.681267500E-2,-2.525491454E-2,2.246238664E-2
3.695485256E1,-1.723512560E-1,6.457718462E-2,3.000221029E-2
3.697685256E1,-1.919164062E-1,5.646140128E-2,2.305579931E-2
3.699885256E1,-1.925447285E-1,-4.045673087E-2,4.276056774E-3
3.702085256E1,-1.207244247E-1,-8.845328540E-2,-2.071705833E-2
3.704089475E1,-9.745918214E-2,-7.504915702E-4,-2.904227935E-2
3.706286350E1,-5.225515738E-2,8.918632753E-3,-3.412118554E-2
3.708487131E1,-4.921828397E-3,-3.534291685E-2,-2.104867063E-2
3.710685256E1,3.136356547E-2,1.577777602E-2,-2.658136375E-2
3.712685256E1,3.296926990E-2,1.570796303E-4,-1.857030392E-2
3.714885256E1,1.045452245E-2,-6.920230389E-2,-2.661627159E-2
3.717085256E1,-4.014257342E-3,-9.129817039E-2,-3.642502055E-2
3.719285256E1,-1.846558414E-2,-6.091199070E-2,-3.263765574E-2
3.721285256E1,-2.192133479E-2,-5.981243402E-2,-2.157226950E-2
3.723285256E1,-2.424262278E-2,-6.763150543E-2,-2.670353837E-2
3.725485100E1,-4.829325899E-2,-3.070034087E-2,-3.288200125E-2
3.727485256E1,-5.031784251E-2,-1.851794310E-2,-1.080358773E-2
3.729485256E1,-4.839798063E-2,-2.549926005E-2,-2.129301662E-3
3.731485256E1,-2.631956525E-2,-4.230678082E-2,4.398229532E-3
3.733485256E1,1.029744279E-3,-1.670280099E-2,1.171115879E-2
3.735685100E1,7.155850064E-3,3.488913178E-2,-3.019419499E-3
3.737685100E1,6.422811747E-2,-2.750638872E-2,-1.492256485E-2
3.739685256E1,1.083151326E-1,-9.253735840E-2,-2.235766686E-2
3.741885100E1,7.616616786E-2,-6.859143730E-3,-3.253293782E-2
3.743885256E1,8.049458265E-2,1.766273193E-2,-3.675663471E-2
3.746085256E1,1.021541208E-1,-4.225442186E-2,-9.424777701E-3
3.748285256E1,3.647737950E-2,-3.249803185E-2,-1.012290921E-2
3.750285881E1,-1.506219152E-2,-5.166174378E-3,-1.298524998E-2
3.752485413E1,-1.603957638E-2,-4.330161959E-2,-7.312929723E-3
3.754685256E1,-3.454006463E-2,-4.651302472E-2,-4.118977115E-3
3.756885256E1,-5.831145123E-2,-7.860963047E-2,-1.815142483E-2
3.759085100E1,-6.126105785E-2,-1.122770309E-1,-3.385938704E-3
3.761085256E1,-8.196066320E-2,-1.031489596E-1,6.963863503E-3
3.763285725E1,-6.850416958E-2,-1.006880477E-1,5.497787148E-3
3.765485412E1,-4.333652556E-2,-1.122944802E-1,-2.617993858E-3
3.767685100E1,-3.811798990E-2,-8.084364980E-2,-8.988445625E-3
3.769685256E1,-4.667010531E-2,-7.269296050E-2,-1.422443334E-2
3.771885100E1,-3.591887653E-2,-1.145808622E-1,2.321287990E-3
3.773885100E1,-1.123992074E-2,-1.496794373E-1,1.082104165E-2
3.775885100E1,-2.668608353E-2,-1.262396574E-1,4.782202188E-3
3.777885256E1,-2.961823717E-2,-9.930923581E-2,-1.518436475E-3
3.780085100E1,1.310742274E-2,-9.969320893E-2,-6.457718089E-3
3.782085100E1,2.153736353E-2,-1.092576087E-1,6.981316983E-5
3.784085100E1,4.398229532E-3,-7.611380517E-2,-1.502728462E-2
3.786085100E1,-7.330382941E-4,-4.092797264E-2,-2.122320421E-2
3.788085256E1,-1.970476657E-2,-8.023278415E-2,-1.171115879E-2
3.790285725E1,-5.921902135E-2,-1.362927556E-1,-1.391027402E-2
3.792485256E1,-7.983136177E-2,-1.321912408E-1,-1.687733456E-2
3.794485256E1,-9.320057929E-2,-7.754497975E-2,-1.342158206E-2
3.796485256E1,-8.262388408E-2,-7.340855151E-2,6.318091881E-3
3.798487131E1,-5.880014226E-2,-9.258971363E-2,9.023352526E-3
3.800685100E1,-7.859217376E-2,-2.260201424E-2,3.420845373E-3
3.802686038E1,-7.763224840E-2,-9.808750823E-3,-7.086036727E-3
3.804885256E1,-5.866051465E-2,-9.094911069E-2,6.283185212E-4
3.806885256E1,-5.127777159E-2,-1.503077596E-1,1.178097259E-2
3.808885256E1,-3.654719517E-2,-1.079835221E-1,4.869468510E-3
3.810885412E1,-2.649409883E-2,-4.462806880E-2,2.042035107E-3
3.813085256E1,9.581857361E-3,-5.529202893E-2,1.387536712E-2
3.815285256E1,2.179916203E-2,-2.837905288E-2,5.654866807E-3
3.817286038E1,1.729621366E-2,1.692969352E-3,-8.656833321E-3
3.819485256E1,2.385865152E-2,-7.749261800E-3,-9.512044489E-3
3.821685100E1,1.774999872E-2,-2.199114766E-3,-5.445427261E-3
3.823685100E1,1.127482671E-2,1.532399096E-2,1.483529806E-3
3.825685256E1,1.092576142E-2,2.816961333E-2,7.731808349E-3
3.827885256E1,1.579522900E-2,2.134537697E-2,5.602506921E-3
3.829885256E1,1.956514083E-2,1.361356815E-3,-4.014257283E-4
3.832085256E1,1.408480667E-2,-3.279473633E-2,2.408554312E-3
3.834285256E1,-9.075712296E-4,-1.448623254E-3,-1.850049011E-3
3.836285256E1,8.813912980E-3,1.487020496E-2,-7.853981806E-4
3.838285412E1,2.947861142E-2,2.848377265E-2,-1.396263367E-3
3.840485100E1,2.178170905E-2,5.398303270E-2,4.764748737E-3
3.842485100E1,-3.246312495E-3,6.148795038E-2,3.106686054E-3
3.844485256E1,4.642575979E-3,4.642575979E-3,1.466076542E-2
3.846485256E1,1.542871073E-2,-1.733111963E-2,8.918632753E-3
3.848487756E1,1.989675453E-3,4.871213809E-2,-3.508111695E-3
3.850685100E1,1.019272301E-2,4.441862926E-2,-1.382300723E-2
3.852685256E1,-2.387610450E-2,-1.867502346E-3,-7.993607782E-3
3.854685256E1,-8.726646192E-3,-4.447098821E-2,3.193952609E-3
3.856885256E1,-5.253441166E-3,-3.281218931E-3,2.967059845E-4
3.859085100E1,-1.123992074E-2,1.900663599E-2,1.221730490E-3
3.861085256E1,-1.122246683E-2,-9.529497474E-3,-3.438298590E-3
3.863286350E1,-1.583013684E-2,-2.539454028E-2,-2.426007763E-3
3.865485256E1,-8.918632753E-3,-8.779006079E-3,-5.061454722E-4
3.867685100E1,-7.557275705E-3,3.581415489E-2,-3.455751808E-3
3.869685256E1,-1.905899495E-2,-1.120501384E-2,-5.951572675E-3
3.871885256E1,-4.005530477E-2,-5.419247225E-2,-1.352630183E-2
3.874085256E1,-2.492330223E-2,-2.111848444E-2,-2.989749052E-2
3.876285256E1,-1.289798319E-2,1.843067631E-2,-2.916445211E-2
3.878487288E1,6.108652451E-4,1.640609466E-3,-3.234095126E-2
3.880685100E1,1.722639985E-2,-4.715879634E-2,-2.453932911E-2
3.882685256E1,1.192059834E-2,-6.754423957E-3,-3.611086309E-2
3.884685256E1,3.841469809E-2,4.066617042E-2,-3.817034885E-2
3.886685256E1,5.508258939E-2,3.392919898E-2,-2.658136375E-2
3.888885100E1,4.157374427E-2,4.621632025E-2,-7.138396613E-3
3.890885100E1,8.534659632E-3,7.234390080E-2,-1.108284108E-2
3.892885256E1,6.003932562E-3,-1.951278187E-2,-3.473205259E-3
3.895085256E1,-3.783873841E-2,-1.944296807E-2,-1.605702913E-3
3.897285100E1,-2.919935808E-2,7.290240377E-2,-2.085668407E-2
3.899285256E1,4.084070213E-3,6.455972791E-2,-1.176351868E-2
3.901285881E1,-2.850122750E-2,8.045967668E-3,-3.892084118E-3
3.903485256E1,-1.771509275E-2,-7.663740963E-2,-1.425934024E-2
3.905485256E1,2.912954427E-2,-5.372123420E-2,-7.696901914E-3
3.907685100E1,3.811798990E-2,-3.647738136E-3,-3.595378250E-3
3.909685100E1,9.581857361E-3,-2.101376466E-2,1.082104165E-3
3.911685256E1,7.138396613E-3,-5.044001341E-2,7.487462368E-3
3.913885256E1,1.703441329E-2,-5.427974090E-2,2.530727303E-3
3.916085100E1,-3.490658492E-5,-2.630211227E-2,-3.926991019E-3
3.918085100E1,-1.219985168E-2,-4.351105914E-2,-1.467821933E-2
3.920086506E1,-3.293436393E-2,-1.366941929E-1,2.356194425E-3
3.922285100E1,-8.936085552E-2,-2.043606043E-1,5.375613924E-3
3.924285100E1,-1.014734432E-1,-2.157750577E-1,-7.801621687E-3
3.926285256E1,-5.609488115E-2,-1.718800217E-1,-1.123992074E-2
3.928285256E1,-7.190756500E-3,-5.996951461E-2,-1.754055917E-2
3.930485256E1,9.040805511E-3,3.719296679E-2,0.000000000E0
3.932485256E1,3.813544288E-2,1.431170013E-2,2.663372457E-2
3.934485256E1,7.499679923E-2,-4.391248524E-2,2.525491454E-2
3.936485256E1,6.702063978E-2,2.179916203E-2,-1.343903481E-3
3.938487288E1,4.490732029E-2,5.548401549E-2,-6.230825558E-3
3.940685256E1,2.511528693E-2,-1.485275198E-2,7.784168236E-3
3.942685256E1,-4.642575979E-3,-3.199188411E-2,-3.508111695E-3
3.944885100E1,-2.621484548E-2,-3.464478627E-2,-1.658062800E-3
3.946885256E1,-1.607448235E-2,-1.677261479E-2,1.659808122E-2
3.949085100E1,-1.343903504E-2,3.036872949E-3,6.475171540E-3
3.951085256E1,-2.080432512E-2,5.550147034E-3,-7.504915819E-3
3.953085256E1,-5.218534265E-3,-1.979203336E-2,-1.310742274E-2
3.955285256E1,-1.031489577E-2,-1.130973361E-2,-5.410520826E-3
3.957485256E1,-2.623229846E-2,-2.530727303E-3,-1.511455141E-2
3.959485256E1,-1.473057922E-2,-3.630284918E-3,-8.168140426E-3
3.961485256E1,-5.323254038E-3,-1.727875904E-3,-2.914699726E-3
3.963485256E1,-5.389576778E-2,9.267698042E-3,-1.373574138E-2
3.965485256E1,-8.616690338E-2,-2.624975145E-2,-2.467895485E-2
3.967685100E1,-4.703662172E-2,-5.335471407E-2,1.448623254E-3
3.969685256E1,-5.267403647E-2,-3.670427576E-2,1.411971357E-2
3.971685569E1,-5.284857005E-2,-6.967354566E-2,1.631882787E-2
3.973885100E1,-2.879793197E-2,-7.134906203E-2,-1.958259381E-2
3.975885100E1,9.058258496E-3,-1.045452245E-2,-3.092723340E-2
3.977885100E1,1.029744279E-2,4.466297477E-2,-2.492330223E-2
3.979885100E1,8.028514683E-3,3.124139272E-3,9.896016680E-3
3.981885100E1,-6.405358203E-3,-4.607669264E-2,3.200933710E-2
3.983885100E1,-2.359685116E-2,-1.350884791E-2,9.285151958E-3
3.985885100E1,-2.289872058E-2,9.040805511E-3,-1.029744279E-3
3.987885100E1,1.099557383E-3,-2.628465928E-2,2.495820867E-3
3.989885100E1,1.689478755E-2,-1.422443334E-2,6.544984877E-3
3.991885100E1,1.087340154E-2,7.976154797E-3,-3.682644805E-3
3.993885100E1,-1.160643995E-2,6.998770405E-3,-1.199041214E-2
3.995885100E1,-1.514945831E-2,-5.302310362E-2,-2.513274085E-3
3.997885100E1,-6.178465672E-3,-7.881906629E-2,5.986479111E-3
3.999885100E1,-3.961897455E-3,-4.534365237E-2,-1.518436475E-3
4.001885100E1,-1.481784508E-2,-2.757620253E-2,7.068583276E-3
4.003885100E1,-1.055924222E-2,1.919862116E-4,5.166174378E-3
4.005885100E1,-3.099704720E-2,5.445427261E-3,-2.094394993E-3
4.007885100E1,-2.947861142E-2,-8.868017793E-2,-4.764748737E-3
4.009885100E1,-1.689478755E-2,-6.272713095E-2,-2.342231758E-2
4.011885100E1,-3.822271014E-3,3.888593614E-2,-2.822197415E-2
4.013885100E1,-2.345722541E-2,6.696828455E-2,-1.457349956E-2
4.015885100E1,-5.335471407E-2,2.384119667E-2,-1.326450263E-3
4.017885100E1,-4.644321278E-2,-5.998696759E-2,1.183333248E-2
4.019885100E1,-3.373721614E-2,-5.307546258E-2,2.172934823E-2
4.021885100E1,-1.434660610E-2,1.076868176E-2,1.874483563E-2
4.023885100E1,1.768018492E-2,4.279547185E-2,-3.944444004E-3
4.025885100E1,3.590142354E-2,7.155850180E-4,-1.054178830E-2
4.027885256E1,4.071853310E-2,-2.221804112E-2,-1.050688233E-2
4.030085100E1,2.722713538E-2,-2.719222941E-2,-7.714355364E-3
4.032085100E1,2.527236752E-2,-4.267330095E-2,-5.148721393E-3
4.034085100E1,5.070181563E-2,-5.071926862E-2,-5.864306353E-3
4.036085100E1,5.049237609E-2,8.726646047E-5,-5.480333697E-3
4.038085100E1,4.609414563E-2,1.717403904E-2,-1.745329238E-3
4.040085100E1,4.269075394E-2,-9.442231618E-3,-3.874630900E-3
4.042085100E1,3.174753860E-2,-3.143338114E-2,-2.286381321E-3
4.044085100E1,2.165953629E-2,-4.415682983E-3,-1.125737373E-2
4.046085100E1,1.745329238E-3,1.525417715E-2,-2.432988957E-2
4.048085100E1,-2.385865152E-2,-1.867502346E-3,-1.272345055E-2
4.050085100E1,-2.368411794E-2,-1.422443334E-2,7.365289610E-3
4.052085100E1,-9.721484035E-3,-4.246386141E-2,8.761553094E-3
4.054085100E1,-9.477137588E-3,-2.635447122E-2,-2.513274085E-3
4.056085100E1,-2.024581889E-3,1.544616371E-2,-1.343903504E-2
4.058085256E1,6.824237294E-3,6.981316983E-5,-1.937315450E-3
4.060085256E1,8.395033889E-3,-3.159045801E-2,4.433136433E-3
4.062285256E1,-1.797689125E-3,-8.988445625E-3,-1.130973361E-2
4.064285725E1,-2.080432512E-2,2.066469751E-2,-1.820378378E-2
4.066485256E1,-2.530727303E-3,7.470009383E-3,3.054326167E-3
4.068487131E1,1.003564335E-2,2.565633971E-3,1.834340952E-2
4.070685256E1,-2.164208330E-3,6.178465672E-3,2.103121765E-2
4.072685256E1,-6.440265104E-3,-4.328416660E-2,9.704031050E-3
4.074885256E1,-2.583087189E-3,-3.766420484E-2,-2.422516979E-2
4.076885256E1,-4.886921961E-4,-2.157226950E-2,-2.551671304E-2
4.078885256E1,-3.054326167E-3,-4.749041051E-2,-1.480039209E-2
4.081085256E1,-2.740166849E-3,-6.276203692E-2,2.722713631E-3
4.083285256E1,-3.106686054E-3,-1.569050923E-2,8.429939859E-3
4.085285256E1,3.665191471E-4,9.529497474E-3,-5.742133129E-3
4.087285256E1,4.625122529E-3,-8.883725852E-3,-1.295034308E-2
4.089285256E1,3.979350906E-3,-2.014109865E-2,-1.589994878E-2
4.091285256E1,-7.661995478E-3,-3.822271014E-3,-1.427679323E-2
4.093285725E1,-3.117158078E-2,-5.951572675E-3,-2.775073517E-3
4.095485256E1,-2.953097038E-2,-3.452261165E-2,7.435102481E-3
4.097485256E1,-6.946410518E-3,-4.169591516E-2,6.928957067E-3
4.099685100E1,8.918632753E-3,2.268928074E-4,-7.609635592E-3
4.101685100E1,1.602212340E-2,4.028219730E-2,-1.588249579E-3
4.103685100E1,1.202531811E-2,4.195771366E-2,4.171337001E-3
4.105685100E1,-4.398229532E-3,1.047197497E-3,6.143558770E-3
4.107685100E1,-6.230825558E-3,-1.724385284E-2,4.118977115E-3
4.109685100E1,1.221730490E-4,3.996803984E-2,-1.535889693E-3
4.111685100E1,4.345869645E-3,5.602506921E-2,1.117010717E-3
4.113685100E1,-6.283185212E-4,4.635594413E-2,8.342674002E-3
4.115685100E1,1.361356815E-3,4.166100919E-2,-1.082104165E-3
4.117685100E1,2.548180753E-3,1.593485661E-2,-1.441641990E-2
4.119685100E1,-4.642575979E-3,-1.897172816E-2,-3.263765713E-3
4.121685100E1,-1.502728462E-2,-2.715732343E-2,1.244419720E-2
4.123685100E1,-9.983283468E-3,-2.275909297E-2,4.276056774E-3
4.125685100E1,5.934119690E-4,-3.645992652E-2,-1.727875881E-2
4.127685100E1,9.843656793E-3,-1.057669520E-2,-2.375393175E-2
4.129685100E1,1.781981252E-2,4.003785178E-2,-2.581341937E-2
4.131685100E1,6.736970972E-3,4.504694790E-2,4.188790335E-4
4.133685100E1,2.862340072E-3,1.118756086E-2,2.462659590E-2
4.135685100E1,3.879866749E-2,-4.537856206E-3,2.885029279E-2
4.137685100E1,7.538077235E-2,5.956808850E-2,3.473205119E-2
4.139685100E1,8.688248694E-2,2.110801190E-1,3.534291685E-2
4.141685100E1,1.257684231E-1,2.571568191E-1,7.009242475E-2
4.143685100E1,1.423141509E-1,1.132195070E-1,8.391542733E-2
4.145685100E1,1.477246732E-1,1.916371472E-2,3.972369432E-2
4.147685100E1,1.633104533E-1,2.481858246E-2,-3.337069601E-2
4.149685100E1,1.467123777E-1,8.045967668E-3,-8.110544831E-2
4.151685100E1,8.693484962E-2,1.623156248E-3,-9.702285379E-2
4.153685100E1,4.529129341E-2,-3.211405827E-3,-7.742280513E-2
4.155685100E1,2.590068616E-2,1.069886796E-2,-1.513200440E-2
4.157685100E1,-1.761037298E-2,3.118903376E-2,2.419026382E-2
4.159685100E1,-3.492403775E-2,7.668976486E-2,3.836233541E-2
4.161685100E1,-6.335545331E-3,9.360200912E-2,4.359832406E-2
4.163685100E1,-1.291543618E-2,9.510298818E-2,2.780309506E-2
4.165685100E1,-1.125737373E-2,4.073598608E-2,-9.424777701E-3
4.167685100E1,1.706931926E-2,1.546361670E-2,-2.389355749E-2
4.169685100E1,2.192133479E-2,5.171410739E-2,-3.000221029E-2
4.171685100E1,1.642354764E-2,6.407103688E-2,-6.492624991E-3
4.173685100E1,1.480039209E-2,3.787364438E-2,2.042035200E-2
4.175685100E1,7.225662936E-3,1.853539608E-2,2.216568217E-2
4.177685100E1,-1.169370580E-2,2.923426405E-2,2.151990868E-2
4.179685100E1,-6.702064537E-3,3.602359444E-2,1.581268385E-2
4.181685100E1,-5.235987483E-4,2.617993951E-2,6.597344764E-3
4.183685100E1,-6.457718089E-3,-1.466076588E-3,1.827359758E-2
4.185685100E1,-1.811651699E-2,1.535889693E-3,1.110029407E-2
4.187685100E1,-9.983283468E-3,4.551818594E-2,-2.460914198E-3
4.189685100E1,2.640683204E-2,4.495968297E-2,-1.125737373E-2
4.191685100E1,2.731440216E-2,5.181882530E-2,1.815142459E-3
4.193685100E1,-3.193952609E-3,4.939281940E-2,-4.642575979E-3
4.195685100E1,-1.384046115E-2,-2.003637888E-2,-3.159045940E-3
4.197685100E1,-3.274237737E-2,-3.923500329E-2,2.722713631E-3
4.199685100E1,-2.597049996E-2,-1.523672417E-2,4.136430100E-3
