"Time (s)","Linear Acceleration x (m/s^2)","Linear Acceleration y (m/s^2)","Linear Acceleration z (m/s^2)"
1.000468700E-2,-1.529999916E-2,3.215000033E-1,1.682899952E0
4.000000000E-2,1.477399945E0,-1.006099939E0,9.246000051E-1
6.000156200E-2,2.794299841E0,-1.256999969E0,-7.318999767E-1
8.000156200E-2,2.631500006E0,-8.540000021E-2,-1.707899928E0
1.000015620E-1,2.587399960E0,2.599999867E-2,-1.754499912E0
1.300000000E-1,2.513099909E0,-4.371999800E-1,-1.703199983E0
1.500078120E-1,4.144899845E0,-1.398000002E0,-1.086099982E0
1.800000000E-1,2.891799927E0,-3.848500013E0,-2.522000074E-1
2.000187500E-1,2.080800056E0,-2.543999910E0,3.545999825E-1
2.300015620E-1,-1.354599953E0,7.329999655E-2,4.804999828E-1
2.500078120E-1,9.558999538E-1,-1.372900009E0,1.362499952E0
2.800000000E-1,2.814499855E0,-2.245499849E0,1.814399958E0
3.000015620E-1,3.816999793E-1,-8.715999722E-1,-2.651000023E-1
3.300000000E-1,-2.463700056E0,3.579999804E-1,-4.666999876E-1
3.500015620E-1,1.718000025E-1,-5.486999750E-1,3.368999958E-1
3.700015620E-1,1.317099929E0,6.179000139E-1,-1.388999969E-1
3.900031250E-1,1.392399907E0,1.968699932E0,-2.009199858E0
4.200000000E-1,-1.129199982E0,-2.927299976E0,-2.175000012E-1
4.400062500E-1,-1.540499926E0,-3.385999799E-1,1.363999963E0
4.700000000E-1,3.504199982E0,-1.197099924E0,-3.679999828E0
4.900031250E-1,3.649199963E0,-2.115999907E-1,-3.345999956E0
5.200015620E-1,1.472999930E0,-2.431099892E0,-2.346899986E0
5.400093750E-1,1.149999946E-1,-4.180999756E0,-3.095000029E0
5.700000000E-1,2.149999887E-2,-2.791399956E0,-1.949899912E0
5.900015620E-1,-1.822899938E0,-4.591300011E0,-1.075699925E0
6.100015620E-1,-3.562999964E0,-3.241199970E0,-1.388999939E0
6.400000000E-1,-5.648499966E0,-2.332799911E0,-2.054100037E0
6.600000000E-1,-7.097300053E0,-2.200700045E0,-1.783199906E0
6.800000000E-1,-3.500799894E0,-1.516600013E0,-1.316200018E0
7.000000000E-1,-8.907999992E-1,-1.441999912E0,1.153999940E-1
7.200015620E-1,-1.278100014E0,-1.452799916E0,3.517699957E0
7.400015620E-1,-1.314399958E0,-1.685199976E0,4.919399738E0
7.700000000E-1,2.948199987E0,-2.523999810E-1,3.852599859E0
7.900015620E-1,4.286200047E0,-5.205999613E-1,5.576799870E0
8.200000000E-1,3.219300032E0,3.574999869E-1,6.913799763E0
8.400000000E-1,5.110399723E0,1.549999975E-2,6.233900070E0
8.600000000E-1,5.363399982E0,4.120000005E-1,5.911900043E0
8.800000000E-1,3.917699814E0,1.162099957E0,5.272699833E0
9.000000000E-1,3.972599983E0,1.907799959E0,3.337299824E0
9.200000000E-1,4.285299778E0,2.686300039E0,1.579599977E0
9.400015620E-1,2.764299870E0,1.076599956E0,-3.480999768E-1
9.700000000E-1,3.300299883E0,1.221300006E0,2.976000011E-1
9.900000000E-1,4.436599731E0,1.352699995E0,1.084999964E-1
1.010001562E0,4.440499783E0,1.225399971E0,-8.496999741E-1
1.040000000E0,3.714799881E0,1.293900013E0,-1.980999947E0
1.060000000E0,4.030900002E0,8.224999905E-1,-2.841599941E0
1.080001562E0,2.712399960E0,1.370899916E0,-7.232100010E0
1.110000000E0,4.598999918E-1,1.853999972E0,-4.911600113E0
1.130001562E0,1.632299900E0,1.268700004E0,3.253999949E-1
1.150001562E0,1.150900006E0,4.596999884E-1,-2.275099993E0
1.180000000E0,-1.362999916E0,3.228399992E0,-1.971199989E0
1.200010937E0,1.592999995E-1,2.501899958E0,-1.808999926E-1
1.230001562E0,-1.513000011E0,1.100799918E0,-4.426999986E-1
1.260000000E0,-6.191899776E0,5.420000076E0,-1.019699931E0
1.280000000E0,-5.415100098E0,-4.966999888E-1,-1.233999968E0
1.300000000E0,-5.630699635E0,-5.936599731E0,6.523399830E0
1.320000000E0,-8.861999512E-1,-7.073299885E0,2.500099897E0
1.340000000E0,1.638700008E0,-4.144499779E0,-2.611299992E0
1.360001562E0,-1.083199978E0,-1.740799904E0,-6.372099876E0
1.390000000E0,2.514699936E0,-3.361999989E0,1.087000012E0
1.410001562E0,-9.746999741E-1,3.952999830E0,-2.501199961E0
1.440001562E0,-7.246999741E-1,5.160599709E0,1.188499928E0
1.470000000E0,-3.156999946E-1,1.310599923E0,5.419999957E-1
1.490000000E0,-1.888999939E0,-8.787999749E-1,4.257999897E0
1.510001562E0,-1.672999978E0,9.429999441E-2,5.657700062E0
1.540000000E0,-5.123399734E0,-1.681199908E0,-1.557599902E0
1.560000000E0,-5.909199715E0,5.983999968E-1,-4.257800102E0
1.580001562E0,-6.249899864E0,1.990899920E0,1.310999990E-1
1.610000000E0,-2.099200010E0,-1.820999980E-1,1.375999928E0
1.630000000E0,1.513999939E0,1.742499948E0,1.030999944E-1
1.650001562E0,2.200299978E0,5.955699921E0,3.981999755E-1
1.680000000E0,3.387399912E0,5.290999889E0,1.491099954E0
1.700000000E0,4.412899971E0,3.120499849E0,2.452899933E0
1.720001562E0,4.716000080E0,-1.728890038E1,4.715199947E0
1.740001562E0,6.756099701E0,-2.757559967E1,4.653199673E0
1.770000000E0,6.590999961E-1,-7.815699577E0,-2.159999907E-1
1.790001562E0,-2.761999965E-1,3.892000020E-1,-2.481799841E0
1.820000000E0,-5.485300064E0,1.296999931E0,-3.575699806E0
1.840001562E0,-4.614099979E0,-1.960799932E0,-5.811699867E0
1.860001562E0,-5.050299644E0,-2.107599974E0,-7.549399853E0
1.890000000E0,-1.980999947E0,-2.896899939E0,-8.926899910E0
1.910000000E0,1.700699925E0,-5.285899639E0,-7.132099628E0
1.930000000E0,2.077600002E0,-6.266399860E0,-5.555399895E0
1.950000000E0,2.991400003E0,-4.935400009E0,-7.837599754E0
1.970000000E0,2.946899891E0,-2.845700026E0,-8.596899986E0
1.990000000E0,3.255899906E0,-3.349200010E0,-2.280499935E0
2.010001562E0,3.766699791E0,-4.378200054E0,3.782499790E0
2.040000000E0,2.874199867E0,-4.662799835E0,4.910899639E0
2.060000000E0,1.845299959E0,-4.546400070E0,4.869999886E0
2.080001562E0,2.966699839E0,-5.175299644E0,-4.809999838E-2
2.100001562E0,1.829199910E0,-4.871900082E0,-9.359999895E-1
2.120001562E0,5.421000123E-1,-4.914799690E0,8.555999994E-1
2.150001562E0,-2.971899986E0,-4.336800098E0,4.255599976E0
2.180000000E0,-1.679799914E0,-5.722000003E-1,1.762599945E0
2.200009375E0,-1.625999957E-1,8.220999837E-1,4.770599842E0
2.230001562E0,-9.192999601E-1,3.437299967E0,5.990399837E0
2.260000000E0,-2.600399971E0,6.162699699E0,6.097399712E0
2.280000000E0,-2.288499832E0,6.640799999E0,6.448899746E0
2.300000000E0,-2.298199892E0,7.142999649E0,6.003399849E0
2.320000000E0,-2.322499990E0,7.679699898E0,5.597199917E0
2.340000000E0,-1.992899895E0,7.930500031E0,4.887000084E0
2.360000000E0,-1.562799931E0,7.579399586E0,2.651599884E0
2.380000000E0,1.776999980E-1,4.861700058E0,-2.340699911E0
2.400000000E0,2.810099840E0,-1.235000014E0,-1.000419998E1
2.420000000E0,2.512799978E0,-9.389599800E0,-1.343839931E1
2.440001562E0,-8.639999628E-1,-1.266959953E1,-9.137299538E0
2.470000000E0,3.000599861E0,-1.637699962E0,-3.062799931E0
2.490000000E0,7.714099884E0,-2.881000042E-1,-6.754299641E0
2.510006250E0,2.106299877E0,3.779000044E-1,1.843210030E1
2.540003125E0,-9.142000198E0,-1.080329990E1,-2.673439980E1
2.570000000E0,-7.258100033E0,-5.389999866E0,1.908239937E1
2.590003125E0,-3.932399988E0,-1.943999976E-1,1.325839996E1
2.620000000E0,-2.140199900E0,-1.461599946E0,5.091099739E0
2.640007812E0,-1.332899928E0,-4.863800049E0,5.126699924E0
2.670000000E0,1.760899901E0,-3.833099842E0,3.998799801E0
2.690000000E0,3.100499868E0,-3.669999838E-1,2.621500015E0
2.710000000E0,2.642499924E0,3.162799835E0,-2.340699911E0
2.730007812E0,9.118999839E-1,5.796700001E0,-1.989399910E0
2.760000000E0,1.648099899E0,1.654799938E0,-5.492699623E0
2.780001562E0,3.446699858E0,6.782000065E-1,-2.769699812E0
2.800001562E0,3.457199812E0,1.200500011E0,-1.642999947E-1
2.830003125E0,3.623399973E0,2.842599869E0,9.934999943E-1
2.860001562E0,2.605599880E0,4.127999842E-1,4.715799809E0
2.880004687E0,9.679999948E-1,-3.343699932E0,-1.822699904E0
2.910000000E0,1.260900021E0,-4.970200062E0,-1.339379978E1
2.930007812E0,4.444699764E0,-5.941099644E0,-6.864399910E0
2.960000000E0,5.077399731E0,-3.415799856E0,-3.313199997E0
2.980010937E0,4.495999813E0,1.204999983E-1,-1.200990009E1
3.010001562E0,5.582499981E0,-3.788999796E0,2.341099977E0
3.030003125E0,5.871799946E0,-8.102099419E0,9.479299545E0
3.060000000E0,3.919099808E0,-9.917300224E0,7.809099674E0
3.080001562E0,1.636600018E0,-1.111469936E1,5.930399895E0
3.110000000E0,-6.870499611E0,-9.290699959E0,-2.502599955E0
3.130000000E0,-4.290800095E0,-9.327899933E0,2.083499908E0
3.150001562E0,-4.694999695E0,-7.565099716E0,2.943799973E0
3.180000000E0,-7.164399624E0,-1.682999969E0,5.886399746E0
3.200009375E0,-3.487399817E0,1.180899978E0,4.743400097E0
3.230000000E0,-1.022199988E0,4.463500023E0,4.841199875E0
3.250000000E0,-1.189899921E0,6.675299644E0,7.960299969E0
3.270000000E0,-2.685899973E0,8.591699600E0,9.250899315E0
3.290001562E0,-2.527099848E0,9.663799286E0,8.602399826E0
3.320004687E0,-2.191699982E0,1.012589931E1,7.108999729E0
3.350000000E0,-2.468099833E0,9.085700035E0,7.944599628E0
3.370001562E0,-1.951799989E0,7.569399834E0,6.114399910E0
3.400001562E0,-6.657999754E-1,1.671499968E0,-1.068379974E1
3.420006250E0,1.125599980E0,-1.095930004E1,-3.183079910E1
3.450001562E0,3.747299910E0,-1.062669945E1,-5.325699806E0
3.480000000E0,4.927899837E0,8.628000021E-1,-3.275599957E0
3.500000000E0,3.878399849E0,1.213799953E0,-1.104430008E1
3.520000000E0,1.320699930E0,-3.608399868E0,1.288129997E1
3.540000000E0,-4.284999847E0,3.759000003E-1,1.725279999E1
3.560001562E0,-1.151889992E1,-5.162299633E0,2.286499977E0
3.580001562E0,-9.360199928E0,-7.273999691E0,8.978400230E0
3.610004687E0,-9.059599876E0,-4.545499802E0,8.311399460E0
3.640000000E0,-4.001399994E0,-3.821899891E0,5.651599884E0
3.660006250E0,-8.362999558E-1,-3.021399975E0,6.588099957E0
3.690000000E0,1.244799972E0,-1.235299945E0,6.788499832E0
3.710007812E0,2.719399929E0,-3.930999935E-1,5.910799980E0
3.740000000E0,7.258100033E0,3.191999912E0,-1.622869873E1
3.760007812E0,6.964799881E0,3.059499979E0,-1.127349949E1
3.790001562E0,4.896299839E0,4.314999878E-1,-7.615999579E-1
3.810001562E0,3.806699991E0,2.790999889E0,3.558999896E-1
3.840000000E0,2.786999941E0,3.307099819E0,4.281999767E-1
3.860001562E0,2.095000029E0,-2.395999879E-1,-8.559999615E-2
3.890000000E0,-1.799999923E-2,-4.233699799E0,-6.998399734E0
3.910000000E0,-1.503000021E0,-4.543799877E0,-1.820209885E1
3.930000000E0,5.346999645E0,-6.549699783E0,-5.672499657E0
3.950000000E0,7.698199749E0,-5.993199825E0,-1.053499937E0
3.970000000E0,7.128099918E0,-2.876399994E0,-1.136870003E1
3.990000000E0,5.673099995E0,-2.843699932E0,-5.303099632E0
4.010001562E0,5.488499641E0,-4.003799915E0,5.764199734E0
4.030001562E0,5.330100060E0,-6.523399830E0,6.536499977E0
4.050001562E0,2.949699879E0,-1.054080009E1,4.699899673E0
4.080001562E0,-1.422299981E0,-1.104430008E1,1.663199902E0
4.110000000E0,-2.837100029E0,-9.479299545E0,2.758499861E0
4.130000000E0,-3.754299879E0,-9.183599472E0,2.938699961E0
4.150001562E0,-5.074699879E0,-6.483200073E0,2.198799849E0
4.180000000E0,-6.902799606E0,1.649899960E0,3.872499943E0
4.200009375E0,-3.944700003E0,5.232699871E0,8.446599960E0
4.230001562E0,-1.485999942E0,7.528100014E0,1.095469952E1
4.260000000E0,-8.327999711E-1,1.020419979E1,8.303699493E0
4.280000000E0,-7.989000082E-1,1.097719955E1,7.737599850E0
4.300001562E0,-1.118600011E0,1.167049980E1,7.349199772E0
4.330000000E0,-1.026799917E0,8.688599586E0,4.388999939E-1
4.350000000E0,-2.228299856E0,2.190299988E0,-4.859499931E0
4.370001562E0,-1.695899963E0,-4.224699974E0,-2.198709869E1
4.390001562E0,1.713199973E0,-4.613999844E0,-2.352699995E0
4.410001562E0,2.390300035E0,-3.254799843E0,2.430199862E0
4.440001562E0,1.341099977E0,4.159999788E-1,2.350699902E0
4.470000000E0,3.101799965E0,3.890899897E0,1.531799912E0
4.490000000E0,6.635699749E0,3.583599806E0,8.524999619E-1
4.510000000E0,-7.385599613E0,-2.590199947E0,-7.619799614E0
4.530000000E0,-7.570899963E0,2.477399826E0,1.286520004E1
4.550000000E0,-7.183099747E0,3.935000002E-1,1.012799931E1
4.570000000E0,-3.511099815E0,-1.481499910E0,1.374569988E1
4.590001562E0,-8.688899994E0,-1.532000005E-1,4.227799892E0
4.620000000E0,-4.194900036E0,-4.655399799E0,-4.934999943E-1
4.640000000E0,-5.024300098E0,-4.322700024E0,5.133999825E0
4.660001562E0,-2.270699978E0,-7.782099724E0,5.551799774E0
4.690000000E0,2.386800051E0,-1.745549965E1,1.079659939E1
4.710000000E0,1.739780045E1,-2.118770027E1,-3.268999863E1
4.730001562E0,7.990299702E0,-1.488749981E1,-7.284800053E0
4.760000000E0,1.938699961E0,-8.029299736E0,-1.947729874E1
4.780000000E0,-6.609999537E-1,-3.829299927E0,-9.615900040E0
4.800001562E0,-1.491999984E0,6.560099602E0,-3.577399969E0
4.830000000E0,9.902999878E0,6.976899624E0,-2.071049881E1
4.850000000E0,7.721299648E0,5.986999989E0,-4.579099655E0
4.870001562E0,3.529799938E0,8.177700043E0,-5.949199677E0
4.900000000E0,1.271999925E-1,8.641499519E0,-8.866999745E-1
4.920000000E0,4.201000035E-1,4.350699902E0,6.089999899E-2
4.940000000E0,4.083999991E-1,-7.707799911E0,-3.926100016E0
4.960000000E0,-3.926100016E0,-1.900189972E1,-3.225299835E0
4.980000000E0,-9.720899582E0,-2.832119942E1,-2.267849922E1
5.000000000E0,-1.013869953E1,-3.181899834E1,-4.441499710E0
5.020001562E0,-1.601899981E0,-1.678069878E1,4.934999943E-1
5.050000000E0,1.279799938E0,-3.789899826E0,1.373839951E1
5.070000000E0,8.791999817E-1,7.319999486E-2,1.408159924E1
5.090000000E0,5.645999908E-1,6.380899906E0,1.392219925E1
5.110000000E0,4.878999889E-1,1.188959980E1,1.251299953E1
5.130000000E0,1.742699981E0,1.716279984E1,1.301849937E1
5.150001562E0,5.184799671E0,1.469369984E1,1.475059986E1
5.180000000E0,4.075599670E0,7.650799751E0,9.584499359E0
5.200009375E0,4.235399723E0,5.903100014E0,-5.821699619E0
5.230000000E0,3.437399864E0,-7.289999723E-1,-6.296999931E0
5.250000000E0,-5.904599667E0,1.970199943E0,6.851399899E0
5.270000000E0,-1.173829937E1,-1.017000005E-1,2.034510040E1
5.290000000E0,-1.147949982E1,-6.881399632E0,1.918809891E1
5.310000000E0,-4.466399670E0,-7.517999649E0,1.251819992E1
5.330000000E0,7.350999713E-1,-2.586899948E1,1.439089966E1
5.350000000E0,5.322199821E0,-3.383020020E1,-2.094899893E0
5.370000000E0,4.968999863E0,-1.612439919E1,-2.480990028E1
5.390000000E0,-4.260799885E0,-9.883299828E0,-8.653900146E0
5.410000000E0,-1.119759941E1,-7.350999713E-1,-1.810479927E1
5.430000000E0,-7.240200043E0,3.578599930E0,-1.385529995E1
5.450000000E0,-3.591199875E0,9.317500114E0,-5.325999737E0
5.470000000E0,1.036469936E1,1.176709938E1,-1.562859917E1
5.490000000E0,1.450119972E1,5.366600037E0,-1.715119934E1
5.510000000E0,8.991799355E0,4.233699799E0,-7.687500000E0
5.530000000E0,-7.213000059E-1,6.179499626E0,2.783799887E0
5.550000000E0,-4.196499825E0,7.059799671E0,-4.422399998E0
5.570000000E0,-2.405200005E0,1.136199951E0,-1.103600025E0
5.590000000E0,1.405599952E0,-1.469849968E1,4.572999954E0
5.610000000E0,1.847700000E0,-2.722459984E1,-7.713299751E0
5.630000000E0,-7.304800034E0,-2.601089859E1,-6.991299629E0
5.650001562E0,-9.981800079E0,-1.996380043E1,-3.610800028E0
5.680000000E0,7.324000001E-1,-8.681499481E0,3.859599829E0
5.700000000E0,5.578399658E0,-5.689300060E0,1.044509983E1
5.720001562E0,3.303000033E-1,1.450699925E0,1.342829990E1
5.740001562E0,-4.993400097E0,8.474499702E0,1.562080002E1
5.770000000E0,-4.069799900E0,1.575809956E1,1.499069977E1
5.790001562E0,-4.231999815E-1,1.628069878E1,1.580359936E1
5.820000000E0,3.362399817E0,1.142259979E1,1.036619949E1
5.840001562E0,2.543799877E0,6.384699821E0,1.097599983E1
5.870000000E0,1.026109982E1,-1.088229942E1,-3.791899872E1
5.890004687E0,-6.589999795E-2,-5.734200001E0,2.615999877E-1
5.920001562E0,-1.200829983E1,-3.606899977E0,2.043879890E1
5.940001562E0,-1.290399933E1,-1.849699974E0,1.718379974E1
5.970000000E0,-8.142799377E0,-9.324099541E0,1.521079922E1
5.990010937E0,-3.671700001E0,-2.920429993E1,1.103539944E1
6.020001562E0,8.201399803E0,-2.472779846E1,-4.707619858E1
6.050003125E0,-4.965199947E0,-3.824100018E0,-2.023169899E1
6.080001562E0,-6.909999847E-1,1.519400001E0,-2.904000044E0
6.100001562E0,1.582700014E0,1.271780014E1,4.618299961E0
6.130000000E0,1.549099922E1,8.096899986E0,-2.891469955E1
6.150001562E0,8.116700172E0,5.531699657E0,-7.043799877E0
6.180000000E0,-3.457099915E0,5.949899673E0,-1.651699901E0
6.200009375E0,-5.438299656E0,4.270199776E0,-6.506799698E0
6.230001562E0,6.595999599E-1,-1.227559948E1,8.317799568E0
6.260000000E0,-1.772899985E0,-3.543639755E1,-1.370149994E1
6.280000000E0,-7.821399689E0,-2.540759850E1,-6.279699802E0
6.300001562E0,-1.050449944E1,-1.601319885E1,2.161299944E0
6.330000000E0,1.695999980E0,-7.202600002E0,6.836899757E0
6.350000000E0,5.237599850E0,-4.118499756E0,1.341909981E1
6.370001562E0,-5.381999612E-1,5.241699696E0,1.627039909E1
6.390007812E0,-3.365700006E0,1.173229980E1,1.505459976E1
6.420000000E0,-2.725299835E0,1.734490013E1,1.532409954E1
6.440001562E0,-6.719999909E-1,1.715950012E1,1.363689995E1
6.470000000E0,-9.063999653E-1,1.156190014E1,1.124189949E1
6.490000000E0,-2.163699865E0,5.145199776E0,8.874799728E0
6.510001562E0,5.874899864E0,-3.069099903E0,-2.917179871E1
6.530001562E0,7.911599636E0,1.067299962E0,-1.198499966E1
6.560000000E0,-7.170300007E0,-8.852099419E0,-1.242359924E1
6.580004687E0,-1.685190010E1,-1.416179943E1,2.252589989E1
6.610000000E0,-4.687399864E0,-1.307800007E1,1.818019867E1
6.630000000E0,1.329599977E0,-2.700449944E1,1.812549973E1
6.650001562E0,2.027999908E-1,-2.988349915E1,5.835999966E0
6.680007812E0,-9.618499756E0,-6.731299877E0,-3.692340088E1
6.710000000E0,-6.277999878E0,2.568899870E0,-1.597549915E1
6.730006250E0,-2.178400040E0,7.518499851E0,-2.010999918E0
6.760000000E0,1.254269981E1,8.470199585E0,-1.382380009E1
6.780007812E0,1.687179947E1,4.726699829E0,-2.483989906E1
6.810000000E0,7.263999581E-1,7.259699821E0,5.207999945E-1
6.830009375E0,-1.934999943E0,6.355799675E0,2.349200010E0
6.860001562E0,-2.677399874E0,2.457299948E0,-7.267999649E-1
6.890000000E0,2.926999927E-1,-2.170450020E1,3.738899946E0
6.910000000E0,-8.868100166E0,-3.410020065E1,-1.421239948E1
6.930000000E0,-1.067799950E1,-2.351019859E1,-8.198999405E0
6.950001562E0,-5.561199665E0,-1.504489994E1,1.392000020E-1
6.980000000E0,4.781099796E0,-8.320599556E0,8.994899750E0
7.000000000E0,4.103600025E0,-2.779500008E0,1.412729931E1
7.020007812E0,-3.020499945E0,6.765299797E0,1.448429966E1
7.050000000E0,-3.977599859E0,1.616169930E1,1.299739933E1
7.070006250E0,-1.912899971E0,1.831099892E1,1.543029976E1
7.100043750E0,1.569599986E0,1.319569969E1,1.117420006E1
7.130000000E0,8.003999591E-1,7.082999706E0,1.026469994E1
7.150001562E0,4.851999760E0,-5.128999949E-1,-2.887209892E1
7.170006250E0,9.572099686E0,-5.891799927E0,-2.773649979E1
7.200010937E0,-6.573400021E0,-6.192299843E0,1.144259930E1
7.230001562E0,-1.170659924E1,-1.005119991E1,2.227579880E1
7.260003125E0,-3.844699860E0,-1.277129936E1,1.559449959E1
7.290000000E0,-2.038199902E0,-2.519829941E1,8.363599777E0
7.310007812E0,-2.227299929E0,-2.730879974E1,1.014459991E1
7.340000000E0,-9.208600044E0,2.331099987E0,-3.561750031E1
7.360007812E0,-9.219999909E-1,6.941999793E-1,-9.913899422E0
7.390000000E0,2.734699965E0,1.177320004E1,6.669699669E0
7.410001562E0,7.562999725E0,1.152460003E1,6.781499863E0
7.430001562E0,1.774919891E1,5.534499645E0,-4.034759903E1
7.460004687E0,2.306099892E0,6.436100006E0,2.128499985E0
7.490000000E0,-5.753999949E-1,6.158499718E0,3.084100008E0
7.510001562E0,9.769999981E-2,2.399899960E0,2.387799978E0
7.540000000E0,3.711099863E0,-2.522399902E1,-4.467400074E0
7.560003125E0,-7.466300011E0,-3.466989899E1,-1.303789997E1
7.590001562E0,-8.509300232E0,-2.012609863E1,7.539999485E-2
7.610001562E0,1.023999974E-1,-9.979999542E0,4.268599987E0
7.630001562E0,3.590399981E0,-6.092299938E0,8.206799507E0
7.650003125E0,2.213099957E0,-2.321599960E0,1.348359966E1
7.680000000E0,-3.692699909E0,7.437699795E0,1.271689987E1
7.700006250E0,-3.178999901E0,1.238099957E1,1.248530006E1
7.730001562E0,-2.609599829E0,1.634469986E1,1.453659916E1
7.760000000E0,-2.960999906E-1,1.483859921E1,1.144600010E1
7.780000000E0,-1.590199947E0,1.079379940E1,7.643699646E0
7.800004687E0,-2.220599890E0,5.573599815E0,6.581999779E0
7.830000000E0,5.978999734E-1,-1.351400018E0,-2.297060013E1
7.850009375E0,1.908299923E0,9.865200043E0,2.767999887E0
7.880000000E0,-1.638499975E0,-5.038499832E0,1.304309940E1
7.900003125E0,-1.592490005E1,-2.381529999E1,8.452199936E0
7.930000000E0,8.089999557E-1,-2.266189957E1,2.105900002E1
7.950001562E0,2.899600029E0,-2.566300011E1,9.094900131E0
7.980000000E0,-3.343999982E-1,-1.152750015E1,-3.870489883E1
8.000000000E0,-6.302399635E0,-7.443699837E0,-1.875139999E1
8.020001562E0,-8.142999649E0,1.836299896E0,-1.236459923E1
8.050001562E0,-4.315000057E0,9.925099373E0,-8.285300255E0
8.080001562E0,9.542799950E0,8.966799736E0,-7.975999832E0
8.110000000E0,1.287089920E1,8.069000244E0,-1.559399986E1
8.130000000E0,2.318300009E0,9.075399399E0,-5.152699947E0
8.150001562E0,-8.208000064E-1,6.786900043E0,4.390500069E0
8.180000000E0,-3.085399866E0,4.375299931E0,-5.115000010E-1
8.200009375E0,6.157999635E-1,-5.033099651E0,7.229999900E-1
8.230001562E0,-1.633700013E0,-3.066639900E1,7.093599796E0
8.260000000E0,-3.878700018E0,-2.167219925E1,-1.637979889E1
8.280000000E0,-7.661900043E0,-1.391510010E1,-6.435999870E0
8.300001562E0,-4.286200047E0,-7.506899834E0,9.516999722E-1
8.330000000E0,2.306599855E0,-2.706799984E0,1.234140015E1
8.350000000E0,1.541499972E0,1.369599938E0,1.307269955E1
8.370001562E0,-1.861899972E0,7.695699692E0,1.130049992E1
8.400000000E0,-1.503799915E0,1.395510006E1,1.046889973E1
8.420001562E0,9.982999563E-1,1.532619953E1,1.406250000E1
8.440001562E0,3.641199827E0,1.351519966E1,1.516109943E1
8.470000000E0,2.435299873E0,1.018610001E1,9.724999428E0
8.490000000E0,6.407999992E-1,7.531199932E0,6.573199749E0
8.510001562E0,8.914500237E0,-9.895299911E0,-6.294260025E1
8.540000000E0,-8.457499504E0,-2.536099911E0,7.296799660E0
8.560000000E0,-1.221309948E1,-1.783359909E1,2.307209969E1
8.580001562E0,-4.568999767E0,-7.151599884E0,2.467309952E1
8.610000000E0,4.500099659E0,-1.735129929E1,2.332110023E1
8.630000000E0,5.076499939E0,-3.106929970E1,7.221899986E0
8.650000000E0,4.604499817E0,-2.313269997E1,1.847399950E0
8.670001562E0,-5.828299999E0,-5.763599873E0,-3.129799843E1
8.700000000E0,-6.152999878E0,-4.643399715E0,-4.484999776E-1
8.720001562E0,-1.206209946E1,3.876899958E0,-9.403800011E0
8.740001562E0,-9.723099709E0,8.865499496E0,-1.142029953E1
8.770000000E0,9.741999507E-1,7.470099926E0,-1.207429981E1
8.790000000E0,1.081029987E1,7.525899887E0,-4.487800121E0
8.810001562E0,1.339159966E1,5.995800018E0,-1.643099904E0
8.840000000E0,6.662600040E0,7.768499851E0,-6.507299900E0
8.860000000E0,1.028499961E0,7.627599716E0,1.608399987E0
8.880001562E0,-1.064700007E0,5.227499962E0,2.251699924E0
8.910000000E0,-6.110000014E-1,-5.401700020E0,3.810999990E-1
8.930000000E0,3.343699932E0,-2.704889870E1,1.148999929E0
8.950001562E0,1.998999953E0,-3.382500076E1,-6.164199829E0
8.980000000E0,-2.569299936E0,-1.589999962E1,-8.659999967E-1
9.000000000E0,-1.132399917E0,-1.072189999E1,1.580500007E0
9.020001562E0,2.869699955E0,-9.202899933E0,1.440699935E0
9.050000000E0,2.791800022E0,-3.583400011E0,1.118989944E1
9.070000000E0,-1.715699911E0,3.043399811E0,1.230679989E1
9.090001562E0,-3.390799999E0,7.360899925E0,1.119579983E1
9.120000000E0,-5.629999638E-1,1.071299934E1,1.093639946E1
9.140000000E0,1.639099956E0,1.127559948E1,9.992899895E0
9.160001562E0,2.257799864E0,1.159340000E1,7.887300014E0
9.190000000E0,1.743600011E0,1.033609962E1,6.535899639E0
9.210007812E0,-3.499499798E0,4.482899666E0,-3.144939995E1
9.240001562E0,8.527999520E-1,9.461899757E0,-7.718699932E0
9.260001562E0,2.502999902E-1,9.627399445E0,5.659599781E0
9.290000000E0,-3.620999813E0,-1.052999943E-1,1.861339951E1
9.310000000E0,-1.027289963E1,-1.880489922E1,7.310799599E0
9.330000000E0,2.746999979E0,-3.047849846E1,1.881250000E1
9.350012500E0,2.703699827E0,-1.449309921E1,7.811699867E0
9.380001562E0,4.044300079E0,-8.859799385E0,4.425799847E0
9.410000000E0,-1.855899930E0,-1.059799957E1,-5.730099678E0
9.430000000E0,-3.826499939E0,-7.575199604E0,-3.928799868E0
9.450001562E0,-7.179499626E0,-9.564999938E-1,-9.199699402E0
9.480001562E0,-7.299799919E0,1.788199902E0,-1.190829945E1
9.500001562E0,-3.756999969E-1,4.473199844E0,-3.678799868E0
9.520001562E0,5.877099991E0,7.478099823E0,-8.109700203E0
9.550000000E0,9.425799370E0,7.386299610E0,-5.623699665E0
9.570000000E0,5.805999756E0,5.985899925E0,-4.421099663E0
9.590001562E0,-5.066999793E-1,5.889999866E0,-1.263599992E0
9.620000000E0,-4.780299664E0,4.477799892E0,1.634299994E0
9.640000000E0,-3.274499893E0,-2.422899961E0,3.623899937E0
9.660001562E0,-2.612099886E0,-1.923219872E1,4.175199986E0
9.690000000E0,-9.967299461E0,-2.104579926E1,-1.123489952E1
9.710000000E0,-8.089499474E0,-1.319019985E1,-5.814699650E0
9.730001562E0,-3.820899963E0,-8.481900215E0,-1.079399943E0
9.760000000E0,-7.774999738E-1,-5.210299969E0,6.660799980E0
9.780000000E0,-4.399999976E-1,-4.067899704E0,9.718999863E0
9.800001562E0,-3.697999954E0,8.148999810E-1,9.256199837E0
9.830000000E0,-2.684499979E0,9.726399422E0,6.621699810E0
9.850000000E0,-1.333499908E0,1.367649937E1,4.344799995E0
9.870000000E0,8.625999689E-1,1.507969952E1,4.757499695E0
9.890000000E0,4.963399887E0,1.272719955E1,1.133179951E1
9.910000000E0,5.850199699E0,8.859399796E0,1.233159924E1
9.930000000E0,4.151999950E0,4.552599907E0,7.711400032E0
9.950001562E0,1.029570007E1,-5.862999558E-1,-1.914889908E1
9.980000000E0,-2.526399851E0,-8.806599617E0,-2.019599915E1
1.000000000E1,-7.029999733E0,-6.579999924E0,1.592709923E1
1.002000156E1,-9.380199432E0,-1.370700002E0,1.668770027E1
1.005000000E1,-4.285299778E0,-5.710099697E0,7.647999763E0
1.007000000E1,-3.208299875E0,-1.567619991E1,1.336019993E1
1.009000156E1,-1.511799932E0,-1.438109970E1,4.299200058E0
1.012000000E1,3.293099880E0,-1.094439983E1,-8.057799339E0
1.014000000E1,-2.203999996E0,-6.464900017E0,-1.747209930E1
1.016000156E1,-4.356899738E0,-6.292399883E0,-6.771599770E0
1.019000000E1,-4.170599937E0,-7.841999531E-1,-1.103319931E1
1.021000000E1,-1.652699947E0,4.133699894E0,-1.404640007E1
1.023000156E1,4.117000103E0,7.162899971E0,-9.314599991E0
1.026000000E1,9.672800064E0,7.213399887E0,1.186599970E0
1.028000000E1,1.137549973E1,7.321399689E0,-6.430799961E0
1.030000156E1,7.011600018E0,6.506899834E0,-1.383619976E1
1.033000000E1,-2.659299850E0,2.400999963E-1,2.671900034E0
1.035000000E1,-4.174799919E0,-9.152299881E0,7.894099712E0
1.037000469E1,-8.369899750E0,-1.339099979E1,1.946499944E0
1.040000000E1,-1.256849957E1,-1.583189964E1,-9.024299622E0
1.042000000E1,-1.020269966E1,-1.477799988E1,-8.082099915E0
1.044000156E1,-1.153699994E0,-1.133780003E1,-9.677000046E-1
1.047000000E1,3.921099901E0,-7.981299877E0,6.690299988E0
1.049000000E1,2.456399918E0,-4.091000080E0,9.651899338E0
1.051000156E1,-2.003099918E0,2.578299999E0,1.037519932E1
1.054000000E1,-3.715600014E0,1.186489964E1,1.049399948E1
1.056000000E1,-9.363999963E-1,1.674489975E1,9.352600098E0
1.058000156E1,1.896499991E0,1.682830048E1,1.232279968E1
1.061000000E1,3.803699970E0,1.080669975E1,9.980899811E0
1.063000156E1,2.536599874E0,4.194299698E0,6.630799770E0
1.065000156E1,1.329500008E1,-6.202600002E0,-3.320409775E1
1.068000000E1,-8.521999359E0,-8.467399597E0,1.119749928E1
1.070000000E1,-1.479430008E1,-1.170419979E1,1.816720009E1
1.072000000E1,-9.991799355E0,-2.456199884E0,1.269699955E1
1.074000156E1,-3.145999908E0,-2.083999872E0,9.850099564E0
1.077000156E1,1.361400008E0,-1.988199997E1,9.977999687E0
1.080000156E1,4.137000084E0,-1.624759865E1,-1.337099910E0
1.083000000E1,-4.797899723E0,-3.605499983E0,-1.262769985E1
1.085000000E1,-6.352799892E0,-8.332999945E-1,-8.619799614E0
1.087000156E1,-6.964299679E0,2.989899874E0,-1.105739975E1
1.090000000E1,3.655000031E-1,5.906699657E0,-9.700300217E0
1.092000000E1,7.116499901E0,6.785099983E0,-3.321599960E0
1.094000156E1,1.094670010E1,6.338799953E0,-1.885699987E0
1.097000000E1,1.197459984E1,6.133199692E0,-7.614999771E0
1.099000000E1,3.199599981E0,7.026799679E0,-2.530900002E0
1.101000156E1,1.951999962E-1,3.888799906E0,3.260499954E0
1.104000000E1,-1.931399941E0,-1.093190002E1,7.781099796E0
1.106000156E1,-9.602499962E0,-1.740900040E1,-6.026299953E0
1.108000156E1,-1.265520000E1,-1.834949875E1,-1.078319931E1
1.110000156E1,-1.090939999E1,-1.482730007E1,-2.679299831E0
1.113000000E1,-1.096899986E0,-8.123899460E0,2.832199812E0
1.115000156E1,2.164399862E0,-5.950900078E0,5.294099808E0
1.117000156E1,1.221799970E0,-3.151199818E0,8.559000015E0
1.120001094E1,-2.088299990E0,5.900599957E0,8.568200111E0
1.123000156E1,-1.755999923E-1,1.312720013E1,7.656999588E0
1.126000000E1,1.068799973E0,1.325749969E1,9.088399887E0
1.128000000E1,1.592899919E0,1.078599930E1,8.651299477E0
1.130000156E1,1.900900006E0,8.899499893E0,7.655499935E0
1.133000000E1,1.136759949E1,-5.185999870E-1,-2.411699867E1
1.135000000E1,2.143599987E0,2.882599831E0,-6.492999792E-1
1.137000156E1,-6.042399883E0,-1.183200002E0,8.823399544E0
1.140000000E1,-1.384819984E1,-1.172620010E1,1.080539989E1
1.142000000E1,-6.011099815E0,-8.829400063E0,9.966799736E0
1.144000156E1,-1.425199986E0,-1.402899933E1,1.538949966E1
1.147000000E1,1.522300005E0,-1.806629944E1,4.145299911E0
1.149000000E1,2.812399864E0,-1.578769970E1,-3.637699842E0
1.151000156E1,-5.844899654E0,-5.320600033E0,-2.866689873E1
1.154000156E1,-4.036600113E0,-2.723599911E0,-1.113229942E1
1.156000156E1,9.039999545E-2,1.421499968E0,-7.896499634E0
1.158000156E1,3.589499950E0,8.661700249E0,-5.565700054E0
1.161000000E1,1.033589935E1,7.229499817E0,-8.497599602E0
1.163000000E1,9.220899582E0,6.427299976E0,-3.127199888E0
1.165000156E1,4.810699940E0,8.469299316E0,-5.080699921E0
1.167000156E1,-1.326499939E0,6.993999958E0,-4.482100010E0
1.170000000E1,-1.747699976E0,-3.057199955E0,6.131799698E0
1.172000000E1,-3.635200024E0,-1.339689922E1,5.195499897E0
1.174000156E1,-9.133299828E0,-2.088329887E1,-9.050099373E0
1.177000000E1,-1.162209988E1,-1.913559914E1,-5.563299656E0
1.179000000E1,-7.125699997E0,-1.044729996E1,2.348899841E0
1.181000156E1,1.481699944E0,-6.271199703E0,3.738199949E0
1.184000000E1,4.184099674E0,-4.775799751E0,7.935499668E0
1.186000000E1,-6.560999751E-1,1.637799978E0,9.908999443E0
1.188000156E1,-1.908199906E0,7.536900043E0,9.004300117E0
1.191000000E1,3.874999881E-1,1.433419991E1,6.993700027E0
1.193000000E1,2.469399929E0,1.562309933E1,7.933300018E0
1.195000156E1,2.886600018E0,1.430599976E1,8.634900093E0
1.198000000E1,1.498399973E0,8.953700066E0,7.191799641E0
1.200000000E1,9.388500214E0,-3.334999979E-1,-2.621019936E1
1.202000156E1,-2.058999985E-1,4.090300083E0,6.306799889E0
1.205000000E1,-9.669099808E0,-7.265100002E0,7.756700039E0
1.207000000E1,-1.073719978E1,-1.202470016E1,7.561699867E0
1.209004531E1,-4.051300049E0,-1.365529919E1,1.010599995E1
1.212000000E1,6.617999673E-1,-1.493699932E1,1.413169956E1
1.214000000E1,-1.278000027E-1,-1.419139957E1,6.928299904E0
1.216000156E1,-1.569800019E0,-1.236999989E1,3.252499819E0
1.219000000E1,-1.382870007E1,2.226999998E-1,-3.624110031E1
1.221000000E1,-3.810799837E0,-9.463999867E-1,-8.714699745E0
1.223000156E1,-1.139999986E0,2.559900045E0,-5.019499779E0
1.226000000E1,6.467000008E0,1.107499981E1,-5.275799751E0
1.228000000E1,1.066790009E1,9.907999992E0,-8.070300102E0
1.230000156E1,1.098799992E1,7.703499794E0,-3.716399908E0
1.233000000E1,3.965099812E0,3.847800016E0,-5.725100040E0
1.235000000E1,8.380999565E-1,1.135100007E0,-1.296999902E-1
1.237000781E1,-1.625399947E0,-7.806200027E0,6.874300003E0
1.240000000E1,-1.227269936E1,-2.156929970E1,-4.731499672E0
1.242000000E1,-1.362969971E1,-2.269190025E1,-1.167799950E1
1.244000156E1,-1.312609959E1,-1.474409962E1,-3.624799967E0
1.247000000E1,1.973000020E-1,-5.763099670E0,4.769799709E0
1.249000000E1,3.855499983E0,-4.173799992E0,8.973899841E0
1.251000156E1,1.481299996E0,4.826999903E-1,9.099999428E0
1.254000000E1,-1.857199907E0,9.016699791E0,1.014289951E1
1.256000000E1,-8.200999498E-1,1.317199993E1,8.948399544E0
1.258000156E1,5.540999770E-1,1.503230000E1,1.020669937E1
1.261000000E1,3.674999952E0,1.242509937E1,9.397899628E0
1.263000000E1,3.047899961E0,1.073960018E1,8.858499527E0
1.265000156E1,8.719499588E0,8.912000060E-1,-4.296310043E1
1.267000156E1,1.089340019E1,-9.452199936E0,-2.874209976E1
1.270000000E1,-1.185529995E1,-6.154099941E0,1.773499870E1
1.272000000E1,-1.499079990E1,-8.387199402E0,1.455819988E1
1.274000156E1,-8.545599937E0,-5.045599937E0,1.007289982E1
1.277000000E1,-9.519999623E-1,-1.712940025E1,1.694560051E1
1.279000000E1,1.239399910E0,-2.056149864E1,1.213619995E1
1.281000000E1,-9.636999965E-1,-1.757679939E1,4.061299801E0
1.283000000E1,-1.107279968E1,-1.047789955E1,-5.643420029E1
1.285000000E1,-9.640999794E0,-7.239999771E-1,-2.642109871E1
1.287000156E1,-2.575000048E0,4.253999889E-1,-1.000199986E1
1.290000000E1,-8.495000005E-1,6.816799641E0,-2.166599989E0
1.292000000E1,6.228299618E0,1.050449944E1,-4.122399807E0
1.294000000E1,9.286600113E0,9.570799828E0,-7.056900024E0
1.296000000E1,1.075479984E1,8.457399368E0,-1.107329941E1
1.298000000E1,8.036799431E0,8.157400131E0,-3.891199827E0
1.300000000E1,2.427899837E0,7.622999668E0,-7.271999717E-1
1.302000156E1,9.056999683E-1,5.587999821E0,-2.292599916E0
1.305000000E1,3.355199814E0,-1.152729988E1,5.391599655E0
1.307000000E1,3.301999867E-1,-2.683739853E1,-1.818599939E0
1.309000156E1,-1.200570011E1,-3.073689842E1,-8.049300194E0
1.312000000E1,-8.853499413E0,-1.654500008E1,5.618999600E-1
1.314000000E1,-3.253999949E0,-6.468400002E0,3.432399988E0
1.316000156E1,9.813999534E-1,-3.622900009E0,5.151299953E0
1.319000000E1,-1.009999961E-2,-5.997999907E-1,1.000239944E1
1.321000000E1,-3.869999886E0,7.283999920E0,1.173199940E1
1.323000000E1,-2.804800034E0,1.012519932E1,1.197809982E1
1.325000000E1,1.202999949E-1,1.143869972E1,6.296299934E0
1.327000000E1,2.010099888E0,1.434679985E1,6.144299984E0
1.329000000E1,2.479500055E0,1.442359924E1,6.964200020E0
1.331000000E1,1.994599938E0,1.350609970E1,7.370800018E0
1.333000000E1,1.256500006E0,9.862899780E0,6.253200054E0
1.335000000E1,4.650300026E0,-3.059999943E-1,-2.979169846E1
1.337000000E1,3.103499889E0,2.000999928E0,-7.499399662E0
1.339000000E1,-2.654799938E0,3.419600010E0,7.849199772E0
1.341000000E1,-9.871899605E0,1.427000016E-1,1.263350010E1
1.343000000E1,-2.025020027E1,-9.363499641E0,1.843869972E1
1.345000469E1,-1.145279980E1,-1.635159874E1,1.134109974E1
1.348000000E1,-3.940299988E0,-2.287719917E1,1.595370007E1
1.350000000E1,-1.035699964E0,-1.997839928E1,1.363879967E1
1.352000000E1,3.759999946E-2,-1.745590019E1,7.977499962E0
1.354000469E1,-1.095779991E1,-4.758599758E0,-7.495849609E1
1.357000000E1,-1.602299929E0,-2.786799908E0,-7.080499649E0
1.359000000E1,-5.873000026E-1,4.065499783E0,-4.122399807E0
1.361000000E1,1.760199904E0,8.971399307E0,-1.317299962E0
1.363000000E1,9.229499817E0,1.078529930E1,-9.638599396E0
1.365000000E1,9.558199883E0,7.998600006E0,-7.585299969E0
1.367000000E1,8.359299660E0,8.049799919E0,-8.664599419E0
1.369000781E1,1.329199910E0,8.652400017E0,-6.752199650E0
1.372000000E1,-1.212299943E0,6.747499943E0,-2.226599932E0
1.374000313E1,7.497999668E-1,3.734000027E-1,3.266599894E0
1.377000000E1,-2.923599958E0,-2.281079865E1,1.216739941E1
1.379000312E1,-9.376199722E0,-3.036779976E1,-7.140399933E0
1.382000000E1,-8.521200180E0,-1.367819977E1,-7.938899994E0
1.384000312E1,-6.940799713E0,-6.945299625E0,5.230999589E-1
1.387000000E1,-8.789999485E-1,-3.615999937E0,9.722899437E0
1.389000000E1,2.787099838E0,-3.498399973E0,1.342280006E1
1.391000156E1,5.819000006E-1,4.246999919E-1,9.639599800E0
1.394000156E1,-1.326599956E0,7.918799877E0,9.337399483E0
1.397000000E1,9.650999904E-1,1.147219944E1,7.452799797E0
1.399000000E1,3.332199812E0,1.337039948E1,7.067100048E0
1.401000156E1,3.345499992E0,1.401559925E1,6.059599876E0
1.403000469E1,3.295099974E0,1.260169983E1,4.000499725E0
1.406000156E1,7.886199951E0,7.220000029E-2,-2.093569946E1
1.408000156E1,1.456399918E0,7.924899578E0,7.613399982E0
1.411000000E1,-2.445999861E0,5.055500031E0,5.408299923E0
1.413000000E1,-2.003610039E1,-5.486999989E0,5.242700100E0
1.415000000E1,-1.442289925E1,-2.269759941E1,1.110960007E1
1.417000781E1,-5.646299839E0,-2.528870010E1,1.911549950E1
1.420001094E1,-3.209499836E0,-1.512939930E1,1.347539997E1
1.423000469E1,-1.335099936E0,-1.223219967E1,4.293499947E0
1.426000000E1,-6.107699871E0,-2.970999956E0,-2.765979958E1
1.428000000E1,-2.328799963E0,-2.913300037E0,-1.057849979E1
1.430000156E1,-5.009999871E-1,4.237999916E-1,1.683000028E-1
1.433000000E1,1.422599912E0,1.305189991E1,-7.689299583E0
1.435000000E1,7.386299610E0,1.116189957E1,-8.365300179E0
1.437000469E1,6.108599663E0,9.298999786E0,-9.613999724E-1
1.440000156E1,7.585299969E0,8.709099770E0,-1.075819969E1
1.442000938E1,1.971399903E0,7.255099773E0,-3.591799974E0
1.445000156E1,2.971400023E0,-1.132799983E0,6.289999962E0
1.447000313E1,1.273100019E0,-1.915349960E1,1.022119999E1
1.450000000E1,-1.193629932E1,-2.715489960E1,-1.447949982E1
1.452000469E1,-9.847799301E0,-2.010330009E1,-7.349699974E0
1.455000156E1,-9.202199936E0,-7.737499714E0,2.253499985E0
1.458000156E1,-6.764999628E-1,-4.842099667E0,7.998399734E0
1.461000625E1,2.963500023E0,-3.098999858E-1,7.467899799E0
1.464000000E1,-1.885599971E0,9.024099350E0,1.054629993E1
1.466000938E1,-1.294899940E0,1.039330006E1,9.313099861E0
1.469000000E1,1.394400001E0,1.113439941E1,8.451099396E0
1.471000000E1,1.385699987E0,1.131890011E1,8.929100037E0
1.473000000E1,7.652999759E-1,1.182789993E1,8.049699783E0
1.475000000E1,1.050400019E0,1.131729984E1,6.905900002E0
1.477000000E1,5.218299866E0,3.662799835E0,-3.607239914E1
1.479000000E1,-1.242799997E0,7.397799969E0,-3.860599995E0
1.481000469E1,-2.999399900E0,4.896199703E0,1.383179951E1
1.484000000E1,-2.367399931E0,6.578099728E0,-4.962999821E-1
1.486000469E1,-4.917399883E0,-1.179899931E0,1.368279934E1
1.489000156E1,-9.033800125E0,-3.103699875E1,9.723799706E0
1.491000156E1,4.536600113E0,-2.461639977E1,1.127540016E1
1.494000156E1,-3.885599852E0,-1.189149952E1,2.411399841E0
1.497000000E1,-1.090450001E1,-2.560299873E0,-4.397100067E1
1.499000000E1,-3.733899832E0,-2.727399826E0,-7.782499790E0
1.501000156E1,-3.676599979E0,1.235800028E0,-8.010399818E0
1.503000156E1,-1.095099926E0,5.640399933E0,-5.536699772E0
1.506000156E1,9.753999710E0,5.734499931E0,-8.150099754E0
1.508000156E1,1.030420017E1,4.744800091E0,-3.047600031E0
1.511000000E1,7.842899799E0,8.193399429E0,-2.298199892E0
1.513000000E1,4.242599964E0,7.179499626E0,-3.670199871E0
1.515000000E1,2.380199909E0,-1.562999964E0,2.208499908E0
1.517000156E1,-7.468999624E-1,-1.067539978E1,4.368099689E0
1.520001094E1,-1.196109962E1,-1.639959908E1,-4.639800072E0
1.523000156E1,-1.236179924E1,-1.618630028E1,-3.752099991E0
1.526000000E1,-5.937099934E0,-8.332300186E0,-4.659999907E-1
1.528000000E1,-7.810999751E-1,-5.713099957E0,3.428699970E0
1.530000156E1,1.572299957E0,-4.904999733E0,5.334899902E0
1.533000000E1,-1.395200014E0,1.628199935E0,7.993099689E0
1.535000000E1,-2.324199915E0,7.474299908E0,7.116199970E0
1.537000156E1,-3.413999975E-1,1.155859947E1,5.556900024E0
1.540000000E1,1.689000010E0,1.402929974E1,7.906799793E0
1.542000000E1,2.337399960E0,1.324079990E1,1.054619980E1
1.544000156E1,2.407599926E0,1.269029999E1,1.095709991E1
1.547000000E1,8.379599571E0,2.662499905E0,-2.493649864E1
1.549000000E1,7.167999744E0,8.233000040E-1,-1.091289997E1
1.551000156E1,-4.258899689E0,1.939999938E0,3.145000041E-1
1.554000000E1,-1.301799965E1,-9.415800095E0,1.230849934E1
1.556000000E1,-1.038560009E1,-1.479259968E1,7.795899868E0
1.558000156E1,-5.373099804E0,-1.150220013E1,1.459340000E1
1.561000000E1,-2.493199825E0,-1.357590008E1,9.438599586E0
1.563000000E1,5.619999766E-1,-1.579059982E1,4.636499882E0
1.565000000E1,-3.057600021E0,-1.343190002E1,-3.094169998E1
1.567000156E1,-6.106299877E0,-3.964699984E0,-2.364379883E1
1.570000000E1,-7.416999936E-1,-1.250499964E0,-5.130899906E0
1.572000000E1,-1.489899993E0,5.582999706E0,-4.473400116E0
1.574000156E1,2.743999958E0,1.122480011E1,-1.205999947E1
1.577000000E1,8.776999474E0,7.258800030E0,-5.908400059E0
1.579000000E1,9.141099930E0,6.710700035E0,-1.769299984E0
1.581000156E1,6.702099800E0,7.024099827E0,-9.492400169E0
1.584000000E1,-2.029199839E0,5.119499683E0,-4.432399750E0
1.586000000E1,-9.853000045E-1,-1.596799970E0,3.990000010E0
1.588000156E1,-8.983999491E-1,-1.406799984E1,1.150959969E1
1.591000000E1,-9.132599831E0,-2.239989853E1,7.297999859E-1
1.593000000E1,-7.730199814E0,-1.917669868E1,-1.739620018E1
1.595000156E1,-8.027400017E0,-1.139159966E1,-3.789099932E0
1.598000000E1,-3.524399996E0,-4.338699818E0,3.563199997E0
1.600000000E1,-2.568999827E-1,-3.189100027E0,6.307299614E0
1.602000156E1,1.810999960E-1,-1.049600005E0,9.227799416E0
1.605000000E1,-3.026700020E0,8.057700157E0,8.442299843E0
1.607000000E1,-9.206999540E-1,1.180329990E1,6.796799660E0
1.609000156E1,1.823999882E-1,1.372060013E1,4.573899746E0
1.612000000E1,1.994499922E0,1.289400005E1,7.934899807E0
1.614000000E1,2.422600031E0,1.215380001E1,1.056149960E1
1.616000156E1,2.085899830E0,8.880299568E0,9.768499374E0
1.619000000E1,1.176649952E1,-4.619699955E0,-2.233639908E1
1.621000000E1,-3.407999873E-1,-9.944999814E-1,1.100430012E1
1.623000156E1,-1.014270020E1,-7.619599819E0,1.545549965E1
1.626000000E1,-6.990900040E0,-9.583099365E0,7.733199596E0
1.628000000E1,-6.213799953E0,-1.011870003E1,1.633339882E1
1.630000156E1,-5.121900082E0,-1.203509998E1,1.266529942E1
1.633000000E1,-1.118899941E0,-1.618379974E1,4.181499958E0
1.635000000E1,-2.435799837E0,-1.506379986E1,3.604599953E0
1.637000156E1,-6.801199913E0,-5.764100075E0,-3.998929977E1
1.640000000E1,-1.999999881E-1,-2.219599962E0,-1.031129932E1
1.642000000E1,-2.588000000E-1,2.234599829E0,-5.377500057E0
1.644000156E1,1.479300022E0,8.840799332E0,-3.501099825E0
1.647000000E1,9.055600166E0,8.546999931E0,-7.404399872E0
1.649000000E1,1.182049942E1,6.488299847E0,-1.282599926E1
1.651000156E1,6.843899727E0,8.042099953E0,-9.574899673E0
1.653000156E1,1.100999951E0,6.844199657E0,-1.766799927E0
1.655000156E1,5.879999697E-2,3.733099937E0,1.352399945E0
1.657000156E1,-1.345600009E0,-9.621899605E0,6.875399590E0
1.659000156E1,-5.664199829E0,-2.159689903E1,4.006999969E0
1.662000000E1,-9.404399872E0,-2.518039894E1,-1.504199982E1
1.664000000E1,-8.432299614E0,-1.372669983E1,-5.799999926E-3
1.666000156E1,-3.553299904E0,-6.105700016E0,5.298799992E0
1.669000000E1,3.778699875E0,-5.003900051E0,7.387599945E0
1.671000000E1,4.592899799E0,-2.115799904E0,1.086969948E1
1.673000156E1,-8.199999481E-2,5.815999985E0,1.213009930E1
1.676000312E1,-6.870999932E-1,1.151729965E1,8.030300140E0
1.679000000E1,1.005499959E0,1.403289986E1,7.768899918E0
1.681000156E1,1.611899972E0,1.257469940E1,8.098699570E0
1.684000000E1,1.233099937E0,8.941299438E0,7.851999760E0
1.686000000E1,8.703199387E0,7.498999834E-1,-2.507419968E1
1.688000156E1,3.474200010E0,4.868099689E0,5.751899719E0
1.691000000E1,-2.902899981E0,-1.173699975E0,-6.807999611E-1
1.693000000E1,-1.491769981E1,-8.072199821E0,1.139739990E1
1.695000625E1,-1.150139999E1,-1.811699867E1,9.252999306E0
1.698000000E1,-5.683499813E0,-1.372789955E1,1.685540009E1
1.700000469E1,-1.510299921E0,-1.890699959E1,6.751100063E0
1.703000156E1,-1.300999969E-1,-1.883510017E1,1.600999951E0
1.706000156E1,-5.477600098E0,-3.216599941E0,-1.758139992E1
1.708004375E1,-1.091899991E0,-1.536099911E0,-9.297900200E0
1.711000000E1,-1.095899940E0,7.077899933E0,-2.692399979E0
1.713000000E1,6.267199993E0,1.113119984E1,-8.671799660E0
1.715000469E1,9.271800041E0,8.510799408E0,-7.038399696E0
1.718000000E1,1.204179955E1,6.598799706E0,-1.458859921E1
1.720001094E1,3.156199932E0,7.633699894E0,-3.115199804E0
1.723000156E1,-2.066400051E0,5.657099724E0,-2.592099905E0
1.726000000E1,1.287999898E-1,-6.622200012E0,4.823800087E0
1.728000000E1,-9.853999615E-1,-2.405529976E1,1.227610016E1
1.730000156E1,-8.116299629E0,-3.775830078E1,-2.269759941E1
1.733000000E1,-7.993700027E0,-1.291809940E1,-2.047399998E0
1.735000000E1,-3.979899883E0,-6.100399971E0,7.446499825E0
1.737000156E1,6.809999943E-1,-5.050699711E0,1.102740002E1
1.739000781E1,3.902299881E0,-2.675400019E0,9.092199326E0
1.742000000E1,-3.305899858E0,4.955599785E0,1.192259979E1
1.744000469E1,-3.984599829E0,8.083299637E0,1.207219982E1
1.747000000E1,-2.033299923E0,1.393029976E1,6.608500004E0
1.749000469E1,6.166999936E-1,1.821730042E1,7.110199928E0
1.752000156E1,1.916700006E0,1.382039928E1,6.587800026E0
1.754000156E1,1.736400008E0,9.290800095E0,1.428399920E0
1.757000000E1,4.456599712E0,5.761699677E0,-2.568799973E0
1.759000156E1,1.964999884E-1,6.122499943E0,1.784299970E0
1.762000000E1,-5.284899712E0,-1.253489971E1,1.401809978E1
1.764000000E1,-7.325199604E0,-1.547249985E1,1.188179970E1
1.766000156E1,-1.094499946E0,-9.158999443E0,1.419479942E1
1.768000625E1,-1.370000001E-2,-8.151299477E0,1.399510002E1
1.771000000E1,-3.290499926E0,-1.673609924E1,1.269869995E1
1.773000781E1,-5.747099876E0,-1.683359909E1,4.199500084E0
1.776000000E1,-2.043429947E1,-5.532399654E0,-4.157180023E1
1.778000781E1,-1.579609966E1,1.110599995E0,-2.617359924E1
1.781000156E1,-7.105399609E0,2.728299856E0,-1.283379936E1
1.783000781E1,-2.533099890E0,5.908699989E0,-4.770400047E0
1.786000000E1,7.757799625E0,8.887100220E0,-1.627699971E0
1.788000781E1,1.140199947E1,7.622099876E0,-5.463999748E0
1.791000000E1,5.357299805E0,1.011089993E1,-7.499300003E0
1.793000000E1,1.896999925E-1,7.258699894E0,-2.493899822E0
1.795000000E1,3.923999965E-1,1.017599940E0,1.600199938E0
1.797000000E1,-7.849999666E-1,-1.358369923E1,6.699599743E0
1.799000000E1,-8.451399803E0,-3.012500000E1,5.171199799E0
1.801000156E1,-9.810799599E0,-3.073889923E1,-1.321369934E1
1.804000000E1,-9.714699745E0,-8.525699615E0,-4.611700058E0
1.806000000E1,-4.478899956E0,-3.692299843E0,-4.799999762E-3
1.808000000E1,1.700999886E-1,-4.012300014E0,4.838200092E0
1.810000000E1,2.694299936E0,-3.985999823E0,1.340079975E1
1.812000000E1,1.515299916E0,8.388999701E-1,1.298259926E1
1.814000000E1,-1.808299899E0,8.753399849E0,1.183339977E1
1.816000156E1,-1.554999948E-1,1.426629925E1,1.138999939E1
1.819000000E1,2.184099913E0,1.539099979E1,1.033319950E1
1.821000000E1,4.517899990E0,1.303059959E1,9.999599457E0
1.823000156E1,4.530099869E0,9.775199890E0,8.181799889E0
1.825000156E1,2.387799978E0,6.192499638E0,6.510599613E0
1.827000156E1,1.221589947E1,-9.974800110E0,-3.670429993E1
1.830000156E1,1.904299974E0,8.458000183E0,6.486299992E0
1.832000156E1,-4.557799816E0,-3.561999798E-1,1.489909935E1
1.835000000E1,-1.726650047E1,-2.457269859E1,2.300769997E1
1.837000156E1,-8.891900063E0,-4.794199944E0,1.091659927E1
1.840000000E1,-3.345299959E0,-1.087619972E1,1.547949982E1
1.842000000E1,-9.997999668E-1,-2.393470001E1,4.705999851E0
1.844000156E1,-1.971300006E0,-2.031939888E1,4.857399940E0
1.846000156E1,-1.070800018E1,-2.646600008E0,-5.810619736E1
1.849000000E1,-6.446899891E0,1.042199969E0,-1.031269932E1
1.851000156E1,-4.308199883E0,2.840099812E0,1.949599981E0
1.853000156E1,-1.647199988E0,9.335499763E0,2.777599812E0
1.856000000E1,8.930399895E0,9.934599876E0,-1.654010010E1
1.858000000E1,9.613200188E0,6.051399708E0,-9.881899834E0
1.860000156E1,8.134399414E0,7.812599659E0,-2.845700026E0
1.863000000E1,9.609999508E-2,8.906799316E0,-4.959300041E0
1.865000000E1,-1.107999921E0,6.697899818E0,2.897000015E-1
1.867000469E1,-1.657899976E0,5.021299839E0,1.913399935E0
1.870000000E1,2.780599833E0,-1.487799931E1,-1.513999999E-1
1.872000000E1,3.596199989E0,-3.460979843E1,3.011199951E0
1.874000156E1,-8.040100098E0,-3.323249817E1,4.274999797E-1
1.877000000E1,-5.518399715E0,-7.000000000E0,-4.292900085E0
1.879000000E1,-3.248299837E0,-1.952199936E0,-4.774999917E-1
1.881000156E1,-3.574100018E0,-1.832799911E0,5.654000044E-1
1.884000000E1,4.325999916E-1,-8.720999956E-1,8.528699875E0
1.886000000E1,-9.371999502E-1,9.152999520E-1,9.989799500E0
1.888000156E1,-4.078400135E0,6.647399902E0,9.314599991E0
1.891000000E1,-3.752899885E0,1.244899940E1,6.323299885E0
1.893000000E1,3.423999846E-1,1.397059917E1,6.055500031E0
1.895000156E1,3.681199789E0,1.202460003E1,9.852499962E0
1.898000000E1,4.038799763E0,5.160999775E0,1.035779953E1
1.900000000E1,1.446859932E1,-2.062900066E0,-3.048849869E1
1.902000156E1,4.168799877E0,3.886299849E0,3.109999932E-2
1.905000000E1,-3.085700035E0,-7.992999554E-1,2.445849991E1
1.907000000E1,-1.507419968E1,-1.290899944E1,1.462869930E1
1.909000156E1,-1.310309982E1,-2.149740028E1,6.934899807E0
1.912000000E1,1.517499924E0,-1.224039936E1,1.353139973E1
1.914000000E1,4.131099701E0,-1.505959988E1,-2.230599880E0
1.916000156E1,1.863299966E0,-1.212459946E1,-2.518700027E1
1.919000000E1,-1.791000009E0,-6.818999767E0,-3.253099918E0
1.921000000E1,-6.596299648E0,1.426499963E0,-9.135199547E0
1.923000156E1,-4.945099831E0,2.489599943E0,-7.727999687E0
1.926000000E1,-2.847100019E0,3.962099791E0,-1.090520000E1
1.928000000E1,2.497200012E0,5.269700050E0,-3.398599863E0
1.930000156E1,7.484399796E0,7.752699852E0,6.893000007E-1
1.933000000E1,9.810199738E0,9.729100227E0,-4.350800037E0
1.935000000E1,8.540100098E0,1.063039970E1,-5.711199760E0
1.937000156E1,2.384099960E0,1.021490002E1,-1.688300014E0
1.940000000E1,7.153999805E-1,4.619899750E0,1.402999997E0
1.942000000E1,3.138999939E-1,-5.452499866E0,2.337699890E0
1.944000156E1,4.752999842E-1,-2.487430000E1,7.884999514E-1
1.946000156E1,-6.422999859E0,-3.435509872E1,-1.005399942E0
1.949000000E1,-1.096099973E0,-1.114099979E1,-3.012399912E0
1.951000000E1,3.058799982E0,-6.153100014E0,-2.499599934E0
1.953000156E1,3.832799911E0,-5.770499706E0,-2.012799978E0
1.956000000E1,2.185099840E0,-2.824599981E0,9.681399345E0
1.958000156E1,-3.506000042E-1,4.517000020E-1,1.407189941E1
1.960000156E1,-8.680999875E-1,5.810199738E0,1.130519962E1
1.962000156E1,5.085999966E-1,9.721699715E0,9.570899963E0
1.965000000E1,2.359699965E0,1.182209969E1,8.411999702E0
1.967000000E1,3.360699892E0,1.158189964E1,7.147699833E0
1.969000000E1,3.461399794E0,1.029829979E1,6.475499630E0
1.971000000E1,1.773999929E-1,7.578299999E0,-2.467299843E1
1.973000156E1,-2.092000008E0,6.550299644E0,-3.138239861E1
1.976000000E1,6.394999623E-1,3.382099867E0,1.846489906E1
1.978000000E1,-1.244499922E0,-7.384500027E0,2.143939972E1
1.980000000E1,-4.531399727E0,-2.065789986E1,9.947299957E0
1.982000000E1,2.118999958E0,-2.341689873E1,1.411139965E1
1.984000000E1,6.729799747E0,-1.750749969E1,8.327599525E0
1.986000000E1,5.852099895E0,-1.328329945E1,5.452399731E0
1.988000156E1,9.382999539E-1,-1.148199940E1,-1.506599998E1
1.991000000E1,-3.543399811E0,-9.083600044E0,-5.141699791E0
1.993000000E1,-7.080299854E0,-2.094300032E0,-5.862099648E0
1.995000156E1,-9.982099533E0,4.861099720E0,-1.313599968E1
1.998000000E1,-1.830699921E0,4.625299931E0,-1.191370010E1
2.000000000E1,4.713599682E0,6.118000031E0,-5.675999641E0
2.002000156E1,8.873000145E0,6.260999680E0,-9.781999588E-1
2.005000156E1,1.076749992E1,6.849799633E0,-2.949100018E0
2.008000000E1,2.363299847E0,7.029500008E0,-3.411399841E0
2.010000156E1,6.800000072E-1,-1.106500030E0,3.728499889E0
2.013000156E1,-4.397599697E0,-1.887469864E1,7.682299614E0
2.015000156E1,-3.329200029E0,-1.933699989E1,-1.079269981E1
2.017000156E1,-3.679399967E0,-1.746329880E1,-1.376099968E1
2.020001094E1,-5.113699913E0,-1.754249954E1,-5.376299858E0
2.023000156E1,2.500000000E-1,-1.432969952E1,5.934999943E0
2.026000000E1,2.140399933E0,-7.026899815E0,9.447599411E0
2.028000000E1,1.282099962E0,1.372999907E0,9.741199493E0
2.030000156E1,4.663999975E-1,7.916499615E0,1.070090008E1
2.033000000E1,2.445999980E-1,1.286139965E1,1.086969948E1
2.035000000E1,1.838499904E0,1.238239956E1,1.206589985E1
2.037000000E1,3.259199858E0,1.105359936E1,1.104589939E1
2.039000000E1,3.832499981E0,1.001289940E1,1.092259979E1
2.041000000E1,3.399899960E0,8.923199654E0,1.042689991E1
2.043000156E1,9.585899353E0,-5.970799923E0,-6.747669983E1
2.045000156E1,2.719799995E0,-5.288999677E-1,1.018769932E1
2.048000000E1,-2.853600025E0,1.971300006E0,1.793709946E1
2.050000000E1,-4.301899910E0,2.637500048E0,9.437999725E0
2.052000156E1,-8.484099388E0,-4.283800125E0,1.577969933E1
2.055000000E1,2.228999883E-1,-2.666440010E1,7.466599941E0
2.057000000E1,2.783699989E0,-1.332899952E1,6.417799950E0
2.059000156E1,3.695999980E-1,-4.288199902E0,-8.523099899E0
2.062000000E1,1.746399999E0,-3.712399960E0,-2.132999897E-1
2.064000000E1,5.717999935E-1,-1.406399965E0,5.977999568E-1
2.066000000E1,-4.205999970E-1,1.033599973E0,1.664199948E0
2.068000000E1,-1.814799905E0,3.002399921E0,1.897399902E0
2.070000000E1,-4.940899849E0,4.552299976E0,-3.955999851E0
2.072000000E1,-3.221899986E0,4.533999920E0,-5.628999710E0
2.074000156E1,-1.168699980E0,3.793299913E0,-4.492499828E0
2.077000000E1,7.161999941E-1,3.204099894E0,-4.305299759E0
2.079000000E1,2.135299921E0,3.599099874E0,-8.047900200E0
2.081000156E1,3.839099884E0,2.430399895E0,-1.016160011E1
2.084000000E1,3.032199860E0,-8.337000012E-1,-4.254199982E0
2.086000000E1,-3.399999812E-2,9.038999677E-1,-7.371099949E0
2.088000156E1,6.740999818E-1,-1.260599971E0,-6.342099667E0
2.091000000E1,2.211499929E0,-1.054299927E1,4.740099907E0
2.093000000E1,3.518999815E-1,-1.055109978E1,6.272999763E0
2.095000156E1,-7.500000000E-1,-7.391699791E0,3.681299925E0
2.098000000E1,-2.880599976E0,-7.210799694E0,-3.604999781E-1
2.100000000E1,-5.289599895E0,-4.844599724E0,-1.878899932E0
2.102000156E1,-5.970900059E0,-3.036199808E0,-1.574000001E0
2.105000000E1,-3.241199970E0,-1.411199927E0,3.306699991E0
2.107000000E1,-2.097399950E0,5.715999603E-1,4.989399910E0
2.109000156E1,-1.331000030E-1,2.194299936E0,5.867499828E0
2.112000000E1,2.032700062E0,3.969599962E0,6.946799755E0
2.114000000E1,1.606299996E0,4.959300041E0,8.031100273E0
2.116000156E1,1.005399942E0,5.462699890E0,9.503499985E0
2.119000000E1,5.843999982E-1,5.570699692E0,9.318499565E0
2.121000000E1,2.075999975E-1,5.825299740E0,7.317699909E0
2.123000156E1,8.362999558E-1,4.981499672E0,5.075799942E0
2.126000000E1,6.013000011E-1,-1.470499992E0,-1.905909920E1
2.128000000E1,-5.157999992E-1,-8.311999321E0,-2.145199966E1
2.130000156E1,-1.528999954E-1,-5.138799667E0,-6.108599663E0
2.133000000E1,-1.491099954E0,6.905999780E-1,-2.065599918E0
2.135000000E1,-6.051599979E0,-4.652199745E0,-4.744400024E0
2.137000156E1,-6.356999874E0,-1.015450001E1,1.899599910E0
2.139000156E1,-5.403299809E0,-4.228300095E0,1.766950035E1
2.142000000E1,-3.253999949E-1,6.576999664E0,1.492280006E1
2.144000156E1,-1.727599978E0,3.141299963E0,1.002260017E1
2.146000156E1,-1.864499927E0,-9.951700211E0,-2.433999926E-1
2.149000000E1,3.975899935E0,-6.460399628E0,-1.269899964E0
2.151000000E1,2.642400026E0,-2.004400015E0,3.547199965E0
2.153000000E1,9.397999644E-1,-8.453999758E-1,5.597399712E0
2.155000156E1,-1.488499999E0,-3.399999812E-3,2.424900055E0
2.158000000E1,-1.523599982E0,1.657199979E0,1.658499956E0
2.160000156E1,-5.810999870E-1,2.001100063E0,1.151299953E0
2.163000000E1,-4.010000080E-2,1.978699923E0,-3.062799931E0
2.165000000E1,-5.839999765E-2,2.074300051E0,-4.252200127E0
2.167000156E1,-2.029999942E-1,2.445699930E0,-1.942699909E0
2.170000000E1,-5.131999850E-1,2.598199844E0,1.158399940E0
2.172000000E1,-9.149999917E-2,2.019599915E0,1.367900014E0
2.174000156E1,9.009000063E-1,1.119499922E0,1.468999982E-1
2.177000000E1,2.711699963E0,6.109999865E-2,-2.690500021E0
2.179000000E1,2.652899981E0,-2.550400019E0,-6.394499779E0
2.181000156E1,1.811999977E-1,-3.327499866E0,-1.490079975E1
2.184000000E1,9.149999917E-2,-2.883800030E0,-7.289099693E0
2.186000000E1,-1.160399914E0,-1.863099933E0,-2.505800009E0
2.188000156E1,-1.628399968E0,-3.244099855E0,-3.116099834E0
2.191000000E1,-1.102599978E0,-6.107100010E0,2.491600037E0
2.193000000E1,-1.106899977E0,-6.712299824E0,1.942699909E0
2.195000156E1,-6.117999554E-1,-6.832699776E0,2.225699902E0
2.197000156E1,-1.419999957E0,-6.929999828E0,3.746500015E0
2.200000000E1,-4.462100029E0,-4.478199959E0,4.035299778E0
2.202000156E1,-5.781599998E0,-2.332200050E0,2.052999973E0
2.204000156E1,-4.615299702E0,-1.355299950E0,-1.325099945E0
2.206000156E1,-3.107599974E0,6.019999832E-2,-5.480000004E-2
2.208000156E1,-1.807599902E0,1.390299916E0,2.928499937E0
2.210000156E1,-1.271999925E-1,2.199399948E0,5.308499813E0
2.213000000E1,8.194999695E-1,3.203299999E0,7.503499985E0
2.215000000E1,1.004999995E0,3.037400007E0,8.457499504E0
2.217000156E1,4.319999814E-1,3.120399952E0,7.814699650E0
2.219000156E1,1.322000027E-1,3.933499813E0,6.598000050E0
2.222000000E1,1.108899951E0,5.666699886E0,6.035199642E0
2.224000156E1,2.095499992E0,5.753799915E0,5.411499977E0
2.227000000E1,3.455199957E0,3.159999847E-1,-4.850299835E0
2.229000000E1,-2.335999906E-1,-4.723599911E0,-2.073359871E1
2.231000156E1,-2.259599924E0,-5.328899860E0,-1.378809929E1
2.234000000E1,7.307999730E-1,-2.606999874E-1,-1.764999986E0
2.236000000E1,1.416999996E-1,-3.957999945E-1,1.241199970E0
2.238000156E1,-6.008499622E0,-2.979499817E0,5.937299728E0
2.241000000E1,-1.331330013E1,-1.248320007E1,6.882699966E0
2.243000156E1,-5.880399704E0,3.548499823E0,1.233899975E1
2.245000156E1,-3.710899830E0,2.420500040E0,1.269099998E1
2.248000000E1,-5.489000082E-1,-8.175700188E0,2.470599890E0
2.250000000E1,2.089299917E0,-5.253299713E0,4.235899925E0
2.252000000E1,5.311399937E0,-3.076299906E0,9.359999895E-1
2.254000000E1,3.990799904E0,1.097999960E-1,-5.433799744E0
2.256000156E1,5.040999651E-1,-1.550000012E-1,8.143999577E-1
2.258000156E1,-8.370000124E-2,3.414999843E-1,1.157799959E0
2.261000000E1,-6.870999932E-1,2.991799831E0,-4.616999924E-1
2.263000000E1,-1.339599967E0,4.264800072E0,-2.066599846E0
2.265000000E1,-8.652999997E-1,3.480000019E0,-3.979599953E0
2.267000156E1,-6.819999963E-2,1.828399897E0,-3.109599829E0
2.270000000E1,6.342999935E-1,1.921099901E0,1.792999953E-1
2.272000000E1,1.357100010E0,1.416800022E0,6.223999858E-1
2.274000156E1,1.918599963E0,-4.118999839E-1,-8.819999546E-2
2.277000000E1,1.160899997E0,-8.391999602E-1,-2.313699961E0
2.279000000E1,3.195999861E-1,-1.601499915E0,-4.722300053E0
2.281000156E1,-4.889999703E-2,-3.020799875E0,-7.821799755E0
2.284000000E1,3.655999899E-1,-2.889899969E0,-4.865099907E0
2.286000000E1,-4.222999811E-1,-2.251699924E0,-3.841699839E0
2.288000156E1,-9.156000018E-1,-3.015699863E0,-6.144099712E0
2.291000000E1,1.109999940E-1,-4.380700111E0,-8.758699417E0
2.293000000E1,-1.789999940E-2,-3.789599895E0,-6.765899658E0
2.295000156E1,5.539999902E-2,-4.197299957E0,-8.646000028E-1
2.298000000E1,9.219999611E-2,-5.187399864E0,3.866099834E0
2.300000000E1,-9.533999562E-1,-5.498199940E0,5.293200016E0
2.302000156E1,-2.478199959E0,-4.246399879E0,6.477499962E0
2.305000000E1,-3.806999922E0,-1.634999990E0,2.322900057E0
2.307000000E1,-3.531699896E0,-1.895099998E0,-5.670899868E0
2.309000156E1,-2.458299875E0,-9.911999702E-1,-2.586799860E0
2.312000000E1,-5.691999793E-1,4.426999986E-1,2.881199837E0
2.314000000E1,1.017999947E-1,1.057199955E0,4.603799820E0
2.316000000E1,3.765999973E-1,1.550999999E0,5.787199974E0
2.318000000E1,1.056699991E0,1.921499968E0,7.876499653E0
2.320001094E1,8.266999722E-1,2.225100040E0,7.819599628E0
2.323000156E1,-2.265999913E-1,3.091899872E0,6.225499630E0
2.326000000E1,-3.528999984E-1,5.065399647E0,5.153100014E0
2.328000156E1,5.641999841E-1,6.675199986E0,3.863799810E0
2.330000156E1,3.109899998E0,6.688299656E0,3.500900030E0
2.332000156E1,6.111899853E0,3.029399872E0,-3.261799812E0
2.335000000E1,1.872799993E0,-1.625230026E1,-3.796009827E1
2.337000156E1,-4.033100128E0,-4.799699783E0,1.711319923E1
2.339000156E1,-5.414499760E0,-5.951200008E0,2.359339905E1
2.342000000E1,-1.053849983E1,-1.091099977E0,2.802399874E0
2.344000000E1,-5.197799683E0,-1.052479935E1,1.154419994E1
2.346000156E1,5.383399963E0,-1.844190025E1,5.332099915E0
2.349000000E1,6.047299862E0,-8.350600243E0,1.853999943E-1
2.351000000E1,2.623499870E0,-3.372299910E0,2.081899881E0
2.353000156E1,-3.443999887E-1,-2.076499939E0,3.578899860E0
2.356000000E1,-2.763000011E0,1.138599992E0,4.466999769E-1
2.358000000E1,-5.342000127E-1,1.509999990E0,9.160999656E-1
2.360000156E1,5.681999922E-1,1.708400011E0,8.626999855E-1
2.363000000E1,-3.709999844E-2,2.529999971E0,-4.757999778E-1
2.365000000E1,-8.822999597E-1,2.904999971E0,-1.581799984E0
2.367000156E1,-1.233199954E0,2.404099941E0,-1.725799918E0
2.370000000E1,-8.672999740E-1,1.112399936E0,-4.779799938E0
2.372000000E1,-1.622999907E-1,5.324999690E-1,-5.703299999E0
2.374000156E1,4.262999892E-1,4.657999873E-1,-4.595999718E0
2.377000000E1,5.995000005E-1,3.836999834E-1,-6.352499962E0
2.379000000E1,9.910000116E-2,1.237900019E0,-8.281499863E0
2.381000156E1,-6.340000033E-2,9.276999831E-1,-7.798899651E0
2.384000000E1,-3.378999829E-1,-3.363699913E0,-2.485299826E0
2.386000000E1,-2.011899948E0,-6.181299686E0,3.667999804E-1
2.388000156E1,-5.409299850E0,-5.606499672E0,6.730999947E-1
2.391000000E1,-2.464799881E0,-2.518100023E0,1.533599973E0
2.393000000E1,-1.785599947E0,-3.647099972E0,3.449299812E0
2.395000156E1,-1.753799915E0,-3.411199808E0,4.941599846E0
2.398000000E1,3.138999939E-1,-2.503999949E0,-2.265199900E0
2.400000000E1,-1.169000030E0,-6.426999569E-1,-8.366000056E-1
2.402000156E1,-2.141299963E0,6.861000061E-1,4.529999793E-1
2.405000000E1,-1.523999929E0,1.956299901E0,3.305599928E0
2.407000000E1,-1.415699959E0,2.607699871E0,3.981499910E0
2.409000156E1,-1.213400006E0,2.968099833E0,3.811899900E0
2.412000000E1,2.439999953E-2,2.606899977E0,5.657299995E0
2.414000000E1,7.109999657E-1,2.124699831E0,5.329699993E0
2.416000156E1,1.359399915E0,1.663999915E0,4.247699738E0
2.419000000E1,9.192999601E-1,2.554499865E0,2.652899981E0
2.421000000E1,5.102999806E-1,3.937999964E0,1.773999929E0
2.423000156E1,8.356999755E-1,4.403399944E0,5.536000133E-1
2.425000156E1,1.283299923E0,3.364799976E0,-1.525099993E0
2.427000156E1,1.389099956E0,1.282400012E0,-4.915599823E0
2.430000156E1,-2.872999907E-1,-3.831699848E0,-9.196800232E0
2.433000000E1,-1.041800022E0,-2.990399837E0,-4.694099903E0
2.435000000E1,-2.345399857E0,-2.700999975E-1,-4.246599674E0
2.437000156E1,-7.538300037E0,-2.921399832E0,-5.485899925E0
2.439000156E1,-4.245800018E0,-8.475299835E0,-3.035300016E0
2.442000000E1,-3.921099901E0,-1.873199940E0,1.119040012E1
2.444000000E1,-8.389999866E-1,4.663399696E0,1.272130013E1
2.446000156E1,-1.163399935E0,5.150099754E0,1.398449993E1
2.449000000E1,-1.505599976E0,-1.072999954E0,-2.382699966E0
2.451000000E1,-3.888700008E0,-6.553099632E0,7.505799770E0
2.453000000E1,4.644599915E0,-1.203979969E1,4.438199997E0
2.455000000E1,3.888199806E0,-3.567600012E0,9.328999519E-1
2.457000000E1,1.340799928E0,-6.723999977E-1,3.858199835E0
2.459000156E1,7.552999854E-1,-8.470999599E-1,2.808399916E0
2.462000000E1,2.013999969E-1,1.269799948E0,-5.286999941E-1
2.464000000E1,-9.210999608E-1,1.275599957E0,7.141000032E-1
2.466000156E1,-1.623799920E0,8.228999972E-1,1.077999949E0
2.469000000E1,-1.544199944E0,5.288999677E-1,4.644999802E-1
2.471000000E1,-3.508999944E-1,1.202099919E0,2.938999832E-1
2.473000156E1,3.193999827E-1,1.275300026E0,-1.454399943E0
2.476000000E1,5.802999735E-1,-3.339999914E-1,1.526199937E0
2.478000000E1,1.244899988E0,-3.709000051E-1,1.558799982E0
2.480000156E1,5.230000019E-1,4.131000042E-1,1.059999987E-1
2.482000156E1,-2.628000081E-1,-1.384999901E-1,-3.430999815E-1
2.485000156E1,-1.095799923E0,-8.958999515E-1,1.101199985E0
2.487000156E1,-1.084599972E0,4.669999778E-1,1.752000004E-1
2.489000156E1,-8.651999831E-1,9.043999910E-1,-1.469599962E0
2.492000000E1,-6.082999706E-1,-4.369999841E-2,8.445999622E-1
2.494000625E1,3.023000062E-1,-5.683999658E-1,1.270200014E0
2.497000000E1,6.499999762E-1,-7.152999640E-1,-4.197999835E-1
2.499000312E1,4.235999882E-1,-8.675000072E-1,-1.726000011E-1
2.502000156E1,5.855000019E-1,-7.527999878E-1,4.187999964E-1
2.505000000E1,1.601400018E0,-9.432999492E-1,2.574599981E0
2.507000000E1,1.931399941E0,1.719999872E-2,2.931099892E0
2.509000156E1,2.368499994E0,2.117999941E-1,1.793099999E0
2.512000000E1,1.135599971E0,-8.352999687E-1,-1.376999915E-1
2.514000000E1,-1.167699933E0,-1.304499984E0,-2.260699987E0
2.516000156E1,-3.395200014E0,-1.374300003E0,-5.539299965E0
2.518000625E1,-3.822999954E0,-1.241799951E0,-7.884299755E0
2.520000938E1,-3.102399826E0,-1.572499990E0,-5.893899918E0
2.523000469E1,-1.513499975E0,-2.366999984E-1,-7.505999804E-1
2.526000000E1,7.408999801E-1,5.178999901E-1,1.212499976E0
2.528000625E1,5.345000029E-1,1.799999923E-2,1.712099910E0
2.531000156E1,-1.458999962E-1,-1.240299940E0,2.976799965E0
2.533000312E1,-5.056999922E-1,-1.691499949E0,2.941900015E0
2.536000000E1,-1.058699965E0,5.040000007E-2,7.847999930E-1
2.538000000E1,-1.305699944E0,1.489300013E0,1.372099996E0
2.540000000E1,-1.444800019E0,1.694599986E0,2.158699989E0
2.542000000E1,-1.772899985E0,5.861999989E-1,2.090199947E0
2.544000000E1,-2.147799969E0,-4.229999781E-1,1.756599903E0
2.546000156E1,-1.594299912E0,-1.942999959E-1,1.488199949E0
2.549000000E1,-8.558999896E-1,7.601000071E-1,1.818699956E0
2.551000000E1,-1.283800006E0,1.050400019E0,2.203999996E0
2.553000000E1,-1.839999914E0,1.160799980E0,2.173799992E0
2.555000000E1,-1.920099974E0,1.125000000E0,1.919299960E0
2.557000000E1,-1.495100021E0,1.438300014E0,1.561199903E0
2.559000156E1,-6.308000088E-1,1.584199905E0,1.100199938E0
2.562000000E1,-5.593999624E-1,-5.491999984E-1,1.714199901E0
2.564000000E1,-9.571999907E-1,-1.955299973E0,2.101199865E0
2.566000156E1,-1.082499981E0,-1.468500018E0,9.272999763E-1
2.569000000E1,-1.041199923E0,4.456999898E-1,-1.420400023E0
2.571000000E1,-1.125699997E0,1.221599936E0,-1.338500023E0
2.573000156E1,-1.051900029E0,1.278699994E0,1.904999912E-1
2.575000156E1,-1.769400001E0,1.089999914E0,-8.649999499E-1
2.578000000E1,5.429999903E-2,3.695999980E-1,-1.096799970E0
2.580000156E1,8.667999506E-1,-5.607999563E-1,1.023000002E0
2.583000000E1,-2.384999990E-1,5.956000090E-1,-3.921999931E-1
2.585000000E1,1.554600000E0,-7.103999853E-1,3.049399853E0
2.587000000E1,2.164099932E0,-1.572399974E0,5.250299931E0
2.589000000E1,4.178999960E-1,-3.728299856E0,3.782199860E0
2.591000000E1,-4.222700119E0,-5.254600048E0,-1.084399939E0
2.593000000E1,-1.445299983E0,-4.696000099E0,1.784500003E0
2.595000156E1,-1.450999975E0,4.894999862E-1,3.353600025E0
2.598000000E1,-3.788899899E0,3.370699883E0,4.635200024E0
2.600000000E1,-3.822099924E0,1.078999996E0,4.232599735E0
2.602000000E1,-2.137399912E0,-1.225399971E0,2.773599863E0
2.604000000E1,-1.171100020E0,-1.085099936E0,2.205999851E0
2.606000000E1,-6.290999651E-1,-4.600000102E-3,1.915699959E0
2.608000156E1,2.232999951E-1,-1.358000040E-1,1.469599962E0
2.611000000E1,6.912999749E-1,-8.855999708E-1,-6.426999569E-1
2.613000000E1,1.568499923E0,-5.848000050E-1,-4.068200111E0
2.615000156E1,2.029099941E0,2.360999882E-1,-4.274799824E0
2.617000156E1,1.799299955E0,-2.370999902E-1,-3.091499805E0
2.620000938E1,5.816999674E-1,1.867000014E-1,-1.083500028E0
2.623000156E1,1.138999984E-1,2.046999931E-1,-7.069999725E-2
2.625000156E1,-4.639999941E-2,-4.100999832E-1,6.819999814E-1
2.628000000E1,-5.356000066E-1,-9.382999539E-1,1.751699924E0
2.630000156E1,-6.976000071E-1,-6.309999824E-1,1.150799990E0
2.633000000E1,-7.180000097E-2,-5.791000128E-1,4.434999824E-1
2.635000000E1,6.279999763E-2,1.117599964E0,7.897999883E-1
2.637000156E1,-3.243999779E-1,1.422399998E0,1.278699994E0
2.639000156E1,-1.217100024E0,6.225000024E-1,1.492299914E0
2.642000000E1,-1.531899929E0,7.163000107E-1,1.045199990E0
2.644000000E1,-1.635499954E0,2.951999903E-1,8.156999946E-1
2.646000156E1,-2.085999966E0,1.105000004E-1,4.729999974E-2
2.649000000E1,-1.219699979E0,-2.644999921E-1,-8.227999806E-1
2.651000000E1,-8.945999742E-1,8.609999716E-2,-1.015699983E0
2.653000156E1,-8.775999546E-1,1.336699963E0,-9.011999965E-1
2.655000156E1,-8.349999785E-1,4.666999876E-1,-5.260999799E-1
2.658000000E1,-1.160599947E0,6.406999826E-1,1.079999935E-2
2.660000156E1,-9.587000012E-1,6.897999644E-1,1.365000010E-1
2.663000000E1,-1.028599977E0,-1.688999981E-1,1.241999939E-1
2.665000000E1,-8.974999785E-1,6.523999572E-1,1.621999890E-1
2.667000156E1,-6.353999972E-1,1.302299976E0,6.129999831E-2
2.670000000E1,-8.473999500E-1,9.146999717E-1,4.037999809E-1
2.672000000E1,-8.901999593E-1,8.007000089E-1,6.046999693E-1
2.674000156E1,-9.635999799E-1,1.092599988E0,6.958999634E-1
2.677000000E1,-7.971000075E-1,7.339000106E-1,5.595999956E-1
2.679000000E1,-1.234499931E0,8.729999512E-2,5.216000080E-1
2.681000156E1,-1.707899928E0,-1.256999969E0,4.564999938E-1
2.684000156E1,-1.996599913E0,-1.199399948E0,-3.439999744E-2
2.687000156E1,-5.285999775E-1,4.099999964E-1,-4.258999825E-1
2.689000156E1,1.746999919E-1,8.075000048E-1,1.144999936E-1
2.691000156E1,3.145000041E-1,-5.360000134E-1,5.284999609E-1
2.693000156E1,5.001999736E-1,-1.387899995E0,4.503999949E-1
2.695000156E1,1.610799909E0,-5.521999598E-1,-1.037199974E0
2.698000000E1,1.338699937E0,8.980000019E-2,-1.113699913E0
2.700000000E1,1.099499941E0,-3.508999944E-1,-3.856999874E-1
2.702000156E1,4.497999847E-1,-9.478999972E-1,-5.615999699E-1
2.705000000E1,1.577999890E-1,-5.841999650E-1,-2.742999792E-1
2.707000000E1,4.526000023E-1,-6.079999730E-2,-1.168999970E-1
2.709000156E1,4.761999846E-1,3.238999844E-1,5.150000006E-2
2.712000000E1,1.694999933E-1,7.269999981E-1,6.179000139E-1
2.714000000E1,-1.851999909E-1,5.866000056E-1,7.692999840E-1
2.716000000E1,-3.303000033E-1,-3.630999923E-1,5.209000111E-1
2.718000156E1,-9.499999881E-2,-1.100199938E0,-1.898999959E-1
2.720001094E1,9.999999776E-3,-1.253799915E0,-4.970999956E-1
2.723000156E1,4.807999730E-1,-6.079999804E-1,6.379999965E-2
2.725000156E1,3.876000047E-1,-5.647999644E-1,-7.580000162E-2
2.728000000E1,-1.009999961E-1,-3.799999878E-2,-3.379999846E-2
2.730000156E1,-3.393999934E-1,1.277000010E-1,1.165999994E-1
2.733000000E1,-6.620999575E-1,3.152999878E-1,-4.380000010E-2
2.735000156E1,-9.118999839E-1,1.344999969E-1,-1.597999930E-1
2.738000156E1,-9.924999475E-1,1.489000022E-1,1.811999977E-1
2.740000156E1,-8.057999611E-1,8.351999521E-1,2.072999924E-1
2.743000000E1,-3.798999786E-1,6.489999592E-2,1.840000041E-2
2.745000156E1,-6.300000101E-2,-5.676000118E-1,-1.168999970E-1
2.748000000E1,3.043999970E-1,-2.751999795E-1,-8.447999954E-1
2.750000000E1,3.940000013E-2,2.581000030E-1,-5.853999853E-1
2.752000156E1,-2.444999963E-1,3.303999901E-1,-1.492999941E-1
2.755000000E1,-3.443000019E-1,1.483999938E-1,-1.679999977E-1
2.757000000E1,9.579999745E-2,7.029999793E-2,4.189999774E-2
2.759000156E1,4.147999883E-1,3.879999742E-2,2.212999910E-1
2.762000000E1,3.166999817E-1,-1.668999940E-1,-1.788000017E-1
2.764000000E1,3.743999898E-1,1.902000010E-1,-2.673999965E-1
2.766000156E1,-1.459999941E-2,-5.829999968E-2,-2.161999941E-1
2.769000000E1,-4.016999900E-1,1.860999912E-1,-4.682999849E-1
2.771000000E1,-1.295000017E-1,1.869999915E-1,-3.475999832E-1
2.773000156E1,3.289999813E-2,-1.484999955E-1,-1.021999940E-1
2.775000156E1,1.119999960E-2,-5.949999765E-2,5.619999766E-2
2.778000000E1,-1.037999988E-1,-1.315999925E-1,3.299999982E-2
2.780000000E1,-4.459999874E-2,5.810000002E-2,1.270000041E-1
2.782000156E1,-8.089999855E-2,2.763999999E-1,3.281999826E-1
2.785000156E1,-1.551000029E-1,-1.919999905E-2,2.324999869E-1
2.788000156E1,-3.716000021E-1,6.939999759E-2,-2.293999940E-1
2.791000000E1,-4.411000013E-1,3.380999863E-1,-2.031999975E-1
2.793000000E1,-4.519999772E-2,2.092999965E-1,-8.020000160E-2
2.795000156E1,5.067999959E-1,-2.856999934E-1,-5.435000062E-1
2.797000156E1,6.194999814E-1,-4.148999751E-1,-5.379999876E-1
2.799000156E1,3.628000021E-1,-1.691000015E-1,-1.537999958E-1
2.802000156E1,8.139999956E-2,-9.179999679E-2,-2.486999929E-1
2.805000000E1,-4.547999799E-1,1.165999994E-1,-3.552999794E-1
2.807000000E1,-5.855000019E-1,1.863999963E-1,-2.617000043E-1
2.809000156E1,-4.530999959E-1,1.746999919E-1,-2.398999929E-1
2.812000000E1,-1.376999915E-1,5.038999915E-1,3.610000014E-1
2.814000000E1,-1.605999917E-1,4.523999989E-1,4.572999775E-1
2.816000156E1,-1.018999964E-1,8.579999954E-2,1.983999908E-1
2.819000000E1,-3.540999889E-1,-3.111000061E-1,1.052999943E-1
2.821000000E1,-4.930000007E-2,-2.368999869E-1,-3.358999789E-1
2.823000156E1,1.371999979E-1,-1.721999943E-1,-3.348999918E-1
2.825000156E1,-1.489000022E-1,-4.409999773E-2,-1.499999966E-2
2.828000000E1,-3.542000055E-1,3.612999916E-1,-2.093999982E-1
2.830000000E1,-2.639999986E-1,1.251000017E-1,-3.199000061E-1
2.832000156E1,-9.209999442E-2,-9.239999950E-2,-1.407999992E-1
2.835000000E1,1.189999953E-1,-6.199999712E-3,-4.470000044E-2
2.837000000E1,2.950000018E-2,1.902999878E-1,3.309999779E-2
2.839000156E1,-1.393000036E-1,3.409999982E-2,-6.879999489E-2
2.842000000E1,-1.820999980E-1,2.608999908E-1,-2.256999910E-1
2.844000000E1,-1.428999901E-1,5.489999801E-2,-1.938999891E-1
2.846000156E1,-2.096000016E-1,-4.699999932E-3,-9.269999713E-2
2.849000000E1,-3.748999834E-1,1.613999903E-1,-5.480000004E-2
2.851000000E1,-2.541999817E-1,-3.590000048E-2,-4.802999794E-1
2.853000000E1,1.030000001E-1,-4.719999805E-2,-1.714999974E-1
2.855000000E1,2.998999953E-1,1.129999943E-2,7.039999962E-2
2.857000000E1,1.105000004E-1,-9.529999644E-2,5.759999901E-2
2.859000000E1,-1.101999953E-1,-1.499999966E-2,1.620000042E-2
2.861000000E1,-3.619000018E-1,1.835999936E-1,9.809999913E-2
2.863000000E1,-4.251999855E-1,1.264999956E-1,1.992999911E-1
2.865000000E1,-3.665999770E-1,1.068999991E-1,1.482999921E-1
2.867000156E1,-2.257999927E-1,1.447999924E-1,1.559000015E-1
2.870000000E1,-5.489999801E-2,7.440000027E-2,-1.277000010E-1
2.872000000E1,-6.329999864E-2,-4.380000010E-2,-1.349999942E-2
2.874000156E1,-1.112999991E-1,-3.439999744E-2,7.189999521E-2
2.877000000E1,-1.685999930E-1,-1.539999992E-2,-1.255999953E-1
2.879000000E1,-1.680999994E-1,1.216999963E-1,-1.534999907E-1
2.881000156E1,-1.680999994E-1,6.289999932E-2,-2.319999970E-2
2.884000000E1,-2.293999940E-1,1.521999985E-1,1.212999970E-1
2.886000156E1,-1.915999949E-1,1.625999957E-1,-2.419999987E-2
2.888000156E1,-1.731999964E-1,6.099999882E-3,7.530000061E-2
2.891000000E1,-1.162000000E-1,-6.169999763E-2,-1.079999935E-2
2.893000000E1,-3.790000081E-2,2.649999969E-2,-9.089999646E-2
2.895000156E1,-3.949999809E-2,1.840000004E-1,-2.239999920E-2
2.898000000E1,5.899999756E-3,1.860000007E-2,-8.689999580E-2
2.900000000E1,-1.741999984E-1,-5.849999934E-2,-6.019999832E-2
2.902000156E1,-2.863000035E-1,1.587999910E-1,-5.949999765E-2
2.905000156E1,-3.059999831E-2,-4.729999974E-2,-2.300999910E-1
2.907000156E1,3.070000000E-2,-1.953999996E-1,-1.307999939E-1
2.909000156E1,-6.030000001E-2,-9.619999677E-2,-1.063999981E-1
2.912000000E1,-1.953999996E-1,2.890999913E-1,-2.196999937E-1
2.914000000E1,-1.886999905E-1,5.499999970E-2,-2.149999887E-1
2.916000156E1,-1.692999899E-1,6.199999712E-3,5.949999765E-2
2.918000156E1,-5.209999904E-2,1.143999994E-1,1.880999953E-1
2.920000938E1,3.629999980E-2,1.240999997E-1,-4.759999737E-2
2.923000156E1,-1.124999970E-1,-2.600000007E-3,2.569999918E-2
2.925000156E1,-8.559999615E-2,-1.139999926E-2,-1.222999990E-1
2.928000000E1,-8.839999884E-2,-4.959999770E-2,-1.846999973E-1
2.930000000E1,-2.085999995E-1,1.865999997E-1,1.837999970E-1
2.932000156E1,-3.578999937E-1,1.775999963E-1,-3.999999724E-3
2.935000000E1,-1.179999951E-2,-4.889999703E-2,-2.829000056E-1
2.937000000E1,1.859000027E-1,7.779999822E-2,-1.521999985E-1
2.939000156E1,1.850999892E-1,1.173999980E-1,-1.125999987E-1
2.942000000E1,-1.241999939E-1,-8.649999648E-2,-1.173999980E-1
2.944000000E1,-1.761000007E-1,-6.899999920E-3,-7.620000094E-2
2.946000156E1,-1.398999989E-1,6.279999763E-2,-1.153999940E-1
2.949000000E1,-2.309999913E-1,-4.699999932E-3,-1.504999995E-1
2.951000000E1,-8.419999480E-2,6.399999559E-2,-2.889999934E-2
2.953000000E1,3.359999880E-2,1.129999980E-1,4.059999809E-2
2.955000000E1,-1.569999941E-2,1.228999943E-1,-1.939999871E-2
2.957000000E1,-1.043999940E-1,3.480000049E-2,-8.980000019E-2
2.959000156E1,-1.331999898E-1,-4.380000010E-2,-1.110999957E-1
2.962000000E1,-2.349999920E-2,1.420000009E-2,-2.342999876E-1
2.964000000E1,-8.419999480E-2,2.469999902E-2,-1.753000021E-1
2.966000156E1,-9.489999712E-2,7.409999520E-2,-1.030999944E-1
2.969000000E1,-1.548999995E-1,-6.260000169E-2,-4.939999804E-2
2.971000000E1,-1.362999976E-1,6.520000100E-2,-1.061999947E-1
2.973000156E1,-1.261999905E-1,4.549999908E-2,-6.250000000E-2
2.975000156E1,-2.769999951E-2,1.630999893E-1,-5.829999968E-2
2.978000000E1,-1.769999973E-2,-1.339999959E-2,4.199999850E-3
2.980000000E1,-8.709999919E-2,-5.229999870E-2,-1.325999945E-1
2.982000156E1,-6.859999895E-2,-3.229999915E-2,-2.980999947E-1
2.985000000E1,-1.476999968E-1,4.629999772E-2,-8.769999444E-2
2.987000000E1,-1.590999961E-1,8.619999886E-2,-5.449999869E-2
2.989000000E1,-1.000999957E-1,5.669999868E-2,-1.119999960E-1
2.991000000E1,-7.050000131E-2,2.730000019E-2,-7.789999992E-2
2.993000000E1,-8.009999990E-2,3.709999844E-2,-5.419999734E-2
2.995000156E1,-7.069999725E-2,8.630000055E-2,-7.099999487E-2
2.997000156E1,-5.139999837E-2,4.719999805E-2,-6.920000166E-2
3.000000000E1,-1.595000029E-1,-5.069999769E-2,4.299999774E-2
3.002000000E1,-1.308999956E-1,1.261000037E-1,-1.035999954E-1
3.004000000E1,-1.903999895E-1,1.066999957E-1,-1.127000004E-1
3.006000000E1,-1.700000018E-1,2.044999897E-1,-1.150000002E-2
3.008000000E1,-1.595999897E-1,3.759999946E-2,5.089999735E-2
3.010000156E1,-8.959999681E-2,-1.000999957E-1,4.360000044E-2
3.013000000E1,-2.651999891E-1,5.629999936E-2,4.900000058E-3
3.015000000E1,-1.762000024E-1,1.834999919E-1,-1.273999959E-1
3.017000156E1,-1.709999889E-2,9.439999610E-2,-7.310000062E-2
3.020000938E1,-6.419999897E-2,3.489999846E-2,-2.769999951E-2
3.023000156E1,-2.012999952E-1,-8.289999515E-2,-1.512999982E-1
3.025000156E1,-1.920999885E-1,-4.199999850E-3,-1.794999987E-1
3.028000000E1,-1.526999921E-1,1.034999937E-1,-1.384999901E-1
3.030000000E1,-1.819999963E-1,1.525999904E-1,1.525999904E-1
3.032000156E1,-1.611000001E-1,7.369999588E-2,-1.799999969E-3
3.035000000E1,4.809999838E-2,3.799999831E-3,-1.178999990E-1
3.037000000E1,-9.699999355E-3,-6.509999931E-2,-1.664000005E-1
3.039000156E1,-1.779000014E-1,9.229999781E-2,-2.759999968E-2
3.042000000E1,-2.080999911E-1,5.329999700E-2,3.249999881E-2
3.044000000E1,-9.910000116E-2,1.215999946E-1,-1.489999983E-2
3.046000156E1,-3.769999743E-2,1.107999980E-1,-2.540000081E-1
3.049000000E1,-8.449999988E-2,-3.709999844E-2,1.310999990E-1
3.051000000E1,-1.134999990E-1,-8.619999886E-2,1.322000027E-1
3.053000000E1,-2.020999938E-1,1.589999944E-1,-5.370000005E-2
3.055000000E1,-2.217999995E-1,7.069999725E-2,-2.298999876E-1
3.057000000E1,-2.209999971E-2,7.919999957E-2,-5.240000039E-2
3.059000156E1,1.096000001E-1,2.859999985E-2,2.539999969E-2
3.062000156E1,2.379999869E-2,-1.159999985E-2,-1.806000024E-1
3.065000156E1,-1.140000001E-1,-6.039999798E-2,-1.635999978E-1
3.067000156E1,-2.032999992E-1,-1.099999994E-2,-1.828999966E-1
3.070000000E1,-2.215999961E-1,1.551999897E-1,-8.989999443E-2
3.072000000E1,-2.093999982E-1,1.445000023E-1,-5.879999697E-2
3.074000156E1,-8.709999919E-2,7.409999520E-2,-7.799999788E-3
3.077000000E1,2.510000020E-2,-7.459999621E-2,-1.041999981E-1
3.079000000E1,-6.289999932E-2,7.239999622E-2,-5.519999936E-2
3.081000156E1,-1.618999988E-1,1.217999980E-1,-1.554999948E-1
3.084000000E1,-2.011999935E-1,9.239999950E-2,2.359999903E-2
3.086000000E1,-1.401999891E-1,2.300000004E-2,5.739999935E-2
3.088000156E1,-4.030000046E-2,9.089999646E-2,-2.502999902E-1
3.091000000E1,-1.386999935E-1,-8.540000021E-2,-1.455999911E-1
3.093000000E1,-2.089999914E-1,1.112999991E-1,8.419999480E-2
3.095000156E1,-2.885999978E-1,1.116999984E-1,-4.160000011E-2
3.098000000E1,-3.119999915E-2,4.209999740E-2,-5.279999971E-2
3.100000000E1,-3.019999899E-2,6.140000001E-2,5.629999936E-2
3.102000156E1,-3.019999899E-2,1.201999933E-1,-1.323999912E-1
3.105000000E1,-1.492999941E-1,-5.570000038E-2,-1.223999932E-1
3.107000000E1,-1.501999944E-1,-2.589999884E-2,-2.026000023E-1
3.109000000E1,-1.807999909E-1,-5.899999756E-3,-5.529999733E-2
3.111000000E1,-2.721000016E-1,1.912999898E-1,1.563999951E-1
3.113000000E1,-2.927999794E-1,7.409999520E-2,4.239999875E-2
3.115000000E1,-1.049999967E-1,-4.799999762E-3,-1.049999967E-1
3.117000156E1,3.899999894E-3,2.410000004E-2,4.900000058E-3
3.120000938E1,-1.840000004E-1,8.359999955E-2,1.442999989E-1
3.123000000E1,-2.155999988E-1,1.529999971E-1,-1.235999987E-1
3.125000156E1,-1.260000020E-1,2.499999851E-2,-1.336999983E-1
3.128000000E1,-1.656000018E-1,-5.319999903E-2,2.899999917E-2
3.130000000E1,-2.166999876E-1,1.730999947E-1,-8.460000157E-2
3.132000000E1,-1.990000010E-1,1.542000026E-1,-2.196999937E-1
3.134000000E1,-1.696999967E-1,2.679999918E-2,-2.639999986E-2
3.136000000E1,-2.192000002E-1,-2.199999988E-2,9.099999815E-2
3.138000000E1,-1.414999962E-1,7.599999662E-3,-7.849999517E-2
3.140000000E1,-3.419999778E-2,8.639999479E-2,-1.428000033E-1
3.142000000E1,1.219999976E-2,1.950999945E-1,3.339999914E-2
3.144000000E1,-9.769999981E-2,1.939999871E-2,9.820000082E-2
3.146000000E1,-1.898999959E-1,-9.669999778E-2,-8.399999887E-2
3.148000000E1,-1.428000033E-1,-1.750000007E-2,-1.393999904E-1
3.150000000E1,-1.066999957E-1,8.159999549E-2,-6.469999999E-2
3.152000000E1,-2.075999975E-1,1.022999957E-1,8.199999481E-2
3.154000000E1,-2.696000040E-1,1.621999890E-1,2.126999944E-1
3.156000000E1,-1.512999982E-1,1.620000005E-1,1.419999897E-1
3.158000000E1,2.809999883E-2,-7.440000027E-2,3.249999881E-2
3.160000156E1,-2.089999989E-2,-9.399999678E-2,1.229999959E-1
3.163000156E1,-4.812999964E-1,1.250000000E-1,3.727999926E-1
3.165000156E1,-6.527000070E-1,9.730000049E-2,3.050000072E-1
3.167000156E1,-5.159999728E-1,2.052999884E-1,2.454999983E-1
3.169000156E1,-2.687999904E-1,2.534999847E-1,2.870000005E-1
3.171000156E1,-3.404999971E-1,2.019999921E-1,4.186999798E-1
3.174000156E1,-4.807999730E-1,2.351000011E-1,7.788999677E-1
3.177000156E1,-4.179999828E-1,1.808999926E-1,4.502999783E-1
3.180000000E1,-6.169999763E-2,1.527999938E-1,1.219999976E-2
3.182000156E1,1.176999956E-1,1.087999940E-1,4.195999801E-1
3.185000000E1,5.009999871E-2,1.144999936E-1,6.978999972E-1
3.187000000E1,-1.994999945E-1,-3.449999914E-2,5.569999814E-1
3.189000000E1,-2.750999928E-1,1.308999956E-1,1.947999895E-1
3.191000000E1,-1.729999930E-1,3.351999819E-1,-3.959999979E-2
3.193000000E1,-4.989999905E-2,3.524000049E-1,-7.249999791E-2
3.195000156E1,1.239999980E-1,2.903999984E-1,6.509999931E-2
3.198000000E1,-9.800000116E-3,-1.823000014E-1,-1.070199966E0
3.200000000E1,-2.169999927E-1,-2.210000008E-1,-1.681699991E0
3.202000156E1,-4.131999910E-1,-2.698000073E-1,-1.667999983E0
3.205004375E1,-2.899000049E-1,-2.714000046E-1,-8.154000044E-1
3.208000000E1,2.888000011E-1,-6.889999658E-2,-2.391999960E-1
3.210000156E1,6.207999587E-1,-6.219999865E-2,-1.464999914E-1
3.213000000E1,6.150000095E-1,-1.616999954E-1,-6.143999696E-1
3.215000000E1,2.070000023E-2,-1.594000012E-1,-6.183999777E-1
3.217000156E1,-2.716999948E-1,-9.200000204E-3,-4.852999747E-1
3.220000938E1,8.299999684E-2,-1.040999964E-1,-6.759999990E-1
3.223000000E1,-1.639999896E-1,-6.030000001E-2,-2.020999938E-1
3.225000156E1,-2.008999884E-1,3.070000000E-2,2.199999988E-2
3.227000156E1,-1.400000006E-1,1.807999909E-1,5.719999969E-2
3.229000156E1,2.609999850E-2,1.650999933E-1,-8.139999956E-2
3.231000156E1,1.268000007E-1,-1.850000024E-2,-1.550000012E-1
3.233000156E1,4.019999877E-2,-5.460000038E-2,6.149999797E-2
3.236000000E1,-2.016000003E-1,2.989999950E-2,-7.569999993E-2
3.238000156E1,-2.305999994E-1,4.319999740E-2,-3.486000001E-1
3.241000000E1,-6.359999627E-2,1.251000017E-1,-8.700000122E-3
3.243000000E1,1.080999970E-1,1.889999956E-2,-1.184999943E-1
3.245000156E1,1.814000010E-1,1.199999941E-3,-2.125999928E-1
3.248000000E1,-9.609999508E-2,-2.339999937E-2,-1.630000025E-1
3.250000000E1,-1.630999893E-1,8.899999782E-3,-2.326999903E-1
3.252000156E1,-1.475999951E-1,-9.300000034E-3,-1.835999936E-1
3.255000156E1,-5.899999756E-3,7.079999894E-2,-2.239999920E-1
3.258000000E1,-2.089999989E-2,5.289999768E-2,-6.269999593E-2
3.260000156E1,4.649999738E-2,8.259999752E-2,1.419999897E-1
3.263000000E1,1.442999989E-1,-4.479999840E-2,-2.899999917E-2
3.265000000E1,1.022999957E-1,4.429999739E-2,-1.451999992E-1
3.267000156E1,-1.009999961E-2,-1.279999968E-2,-2.479999885E-2
3.270000000E1,-1.474999934E-1,2.019999921E-2,-2.096000016E-1
3.272000000E1,-2.696000040E-1,1.099999994E-1,-9.799999744E-2
3.274000156E1,-1.331000030E-1,1.199999973E-1,-1.389999967E-2
3.277000000E1,1.052000001E-1,-5.759999901E-2,-3.109999932E-2
3.279000000E1,4.690000042E-2,-7.739999890E-2,-1.377999932E-1
3.281000156E1,-3.319999948E-2,6.039999798E-2,-8.689999580E-2
3.284000000E1,-1.259000003E-1,5.219999701E-2,-5.539999902E-2
3.286000000E1,-9.719999880E-2,1.308999956E-1,-5.509999767E-2
3.288000156E1,-1.454999894E-1,6.189999729E-2,-5.299999937E-2
3.291000000E1,-3.460000083E-2,9.019999951E-2,-2.588000000E-1
3.293000000E1,-3.339999914E-2,-2.779999934E-2,-1.497000009E-1
3.295000156E1,-1.416999996E-1,-6.700000167E-2,-7.699999958E-3
3.298000000E1,-1.523000002E-1,1.389999986E-1,-1.601999998E-1
3.300000000E1,-1.289999951E-2,6.960000098E-2,-1.288999915E-1
3.302000156E1,5.799999833E-2,0.000000000E0,-1.384999901E-1
3.305000000E1,-9.969999641E-2,4.930000007E-2,-1.656999886E-1
3.307000000E1,-1.206999943E-1,6.939999759E-2,-5.629999936E-2
3.309000156E1,-1.094999984E-1,1.009999961E-2,4.109999910E-2
3.312000000E1,-8.720000088E-2,4.839999974E-2,-6.799999624E-2
3.314000000E1,-4.659999907E-2,7.729999721E-2,-8.749999851E-2
3.316000156E1,-2.699999884E-2,3.799999878E-2,-1.168999970E-1
3.318000156E1,-7.559999824E-2,4.769999906E-2,-9.659999609E-2
3.320001094E1,-8.479999751E-2,7.689999789E-2,-1.573999971E-1
3.323000000E1,6.899999920E-3,-4.189999774E-2,-1.498000026E-1
3.325000156E1,8.299999870E-3,-5.229999870E-2,-1.099999994E-2
3.328000000E1,-3.759999946E-2,8.379999548E-2,-4.079999775E-2
3.330000000E1,-1.552999914E-1,8.379999548E-2,7.499999832E-3
3.332000156E1,-1.550000012E-1,1.131999940E-1,-1.234999970E-1
3.335000000E1,-1.427000016E-1,-4.439999908E-2,7.999999798E-4
3.337000000E1,-1.124999970E-1,1.022999957E-1,-1.387999952E-1
3.339000000E1,-6.209999695E-2,9.209999442E-2,-1.709999889E-1
3.341000000E1,6.909999996E-2,-1.709999889E-2,-1.735000014E-1
3.343000000E1,2.169999853E-2,-5.689999834E-2,-1.347000003E-1
3.345000156E1,-4.609999806E-2,1.289999932E-1,3.399999812E-3
3.348000000E1,-1.620000005E-1,-1.850000024E-2,-1.490999907E-1
3.350000000E1,-1.596999913E-1,-6.839999557E-2,-2.899999963E-3
3.352000000E1,-3.999999911E-2,7.789999992E-2,5.539999902E-2
3.354000000E1,-5.849999934E-2,8.729999512E-2,-5.399999674E-3
3.356000000E1,-1.560000032E-1,1.850000024E-2,-8.579999954E-2
3.358000000E1,-1.359999925E-1,8.709999919E-2,-8.739999682E-2
3.360000156E1,4.140000045E-2,9.659999609E-2,-1.898999959E-1
3.363000000E1,-5.389999971E-2,-2.399999881E-3,-1.429999992E-2
3.365000000E1,-1.308999956E-1,4.600000009E-2,-4.289999977E-2
3.367000000E1,-2.089999989E-2,-3.599999938E-3,-1.828999966E-1
3.369000000E1,1.979999989E-2,5.449999869E-2,-9.669999778E-2
3.371000000E1,-5.829999968E-2,3.480000049E-2,-8.100000210E-3
3.373000000E1,-7.660000026E-2,9.319999814E-2,-9.879999608E-2
3.375000156E1,-1.245999932E-1,-8.359999955E-2,1.063999981E-1
3.378000000E1,-8.299999684E-2,1.703999937E-1,-5.150000006E-2
3.380000000E1,-1.300999969E-1,6.179999933E-2,-7.339999825E-2
3.382000000E1,-5.929999799E-2,5.139999837E-2,-3.969999775E-2
3.384000000E1,1.109999977E-2,1.150000002E-2,2.369999886E-2
3.386000000E1,-5.559999868E-2,4.030000046E-2,-1.367999911E-1
3.388000156E1,-1.334999949E-1,2.049999870E-2,-1.678999960E-1
3.391000000E1,-1.624999940E-1,3.019999899E-2,5.719999969E-2
3.393000000E1,-5.269999802E-2,1.960000023E-2,-1.179999951E-2
3.395000156E1,-1.105999947E-1,1.929999888E-2,1.061000004E-1
3.398000000E1,-1.200999990E-1,7.809999585E-2,-5.559999868E-2
3.400000000E1,-8.060000092E-2,-2.969999984E-2,-8.669999987E-2
3.402000156E1,-9.239999950E-2,-5.839999765E-2,9.999999776E-3
3.404000156E1,-1.437999904E-1,1.109999977E-2,-4.099999741E-2
3.407000000E1,-1.952999979E-1,1.982999891E-1,-5.099999905E-2
3.409000156E1,-1.752000004E-1,1.588999927E-1,1.465999931E-1
3.411000156E1,-6.560000032E-2,1.119999960E-2,1.457999945E-1
3.414000000E1,3.000000026E-3,2.099999972E-2,-1.606999934E-1
3.416000000E1,-2.140999883E-1,3.130000085E-2,-1.586999893E-1
3.418000000E1,-2.343999892E-1,1.296000034E-1,-6.539999694E-2
3.420000938E1,-1.160999984E-1,2.139999904E-2,-8.100000024E-2
3.423000000E1,6.469999999E-2,9.899999946E-3,-1.063999981E-1
3.425000156E1,7.459999621E-2,9.699999355E-3,-4.089999944E-2
3.428000000E1,-6.579999626E-2,-6.749999523E-2,-2.549000084E-1
3.430000000E1,-8.819999546E-2,-1.750000007E-2,-1.638000011E-1
3.432000000E1,-6.199999899E-2,7.180000097E-2,-3.700000001E-3
3.434000000E1,-4.479999840E-2,1.389999967E-2,-5.169999972E-2
3.436000000E1,-3.610000014E-2,4.369999841E-2,-1.078999937E-1
3.438000156E1,-6.740000099E-2,3.439999744E-2,4.710000008E-2
3.441000000E1,-4.910000041E-2,6.430000067E-2,-1.379999965E-1
3.443000000E1,-2.039999887E-2,2.539999969E-2,-1.571999937E-1
3.445000156E1,1.630000025E-2,5.559999868E-2,-8.590000123E-2
3.448000000E1,1.469999924E-2,7.199999876E-3,-5.619999766E-2
3.450000000E1,-1.489999983E-2,-8.089999855E-2,-9.439999610E-2
3.452000156E1,-2.620000020E-2,1.750000007E-2,-5.049999803E-2
3.455000000E1,-6.819999963E-2,1.840000041E-2,2.329999954E-2
3.457000000E1,-1.889999956E-1,3.909999877E-2,1.849000007E-1
3.459000156E1,-1.504999995E-1,1.079999954E-1,9.910000116E-2
3.462000000E1,-1.189999934E-2,9.499999695E-3,-8.039999753E-2
3.464000000E1,-3.969999775E-2,-7.999999798E-4,-9.079999477E-2
3.466000000E1,9.999999747E-5,7.729999721E-2,-5.009999871E-2
3.468000156E1,2.939999849E-2,-2.070000023E-2,-8.789999783E-2
3.471000000E1,-5.900000036E-2,-1.079999935E-2,-9.699999355E-3
3.473000000E1,-1.384999901E-1,4.829999804E-2,1.085999981E-1
3.475000000E1,-1.185999960E-1,7.759999484E-2,1.040000003E-2
3.477000000E1,-6.740000099E-2,6.709999591E-2,-3.999999911E-2
3.479000000E1,5.309999734E-2,9.539999813E-2,-8.150000125E-2
3.481000156E1,1.243999973E-1,-1.319999993E-2,-2.630000003E-2
3.484000000E1,-1.000999957E-1,6.000000052E-3,1.850000024E-2
3.486000000E1,-1.683999896E-1,1.137999967E-1,-1.189999934E-2
3.488000156E1,-9.769999981E-2,5.419999734E-2,-9.389999509E-2
3.491000000E1,-2.520000003E-2,-5.489999801E-2,-5.829999968E-2
3.493000000E1,1.489999983E-2,1.329999976E-2,6.759999692E-2
3.495000156E1,4.519999772E-2,7.189999521E-2,-7.559999824E-2
3.498000000E1,-1.693999916E-1,-3.610000014E-2,3.749999776E-2
3.500000000E1,-1.772999913E-1,2.190000005E-2,-6.219999865E-2
3.502000000E1,-3.720000014E-2,1.109999977E-2,-4.600000009E-2
3.504000156E1,1.127000004E-1,-1.919999905E-2,-1.407999992E-1
3.507000000E1,-2.209999971E-2,7.809999585E-2,-6.359999627E-2
3.509000156E1,-1.502999961E-1,1.274999976E-1,-2.719999850E-2
3.512000000E1,-1.088999957E-1,-7.909999788E-2,-4.319999740E-2
3.514000000E1,-1.153999940E-1,-5.079999939E-2,-1.919999905E-2
3.516000000E1,-1.436000019E-1,5.649999902E-2,5.819999799E-2
3.518000000E1,-4.429999739E-2,1.149000004E-1,4.589999840E-2
3.520001406E1,4.549999908E-2,1.142999977E-1,-2.639999986E-2
3.523000000E1,-1.307999939E-1,-3.199999919E-3,-2.799999900E-3
3.525000156E1,-1.305000037E-1,6.529999524E-2,-1.156999990E-1
3.528000000E1,2.929999866E-2,-7.299999893E-2,-8.969999850E-2
3.530000000E1,5.040000007E-2,-6.379999965E-2,5.920000002E-2
3.532000156E1,2.099999925E-3,4.369999841E-2,-7.999999821E-2
3.535000156E1,-3.689999878E-2,9.279999882E-2,-6.539999694E-2
3.538000156E1,-4.580000043E-2,-1.529999916E-2,3.599999845E-2
3.541000000E1,-1.820999980E-1,3.329999745E-2,-9.109999985E-2
3.543000000E1,-4.270000011E-2,9.129999578E-2,-2.492999882E-1
3.545000156E1,1.269000024E-1,-1.750000007E-2,-2.126999944E-1
3.548000000E1,6.109999865E-2,8.999999845E-4,8.069999516E-2
3.550000000E1,-3.669999912E-2,7.930000126E-2,-6.700000167E-2
3.552000000E1,-5.539999902E-2,2.019999921E-2,-1.463999897E-1
3.554000156E1,-6.359999627E-2,-1.077999994E-1,-1.960000023E-2
3.557000000E1,5.699999630E-3,8.799999952E-2,9.380000085E-2
3.559000156E1,-6.199999899E-2,4.839999974E-2,3.700000001E-3
3.561000156E1,-1.206999943E-1,5.819999799E-2,-5.469999835E-2
3.564000000E1,-1.040000003E-2,2.789999917E-2,-1.469999999E-1
3.566000000E1,-2.840000018E-2,-4.120000079E-2,-9.209999442E-2
3.568000156E1,-7.669999450E-2,-2.190000005E-2,5.669999868E-2
3.571000000E1,-1.539999992E-2,5.539999902E-2,2.209999971E-2
3.573000000E1,4.600000009E-2,-4.349999875E-2,-1.172999963E-1
3.575000000E1,-1.139999926E-2,4.900000058E-3,-8.899999782E-3
3.577000000E1,-9.079999477E-2,6.409999728E-2,9.169999510E-2
3.579000000E1,-1.507999897E-1,1.037999988E-1,5.099999905E-2
3.581000156E1,-1.799999923E-1,-1.389999967E-2,4.919999838E-2
3.584000000E1,-1.587999910E-1,8.349999785E-2,9.169999510E-2
3.586000000E1,-1.166999936E-1,6.279999763E-2,9.229999781E-2
3.588000156E1,6.639999896E-2,2.099999972E-2,4.069999978E-2
3.591000000E1,8.219999820E-2,-1.049999986E-2,-2.910999954E-1
3.593000000E1,-1.034999937E-1,8.799999952E-3,-2.750999928E-1
3.595000156E1,-2.531999946E-1,7.840000093E-2,-1.075999960E-1
3.598000000E1,-1.271999925E-1,3.969999775E-2,-9.239999950E-2
3.600000000E1,-4.609999806E-2,7.789999992E-2,-7.599999756E-2
3.602000156E1,-1.123999953E-1,2.789999917E-2,-2.745999992E-1
3.604000156E1,-2.283999920E-1,-9.049999714E-2,-2.556999922E-1
3.607000000E1,2.379999869E-2,1.026000008E-1,2.349999994E-1
3.609000156E1,1.551999897E-1,1.500999928E-1,1.062999964E-1
3.611000156E1,6.929999590E-2,-7.499999832E-3,3.299999982E-2
3.614000000E1,1.059999969E-2,-5.649999902E-2,-2.149999887E-2
3.616000000E1,9.800000116E-3,2.219999954E-2,-6.639999896E-2
3.618000156E1,-1.294000000E-1,-6.300000008E-3,-1.129999943E-2
3.620000938E1,-1.303000003E-1,6.260000169E-2,-5.539999902E-2
3.623000000E1,-5.130000040E-2,1.349999942E-2,5.639999732E-2
3.625000156E1,-5.029999837E-2,3.269999847E-2,-1.310000010E-2
3.628000000E1,-1.178999990E-1,1.269999985E-2,-9.899999946E-3
3.630000156E1,-7.799999788E-3,8.039999753E-2,9.619999677E-2
3.632000156E1,8.249999583E-2,1.090999991E-1,1.017999947E-1
3.634000156E1,6.399999559E-2,6.949999928E-2,1.264999956E-1
3.637000000E1,-5.289999768E-2,1.049999986E-2,5.049999803E-2
3.639000156E1,-1.208999977E-1,-6.809999794E-2,-8.829999715E-2
3.642000000E1,-2.486999929E-1,8.889999986E-2,5.790000036E-2
3.644000000E1,-2.179999948E-1,1.472999901E-1,5.370000005E-2
3.646000156E1,-9.699999541E-2,9.709999710E-2,-1.800999939E-1
3.649000000E1,-1.179999951E-2,6.199999712E-3,-8.519999683E-2
3.651000000E1,-5.859999731E-2,3.480000049E-2,1.279999912E-1
3.653000156E1,-5.590000004E-2,7.299999893E-2,-2.699999837E-3
3.656000000E1,5.779999867E-2,-9.589999914E-2,-2.228999883E-1
3.658000000E1,-5.829999968E-2,-1.160999984E-1,-1.701999903E-1
3.660000156E1,-1.670999974E-1,2.149999887E-2,-8.509999514E-2
3.663000000E1,1.112999991E-1,1.473999918E-1,-1.270999908E-1
3.665000000E1,-3.350000083E-2,-7.889999449E-2,2.369999886E-2
3.667000156E1,-1.806000024E-1,-2.989999950E-2,-2.067999989E-1
3.670000000E1,-2.378999889E-1,4.789999872E-2,-2.854999900E-1
3.672000000E1,-7.739999890E-2,1.150999963E-1,-6.079999730E-2
3.674000156E1,5.399999768E-2,1.233999953E-1,-2.840000018E-2
3.677000000E1,9.619999677E-2,-6.399999559E-2,1.379999984E-2
3.679000000E1,-2.300000051E-3,-1.422999948E-1,8.999999613E-3
3.681000156E1,-5.269999802E-2,-1.123999953E-1,-1.779000014E-1
3.684000000E1,4.199999943E-2,-5.240000039E-2,-1.173999980E-1
3.686000000E1,-2.080000006E-2,-1.169999968E-2,-2.294999957E-1
3.688000156E1,-9.510000050E-2,-2.919999883E-2,-4.968999922E-1
3.691000000E1,-4.141999781E-1,-4.292999804E-1,-2.250999957E-1
3.693000000E1,-5.921999812E-1,-1.834999919E-1,-4.272999763E-1
3.695000156E1,-2.660000026E-1,5.509999990E-1,-5.401999950E-1
3.698000000E1,-1.098999977E-1,3.418999910E-1,2.845999897E-1
3.700000000E1,-1.454999894E-1,4.629999772E-2,6.514999866E-1
3.702000156E1,-1.859999895E-1,-1.200000010E-2,3.278000057E-1
3.704004375E1,-1.459999941E-2,3.035999835E-1,1.578999907E-1
3.707000000E1,-7.140000165E-2,2.475999892E-1,6.595000029E-1
3.709000000E1,-1.529999971E-1,2.319999970E-2,3.580999970E-1
3.711000156E1,-1.570999920E-1,-2.410000004E-2,1.190999970E-1
3.714000000E1,9.160000086E-2,5.669999868E-2,1.788999885E-1
3.716000000E1,-3.079999983E-2,7.829999924E-2,1.328999996E-1
3.718000156E1,-2.127999961E-1,1.784999967E-1,1.909999922E-2
3.720001406E1,-2.383999974E-1,1.317999959E-1,-3.399999812E-3
3.723000156E1,1.139999926E-2,-9.169999510E-2,5.599999800E-2
3.725000156E1,-2.471999973E-1,-4.129999876E-2,2.679999918E-2
3.728000000E1,-3.817999959E-1,2.554999888E-1,1.850999892E-1
3.730000000E1,-2.150999904E-1,2.456000000E-1,1.934999973E-1
3.732000000E1,-1.261999905E-1,1.472000033E-1,1.688999981E-1
3.734000000E1,5.269999802E-2,1.560999900E-1,1.374000013E-1
3.736000156E1,1.516999900E-1,5.769999698E-2,4.522999823E-1
3.739000156E1,1.588999927E-1,5.879999697E-2,4.002999961E-1
3.742000000E1,-1.241999939E-1,-1.533999890E-1,-2.919999883E-2
3.744000000E1,-2.965999842E-1,-4.329999909E-2,9.730000049E-2
3.746000156E1,-2.630999982E-1,2.333999872E-1,-1.762000024E-1
3.749000000E1,-1.065999940E-1,-2.175000012E-1,-3.188000023E-1
3.751000000E1,-1.070999950E-1,-1.780999899E-1,-1.128999963E-1
3.753000156E1,-6.909999996E-2,-9.919999540E-2,-2.389999926E-1
3.756000000E1,5.729999766E-2,-1.049999986E-2,-4.050000012E-2
3.758000000E1,-1.018999964E-1,1.667999923E-1,-2.559999935E-2
3.760000156E1,-8.280000091E-2,2.356999964E-1,-1.239999942E-2
3.763000000E1,-2.149999887E-2,3.859999776E-2,9.600000083E-2
3.765000000E1,-7.999999798E-4,1.860000007E-2,4.189999774E-2
3.767000000E1,-5.989999697E-2,-2.049999870E-2,2.799999900E-3
3.769000000E1,-1.685999930E-1,-2.009999938E-2,7.239999622E-2
3.771000000E1,-2.094999999E-1,2.939999849E-2,-2.239999920E-2
3.773000000E1,-1.005999967E-1,9.399999864E-3,-1.212999970E-1
3.775000156E1,-2.009999938E-2,2.819999866E-2,-1.585000008E-1
3.778000000E1,-5.759999901E-2,6.679999828E-2,8.169999719E-2
3.780000000E1,-1.067999974E-1,9.629999846E-2,1.071999967E-1
3.782000000E1,-6.780000031E-2,-1.139999926E-2,-1.186999977E-1
3.784000000E1,-1.829999872E-2,-5.079999939E-2,-2.856999934E-1
3.786000000E1,-7.069999725E-2,2.879999951E-2,-2.320999950E-1
3.788000156E1,-8.419999480E-2,3.999999911E-2,-1.840000041E-2
3.791000000E1,-8.739999682E-2,1.179999951E-2,2.060000040E-2
3.793000000E1,-1.483999938E-1,2.239999920E-2,3.419999778E-2
3.795000156E1,-3.181000054E-1,-4.499999806E-2,6.199999899E-2
3.798000000E1,-2.594999969E-1,-4.490000010E-2,-9.599999525E-3
3.800000000E1,6.300000008E-3,1.409000009E-1,-9.309999645E-2
3.802000156E1,3.619999811E-2,2.879000008E-1,2.638999820E-1
3.804000156E1,-8.249999583E-2,3.274999857E-1,4.810999930E-1
3.807000000E1,-1.990999877E-1,1.701999903E-1,1.832000017E-1
3.809000000E1,-1.385999918E-1,3.219999745E-2,2.479999885E-2
3.811000156E1,-1.967999935E-1,3.199999779E-2,2.703000009E-1
3.813000156E1,-2.744999826E-1,7.099999487E-2,1.712999940E-1
3.816000000E1,-1.433999985E-1,8.999999845E-4,1.370000001E-2
3.818000156E1,-6.489999592E-2,8.999999845E-4,1.278999895E-1
3.820000938E1,-1.938000023E-1,-1.799999923E-2,9.439999610E-2
3.823000000E1,-2.242999971E-1,1.783999950E-1,8.999999845E-4
3.825000156E1,-1.553999931E-1,1.391000003E-1,1.869999990E-2
3.828000000E1,-1.589999907E-2,1.481000036E-1,7.679999620E-2
3.830000000E1,-1.321000010E-1,8.869999647E-2,1.043999940E-1
3.832000156E1,-1.613999903E-1,1.081999987E-1,4.109999910E-2
3.835000000E1,-1.510999948E-1,-1.173999980E-1,7.499999832E-3
3.837000000E1,-2.197999954E-1,-1.929999888E-2,-2.399999881E-3
3.839000156E1,-2.788999975E-1,1.009999961E-2,-1.120999977E-1
3.842000000E1,-1.288999915E-1,-6.999999750E-4,3.309999779E-2
3.844000156E1,-9.789999574E-2,1.946999878E-1,2.635000050E-1
3.846000156E1,-7.549999654E-2,1.838999987E-1,5.649999902E-2
3.849000000E1,3.460000083E-2,-3.269999847E-2,-2.307000011E-1
3.851000000E1,-8.419999480E-2,-1.596999913E-1,-1.169999968E-2
3.853000156E1,-1.937000006E-1,-2.180000022E-2,-8.819999546E-2
3.856000000E1,-9.589999914E-2,9.589999914E-2,-1.750000007E-2
3.858000000E1,-8.500000089E-2,2.679999918E-2,2.149999887E-2
3.860000156E1,-7.469999790E-2,3.639999777E-2,2.439999953E-2
3.863000000E1,-9.389999509E-2,5.590000004E-2,-1.788000017E-1
3.865000000E1,4.499999806E-3,-3.000000026E-3,-2.859999835E-1
3.867000156E1,-1.480000000E-2,-6.189999729E-2,-2.463999987E-1
3.869000156E1,-7.429999858E-2,3.629999980E-2,-4.659999907E-2
3.872000000E1,5.219999701E-2,-5.150000006E-2,-2.493999898E-1
3.874000156E1,-4.999999702E-2,-5.969999731E-2,-2.838999927E-1
3.877000000E1,-1.552999914E-1,5.079999939E-2,-2.809000015E-1
3.879000000E1,-1.115999967E-1,3.799999831E-3,7.580000162E-2
3.881000156E1,-7.799999788E-3,1.509999949E-2,-5.639999732E-2
3.884000000E1,-2.915999889E-1,-1.069999952E-2,-6.390000135E-2
3.886000000E1,-3.276999891E-1,2.368999869E-1,3.999999899E-4
3.888000000E1,-1.749999970E-1,3.463000059E-1,-3.629999980E-2
3.890000000E1,-6.819999963E-2,9.169999510E-2,-3.150000051E-2
3.892000000E1,-8.859999478E-2,9.200000018E-2,3.728999794E-1
3.894000000E1,-3.019999899E-2,7.259999961E-2,2.789999917E-2
3.896000156E1,9.599999525E-3,-1.530999988E-1,-5.779999867E-2
3.899000000E1,-4.239999875E-2,-6.369999796E-2,3.529999778E-2
3.901000000E1,7.389999926E-2,3.469999880E-2,2.062999904E-1
3.903000000E1,3.409999982E-2,1.035999954E-1,4.168999791E-1
3.905000000E1,-1.332999915E-1,9.409999847E-2,1.304000020E-1
3.907000000E1,-8.410000056E-2,1.626999974E-1,-1.039999947E-1
3.909000000E1,-6.419999897E-2,1.134999990E-1,-3.299999982E-3
3.911000156E1,-1.122999936E-1,5.299999844E-3,6.159999967E-2
3.914000000E1,-1.196999997E-1,1.420000009E-2,-2.110999972E-1
3.916000000E1,-2.999999933E-2,-1.039000005E-1,-1.867999882E-1
3.918000000E1,-1.300000004E-3,-1.036999971E-1,7.999999449E-3
3.920001406E1,-3.150000051E-2,5.339999869E-2,-2.290000021E-2
3.923000156E1,8.839999884E-2,6.239999831E-2,4.100000020E-3
3.925000156E1,-1.567000002E-1,3.599999938E-3,1.557999998E-1
3.928000000E1,-3.466999829E-1,7.360000163E-2,3.729999810E-2
3.930000000E1,-2.511000037E-1,4.274999797E-1,7.379999757E-2
3.932000000E1,-2.502999902E-1,7.419999689E-2,2.900999784E-1
3.934000000E1,-8.829999715E-2,5.260000005E-2,-8.999999845E-4
3.936000000E1,1.399999950E-2,-5.680000037E-2,-3.603999913E-1
3.938000156E1,-5.409999937E-2,1.699999906E-3,-2.818000019E-1
3.941000000E1,1.529999916E-2,2.089999989E-2,-2.105000019E-1
3.943000000E1,-1.209999993E-1,-8.700000122E-3,-1.464999914E-1
3.945000156E1,-2.985999882E-1,7.000000030E-2,-6.740000099E-2
3.947000156E1,-1.794999987E-1,6.949999928E-2,-1.241999939E-1
3.950000000E1,8.020000160E-2,-9.889999777E-2,-6.209999695E-2
3.952000000E1,-2.789999917E-2,-3.989999741E-2,6.960000098E-2
3.954000000E1,-1.171999946E-1,-3.949999809E-2,1.189999934E-2
3.956000000E1,-7.859999686E-2,1.950000040E-2,-1.789999940E-2
3.958000000E1,-1.886999905E-1,9.879999608E-2,1.131999940E-1
3.960000156E1,-2.489999980E-1,1.188999936E-1,-2.139999904E-2
3.963000000E1,3.449999914E-2,2.119999938E-2,-8.749999851E-2
3.965000000E1,-7.479999959E-2,2.199999988E-3,1.767999977E-1
3.967000156E1,-2.452999949E-1,2.096000016E-1,-2.419999987E-2
3.970000000E1,-9.619999677E-2,-1.146999970E-1,-2.620000020E-2
3.972000000E1,9.309999645E-2,-2.236999869E-1,2.541999817E-1
3.974000156E1,4.999999888E-3,1.150000002E-2,2.969999909E-1
3.977000000E1,-3.348999918E-1,1.316999942E-1,2.554999888E-1
3.979000000E1,-3.975999951E-1,2.017999887E-1,9.849999845E-2
3.981000000E1,-1.996999979E-1,2.304999977E-1,-1.030000020E-2
3.983000000E1,4.039999843E-2,1.797000021E-1,-1.260000002E-2
3.985000000E1,-1.469999924E-2,1.978999972E-1,1.662999988E-1
3.987000000E1,-1.316999942E-1,-1.799999923E-2,2.001999915E-1
3.989000000E1,-4.189999774E-2,-1.860000007E-2,-1.140999943E-1
3.991000000E1,1.180000007E-1,8.810000122E-2,-2.362999916E-1
3.993000000E1,-3.799999878E-2,-2.979999967E-2,-1.009999961E-1
3.995000000E1,-2.251999974E-1,9.599999525E-3,1.950999945E-1
3.997000000E1,-2.842999995E-1,-5.879999697E-2,1.553999931E-1
3.999000000E1,-1.946000010E-1,-2.989999950E-2,-1.559999958E-2
4.001000000E1,-8.579999954E-2,1.068999991E-1,-4.710000008E-2
4.003000000E1,-6.539999694E-2,1.457999945E-1,-9.619999677E-2
4.005000000E1,-3.509999812E-2,1.062999964E-1,-7.559999824E-2
4.007000000E1,-1.519999932E-2,-3.099999949E-2,1.550000012E-1
4.009000000E1,-3.509999812E-2,-5.049999803E-2,-1.089999974E-1
4.011000000E1,-2.047999948E-1,-3.999999899E-4,-2.481999993E-1
4.013000000E1,-2.879000008E-1,2.169999927E-1,-2.264999896E-1
4.015000000E1,-3.495999873E-1,-1.151999980E-1,-2.349999920E-2
4.017000000E1,-3.014000058E-1,1.202999949E-1,2.427999973E-1
4.019000000E1,-2.308999896E-1,1.588999927E-1,1.598999947E-1
4.021000000E1,-3.999999899E-4,8.839999884E-2,1.136000007E-1
4.023000000E1,8.289999515E-2,-4.089999944E-2,2.245000005E-1
4.025000000E1,-5.599999800E-3,1.257999986E-1,2.245999873E-1
4.027000000E1,-1.779999956E-2,1.169999987E-1,2.181999981E-1
4.029000000E1,-7.840000093E-2,9.799999744E-2,1.614999920E-1
4.031000000E1,-7.959999889E-2,1.999999955E-2,2.599999867E-2
4.033000000E1,-1.783999950E-1,3.989999741E-2,5.749999732E-2
4.035000000E1,-1.981000006E-1,-1.879999973E-2,-1.000999957E-1
4.037000000E1,-1.791999936E-1,-8.799999952E-3,-8.139999956E-2
4.039000000E1,-1.209999993E-1,4.030000046E-2,-4.989999905E-2
4.041000000E1,-9.139999747E-2,-7.729999721E-2,-1.899999939E-2
4.043000000E1,3.669999912E-2,-4.820000008E-2,-1.435000002E-1
4.045000000E1,2.639999986E-2,4.010000080E-2,-1.694999933E-1
4.047000000E1,-2.809999883E-1,1.492999941E-1,-2.269999869E-2
4.049000000E1,-3.630999923E-1,4.279999807E-2,-7.819999754E-2
4.051000000E1,-8.760000020E-2,-7.509999722E-2,-1.133999974E-1
4.053000000E1,1.800999939E-1,7.079999894E-2,-5.469999835E-2
4.055000000E1,2.400000021E-2,2.076999992E-1,1.009999961E-1
4.057000000E1,-1.933999956E-1,1.102999970E-1,2.294999957E-1
4.059000000E1,-1.259000003E-1,3.229999915E-2,4.219999909E-2
4.061000000E1,-4.690000042E-2,-1.344999969E-1,-2.064999938E-1
4.063000000E1,-4.739999771E-2,-6.899999920E-3,-1.288999915E-1
4.065000000E1,-2.256999910E-1,5.260000005E-2,1.476999968E-1
4.067000156E1,-3.163000047E-1,1.906999946E-1,3.309999779E-2
4.070000000E1,2.129999921E-2,8.129999787E-2,-1.548999995E-1
4.072000000E1,2.606999874E-1,-8.399999700E-3,-6.599999964E-2
4.074000156E1,3.016999960E-1,-1.561999917E-1,-2.859999985E-2
4.077000000E1,-1.938999891E-1,-3.649999946E-2,4.769999906E-2
4.079000000E1,-3.938999772E-1,1.216999963E-1,-1.299999934E-2
4.081000156E1,-2.965999842E-1,1.121999994E-1,-5.570000038E-2
4.084000000E1,2.999999851E-4,1.306999922E-1,2.840000018E-2
4.086000000E1,1.979999989E-2,1.310000010E-2,9.739999473E-2
4.088000156E1,-5.069999769E-2,-7.429999858E-2,-4.019999877E-2
4.091000000E1,-9.359999746E-2,7.400000095E-2,-1.411999911E-1
4.093000000E1,-2.037999928E-1,9.449999779E-2,-2.300000051E-3
4.095000156E1,-2.628000081E-1,2.599999867E-2,1.402999908E-1
4.098000000E1,-1.026999950E-1,9.339999408E-2,7.429999858E-2
4.100000000E1,-6.300000101E-2,1.912999898E-1,5.329999700E-2
4.102000000E1,-1.124999970E-1,9.339999408E-2,-7.499999832E-3
4.104000000E1,-9.189999849E-2,4.799999762E-3,-3.669999912E-2
4.106000000E1,-1.297999918E-1,-1.525000036E-1,3.599999938E-3
4.108000000E1,-1.090999991E-1,-6.469999999E-2,-6.499999762E-2
4.110000000E1,-8.919999748E-2,1.116999984E-1,-6.340000033E-2
4.112000000E1,-1.479000002E-1,5.279999971E-2,-6.039999798E-2
4.114000000E1,-8.760000020E-2,1.299999934E-2,4.129999876E-2
4.116000000E1,-1.759999990E-2,3.219999745E-2,-4.369999841E-2
4.118000000E1,1.090000011E-2,1.010999978E-1,5.590000004E-2
4.120000938E1,-8.829999715E-2,1.114000008E-1,-5.260000005E-2
4.123000000E1,-5.619999766E-2,-7.199999876E-3,-2.259999886E-2
4.125000000E1,4.499999806E-3,-1.158000007E-1,1.048999950E-1
4.127000000E1,-7.499999553E-2,-5.659999698E-2,-5.200000014E-3
4.129000000E1,-2.155999988E-1,7.209999859E-2,-5.729999766E-2
4.131000000E1,-3.572999835E-1,1.718000025E-1,-1.366000026E-1
4.133000000E1,-2.974999845E-1,2.008000016E-1,2.300000051E-3
4.135000000E1,-2.144999951E-1,2.775999904E-1,2.477999926E-1
4.137000000E1,-2.969999909E-1,1.870999932E-1,1.331000030E-1
4.139000000E1,-5.253999829E-1,-1.799999969E-3,2.008000016E-1
4.141000000E1,-5.284999609E-1,2.996000051E-1,4.925999939E-1
4.143000000E1,3.799999831E-3,3.046000004E-1,8.018999696E-1
4.145000000E1,6.987999678E-1,-2.026000023E-1,3.014999926E-1
4.147000000E1,8.629999757E-1,-5.097000003E-1,-1.322999895E-1
4.149000000E1,5.745999813E-1,-1.752000004E-1,-9.149999917E-2
4.151000000E1,1.239999942E-2,-9.229999781E-2,-1.872999966E-1
4.153000000E1,-6.051999927E-1,-5.579999834E-2,-1.957999915E-1
4.155000000E1,-8.727999926E-1,1.447999924E-1,-3.709000051E-1
4.157000000E1,-5.910999775E-1,2.536000013E-1,-4.041000009E-1
4.159000000E1,-3.409000039E-1,1.341999918E-1,-2.321999967E-1
4.161000000E1,-1.469999999E-1,1.314999908E-1,-6.799999624E-3
4.163000000E1,1.468999982E-1,-9.099999443E-3,1.196999997E-1
4.165000000E1,3.589999974E-1,-1.878999919E-1,2.056999952E-1
4.167000000E1,1.624999940E-1,-3.070000000E-2,1.127999946E-1
4.169000000E1,-8.619999886E-2,1.666999906E-1,3.299999982E-2
4.171000000E1,-2.084999979E-1,1.586000025E-1,6.169999763E-2
4.173000000E1,-3.272999823E-1,6.099999696E-2,-3.570000082E-2
4.175000000E1,-2.069999874E-1,2.080000006E-2,-1.635999978E-1
4.177000000E1,-6.599999964E-3,-2.979999967E-2,-2.714000046E-1
4.179000000E1,-6.189999729E-2,-3.109999932E-2,-1.697999984E-1
4.181000000E1,-3.940000013E-2,1.344999969E-1,4.959999770E-2
4.183000000E1,-6.639999896E-2,1.140000001E-1,2.199999988E-3
4.185000000E1,5.499999970E-3,-6.369999796E-2,-1.631999910E-1
4.187000000E1,-1.099999994E-2,-1.039999947E-1,-1.605999917E-1
4.189000000E1,-1.190999970E-1,1.019999981E-1,-1.752000004E-1
4.191000000E1,-1.295000017E-1,4.199999850E-3,-2.640999854E-1
4.193000000E1,-8.929999918E-2,-5.489999801E-2,-2.353999913E-1
4.195000000E1,-5.979999900E-2,1.902000010E-1,4.349999875E-2
4.197000000E1,-6.939999759E-2,2.339999937E-2,-1.019999981E-1
4.199000000E1,-8.789999783E-2,3.280000016E-2,-3.130000085E-2
4.201000000E1,-1.747999936E-1,-6.560000032E-2,-1.052000001E-1
4.203004375E1,-5.529999733E-2,3.170000017E-2,-1.053999960E-1
4.206000000E1,3.999999724E-3,1.393000036E-1,-1.889999956E-2
4.208000000E1,-1.648000032E-1,6.169999763E-2,-5.649999902E-2
4.210000000E1,-1.458999962E-1,7.180000097E-2,-1.835999936E-1
4.212000000E1,-3.739999980E-2,-3.629999980E-2,-1.753999889E-1
4.214000000E1,-6.570000201E-2,-1.150999963E-1,7.180000097E-2
4.216000000E1,-5.429999903E-2,1.294000000E-1,1.105999947E-1
4.218000000E1,-8.269999921E-2,1.779999882E-1,2.159999870E-2
4.220000938E1,-1.224999949E-1,1.150000002E-2,-1.080999970E-1
4.223000000E1,-5.399999674E-3,1.799999969E-3,-1.318999976E-1
4.225000000E1,4.259999841E-2,7.069999725E-2,-1.744999886E-1
4.227000000E1,-6.799999624E-3,3.170000017E-2,-9.719999880E-2
4.229000000E1,-1.651999950E-1,-6.570000201E-2,-1.689999923E-2
4.231000000E1,-1.859999895E-1,-6.399999838E-3,-7.379999757E-2
4.233000000E1,-1.275999993E-1,1.114000008E-1,-5.150000006E-2
4.235000000E1,-6.849999726E-2,1.407999992E-1,1.314000040E-1
4.237000000E1,-1.750999987E-1,-1.143999994E-1,6.909999996E-2
4.239000000E1,2.293999940E-1,2.180000022E-2,-5.949999765E-2
4.241000000E1,2.008000016E-1,-3.729999810E-2,-1.449999958E-1
4.243000000E1,-5.939999968E-2,-5.499999970E-2,4.789999872E-2
4.245000000E1,-3.197999895E-1,3.529999778E-2,1.591999978E-1
4.247000156E1,-4.290999770E-1,1.143999994E-1,-9.179999679E-2
4.250000000E1,1.870999932E-1,-1.630000025E-2,-1.854999959E-1
4.252000000E1,2.182999998E-1,-8.559999615E-2,9.719999880E-2
4.254000000E1,-8.989999443E-2,-1.035999954E-1,1.967999935E-1
4.256000000E1,-1.729999930E-1,1.579999924E-2,-1.083000004E-1
4.258000000E1,-1.671999991E-1,6.629999727E-2,-1.780999899E-1
4.260000156E1,-1.997999996E-1,-3.049999848E-2,2.999999933E-2
4.263000000E1,-2.412000000E-1,2.919999883E-2,1.052999943E-1
4.265000000E1,-1.538999975E-1,1.963000000E-1,1.129999943E-2
4.267000156E1,-6.300000008E-3,2.255999893E-1,-1.559999958E-2
4.270000000E1,2.499999851E-2,-3.969999775E-2,1.350999922E-1
4.272000000E1,-9.369999915E-2,-2.939999849E-2,9.079999477E-2
4.274000156E1,-2.140999883E-1,2.060000040E-2,-1.449999958E-2
4.277000000E1,-2.847000062E-1,2.958999872E-1,7.409999520E-2
4.279000000E1,-2.635000050E-1,1.286000013E-1,3.643999994E-1
4.281000156E1,-5.319999903E-2,5.829999968E-2,1.875000000E-1
4.284000000E1,1.366000026E-1,-7.059999555E-2,-2.366999984E-1
4.286000000E1,6.589999795E-2,1.261999905E-1,-1.124999970E-1
4.288000156E1,-1.720999926E-1,-5.900000036E-2,3.529999778E-2
4.291000000E1,-2.340999991E-1,8.919999748E-2,-1.418000013E-1
4.293000000E1,-1.851999909E-1,7.939999551E-2,-2.022999972E-1
4.295000000E1,-1.242999956E-1,-7.819999754E-2,-2.110999972E-1
4.297000000E1,-4.999999888E-3,8.789999783E-2,8.859999478E-2
4.299000000E1,-3.269999847E-2,3.830000013E-2,6.399999559E-2
4.301000000E1,-1.200000010E-2,5.759999901E-2,-2.989999950E-2
4.303000156E1,-2.699999837E-3,-4.010000080E-2,-2.301999927E-1
4.306000000E1,-9.259999543E-2,-1.080999970E-1,1.370000001E-2
4.308000000E1,-1.221999973E-1,9.699999355E-3,1.859000027E-1
4.310000156E1,-1.030000001E-1,1.863999963E-1,1.713999957E-1
4.313000000E1,-7.469999790E-2,-1.899999939E-2,-5.509999767E-2
4.315000000E1,-1.044999957E-1,6.929999590E-2,4.270000011E-2
4.317000156E1,-5.579999834E-2,1.577000022E-1,-1.609999873E-2
4.319000156E1,-4.409999773E-2,0.000000000E0,-8.839999884E-2
4.322000000E1,-1.709000021E-1,-9.999999776E-3,8.399999700E-3
4.324000156E1,-1.221999973E-1,-9.899999946E-3,-9.899999946E-3
4.327000000E1,-9.259999543E-2,1.174999997E-1,7.429999858E-2
4.329000000E1,-1.410999894E-1,1.368999928E-1,2.044999897E-1
4.331000156E1,-1.201999933E-1,9.730000049E-2,8.779999614E-2
4.333000156E1,-6.920000166E-2,1.552999914E-1,9.699999541E-2
4.335000469E1,-7.829999924E-2,-1.699999906E-3,2.043999881E-1
4.338000156E1,-2.071999907E-1,8.689999580E-2,1.138999984E-1
4.341000000E1,-2.355999947E-1,4.729999974E-2,4.949999973E-2
4.343000000E1,-7.490000129E-2,3.590000048E-2,1.099999994E-2
4.345000000E1,-1.370000001E-2,1.231999993E-1,-4.639999941E-2
4.347000156E1,2.599999867E-2,6.399999559E-2,-5.269999802E-2
4.350000000E1,-5.359999835E-2,5.499999970E-3,-1.219999939E-1
4.352000000E1,-8.469999582E-2,-1.899999976E-1,-4.025000036E-1
4.354000000E1,-4.749999940E-2,-4.209999740E-2,-3.655000031E-1
4.356000000E1,-1.953999996E-1,3.659999743E-2,-2.696000040E-1
4.358000000E1,-1.066999957E-1,-2.499999944E-3,-1.396999955E-1
4.360000156E1,-2.829999849E-2,-6.109999865E-2,-9.860000014E-2
4.363000000E1,2.269999869E-2,1.048000008E-1,9.019999951E-2
4.365000000E1,1.449999958E-2,1.826999933E-1,2.646999955E-1
4.367000156E1,5.379999802E-2,-3.289999813E-2,-1.069999952E-2
4.370000000E1,1.218999997E-1,-1.319999993E-2,-1.164999977E-1
4.372000000E1,-6.689999998E-2,1.709999889E-2,-9.829999506E-2
4.374000156E1,-2.258999944E-1,8.649999648E-2,-7.999999821E-2
4.377000000E1,-8.810000122E-2,-9.009999782E-2,-1.407999992E-1
4.379000000E1,3.070000000E-2,2.699999884E-2,-1.304000020E-1
4.381000156E1,5.219999701E-2,1.341999918E-1,1.093999967E-1
4.383000156E1,1.235999987E-1,4.490000010E-2,-9.860000014E-2
4.386000000E1,1.372999996E-1,1.806000024E-1,-2.999999933E-2
4.388000156E1,-3.059999831E-2,5.536999702E-1,2.201999873E-1
4.390000156E1,-3.547999859E-1,-1.499999966E-2,3.999999899E-4
4.393000000E1,-5.794999599E-1,-4.863999784E-1,-5.507000089E-1
4.395000000E1,3.999999911E-2,3.756999969E-1,-5.816000104E-1
4.397000156E1,4.679999948E-1,4.999999655E-4,-2.679999918E-2
4.400000000E1,-3.100000024E-1,-7.924000025E-1,8.370000124E-2
4.402000000E1,-2.334999889E-1,4.671999812E-1,-3.500999808E-1
4.404000156E1,-3.137999773E-1,1.177799940E0,-5.920000002E-2
4.407000156E1,-6.805999875E-1,-4.579999745E-1,2.597999871E-1
4.410000156E1,3.539999947E-2,-3.039999865E-2,-1.929999888E-1
4.413000000E1,7.141000032E-1,5.769000053E-1,3.553999960E-1
4.415000000E1,5.639999732E-2,-1.187999994E-1,6.243999600E-1
4.417000156E1,-6.696999669E-1,1.279999968E-2,5.684999824E-1
4.420000938E1,-3.788000047E-1,2.759999968E-2,-5.494999886E-1
4.423000000E1,2.164999992E-1,7.769999653E-2,-8.579999954E-2
4.425000156E1,1.015999988E-1,1.256999969E-1,3.498999774E-1
4.428000000E1,-1.699999906E-2,1.261000037E-1,3.813999891E-1
4.430000000E1,8.639999479E-2,1.080999970E-1,-1.867000014E-1
4.432000000E1,-1.569999941E-2,-3.120000064E-1,-3.452999890E-1
4.434000000E1,-1.190999970E-1,6.269999593E-2,2.445999980E-1
4.436000000E1,-4.763000011E-1,1.622999907E-1,4.352999926E-1
4.438000156E1,-5.469999909E-1,3.102000058E-1,-5.399999768E-2
4.441000000E1,6.560000032E-2,1.416999996E-1,-8.060000092E-2
4.443000000E1,3.249000013E-1,-1.146999970E-1,5.509999767E-2
4.445000000E1,2.769999802E-1,-2.131999880E-1,1.287999898E-1
4.447000156E1,-3.989999741E-2,-5.499999970E-2,9.579999745E-2
4.450000000E1,-1.431999952E-1,1.625999957E-1,-1.597999930E-1
4.452000000E1,-1.618999988E-1,5.439999700E-2,-1.119999960E-2
4.454000156E1,-1.692000031E-1,1.122999936E-1,1.617999971E-1
4.457000000E1,-1.740000024E-2,-7.569999993E-2,6.889999658E-2
4.459000000E1,-4.629999772E-2,-3.669999912E-2,9.829999506E-2
4.461000156E1,-2.154999971E-1,1.210999936E-1,9.219999611E-2
4.464000000E1,-3.885999918E-1,3.097999990E-1,1.850000024E-2
4.466000000E1,-5.106999874E-1,2.709999867E-2,1.061000004E-1
4.468000156E1,-1.271999925E-1,7.100000046E-3,-3.150000051E-2
4.471000000E1,9.640000015E-2,8.630000055E-2,-6.089999899E-2
4.473000000E1,-1.124999970E-1,2.052000016E-1,7.930000126E-2
4.475000156E1,-2.421000004E-1,-5.869999900E-2,4.699999932E-3
4.478000000E1,3.686999977E-1,6.759999692E-2,-2.070999891E-1
4.480000000E1,1.155999973E-1,1.392000020E-1,-5.299999937E-2
4.482000156E1,9.899999946E-2,2.102999985E-1,1.246999949E-1
4.485000000E1,-3.577999771E-1,-2.778999805E-1,2.414999902E-1
4.487000000E1,-4.174000025E-1,-4.737999737E-1,-1.019999944E-2
4.489000000E1,-1.031999961E-1,-1.405999959E-1,-2.427999973E-1
4.491000000E1,1.140999943E-1,1.232999936E-1,-1.847999990E-1
4.493000000E1,1.059999987E-1,1.815000027E-1,-1.494999975E-1
4.495000000E1,-2.060000040E-2,1.221999973E-1,-2.649999969E-2
4.497000156E1,-1.403999925E-1,-1.420999914E-1,2.067999989E-1
4.500000000E1,1.218999997E-1,2.110999972E-1,1.543999910E-1
4.502000000E1,4.291999936E-1,5.236999989E-1,-1.074000001E-1
4.504000156E1,4.061999917E-1,3.351999819E-1,-2.355999947E-1
4.507000156E1,6.769999862E-2,-8.179999888E-2,2.532999814E-1
4.510000156E1,-2.479999885E-2,3.146999776E-1,4.983999729E-1
4.513000000E1,-2.554000020E-1,-7.687999606E-1,-2.604999840E-1
4.515000000E1,-2.586999834E-1,-4.339999855E-1,-5.722999573E-1
4.517000156E1,-3.220999837E-1,3.361999989E-1,-4.922999740E-1
4.520000938E1,8.799999952E-2,5.821999907E-1,-8.697999716E-1
4.523000000E1,7.202999592E-1,-2.272000015E-1,-1.006999969E0
4.525000156E1,1.023199916E0,-4.853999913E-1,-6.888999939E-1
4.528000000E1,7.872999907E-1,-6.714999676E-1,1.383000016E-1
4.530000000E1,3.296999931E-1,-1.819999889E-2,1.099999994E-1
4.532000156E1,-3.145999908E-1,5.763999820E-1,8.810000122E-2
4.535000000E1,-7.414999604E-1,5.859999731E-2,3.595999777E-1
4.537000000E1,-9.581999779E-1,-9.789999574E-2,3.946000040E-1
4.539000156E1,-8.330999613E-1,4.030999839E-1,-3.099999856E-3
4.542000000E1,-3.931999803E-1,2.430000007E-1,1.539999992E-2
4.544000000E1,-3.986999989E-1,-3.309999779E-2,3.971999884E-1
4.546000156E1,-5.081999898E-1,-4.230000079E-2,5.055999756E-1
4.549000000E1,-5.938999653E-1,4.799999893E-1,4.238999784E-1
4.551000000E1,-3.856999874E-1,5.739999935E-2,6.979999691E-2
4.553000156E1,-8.339999616E-2,-2.886999846E-1,-6.229999661E-2
4.556000000E1,2.633999884E-1,-5.699999630E-3,-2.751999795E-1
4.558000000E1,1.265999973E-1,-2.539999969E-2,-3.804999888E-1
4.560000156E1,-1.499999911E-1,-1.422999948E-1,-1.614999920E-1
4.563000000E1,-2.371999919E-1,1.843999922E-1,1.810999960E-1
4.565000000E1,-2.308999896E-1,2.346999943E-1,6.189999729E-2
4.567000156E1,-1.920000017E-1,1.072999984E-1,-1.692000031E-1
4.570000000E1,-2.516999841E-1,-2.999999851E-4,5.359999835E-2
4.572000000E1,-1.823000014E-1,4.820000008E-2,2.513999939E-1
4.574000156E1,-4.160000011E-2,2.037999928E-1,3.480999768E-1
4.577000000E1,3.810000047E-2,7.100000046E-3,1.638000011E-1
4.579000000E1,-1.119999960E-2,3.669999912E-2,1.230999976E-1
4.581000156E1,-1.377999932E-1,6.999999750E-3,-1.093999967E-1
4.583000156E1,-1.055999994E-1,-1.212999970E-1,-3.849999905E-1
4.586000000E1,-2.319999970E-2,9.659999609E-2,-4.221999943E-1
4.588000000E1,-1.140999943E-1,3.869999945E-2,-2.140000015E-1
4.590000156E1,-1.556999981E-1,1.180000007E-1,1.370000001E-2
4.593000000E1,8.219999820E-2,-1.085999981E-1,-1.059999987E-1
4.595000000E1,1.638000011E-1,-9.019999951E-2,-1.439999975E-2
4.597000156E1,2.243999988E-1,1.689999923E-2,4.609999806E-2
4.600000000E1,-1.609999985E-1,8.200000040E-3,1.394999921E-1
4.602000000E1,-2.525999844E-1,1.761000007E-1,4.299999774E-2
4.604000000E1,-1.834999919E-1,1.759999990E-1,-1.779999882E-1
4.606000000E1,-1.129999980E-1,9.690000117E-2,2.869999968E-2
4.608000000E1,-2.300000004E-2,1.769999973E-2,9.009999782E-2
4.610000156E1,1.053999960E-1,-1.001999974E-1,-6.030000001E-2
4.613000000E1,3.439999744E-2,3.790000081E-2,-2.219999954E-2
4.615000000E1,-2.639999986E-2,5.829999968E-2,-1.409999933E-2
4.617000156E1,-1.747999936E-1,1.665999889E-1,1.537999958E-1
4.620000938E1,-2.330999970E-1,1.075999960E-1,7.379999757E-2
4.623000000E1,5.869999900E-2,-2.239999920E-2,-7.679999620E-2
4.625000156E1,-1.044999957E-1,-1.903999895E-1,1.785999984E-1
4.628000000E1,-3.780999780E-1,-1.429999992E-2,6.329999864E-2
4.630000000E1,-8.229999989E-2,2.400999963E-1,-2.204999924E-1
4.632000156E1,7.859999686E-2,3.199999919E-3,-1.163999960E-1
4.635000000E1,5.260000005E-2,3.130000085E-2,6.329999864E-2
4.637000000E1,1.241999939E-1,1.480000019E-1,-3.677999973E-1
4.639000156E1,9.749999642E-2,0.000000000E0,-3.373000026E-1
4.642000000E1,-1.693999916E-1,-1.167999953E-1,3.769999743E-2
4.644000000E1,-1.290999949E-1,1.009999961E-2,-9.189999849E-2
4.646000000E1,-6.979999691E-2,1.472999901E-1,-6.340000033E-2
4.648000000E1,-1.473999918E-1,2.929999866E-2,2.400000021E-2
4.650000000E1,-1.674999893E-1,2.950000018E-2,9.259999543E-2
4.652000000E1,-8.859999478E-2,9.699999355E-3,-7.100000046E-3
4.654000000E1,-1.186999977E-1,7.859999686E-2,2.269999869E-2
4.656000156E1,-4.989999905E-2,1.177999973E-1,3.299999982E-2
4.658000156E1,-1.799999923E-2,-1.085999981E-1,-1.468999982E-1
4.660000156E1,-4.710000008E-2,-7.930000126E-2,-1.180000007E-1
4.662000156E1,-6.939999759E-2,1.078999937E-1,4.889999703E-2
4.664000156E1,-7.109999657E-2,1.967999935E-1,9.869999439E-2
