"Time (s)","Acceleration x (m/s^2)","Acceleration y (m/s^2)","Acceleration z (m/s^2)"
0.000000000E0,-2.694386721E0,3.467665911E0,8.309039116E0
2.000781300E-2,-2.718166113E0,3.151277065E0,8.722832680E0
4.200156300E-2,-2.541263103E0,2.681850672E0,9.132519722E0
6.200156300E-2,-2.270335197E0,2.382450819E0,9.141110420E0
8.200156300E-2,-1.975714326E0,2.273735046E0,8.868764877E0
1.020078130E-1,-1.876287937E0,2.315729141E0,8.869923592E0
1.240015630E-1,-1.809355736E0,2.283177853E0,8.944527626E0
1.440015630E-1,-1.754308224E0,1.988547325E0,8.995753288E0
1.640015630E-1,-1.688477159E0,1.677454352E0,9.078496933E0
1.840015630E-1,-1.877283931E0,1.655216932E0,9.333632469E0
2.040015630E-1,-2.342103720E0,2.133185863E0,9.747474670E0
2.240015630E-1,-2.622589350E0,2.826738358E0,1.001732063E1
2.440046880E-1,-2.500456333E0,3.054675817E0,9.650509834E0
2.660000000E-1,-2.066148281E0,2.847874165E0,9.443593979E0
2.860015630E-1,-1.834475756E0,2.904214621E0,9.268013000E0
3.060015630E-1,-1.780223012E0,3.143673182E0,9.147842407E0
3.260046880E-1,-1.742452145E0,3.117480516E0,9.065922737E0
3.480000000E-1,-1.703809738E0,2.873300552E0,9.182424545E0
3.680062500E-1,-1.682415128E0,2.592096806E0,9.220731735E0
3.900000000E-1,-1.653004766E0,2.452610493E0,9.416778564E0
4.100000000E-1,-1.727138758E0,2.529206038E0,9.459720612E0
4.300000000E-1,-1.881957412E0,2.678498745E0,9.434840202E0
4.500000000E-1,-1.937933803E0,2.627358675E0,9.470762253E0
4.700015630E-1,-1.799616098E0,2.586513758E0,9.443161964E0
4.920093750E-1,-1.608798265E0,2.610867500E0,9.299375534E0
5.140015630E-1,-1.573009610E0,2.863829136E0,9.225807190E0
5.340015630E-1,-1.606825352E0,2.839666843E0,9.347078323E0
5.540015630E-1,-1.524905443E0,2.663798332E0,9.471500397E0
5.740015630E-1,-1.374673963E0,2.348501205E0,9.347250938E0
5.940015630E-1,-1.220678926E0,2.129086971E0,9.119447708E0
6.140062500E-1,-1.146650314E0,2.056456566E0,9.045782089E0
6.360000000E-1,-9.375406504E-1,2.318937540E0,9.665957451E0
6.560015630E-1,-1.069288850E0,2.078531027E0,9.225625038E0
6.780015630E-1,-1.058677793E0,2.359437943E0,9.331909180E0
7.000015630E-1,-1.058083892E0,2.428946257E0,9.790360451E0
7.220000000E-1,-9.222081900E-1,2.437632561E0,9.614433289E0
7.420156250E-1,-7.602260709E-1,2.493273735E0,9.232300758E0
7.640015630E-1,-6.329599023E-1,2.620051622E0,9.136341095E0
7.840015630E-1,-6.059245467E-1,2.617743492E0,9.371365547E0
8.040015630E-1,-5.974969268E-1,2.447774410E0,9.525791168E0
8.240015630E-1,-4.523796141E-1,2.079297066E0,9.730035782E0
8.440015630E-1,-1.165880412E-1,1.645534754E0,9.775199890E0
8.660015630E-1,-5.564124789E-3,1.705418587E0,9.369325638E0
8.880015630E-1,-3.747596145E-1,1.765350223E0,9.641334534E0
9.100000000E-1,-4.016129673E-1,2.081059217E0,9.554004669E0
9.300015630E-1,-3.298252225E-1,2.041191101E0,9.374985695E0
9.520015630E-1,-3.648859262E-1,2.084679127E0,9.288401604E0
9.740015630E-1,-3.478775024E-1,2.215450764E0,9.292863846E0
9.940015630E-1,-4.336186647E-1,2.250520706E0,9.513647079E0
1.014014063E0,-4.865113497E-1,2.197072744E0,9.682448387E0
1.036000000E0,-4.780454636E-1,1.990165830E0,9.716762543E0
1.056001563E0,-5.665735006E-1,1.895231009E0,9.604129791E0
1.076017188E0,-6.940503716E-1,1.911769986E0,9.409643173E0
1.098000000E0,-7.484178543E-1,1.750352979E0,9.505890846E0
1.118001563E0,-7.476517558E-1,1.587441921E0,9.585244179E0
1.140001563E0,-7.738347054E-1,1.503185153E0,9.502749443E0
1.162000000E0,-8.941673040E-1,1.470011115E0,9.546333313E0
1.182000000E0,-9.218921661E-1,1.572712779E0,9.552070618E0
1.202000000E0,-8.715277314E-1,1.598081827E0,9.471442223E0
1.222000000E0,-8.795147538E-1,1.509659052E0,9.430205345E0
1.242014063E0,-8.961305618E-1,1.311830997E0,9.577027321E0
1.264001563E0,-7.542118430E-1,1.181739569E0,9.610411644E0
1.284001563E0,-1.065553784E0,1.154905438E0,9.481411934E0
1.306001563E0,-9.956431389E-1,1.439623952E0,9.625935555E0
1.326001563E0,-1.625720501E0,1.423400760E0,9.682591438E0
1.348000000E0,-9.398295283E-1,1.262472153E0,9.936702728E0
1.368001563E0,-1.015189409E0,1.184315801E0,9.863757133E0
1.388001563E0,-7.310934663E-1,1.422912359E0,9.808642387E0
1.410000000E0,-7.517218590E-1,1.851282954E0,9.667737961E0
1.430001563E0,-7.644494772E-1,1.880578399E0,9.641689301E0
1.452001563E0,-5.237076879E-1,1.674246073E0,9.634526253E0
1.472001563E0,-4.466910064E-1,1.355549097E0,9.865950584E0
1.492001563E0,-1.971577108E-1,1.076643825E0,9.918967247E0
1.514012500E0,1.146631092E-1,9.714042544E-1,9.759924889E0
1.536001563E0,1.432115585E-1,1.117565393E0,9.799983978E0
1.556001563E0,3.895557523E-1,1.171339273E0,9.696804047E0
1.576001563E0,4.976013303E-1,1.141593575E0,9.823906898E0
1.598000000E0,4.698477089E-1,1.235494256E0,9.812817574E0
1.618001563E0,4.388284385E-1,1.368525624E0,9.860164642E0
1.640001563E0,4.890587926E-1,1.471064568E0,9.933351517E0
1.662001563E0,3.327557445E-1,1.608214021E0,9.919493675E0
1.682001563E0,3.541024029E-1,1.693916917E0,9.755423546E0
1.702001563E0,4.166677296E-1,1.540448427E0,9.643088341E0
1.724001563E0,3.186682463E-1,1.224720359E0,9.769319534E0
1.746000000E0,1.941505969E-1,1.078262210E0,9.912760735E0
1.766000000E0,2.289814502E-2,1.148278356E0,9.675323486E0
1.786001563E0,-1.618097275E-1,1.281300187E0,9.208587646E0
1.806001563E0,-1.044542342E-1,1.559774518E0,9.246962547E0
1.828001563E0,-2.017833106E-2,1.926604509E0,9.502164841E0
1.848001563E0,1.648072600E-1,1.879285574E0,9.715047836E0
1.870000000E0,4.107971191E-1,1.308651447E0,9.863709450E0
1.890001563E0,6.933320761E-1,1.152626157E0,1.007397747E1
1.912000000E0,5.722237825E-1,1.469273686E0,9.846136093E0
1.932000000E0,4.007414877E-1,1.688247442E0,9.659254074E0
1.952000000E0,7.119398564E-2,1.685719132E0,9.510008812E0
1.972000000E0,1.764239371E-1,1.319885135E0,9.583596230E0
1.992000000E0,1.111388430E-1,1.458337069E0,9.636824608E0
2.012000000E0,7.618349791E-2,1.617101312E0,9.582064629E0
2.032001563E0,-4.932055250E-3,1.485410690E0,9.690521240E0
2.054017188E0,-1.015524566E-1,9.846585989E-1,9.822911263E0
2.076012500E0,-2.217701077E-1,4.343369007E-1,9.928763390E0
2.098000000E0,-2.490448654E-1,3.972747028E-1,9.739737511E0
2.118001563E0,-4.965957403E-1,7.071322799E-1,9.093542099E0
2.140001563E0,-7.667574286E-1,1.028482080E0,8.575292587E0
2.162001563E0,-7.925094962E-1,1.050192595E0,8.494618416E0
2.184001563E0,-7.327311039E-1,9.635800123E-1,8.809513092E0
2.204001563E0,-7.754723430E-1,6.887926459E-1,9.339426994E0
2.226001563E0,-1.146037340E0,7.651868463E-2,1.014565945E1
2.248001563E0,-1.318477273E0,-3.303615451E-1,1.093672276E1
2.268001563E0,-1.053448677E0,-2.880895138E-1,1.119117832E1
2.288001563E0,-5.994889736E-1,-1.991018057E-1,1.107036686E1
2.310001563E0,-1.152664497E-1,-1.361726224E-1,1.030936527E1
2.330001563E0,1.602391303E-1,-1.384423226E-1,9.830151558E0
2.350001563E0,5.519401431E-1,-7.652826607E-2,9.716302872E0
2.370001563E0,7.901727557E-1,-2.867774665E-1,9.865412712E0
2.392000000E0,9.411319494E-1,-4.526477754E-1,1.005796528E1
2.412000000E0,9.950398207E-1,-3.984717727E-1,9.835515022E0
2.432000000E0,7.319457531E-1,-1.892376989E-1,9.603602409E0
2.452000000E0,3.211390674E-1,1.431732625E-2,9.387099266E0
2.472000000E0,-9.938810021E-2,7.087794691E-2,9.347030640E0
2.492000000E0,-5.790328979E-1,1.200931519E-1,9.579555511E0
2.512000000E0,-1.081594944E0,1.596549600E-1,9.823888779E0
2.532001563E0,-1.306659579E0,6.811982393E-2,9.994164467E0
2.554003125E0,-1.444498539E0,-3.365290165E-2,1.009962368E1
2.574003125E0,-1.440179348E0,-3.567360714E-2,1.008170605E1
2.596001563E0,-1.435218573E0,-2.188300341E-2,9.887660027E0
2.616020313E0,-1.500963330E0,5.337154493E-2,9.850425720E0
2.638000000E0,-1.501825333E0,1.166263521E-1,9.708046913E0
2.658001563E0,-1.540285826E0,1.626237482E-1,9.498956680E0
2.678001563E0,-1.451326728E0,1.202751175E-1,9.296359062E0
2.700001563E0,-1.377661943E0,1.611585021E-1,9.167656898E0
2.720001563E0,-1.400157809E0,4.016991556E-1,9.075163841E0
2.742014063E0,-1.263238311E0,6.956018209E-1,8.888032913E0
2.764001563E0,-8.197172284E-1,8.471834660E-1,8.543402672E0
2.786001563E0,-3.342688680E-1,5.637100339E-1,9.153616905E0
2.806001563E0,2.019652724E-1,-5.512410030E-2,1.010401917E1
2.828001563E0,5.056266785E-1,-8.633491397E-1,1.107951260E1
2.850001563E0,-3.752767742E-1,-2.824966311E-1,1.207664108E1
2.872001563E0,-6.486179829E-1,9.436697960E-1,1.163990879E1
2.892001563E0,1.282334421E-2,4.753639400E-1,1.036523628E1
2.914001563E0,2.908763289E-1,-2.043307424E-1,9.512249947E0
2.934001563E0,6.059245467E-1,-6.184127331E-1,1.085328960E1
2.954003125E0,4.804300964E-1,-6.544215083E-1,1.007613182E1
2.976001563E0,-2.399851978E-1,-7.263050228E-2,9.536565781E0
2.998000000E0,-9.868420362E-1,5.229607224E-1,9.369468689E0
3.018001563E0,-7.496820092E-1,1.206754327E0,9.701478004E0
3.038001563E0,-4.271064103E-1,1.227047443E0,1.028465748E1
3.060001563E0,-3.458855152E-1,6.129443645E-1,1.048562717E1
3.082000000E0,-2.886162400E-1,6.163440943E-1,1.137404823E1
3.102001563E0,-7.841489464E-2,6.479475498E-1,1.078675938E1
3.124001563E0,4.458673894E-1,7.514632940E-1,9.066209793E0
3.144012500E0,4.866358638E-1,1.129479051E0,8.241464615E0
3.166000000E0,8.425770402E-1,1.169318438E0,8.229149818E0
3.186000000E0,3.266935945E-1,1.789828658E0,8.604990959E0
3.206000000E0,2.098086923E-1,1.846073151E0,8.793998718E0
3.226000000E0,1.347361058E-1,1.757640839E0,9.177300453E0
3.246000000E0,1.201985031E-1,1.510798693E0,9.759034157E0
3.266000000E0,3.292793632E-1,1.310270071E0,1.004994965E1
3.286001563E0,3.580672443E-1,1.142369390E0,9.747418404E0
3.306001563E0,4.024748802E-1,1.103899360E0,9.704475403E0
3.328001563E0,6.189490557E-1,8.792274594E-1,1.064011002E1
3.350001563E0,9.982959032E-1,3.561423123E-1,1.096214008E1
3.372001563E0,1.711193323E0,3.294996023E-1,1.020872307E1
3.394001563E0,1.977629781E0,3.634876907E-1,9.802407265E0
3.414014063E0,2.074642897E0,6.076675653E-1,9.770411491E0
3.436001563E0,1.898247600E0,7.576307654E-1,9.904342651E0
3.456001563E0,2.282851934E0,7.028706074E-1,1.021530151E1
3.476012500E0,2.941219330E0,4.229022264E-1,9.787898064E0
3.498000000E0,3.357302666E0,5.579447746E-1,8.475234032E0
3.518000000E0,3.594970465E0,6.984077692E-1,8.189491272E0
3.538001563E0,3.479646444E0,6.507152915E-1,8.482082367E0
3.560001563E0,3.446884394E0,-1.682644933E-1,9.155092239E0
3.582000000E0,2.423372507E0,6.707020998E-1,9.356071472E0
3.602001563E0,2.202684879E0,8.934011459E-1,9.375397682E0
3.624001563E0,1.884504914E0,7.846948504E-1,9.834805489E0
3.644001563E0,1.979947329E0,1.050613999E0,9.381889343E0
3.664001563E0,2.009099007E0,1.608319283E0,8.763266563E0
3.686000000E0,1.880473018E0,2.020227432E0,8.439522743E0
3.706001563E0,2.078923702E0,1.574178100E0,9.038714409E0
3.726001563E0,2.090502024E0,1.650016665E0,8.561090469E0
3.746001563E0,2.050231457E0,1.721545935E0,9.022386551E0
3.768001563E0,1.786265969E0,1.619945526E0,9.423318863E0
3.788001563E0,1.458021045E0,1.440093160E0,9.863594055E0
3.810000000E0,1.265124917E0,1.100538015E0,1.050814152E1
3.830000000E0,1.050278783E0,8.742762208E-1,1.112524223E1
3.850001563E0,9.163854718E-1,7.636832595E-1,1.115537071E1
3.872001563E0,9.595193863E-1,8.610603213E-1,1.052203846E1
3.894010938E0,8.648239970E-1,9.621338844E-1,9.983121872E0
3.916018750E0,7.701380849E-1,1.226817608E0,9.560717583E0
3.938000000E0,7.113364935E-1,1.631504774E0,9.177453995E0
3.958001563E0,5.998815894E-1,1.805783510E0,9.082921028E0
3.978001563E0,3.951007426E-1,1.714727283E0,9.701544762E0
4.000000000E0,3.748840988E-1,1.452092886E0,1.049230194E1
4.020000000E0,2.868923843E-1,1.472280741E0,1.099643421E1
4.040000000E0,3.369790912E-1,1.596118569E0,1.134774017E1
4.060001563E0,5.559527874E-1,1.702871203E0,1.145476055E1
4.082000000E0,3.190321624E-1,1.641809464E0,1.141241169E1
4.102001563E0,-1.650466919E-1,1.343702674E0,1.174901867E1
4.124018750E0,-2.402150482E-1,4.315787852E-1,1.256205082E1
4.146001563E0,2.784935236E-1,-9.028151035E-1,1.271797085E1
4.168000000E0,8.989652991E-1,-1.916433930E0,1.205764103E1
4.188001563E0,8.511482477E-1,-2.160815001E0,1.086721516E1
4.210001563E0,3.523307145E-1,-1.693648696E0,9.524555206E0
4.232001563E0,-2.982792258E-1,-9.160790443E-1,8.859571457E0
4.254009375E0,-9.421758652E-1,-3.113515675E-1,8.629200935E0
4.274010938E0,-1.104703903E0,7.453628629E-2,8.647051811E0
4.294015625E0,-8.578233123E-1,2.670780122E-1,8.760767937E0
4.316020313E0,-3.087083697E-1,3.279864788E-1,8.685062408E0
4.338000000E0,1.001638249E-1,4.034038484E-1,8.398199081E0
4.358000000E0,2.682463825E-1,5.457342863E-1,8.352756500E0
4.378000000E0,3.057395518E-1,6.054457426E-1,8.542837143E0
4.398001563E0,3.035560250E-1,6.209601164E-1,8.624441147E0
4.418001563E0,3.708714247E-1,7.613177896E-1,8.435778618E0
4.438001563E0,4.007414877E-1,9.401455522E-1,8.263117790E0
4.458001563E0,4.456375539E-1,1.048171878E0,8.071294785E0
4.478017188E0,5.577819943E-1,1.182352543E0,8.086129189E0
4.500001563E0,6.035974026E-1,1.329586387E0,8.253579140E0
4.522001563E0,5.137286186E-1,1.382383347E0,8.581019402E0
4.544006250E0,3.197216988E-1,1.324960828E0,9.151548386E0
4.564006250E0,9.081685543E-2,1.402063727E0,9.459864616E0
4.586001563E0,-8.937075734E-2,1.490898013E0,9.855300903E0
4.608001563E0,-1.021174937E-1,1.319463730E0,1.046870422E1
4.630001563E0,-2.456450909E-1,9.943502545E-1,1.118370914E1
4.652000000E0,-4.105002582E-1,8.143829107E-1,1.203870678E1
4.672001563E0,-4.925351590E-2,2.613031566E-1,1.305686569E1
4.694007813E0,9.924731851E-1,-7.361882925E-1,1.337165546E1
4.716020313E0,1.453031540E0,-1.168073654E0,1.229363155E1
4.738000000E0,3.887608945E-1,-1.065946579E0,1.185148048E1
4.758001563E0,-5.817909911E-2,-4.393743277E-1,1.212501240E1
4.780001563E0,5.806896687E-1,1.432690322E-1,1.129612064E1
4.802001563E0,1.554124236E0,7.890618443E-1,8.559682846E0
4.822001563E0,2.043125391E0,1.710379362E0,6.073754311E0
4.844001563E0,1.478113055E0,2.492373466E0,5.820677757E0
4.864001563E0,2.344306558E-1,1.882685304E0,8.757942200E0
4.884001563E0,-2.614468150E-2,7.565102577E-1,1.151348591E1
4.904001563E0,2.188970745E-1,-6.456204057E-1,1.275557899E1
4.924001563E0,8.040016294E-1,-1.692097306E0,1.230720234E1
4.944001563E0,1.273705721E0,-1.908370256E0,1.099506474E1
4.964001563E0,1.224614978E0,-1.328963876E0,9.697685242E0
4.984001563E0,7.429686785E-1,-3.783221841E-1,8.551581383E0
5.004001563E0,2.446108013E-1,4.121474624E-1,7.795530319E0
5.024001563E0,-1.320833117E-1,9.261347055E-1,7.378355026E0
5.044001563E0,-5.570253730E-1,1.257358193E0,7.427101135E0
5.064001563E0,-8.827804327E-1,1.344143152E0,7.868821621E0
5.084001563E0,-9.134645462E-1,1.247273684E0,8.439665794E0
5.106001563E0,-7.690367699E-1,1.084362626E0,8.651725769E0
5.126001563E0,-6.780092120E-1,1.019135118E0,8.809963226E0
5.146001563E0,-8.133103251E-1,1.056992173E0,9.304480553E0
5.168001563E0,-8.624968529E-1,1.158793569E0,1.021924782E1
5.188001563E0,-7.695538998E-1,1.202004194E0,1.053864384E1
5.210001563E0,-8.204929233E-1,1.301689267E0,1.057419300E1
5.232000000E0,-8.723704815E-1,1.368889689E0,1.066270256E1
5.252000000E0,-6.932746172E-1,1.590678811E0,1.038872814E1
5.272000000E0,-4.784572721E-1,1.880664587E0,9.593029976E0
5.292000000E0,-3.761865497E-1,2.101726055E0,9.082537651E0
5.312001563E0,-4.253634512E-1,2.207118988E0,9.614213943E0
5.334009375E0,-9.045868516E-1,1.770416379E0,1.078448009E1
5.356000000E0,-1.485257387E0,1.011626840E0,1.203324795E1
5.376001563E0,-1.773615003E0,4.733528495E-1,1.327982330E1
5.396001563E0,-1.287869930E0,4.426399991E-2,1.251011562E1
5.416018750E0,-4.011150002E-1,1.025484502E-1,9.809561729E0
5.438000000E0,1.130254716E-1,4.243387580E-1,7.554577827E0
5.458001563E0,-5.492969155E-1,5.188905597E-1,7.853834152E0
5.478001563E0,-1.752239585E0,2.364034802E-1,1.018722248E1
5.500000000E0,-2.178781033E0,-1.182065308E-1,1.189945030E1
5.520000000E0,-1.462617755E0,-2.933663428E-1,1.151732635E1
5.540000000E0,-3.317214251E-1,-1.361821964E-2,1.018749142E1
5.560001563E0,5.240907669E-1,2.422740608E-1,9.089750290E0
5.580001563E0,1.085004330E0,6.056085229E-1,8.102869034E0
5.600001563E0,1.512417197E0,1.034036636E0,7.174732685E0
5.622000000E0,1.729619145E0,1.452590942E0,6.508599281E0
5.642000000E0,1.736093163E0,1.647756577E0,6.415158272E0
5.662001563E0,1.487488747E0,1.655111670E0,6.979193687E0
5.684001563E0,1.167575598E0,1.462139010E0,7.549252987E0
5.704001563E0,9.645376801E-1,1.269175887E0,7.405514717E0
5.724001563E0,2.513337135E-1,1.329806685E0,8.154392242E0
5.744004688E0,-3.292314708E-1,1.298318148E0,1.032999420E1
5.766001563E0,-2.587461472E-1,1.030205846E0,1.225397491E1
5.788000000E0,-1.692892164E-1,8.611369133E-1,1.246058369E1
5.808000000E0,-6.118429899E-1,8.221784830E-1,1.311273670E1
5.828001563E0,-9.633884430E-1,7.317159176E-1,1.408160210E1
5.850001563E0,-8.336993456E-1,8.484572172E-1,1.420066071E1
5.872000000E0,-5.578393936E-1,1.387621880E0,1.331243134E1
5.892001563E0,8.580818772E-2,1.572942615E0,1.169029331E1
5.914007813E0,5.628384948E-1,1.088902116E0,1.103045082E1
5.936001563E0,1.192331553E0,-1.639740914E-1,1.347364712E1
5.956001563E0,2.314522743E0,-1.447065115E0,1.253439236E1
5.976001563E0,3.198538542E0,-1.459763885E0,9.444627762E0
5.998000000E0,2.775444746E0,2.710714936E-1,7.808918476E0
6.018003125E0,1.716317058E0,1.202521324E0,8.159678459E0
6.040000000E0,9.879433513E-1,1.086680293E0,9.661800385E0
6.060000000E0,6.998730302E-1,5.351519585E-1,9.825448990E0
6.080001563E0,4.518624842E-1,2.301019430E-1,9.892419815E0
6.102000000E0,1.728996783E-1,2.623757720E-1,1.007966614E1
6.122000000E0,4.231703579E-1,2.341720760E-1,9.177874565E0
6.142000000E0,6.788136363E-1,2.353308648E-1,7.598860741E0
6.162001563E0,6.933416724E-1,7.816685438E-1,5.980055332E0
6.184000000E0,6.481199861E-1,8.763639927E-1,5.666854858E0
6.204001563E0,5.251442194E-1,4.121187031E-1,6.254966736E0
6.224004688E0,-3.514688089E-2,5.587396026E-1,6.549693108E0
6.246001563E0,-5.779985785E-1,1.087877274E0,7.066313744E0
6.268000000E0,-6.535021067E-1,1.278982520E0,7.573472500E0
6.288043750E0,-5.900749564E-1,1.352427125E0,8.403005600E0
6.310000000E0,-3.819134831E-1,1.406938195E0,9.156404495E0
6.330000000E0,-2.848621309E-1,1.879994273E0,9.336926460E0
6.350001563E0,1.318534762E-1,2.113649130E0,9.151567459E0
6.372000000E0,3.316927254E-1,1.759470105E0,1.039463806E1
6.392000000E0,7.625053078E-2,1.607534051E0,1.201501369E1
6.412001563E0,-2.703915834E-1,1.907412648E0,1.209324741E1
6.432001563E0,-4.784285426E-1,2.188367367E0,1.279205704E1
6.454007813E0,-5.272989869E-1,2.139334202E0,1.384896278E1
6.476006250E0,-5.693698525E-1,1.486827970E0,1.414413929E1
6.498001563E0,3.596282303E-1,-3.231022954E-1,1.373179054E1
6.518001563E0,1.493924379E0,-1.478122711E0,1.085078049E1
6.538001563E0,1.137628913E0,-1.637020946E0,9.824281693E0
6.558001563E0,2.917765677E-1,-1.949933648E0,1.122658443E1
6.580000000E0,-3.293655515E-1,-3.120047092E0,1.254284954E1
6.600000000E0,-4.557985663E-1,-3.612400055E0,1.443225765E1
6.620000000E0,1.486703455E-1,-3.397228479E0,1.410971928E1
6.640001563E0,5.234778523E-1,-2.299228430E0,1.097081661E1
6.662001563E0,2.479339391E-1,-6.311786175E-1,7.935657978E0
6.682001563E0,-1.466879398E-1,7.576403022E-1,6.667966843E0
6.704001563E0,-8.240842074E-2,1.475508213E0,6.397316456E0
6.724001563E0,4.497651756E-1,1.442190409E0,6.055711746E0
6.744001563E0,7.451521754E-1,1.661240816E0,5.449251175E0
6.764001563E0,6.374993324E-1,2.243299961E0,4.562065125E0
6.784003125E0,5.142074823E-1,2.809883118E0,4.112319469E0
6.806001563E0,9.035238624E-1,2.243941545E0,4.638545513E0
6.828001563E0,1.160680294E0,1.100068569E0,5.656655788E0
6.850000000E0,1.118973255E0,5.657402873E-1,7.040935516E0
6.870000000E0,1.286768436E0,1.518594176E-1,9.195266724E0
6.890000000E0,1.633755326E0,-2.045605928E-1,1.194860840E1
6.910000000E0,1.621133208E0,-1.472721398E-1,1.406984234E1
6.930001563E0,1.592632532E0,2.672982514E-1,1.440360355E1
6.952001563E0,1.776047587E0,9.000953436E-1,1.385642242E1
6.974001563E0,9.967731833E-1,4.790318757E-2,1.459294605E1
6.994001563E0,1.469570518E0,-1.822667480E0,1.745481300E1
7.014021875E0,3.010344744E0,-3.106045723E0,1.845378876E1
7.036001563E0,4.118687630E0,-2.567695141E0,1.240802765E1
7.056001563E0,3.577378035E0,-5.782092810E-1,8.191377640E0
7.076007813E0,2.540363073E0,4.880819619E-1,8.224360466E0
7.098001563E0,2.239516973E0,-2.109387517E-1,9.879415512E0
7.118001563E0,2.433380365E0,-1.057672143E0,9.766973495E0
7.140001563E0,2.244631052E0,-1.335083485E0,8.750472069E0
7.162001563E0,1.634090543E0,-1.132821321E0,7.938607693E0
7.184000000E0,1.022391200E0,-5.608848333E-1,7.131857395E0
7.204001563E0,6.527264118E-1,-1.560157686E-1,6.398063660E0
7.226001563E0,1.452035457E-1,1.651328802E-1,5.879335880E0
7.246001563E0,-3.414993584E-1,1.384806186E-1,6.614767551E0
7.266001563E0,-9.880870581E-1,-9.898588061E-2,7.882937908E0
7.286043750E0,-1.319109321E0,-5.513846278E-1,9.898577690E0
7.308000000E0,-1.082562208E0,-9.769300818E-1,1.221545601E1
7.328001563E0,-2.732071579E-1,-1.019537330E0,1.232761002E1
7.350001563E0,-3.711970150E-2,-6.585970521E-2,1.055537415E1
7.370001563E0,-3.428879976E-1,1.540630460E0,1.003969193E1
7.390001563E0,-2.303796709E-1,2.434242487E0,9.769463539E0
7.412000000E0,5.991728902E-1,2.239516973E0,1.046428871E1
7.432000000E0,1.327086806E0,1.430161953E0,1.128229237E1
7.452001563E0,1.584827423E0,7.575924397E-1,1.187381363E1
7.474001563E0,6.531286836E-1,3.028952479E-1,1.288175297E1
7.494015625E0,5.486648679E-1,-7.186435461E-1,1.354302216E1
7.516018750E0,1.429089427E0,-2.239928961E0,1.302046394E1
7.538001563E0,8.896470070E-1,-2.950345993E0,1.128869915E1
7.558001563E0,-9.609655142E-1,-3.025907040E0,1.157644463E1
7.578001563E0,-1.927648425E0,-2.497133255E0,1.303891754E1
7.600000000E0,-1.580335975E0,-1.711298704E0,1.257454872E1
7.620000000E0,-8.765459657E-1,-1.195942044E0,9.917721748E0
7.640001563E0,-5.152130723E-1,-2.583343387E-1,8.016994476E0
7.662001563E0,-2.524925172E-1,6.161525846E-1,6.966514111E0
7.684001563E0,5.915593728E-2,1.021079183E0,6.370625973E0
7.704001563E0,2.323333323E-1,1.264933348E0,5.726039886E0
7.726001563E0,3.592738807E-1,1.482776999E0,5.076071262E0
7.748001563E0,4.923245013E-1,1.509774089E0,4.627714157E0
7.768001563E0,3.166954219E-1,1.662169814E0,5.363193989E0
7.790001563E0,4.342698753E-1,1.736064315E0,7.062885284E0
7.812001563E0,8.318318725E-1,1.855745673E0,8.778110504E0
7.834003125E0,5.657306910E-1,1.909797192E0,9.625811577E0
7.854007813E0,6.134136319E-1,2.046879530E0,1.055986595E1
7.876001563E0,1.354399920E0,2.208200932E0,1.207361412E1
7.896001563E0,2.432815313E0,1.276559591E0,1.207396889E1
7.916018750E0,3.150108576E0,4.564689398E-1,1.123936939E1
7.938001563E0,2.545151472E0,1.412483156E-1,1.232398987E1
7.960000000E0,1.241230845E0,6.310158372E-1,1.319285583E1
7.980000000E0,1.096161306E-1,2.282823473E-1,1.305923080E1
8.000001563E0,1.879544109E-1,-1.046773672E0,1.429407310E1
8.022001563E0,1.250740647E0,-2.393100262E0,1.603288651E1
8.044001563E0,1.651903391E0,-2.225247622E0,1.397565460E1
8.064001563E0,9.480081201E-1,-7.379217148E-1,1.123448563E1
8.086001563E0,1.986517012E-1,5.500534773E-1,1.027820206E1
8.108001563E0,6.392518431E-2,1.020858884E0,1.021589565E1
8.130000000E0,5.214380026E-1,4.346433580E-1,1.014905930E1
8.150001563E0,1.026691198E0,-5.352573395E-1,1.023776913E1
8.172001563E0,1.071261644E0,-1.060516477E0,9.665257454E0
8.194001563E0,6.379877329E-1,-8.330194354E-1,8.023247719E0
8.214001563E0,2.913264632E-1,1.131978631E-2,5.945923328E0
8.234001563E0,-1.959223151E-1,8.980842233E-1,4.484473705E0
8.254010938E0,-5.988472700E-1,1.473439574E0,4.896879673E0
8.276000000E0,-9.603238702E-1,1.870762229E0,6.627016068E0
8.296001563E0,-1.308143973E0,2.202541113E0,7.386255741E0
8.316020313E0,-1.418325067E0,2.063323021E0,8.588097572E0
8.338001563E0,-1.027811646E0,1.676285982E0,9.480655670E0
8.360001563E0,-3.326024860E-2,1.431512356E0,8.920067787E0
8.380001563E0,4.665820301E-1,1.440256000E0,8.448055267E0
8.402000000E0,7.716799378E-1,1.599058628E0,8.760871887E0
8.422001563E0,6.351146698E-1,1.738180876E0,9.075020790E0
8.444001563E0,1.945049465E-1,1.791274667E0,9.663581848E0
8.466000000E0,-9.080728143E-2,1.830012798E0,1.113705063E1
8.486001563E0,3.109589219E-2,1.791734338E0,1.264793587E1
8.506001563E0,-1.252167523E-1,1.457379222E0,1.313117218E1
8.528000000E0,1.751023382E-1,1.978510857E0,1.227894115E1
8.548001563E0,-5.889832377E-1,1.300827265E0,9.346360207E0
8.568001563E0,-1.025685549E0,3.986920416E-1,1.017145061E1
8.590000000E0,-5.059331656E-1,-6.177040562E-2,1.182354450E1
8.610000000E0,-1.223820150E-1,-4.091307819E-1,1.120786095E1
8.630000000E0,-1.020504534E-1,-3.016981483E-1,1.136052513E1
8.650001563E0,-2.784265280E-1,3.521392047E-1,1.132767677E1
8.672001563E0,-1.860103160E-1,6.628108025E-1,1.071855354E1
8.694004688E0,-4.769249819E-3,8.467716575E-1,1.003732681E1
8.714012500E0,5.471229553E-2,1.540649652E0,9.322858810E0
8.736001563E0,4.378037155E-1,1.948152304E0,8.679986000E0
8.756001563E0,9.850894809E-1,1.632050633E0,7.484954357E0
8.778000000E0,1.554478526E0,1.407848001E0,6.473892689E0
8.798000000E0,1.903601050E0,1.344976306E0,6.026359081E0
8.818001563E0,1.751253128E0,1.265622973E0,6.014522076E0
8.838001563E0,1.404342890E0,1.240110278E0,6.305618763E0
8.860001563E0,9.748518467E-1,1.281012774E0,6.561022282E0
8.880001563E0,7.613082528E-1,1.499613047E0,6.972681522E0
8.902000000E0,4.647911787E-1,1.852422595E0,7.982919693E0
8.922000000E0,1.322269738E-1,2.225075245E0,8.892725945E0
8.942000000E0,-4.978407323E-1,2.166063070E0,9.811429024E0
8.962000000E0,-1.077975035E0,1.633918166E0,1.089002609E1
8.982000000E0,-4.599836171E-1,7.196778655E-1,1.222168159E1
9.002000000E0,1.495820522E0,4.991431907E-2,1.338556099E1
9.022001563E0,2.405617237E0,-5.474677086E-1,1.245307636E1
9.044001563E0,2.222633362E0,-7.439072132E-1,1.114079475E1
9.064001563E0,2.301143885E0,-3.821433187E-1,1.179881763E1
9.084001563E0,2.623278856E0,-2.723164856E-1,1.125107193E1
9.104001563E0,2.770187140E0,-3.281109929E-1,9.421815872E0
9.124001563E0,2.349851608E0,-6.913688183E-1,9.049757004E0
9.144001563E0,1.673135161E0,-1.294238448E0,1.037070465E1
9.164015625E0,8.132720590E-1,-1.584492326E0,1.139081669E1
9.186000000E0,-8.786720037E-2,-1.749538898E0,1.218184185E1
9.206001563E0,-4.168017805E-1,-1.586982131E0,1.232972622E1
9.226001563E0,-1.903965026E-1,-1.135742307E0,1.105067730E1
9.246001563E0,3.852749243E-2,-3.836947680E-1,9.108481407E0
9.266001563E0,1.699595898E-1,3.805727363E-1,7.438037395E0
9.286001563E0,2.576639950E-1,8.413608074E-1,6.299221039E0
9.306001563E0,1.739148051E-1,1.032992721E0,6.364956379E0
9.328001563E0,-3.039295375E-1,1.110564828E0,7.845281601E0
9.350000000E0,-3.091967702E-1,9.672000408E-1,9.592627525E0
9.370000000E0,2.048478834E-2,4.091403484E-1,9.820422173E0
9.390000000E0,2.572809160E-1,4.694550633E-1,9.346733093E0
9.410000000E0,3.364332318E-1,8.285470009E-1,8.953740120E0
9.430001563E0,3.492278457E-1,1.151955843E0,9.521117210E0
9.452001563E0,6.039612889E-1,1.809920788E0,9.451743126E0
9.474010938E0,9.063585997E-1,2.348692656E0,8.402460098E0
9.494015625E0,1.101687193E0,2.479099989E0,8.411510468E0
9.516018750E0,9.470887184E-1,1.874554515E0,1.083770847E1
9.538001563E0,4.972852767E-1,1.691944122E0,1.237356949E1
9.560001563E0,-1.404199362E0,6.618052125E-1,1.269055271E1
9.580001563E0,-2.909041166E0,-1.036181808E0,1.497611427E1
9.602001563E0,-1.650562644E0,-1.756156445E0,1.752154350E1
9.624001563E0,7.607144713E-1,-1.962632418E0,1.245751095E1
9.644001563E0,1.685872316E0,-1.248681545E0,8.629890442E0
9.664001563E0,4.287440479E-1,-4.835329950E-1,8.138188362E0
9.684001563E0,-9.436219335E-1,1.368334144E-1,1.006680393E1
9.704001563E0,-9.891596437E-1,-3.233129904E-2,1.158639431E1
9.724001563E0,-1.086584479E-1,-5.403425694E-1,1.133921719E1
9.744001563E0,6.725695729E-1,-7.036271095E-1,9.532714844E0
9.764001563E0,1.089697003E0,-3.966234326E-1,8.036875725E0
9.784001563E0,1.306496739E0,5.840894207E-2,6.996087551E0
9.806001563E0,1.413469553E0,7.194671631E-1,6.331590652E0
9.828001563E0,1.558874249E0,1.239171743E0,5.781269073E0
9.850001563E0,1.435544133E0,1.353624105E0,5.494673729E0
9.870001563E0,9.736069441E-1,1.158956409E0,5.692913532E0
9.892001563E0,4.130093753E-1,8.718150258E-1,6.774853706E0
9.914001563E0,1.717025787E-1,-2.853888553E-3,8.921149254E0
9.934001563E0,1.740680337E-1,-6.350572109E-1,1.080118275E1
9.954001563E0,-9.703220427E-2,-7.647941709E-1,1.219793034E1
9.974001563E0,-4.598782659E-1,-7.415130138E-1,1.278353310E1
9.994001563E0,-8.798116446E-1,-3.176147938E-1,1.266640949E1
1.001400156E1,-1.539174795E0,9.014648199E-2,1.306008339E1
1.003600156E1,-1.362224102E0,1.120965257E-1,1.403914833E1
1.005600156E1,-5.125506967E-2,6.082230210E-1,1.239373875E1
1.007600469E1,7.256250381E-1,5.481764078E-1,9.235786438E0
1.009800000E1,2.196852446E0,2.611595206E-2,8.732093811E0
1.011800156E1,3.687875032E0,-5.728175640E-1,9.953624725E0
1.014000156E1,3.799626827E0,-8.661360145E-1,9.501993179E0
1.016200156E1,2.459208965E0,-6.914454103E-1,1.003860092E1
1.018400000E1,1.391969681E0,-1.008083463E0,1.203164005E1
1.020400000E1,7.235277891E-1,-1.513901591E0,1.483292198E1
1.022400000E1,4.506270885E-1,-1.895661831E0,1.531783390E1
1.024400000E1,5.848843455E-1,-1.856914043E0,1.297351837E1
1.026400156E1,4.729889333E-1,-1.150241613E0,1.047208500E1
1.028400781E1,2.155164629E-1,-3.801321983E-1,8.208836555E0
1.030600156E1,-6.064033881E-2,4.311765730E-1,5.963793278E0
1.032800156E1,-4.830062687E-1,9.899927974E-1,4.815630436E0
1.035000156E1,-8.201003075E-1,1.271895766E0,5.297975540E0
1.037200000E1,-1.015591621E0,1.159320354E0,6.106516838E0
1.039200156E1,-1.112710118E0,1.067833185E0,6.572629452E0
1.041400312E1,-1.262567878E0,9.195554256E-1,7.678281307E0
1.043600156E1,-1.072784305E0,6.637780666E-1,8.639429092E0
1.045800000E1,-4.829583764E-1,5.346730947E-1,8.913766861E0
1.047800156E1,-1.209071875E-1,5.472666025E-1,8.669826508E0
1.050000156E1,-4.239652306E-2,3.643113077E-1,9.359049797E0
1.052200156E1,-8.418013155E-2,2.857336104E-1,1.103846645E1
1.054400000E1,5.261210203E-1,7.530626059E-1,1.188296890E1
1.056400156E1,-3.569754660E-1,-1.369483303E-3,1.155872631E1
1.058600156E1,-1.051849365E0,-1.174030304E0,1.484134007E1
1.060800156E1,8.407478034E-2,-1.143978238E0,1.572093201E1
1.063000000E1,2.303586006E0,-1.258382797E0,1.143772316E1
1.065000156E1,2.313775539E0,-1.720923424E0,1.001775169E1
1.067200156E1,1.305309176E0,-1.208209991E0,1.230438709E1
1.069401406E1,8.865537047E-1,-4.943068922E-1,1.282761478E1
1.071602031E1,9.827144742E-1,-1.035923138E-1,1.128512669E1
1.073800000E1,1.040261507E0,1.348318607E-1,9.497138023E0
1.075800156E1,1.009519935E0,2.109483182E-1,8.821072578E0
1.078000156E1,8.431995511E-1,3.535661399E-1,8.527457237E0
1.080200000E1,6.820409894E-1,7.102830410E-1,8.018545151E0
1.082200156E1,6.821750998E-1,8.393783569E-1,7.235449791E0
1.084400156E1,6.119866967E-1,7.003710270E-1,6.825696945E0
1.086400156E1,4.516326189E-1,4.552622437E-1,6.873753071E0
1.088400156E1,1.116655618E-1,8.771397173E-2,7.120978355E0
1.090400313E1,-1.757918745E-1,-3.866731524E-1,7.601638317E0
1.092600000E1,-3.561135530E-1,-6.203663945E-1,7.615371704E0
1.094600156E1,-2.376676202E-1,-5.469985008E-1,6.804225445E0
1.096800156E1,1.412004381E-1,-7.444530725E-1,6.267885685E0
1.099000156E1,8.842648864E-1,-1.368937492E0,7.377665520E0
1.101000156E1,1.947501063E0,-1.832234621E0,9.722431183E0
1.103200156E1,3.911292553E0,-1.415825605E0,1.128268528E1
1.105400938E1,4.856235981E0,-3.026941121E-1,8.698785782E0
1.107600156E1,2.904444218E0,-1.106523395E0,9.543144226E0
1.109600156E1,7.795425057E-1,-3.032237291E0,1.710963440E1
1.111602031E1,1.356947422E0,-4.691620350E0,2.352699661E1
1.113800000E1,3.380909681E0,-6.286943913E0,2.061234283E1
1.115800000E1,4.386177540E0,-5.965134144E0,1.282931995E1
1.117800156E1,3.754098654E0,-4.466517448E0,8.560917854E0
1.120000000E1,2.158430099E0,-3.373775005E0,8.994575500E0
1.122000000E1,1.337046742E0,-3.525318384E0,1.002372742E1
1.124000000E1,9.483145475E-1,-4.402304649E0,1.045022106E1
1.126000000E1,6.303358674E-1,-5.368968964E0,1.111634541E1
1.128000156E1,-1.137724705E-2,-5.043136597E0,1.261041451E1
1.130200000E1,4.197514430E-2,-4.350638390E0,1.310428047E1
1.132200000E1,1.114500880E0,-4.321821213E0,1.244133472E1
1.134200000E1,1.982130885E0,-4.787570477E0,1.065246391E1
1.136200000E1,1.905564308E0,-5.026836872E0,8.723196983E0
1.138200156E1,1.011598110E0,-5.111975193E0,8.051863670E0
1.140400781E1,-1.567435861E-1,-4.823071480E0,8.411702156E0
1.142600156E1,-1.043958187E0,-4.394556999E0,8.419670105E0
1.144600156E1,-1.240646601E0,-4.006007195E0,7.926157951E0
1.146800625E1,-8.611656427E-1,-3.432193279E0,7.052159309E0
1.149000156E1,-2.962489426E-1,-2.581677198E0,6.378632545E0
1.151000156E1,2.723931372E-1,-1.712716222E0,6.112914085E0
1.153200156E1,9.629766345E-1,-1.181404471E0,6.149545193E0
1.155400156E1,1.416314006E0,-1.307626843E0,7.408837795E0
1.157400781E1,6.089699864E-1,-1.427279472E0,9.541018486E0
1.159600156E1,-6.223871112E-1,-1.139036655E0,1.232854843E1
1.161601875E1,-7.750414014E-1,-1.030857086E0,1.471242714E1
1.163800156E1,1.101332754E-1,-1.064174771E0,1.521715355E1
1.165800156E1,9.966869950E-1,-9.783187509E-1,1.392181301E1
1.167800156E1,1.254628778E0,-5.178658366E-1,1.308788490E1
1.169800156E1,1.251468420E0,1.371015608E-1,1.274432659E1
1.172000000E1,9.488700032E-1,1.163093686E0,1.138810635E1
1.174000156E1,4.681909084E-1,1.812554359E0,9.723733902E0
1.176000156E1,1.835586578E-1,1.813531160E0,8.947514534E0
1.178000156E1,-2.362789810E-1,1.410002828E0,9.459202766E0
1.180200000E1,-1.094169259E0,1.953668660E-3,1.109798622E1
1.182200156E1,-1.927131176E0,-1.893564582E0,1.294472027E1
1.184400156E1,-2.090339184E0,-3.610810518E0,1.461981964E1
1.186600156E1,-1.925579786E0,-4.501032352E0,1.401292801E1
1.188800000E1,-2.347830772E0,-3.586878061E0,1.063951683E1
1.190800156E1,-2.727417231E0,-2.174050093E0,8.395200729E0
1.193000000E1,-2.764249563E0,-1.377537489E0,8.452125549E0
1.195000000E1,-2.371112108E0,-1.393157244E0,8.916514397E0
1.197000000E1,-1.834896922E0,-1.573680043E0,8.812433243E0
1.199000156E1,-1.622694135E0,-1.337420225E0,8.866332054E0
1.201200000E1,-1.530613184E0,-8.774845004E-1,9.204326630E0
1.203200156E1,-1.235408068E0,-7.020565867E-1,9.274199486E0
1.205401719E1,-1.096793294E0,-3.590536416E-1,8.669854164E0
1.207600156E1,-1.082820773E0,1.211083010E-1,8.132700920E0
1.209600156E1,-1.145587206E0,2.977524996E-1,8.013977051E0
1.211602031E1,-1.275918007E0,4.899207056E-1,8.067961693E0
1.213800000E1,-1.475575209E0,7.766311765E-1,8.198349953E0
1.215800000E1,-1.521448135E0,9.680044651E-1,8.105311394E0
1.217800156E1,-1.605245233E0,7.922509313E-1,7.948289871E0
1.220000000E1,-1.482077837E0,3.975236714E-1,8.328862190E0
1.222000156E1,-1.138059855E0,-5.007616282E-1,9.695654869E0
1.224201406E1,-6.334195733E-1,-2.145894289E0,1.136327362E1
1.226400156E1,-2.669056058E-1,-2.993527889E0,1.212302113E1
1.228400156E1,-6.910336018E-1,-2.628727913E0,1.197225380E1
1.230600156E1,-1.415739417E0,-2.388034105E0,1.245193672E1
1.232800156E1,-1.509189844E0,-2.484702587E0,1.337240124E1
1.235000156E1,-9.501341581E-1,-2.862076759E0,1.396440125E1
1.237200000E1,-3.344029486E-1,-3.395361185E0,1.338383675E1
1.239200156E1,-2.138692439E-1,-3.362570047E0,1.247011375E1
1.241400312E1,-3.769622743E-1,-2.619084120E0,1.137261105E1
1.243600156E1,-4.160643518E-1,-1.726449251E0,1.008822727E1
1.245600156E1,-4.871147275E-1,-9.883264899E-1,8.688845634E0
1.247600156E1,-6.799054146E-1,-1.896782368E-1,7.356634617E0
1.249600156E1,-9.097583890E-1,2.745000124E-1,6.485106945E0
1.251602188E1,-1.109837055E0,-1.364790797E-1,6.536084652E0
1.253800156E1,-1.193681836E0,-1.116339564E0,7.367447376E0
1.255800156E1,-1.210805297E0,-1.832914710E0,7.867337227E0
1.257800156E1,-1.262979746E0,-2.524436712E0,7.911122322E0
1.260000000E1,-1.178742051E0,-2.929324865E0,7.911294937E0
1.262000000E1,-1.034601569E0,-2.833537579E0,8.262026787E0
1.264000156E1,-8.097668886E-1,-2.803361177E0,7.519459248E0
1.266200156E1,-5.034431219E-1,-2.340150118E0,7.319409847E0
1.268200156E1,-4.778443575E-1,-1.660819411E0,8.231399536E0
1.270400156E1,-3.621661067E-1,-1.530124784E0,9.422352791E0
1.272400156E1,-1.409993321E-1,-1.442631006E0,9.734968185E0
1.274400156E1,-5.789849758E-1,-1.920609474E0,9.953787804E0
1.276400156E1,-1.137504339E0,-2.768290997E0,1.124718380E1
1.278400156E1,-6.292920113E-1,-3.387172937E0,1.351496220E1
1.280600156E1,4.889917672E-1,-3.758599758E0,1.491119289E1
1.282600156E1,7.202237844E-1,-2.908016682E0,1.335231972E1
1.284800156E1,2.901006043E-1,-8.961305618E-1,1.046531487E1
1.286800156E1,-6.610869616E-2,1.224682108E-1,8.909322739E0
1.289000000E1,-3.032304347E-1,6.033962965E-1,7.904073715E0
1.291000156E1,-3.579331636E-1,6.204429865E-1,7.500593185E0
1.293200000E1,-3.585748076E-1,3.080858886E-1,7.479840279E0
1.295200000E1,-3.243472874E-1,-1.463336051E-1,8.044249535E0
1.297200000E1,-3.407523632E-1,-6.786125302E-1,8.906602859E0
1.299200000E1,-2.957701087E-1,-1.118724227E0,9.608631134E0
1.301200000E1,-8.739794046E-2,-1.528123140E0,1.039163971E1
1.303200156E1,1.668088287E-1,-1.674590826E0,1.111506271E1
1.305400156E1,4.560379684E-1,-1.380027413E0,1.117388248E1
1.307401094E1,7.058298588E-1,-8.329044580E-1,1.040316105E1
1.309600156E1,8.842073679E-1,-2.556432784E-1,9.520533562E0
1.311602031E1,8.018947840E-1,1.275151819E-1,9.410026550E0
1.313800000E1,7.519804835E-1,2.427433133E-1,1.004283333E1
1.315800000E1,6.629161239E-1,8.509950340E-2,1.051719093E1
1.317800156E1,4.988271594E-1,1.973684132E-1,1.060391903E1
1.319800156E1,3.599059880E-1,2.050681561E-1,1.064173794E1
1.322000156E1,-3.524265066E-2,2.009022534E-1,1.073967934E1
1.324201406E1,-1.333091501E-2,-2.543216944E-1,1.118436909E1
1.326400156E1,4.449480176E-1,-1.765618443E0,1.280855751E1
1.328400156E1,9.469354749E-1,-3.048718929E0,1.460594273E1
1.330600156E1,1.612609744E0,-3.278006792E0,1.483499146E1
1.332800156E1,1.912449956E0,-1.743189573E0,1.187458038E1
1.335000156E1,2.292141676E0,-3.258412778E-1,8.491496086E0
1.337200000E1,2.529886007E0,1.808101237E-1,6.515341282E0
1.339200156E1,2.485334396E0,-1.150078699E-1,7.057196617E0
1.341401250E1,2.404257298E0,-6.207494736E-1,9.095285416E0
1.343600156E1,2.385142088E0,-1.038939953E0,1.000100231E1
1.345600156E1,2.343578577E0,-1.132543564E0,1.006417084E1
1.347800156E1,2.058410168E0,-7.876253128E-1,9.998147964E0
1.350000156E1,1.738506436E0,-4.395658672E-1,9.869281769E0
1.352200156E1,1.487555742E0,-3.101736009E-1,9.585694313E0
1.354200156E1,1.360816360E0,-2.457791716E-1,9.410811424E0
1.356400156E1,1.209780574E0,-1.859720200E-1,9.190890312E0
1.358600156E1,8.027184010E-1,-1.063312814E-1,9.193878174E0
1.360800156E1,3.288579583E-1,7.672937959E-2,9.247268677E0
1.363000000E1,-7.363606989E-2,1.570308954E-1,9.195859909E0
1.365000156E1,-4.306785762E-1,2.297284454E-1,9.158645630E0
1.367200156E1,-7.738730311E-1,3.027037084E-1,8.962800026E0
1.369400156E1,-1.112154484E0,2.302072793E-1,8.877565384E0
1.371601875E1,-1.280275345E0,-2.601826787E-1,8.758880615E0
1.373800000E1,-1.258957386E0,-8.722459674E-1,9.051787376E0
1.375800156E1,-1.134037614E0,-1.070792317E0,9.851086617E0
1.378000156E1,-9.744113684E-1,-4.613147974E-1,1.007091236E1
1.380200000E1,-1.258689284E0,4.883500934E-1,9.223834038E0
1.382200156E1,-2.459582567E0,1.014624357E0,9.745483398E0
1.384400156E1,-2.921912670E0,5.052914619E-1,1.223898602E1
1.386400156E1,-1.663529634E0,-1.284901023E0,1.440059662E1
1.388400156E1,-1.902528405E-1,-2.724515438E0,1.453820610E1
1.390400156E1,-1.362492442E-1,-2.996716976E0,1.230760479E1
1.392400625E1,-9.830879569E-1,-1.660283089E0,1.071403313E1
1.394600156E1,-1.728268862E0,-2.946591675E-1,1.048662281E1
1.396800156E1,-1.540544271E0,1.375038028E-1,9.825966835E0
1.399000156E1,-8.392347693E-1,-1.124795973E-1,8.680724144E0
1.401000156E1,-2.240206599E-1,-1.796608865E-1,8.151510239E0
1.403200156E1,2.565722466E-1,-1.181011796E-1,8.151078224E0
1.405400938E1,5.569774508E-1,2.390754074E-1,7.862788200E0
1.407600000E1,4.473135173E-1,6.736134887E-1,7.222348690E0
1.409600156E1,8.535807580E-2,1.113447428E0,7.033043861E0
1.411601875E1,-3.092925549E-1,1.557993293E0,7.678032398E0
1.413800000E1,-1.419187039E-1,1.556920648E0,8.275874138E0
1.415800000E1,6.160184741E-1,7.129454017E-1,8.360983849E0
1.417800156E1,1.419368982E0,4.548983276E-2,8.458292961E0
1.420000000E1,1.858350635E0,-2.084583640E-1,9.159104347E0
1.422000156E1,1.856406450E0,-9.283756465E-2,9.912004471E0
1.424201406E1,1.697096348E0,2.298433632E-1,9.962167740E0
1.426400156E1,1.756903529E0,4.806886613E-1,9.638826370E0
1.428400156E1,1.758675218E0,3.547345102E-1,9.892869949E0
1.430600156E1,1.501777291E0,-9.142976999E-2,1.092964554E1
1.432800156E1,1.260202408E0,-8.073440194E-1,1.214748001E1
1.435000156E1,1.495839715E0,-8.178114295E-1,1.292998219E1
1.437000156E1,1.411468148E0,-5.975544453E-1,1.217811584E1
1.439200156E1,6.569689512E-1,-4.300560951E-1,1.154319382E1
1.441401094E1,8.356721997E-1,-8.696027994E-1,1.312125015E1
1.443600156E1,1.685747862E0,-1.938929915E0,1.317550278E1
1.445800000E1,1.751387358E0,-2.590794325E0,1.122244740E1
1.447800156E1,7.350677848E-1,-2.683823586E0,1.119916630E1
1.450000156E1,-5.332557559E-1,-2.590056896E0,1.278399277E1
1.452200156E1,-9.566847086E-1,-2.888010502E0,1.312208271E1
1.454400156E1,-9.151884317E-1,-2.996515751E0,1.160087395E1
1.456400625E1,-1.000172973E0,-2.409466982E0,9.624738693E0
1.458600156E1,-1.240962625E0,-1.426427126E0,7.997428894E0
1.460800156E1,-1.507571340E0,-4.478881061E-1,6.738222122E0
1.463000000E1,-1.628679633E0,1.802546531E-1,6.286119938E0
1.465000156E1,-1.814929485E0,1.925895810E-1,6.471652031E0
1.467200156E1,-2.081969023E0,2.395063639E-1,7.003604889E0
1.469400469E1,-2.160393476E0,2.743563652E-1,7.686009884E0
1.471602188E1,-2.191470146E0,1.635335535E-1,8.099928856E0
1.473800000E1,-2.045902729E0,-1.417367486E-3,8.440719604E0
1.475800156E1,-1.818166375E0,-3.772974610E-1,8.999546051E0
1.477800156E1,-1.825348973E0,-6.825965047E-1,9.661025047E0
1.480000000E1,-1.914748430E0,-7.851832509E-1,1.026731300E1
1.482000000E1,-1.941889167E0,-6.487711668E-1,1.061630154E1
1.484000000E1,-1.567838192E0,-2.953774333E-1,1.028298187E1
1.486000156E1,-8.357966542E-1,2.184373885E-1,9.534467697E0
1.488000156E1,-1.467071027E-1,7.436965108E-1,8.821828842E0
1.490201875E1,-1.095969751E-1,9.487072229E-1,8.277319908E0
1.492400156E1,-6.297038198E-1,9.377034903E-1,1.012000275E1
1.494400156E1,-5.499098301E-1,6.774249673E-1,1.202799988E1
1.496400156E1,-3.265690990E-3,-3.393541574E-1,1.226440334E1
1.498400156E1,-1.877054200E-2,-1.710647583E0,1.203911877E1
1.500600156E1,-6.812748909E-1,-2.185906172E0,1.354437160E1
1.502600156E1,-1.459620237E0,-1.947750092E0,1.484274769E1
1.504800156E1,-1.833776474E0,-1.497659326E0,1.421450996E1
1.507000156E1,-1.453184724E0,-8.668733835E-1,1.131198978E1
1.509200156E1,-1.136920214E0,-3.348721862E-1,8.867490768E0
1.511400156E1,-1.031977534E0,2.374473363E-1,7.529649258E0
1.513600156E1,-9.413905144E-1,4.380144179E-1,6.972767353E0
1.515600156E1,-7.762097716E-1,3.679983914E-1,6.761082172E0
1.517600156E1,-4.241376221E-1,-2.537853783E-3,7.154525757E0
1.519600156E1,-1.591186523E-1,-4.141681492E-1,7.401233673E0
1.521601875E1,1.436233670E-1,-8.176102638E-1,7.763764381E0
1.523800000E1,6.266966462E-1,-1.180571318E0,8.301328659E0
1.525800156E1,1.087973118E0,-1.064806938E0,8.359106064E0
1.527800156E1,1.210173249E0,-7.422983050E-1,7.805547714E0
1.529800156E1,7.121505141E-1,-7.237958908E-1,7.769788265E0
1.532000000E1,7.239682674E-1,-8.453447223E-1,9.154862404E0
1.534000000E1,1.475843430E0,-1.209818840E0,1.121970844E1
1.536000000E1,1.981259346E0,-1.265373945E0,1.119886875E1
1.538000156E1,1.840422869E0,-3.397276402E-1,9.793012619E0
1.540200000E1,1.129440665E0,7.920019031E-1,9.961995125E0
1.542200000E1,7.875774503E-1,1.609669685E0,1.012927341E1
1.544200000E1,7.023151517E-1,1.824831843E0,1.010062981E1
1.546200156E1,9.070768356E-1,1.425967455E0,1.070648766E1
1.548400156E1,1.268630028E0,3.784945607E-1,1.180608559E1
1.550400156E1,1.595486403E0,-3.112079203E-1,1.287246418E1
1.552400156E1,1.713357806E0,-6.837840080E-1,1.333481216E1
1.554400156E1,1.656366229E0,-7.233170867E-1,1.282823849E1
1.556401094E1,1.584214449E0,-3.514688015E-1,1.226671219E1
1.558600156E1,1.507676601E0,-2.242121994E-1,1.174168301E1
1.560600156E1,1.720195532E0,-2.469858378E-1,1.086999226E1
1.562600156E1,1.849262238E0,-3.043605089E-1,1.001696682E1
1.564800000E1,1.931546092E0,-3.428592384E-1,9.470571518E0
1.566800000E1,1.852278948E0,-2.981068492E-1,9.150399208E0
1.568800156E1,1.661250353E0,-3.300646245E-1,9.085689545E0
1.571000000E1,1.372681975E0,-3.908965290E-1,9.156739235E0
1.573000000E1,1.149456143E0,-5.524381399E-1,9.176965714E0
1.575000000E1,9.135124683E-1,-7.234511375E-1,9.312822342E0
1.577000000E1,6.542969942E-1,-7.794850469E-1,9.616147995E0
1.579000156E1,3.983568549E-1,-7.496628165E-1,9.697263718E0
1.581200156E1,1.629972607E-1,-5.707777143E-1,9.170271873E0
1.583400156E1,-1.674408913E-1,-2.034305334E-1,8.908077240E0
1.585400781E1,-5.135467052E-1,5.555505678E-2,8.934069633E0
1.587600156E1,-7.777612209E-1,2.861837149E-1,8.933800697E0
1.589600156E1,-1.012594104E0,4.417014718E-1,8.904237747E0
1.591602031E1,-1.167824626E0,4.358500540E-1,9.008059502E0
1.593800156E1,-1.255758762E0,4.954944253E-1,9.239828110E0
1.595800156E1,-1.530268431E0,6.488669515E-1,9.343649864E0
1.598000000E1,-1.960688353E0,8.020479679E-1,9.806363106E0
1.600000156E1,-2.128521919E0,7.652251720E-1,1.049336433E1
1.602200000E1,-2.268065691E0,5.606262684E-1,1.091652584E1
1.604200000E1,-2.170429945E0,4.581065774E-1,1.076684952E1
1.606200000E1,-2.087427616E0,2.704681754E-1,1.057751560E1
1.608200000E1,-2.084190845E0,1.618288904E-1,1.060302830E1
1.610200156E1,-2.141843319E0,1.494077593E-1,1.081270313E1
1.612400156E1,-2.128780603E0,1.419091225E-1,1.087590981E1
1.614600000E1,-1.998756170E0,2.383092642E-1,1.016826057E1
1.616600156E1,-1.851589322E0,3.810994625E-1,9.374133110E0
1.618800156E1,-1.751741529E0,5.643708110E-1,8.903510094E0
1.621000156E1,-1.578468561E0,6.464440227E-1,8.473875046E0
1.623200000E1,-1.384585977E0,4.347104132E-1,8.333219528E0
1.625200000E1,-1.270305872E0,1.361151636E-1,8.728340149E0
1.627200000E1,-1.148134589E0,-2.140224725E-1,9.170568466E0
1.629200000E1,-1.110354185E0,-5.077143908E-1,9.554406166E0
1.631200000E1,-1.020973802E0,-6.499969959E-1,9.802800179E0
1.633200000E1,-9.597876072E-1,-7.582436800E-1,9.978343010E0
1.635200000E1,-9.022693038E-1,-7.408139110E-1,1.009525681E1
1.637200000E1,-8.789593577E-1,-7.468089461E-1,1.011463070E1
1.639200156E1,-8.427972794E-1,-6.785838008E-1,1.007039547E1
1.641400156E1,-8.737016320E-1,-5.718024373E-1,9.902475357E0
1.643400156E1,-8.404510021E-1,-5.607316494E-1,9.805979729E0
1.645600156E1,-7.508025169E-1,-5.584331751E-1,9.707328796E0
1.647800156E1,-6.739581823E-1,-5.307562351E-1,9.496093750E0
1.650000000E1,-6.436380744E-1,-5.657498837E-1,9.485223770E0
1.652000000E1,-6.353062391E-1,-6.438391805E-1,9.778599739E0
1.654000000E1,-5.689868331E-1,-7.327693701E-1,1.019960594E1
1.656000000E1,-4.572255015E-1,-7.652730942E-1,1.028726292E1
1.658000156E1,-3.860506713E-1,-7.064235806E-1,1.019322777E1
1.660200000E1,-3.805727363E-1,-6.619967818E-1,1.036275578E1
1.662200000E1,-3.202867210E-1,-5.625416040E-1,1.054587364E1
1.664200156E1,-2.374760807E-1,-5.415396690E-1,1.052343559E1
1.666200156E1,-1.898314655E-1,-4.385315478E-1,1.045919418E1
1.668200156E1,-1.407694817E-1,-3.572340310E-1,1.053488922E1
1.670400156E1,-9.323979169E-2,-3.891056478E-1,1.067473030E1
1.672400938E1,-8.794381469E-2,-4.058650732E-1,1.057810020E1
1.674600156E1,-1.380592436E-1,-4.911944270E-1,1.052454662E1
1.676600156E1,-1.784637868E-1,-5.514229536E-1,1.043805885E1
1.678600156E1,-2.897271514E-1,-5.568625927E-1,1.029206944E1
1.680600156E1,-4.391348958E-1,-4.470740557E-1,1.006071281E1
1.682800156E1,-6.002551317E-1,-4.030782282E-1,9.864876747E0
1.685000156E1,-6.919530034E-1,-3.787531555E-1,9.830880165E0
1.687000156E1,-7.759894729E-1,-2.590239048E-1,9.764052391E0
1.689200156E1,-6.676566601E-1,-1.714631468E-1,9.555708885E0
1.691400156E1,-5.499098301E-1,-4.320097715E-2,9.310915947E0
1.693600156E1,-5.149544477E-1,2.097224891E-1,9.191617966E0
1.695600156E1,-4.660170078E-1,4.132392406E-1,9.002993584E0
1.697600156E1,-3.955604136E-1,6.494607329E-1,8.886989594E0
1.699800000E1,-3.068121672E-1,8.769003153E-1,9.154105186E0
1.701800156E1,-1.277641803E-1,9.949536324E-1,9.341744423E0
1.703800156E1,4.252102226E-2,1.155949354E0,9.355832100E0
1.706000000E1,3.555102348E-1,1.114194512E0,9.336908340E0
1.708000156E1,6.821367741E-1,8.746210337E-1,9.557605743E0
1.710200156E1,9.803968668E-1,5.665447116E-1,9.860136986E0
1.712400156E1,1.252579331E0,2.375143915E-1,1.027087593E1
1.714600156E1,1.559391499E0,-9.142976999E-2,1.059465790E1
1.716600156E1,1.712524533E0,-2.052405328E-1,1.060526943E1
1.718800156E1,1.706366658E0,-3.912125528E-2,1.026749611E1
1.721000156E1,1.587872982E0,2.856378555E-1,1.000134659E1
1.723200000E1,1.538466215E0,3.314341307E-1,9.742638588E0
1.725200156E1,1.362367749E0,-6.036261469E-2,9.742170334E0
1.727401094E1,9.156002402E-1,-3.287430406E-1,1.011635494E1
1.729600313E1,4.283418357E-1,-4.381772280E-1,1.020698929E1
1.731601875E1,1.616564989E-1,-4.059320986E-1,9.905674934E0
1.733800156E1,3.130657971E-2,-2.845843732E-1,9.322408676E0
1.736000156E1,-2.972640842E-2,-2.562466264E-1,8.658199310E0
1.738000156E1,-1.633611768E-1,-3.084593713E-1,8.644475937E0
1.740200000E1,-2.043786347E-1,-4.748276770E-1,9.155637741E0
1.742200000E1,-2.594644129E-1,-6.725025177E-1,9.530589104E0
1.744200000E1,-3.303710818E-1,-8.367543221E-1,9.823993683E0
1.746200000E1,-3.827945590E-1,-8.902121186E-1,1.007033825E1
1.748200156E1,-5.427176356E-1,-7.465312481E-1,1.011777115E1
1.750200156E1,-7.464833260E-1,-4.891928732E-1,1.018176365E1
1.752200156E1,-9.433633685E-1,-3.501855135E-1,1.033139229E1
1.754400156E1,-1.032169104E0,-4.114291966E-1,1.058326149E1
1.756400156E1,-1.081231117E0,-5.208442211E-1,1.069763756E1
1.758400156E1,-1.047865510E0,-5.094478130E-1,1.061684799E1
1.760400156E1,-1.008054733E0,-4.904378653E-1,1.044276047E1
1.762400156E1,-9.589352608E-1,-4.458673894E-1,1.028169823E1
1.764400156E1,-8.798020482E-1,-3.758322001E-1,1.012211037E1
1.766400156E1,-7.907282114E-1,-3.256784678E-1,9.922988892E0
1.768400156E1,-6.604070663E-1,-3.491224945E-1,9.789422035E0
1.770400156E1,-4.913668036E-1,-4.169262648E-1,9.702301979E0
1.772400156E1,-4.544194937E-1,-3.866635859E-1,9.701535225E0
1.774400156E1,-4.028292298E-1,-3.454162478E-1,9.720343590E0
1.776600156E1,-3.665905893E-1,-3.544472158E-1,9.686997414E0
1.778800000E1,-3.149620295E-1,-2.151812762E-1,9.591134071E0
1.780800000E1,-2.811846435E-1,3.471592441E-2,9.398506165E0
1.782800156E1,-2.669726610E-1,2.493704706E-1,9.299501419E0
1.785000156E1,-2.335112691E-1,3.248931468E-1,9.379035950E0
1.787000156E1,-1.305222958E-1,2.902921736E-1,9.474938393E0
1.789200156E1,-8.654560149E-2,1.816624403E-1,9.533529282E0
1.791400156E1,-1.494843811E-1,1.864029765E-1,9.643652916E0
1.793600156E1,-2.170200199E-1,2.647221088E-1,9.811103821E0
1.795600156E1,-1.806377321E-1,1.695669442E-1,1.011956215E1
1.797600156E1,-1.944187582E-1,6.420291215E-2,1.045827579E1
1.799800000E1,-2.981355488E-1,1.488810480E-1,1.044541359E1
1.801800156E1,-4.138521552E-1,2.774879634E-1,1.039660072E1
1.803800156E1,-4.784189463E-1,4.575510919E-1,1.025620461E1
1.806000000E1,-4.762737453E-1,6.843011379E-1,9.799696922E0
1.808000156E1,-4.116111398E-1,8.262006640E-1,9.442194939E0
1.810200000E1,-2.662447989E-1,7.800213695E-1,9.073057175E0
1.812200000E1,-2.748830914E-1,7.158088088E-1,9.044441223E0
1.814200000E1,-3.543609977E-1,6.578596234E-1,9.341648102E0
1.816200000E1,-5.056266785E-1,7.192660570E-1,9.513551712E0
1.818200000E1,-7.285746932E-1,1.142264009E0,9.247612953E0
1.820200000E1,-6.416364908E-1,1.075054049E0,9.153252602E0
1.822200000E1,-5.298560262E-1,8.454117775E-1,9.157745361E0
1.824201406E1,-4.599740207E-1,6.116227508E-1,9.640176773E0
1.826404375E1,-3.430891037E-1,1.232822314E-1,1.017026234E1
1.828600000E1,-1.546845883E-1,-5.274904892E-2,1.018074894E1
1.830600000E1,1.443224773E-2,-2.503664494E-1,1.036288071E1
1.832600000E1,1.097693592E-1,-2.673365474E-1,1.044679260E1
1.834600000E1,6.353253871E-2,-2.194716781E-1,1.041264153E1
1.836600156E1,3.175669163E-2,7.240065839E-3,1.042381859E1
1.838600156E1,3.675578162E-2,2.082380801E-1,1.026431656E1
1.840800156E1,9.314402193E-2,4.065162838E-1,9.922596931E0
1.843000156E1,2.266447097E-1,4.648869336E-1,9.704810143E0
1.845200156E1,3.510665894E-1,3.181319535E-1,9.720803261E0
1.847400781E1,3.955987096E-1,1.851292551E-1,9.627410889E0
1.849600156E1,3.013821244E-1,2.461047769E-1,9.510458946E0
1.851601875E1,2.004712969E-1,2.463154793E-1,9.480387688E0
1.853800156E1,1.477126628E-1,-3.305913508E-2,9.881837845E0
1.856000000E1,1.461803764E-1,-3.923809230E-1,1.031334019E1
1.858000156E1,4.434061423E-2,-5.470463634E-1,1.038380527E1
1.860200156E1,-2.460856289E-1,-5.915210843E-1,1.042994690E1
1.862400156E1,-5.477071404E-1,-5.855642557E-1,1.038384438E1
1.864400156E1,-7.637024522E-1,-6.116802096E-1,1.028028965E1
1.866400156E1,-8.611560464E-1,-5.753554106E-1,1.008930969E1
1.868600000E1,-9.599791169E-1,-5.361575484E-1,9.659206390E0
1.870600000E1,-1.092876434E0,-3.941717744E-1,9.517296791E0
1.872600156E1,-1.410472035E0,-3.467474282E-1,9.724768639E0
1.874800000E1,-1.518996477E0,-1.749107987E-1,9.793684006E0
1.876800156E1,-1.367922306E0,-4.499088228E-1,9.846815109E0
1.879000156E1,-1.000441074E0,-8.357104659E-1,9.748452187E0
1.881200156E1,-7.465695739E-1,-8.485050797E-1,9.841365814E0
1.883400156E1,-7.890331149E-1,-7.126006484E-1,9.653746605E0
1.885400156E1,-7.535414696E-1,-4.941440821E-1,9.590788841E0
1.887600156E1,-6.312647462E-1,-4.760918021E-1,9.624221802E0
1.889600156E1,-3.890002966E-1,-6.461759210E-1,9.666052818E0
1.891601875E1,-2.049245089E-1,-5.804311037E-1,9.733033180E0
1.893800156E1,6.880936027E-2,-7.410150170E-1,9.863822937E0
1.896000000E1,2.173073292E-1,-4.832360744E-1,9.743825912E0
1.898000000E1,3.207559884E-1,-4.065546095E-1,9.697723389E0
1.900000156E1,4.514123499E-1,-3.032400310E-1,9.646353722E0
1.902200156E1,5.474007130E-1,-2.571468651E-1,9.680581093E0
1.904400156E1,6.984652877E-1,-2.828126848E-1,9.745234489E0
1.906400156E1,7.598908544E-1,-3.553857207E-1,1.004130077E1
1.908400156E1,8.507939577E-1,-4.623011947E-1,1.035950947E1
1.910600156E1,9.414767623E-1,-3.818847239E-1,1.055176353E1
1.912600156E1,9.067799449E-1,-1.756099164E-1,1.048169994E1
1.914800000E1,8.163557053E-1,1.376570314E-1,1.040844727E1
1.916800156E1,8.522687554E-1,2.644539475E-1,1.024628353E1
1.918800156E1,9.492435455E-1,2.456738353E-1,9.989049911E0
1.921000156E1,1.093987465E0,2.263574004E-1,9.813392639E0
1.923200000E1,1.207482100E0,2.639272213E-1,9.643020630E0
1.925200000E1,1.326033473E0,2.817687988E-1,9.525081635E0
1.927200000E1,1.473679066E0,2.527223527E-1,9.528779030E0
1.929200000E1,1.641052842E0,1.639740914E-1,9.563131332E0
1.931200000E1,1.732702851E0,1.618001610E-1,9.626098633E0
1.933200000E1,1.726430178E0,1.771996617E-1,9.735006332E0
1.935200000E1,1.632979631E0,2.181788236E-1,1.006434250E1
1.937200000E1,1.554057121E0,2.043020129E-1,1.016228485E1
1.939200156E1,1.464638591E0,1.405492127E-1,1.012291527E1
1.941400781E1,1.264282107E0,1.765292883E-1,1.012715721E1
1.943600156E1,9.444264174E-1,2.809068859E-1,1.013348770E1
1.945600156E1,8.382674456E-1,1.725261658E-1,9.980373383E0
1.947600156E1,7.607623935E-1,3.824976832E-2,9.807875633E0
1.949800156E1,5.809482336E-1,-7.015968114E-2,9.715306282E0
1.951800156E1,5.108460188E-1,-2.603358924E-1,9.774433136E0
1.953800156E1,4.475912154E-1,-3.532500863E-1,9.689947128E0
1.955800156E1,2.401958853E-1,-3.692816794E-1,9.474612236E0
1.957800156E1,5.805460364E-2,-4.028579295E-1,9.587101936E0
1.960000156E1,-1.779658049E-1,-4.958583415E-1,9.795762062E0
1.962200000E1,-4.763599634E-1,-5.304880142E-1,9.911295891E0
1.964200000E1,-6.305944324E-1,-4.881106913E-1,1.006443882E1
1.966200000E1,-7.022480965E-1,-4.313106239E-1,9.976485252E0
1.968200156E1,-9.012828469E-1,-1.783680320E-1,9.899449348E0
1.970400156E1,-1.098871589E0,2.760035731E-2,9.892209053E0
1.972400156E1,-1.220832109E0,1.671057045E-1,9.862569809E0
1.974400156E1,-1.152434587E0,3.121559918E-1,9.836740494E0
1.976400156E1,-1.025695205E0,3.858016729E-1,9.699197769E0
1.978400156E1,-7.607048750E-1,3.009511530E-1,9.735657692E0
1.980600156E1,-4.693688750E-1,5.343858153E-2,9.904161453E0
1.982800156E1,-2.611691058E-1,-1.606317759E-1,1.002710819E1
1.985000000E1,-1.243261024E-1,-2.472539991E-1,9.972472191E0
1.987000000E1,-4.264551774E-2,-3.031538129E-1,1.001207256E1
1.989000000E1,-5.295974202E-3,-3.640335798E-1,1.008576679E1
1.991000000E1,-4.506845027E-2,-3.865199387E-1,1.009605217E1
1.993000156E1,-1.054023355E-1,-4.479838610E-1,1.008478928E1
1.995200156E1,-1.748246104E-1,-4.099448025E-1,9.983955383E0
1.997200156E1,-2.091766149E-1,-3.824881017E-1,9.988618851E0
1.999200156E1,-2.455397546E-1,-2.618682086E-1,9.886137962E0
2.001200156E1,-2.955402434E-1,-1.160325930E-1,9.583931923E0
2.003200156E1,-2.936536372E-1,-3.058832139E-2,9.458274841E0
2.005200156E1,-2.612552941E-1,-6.598419510E-3,9.623790741E0
2.007400000E1,-1.241345704E-1,-2.415270545E-2,9.718648911E0
2.009400156E1,6.426037289E-3,5.544970930E-2,9.561771393E0
2.011400156E1,1.053065658E-1,8.548257500E-2,9.580110550E0
2.013401094E1,1.670003533E-1,1.097310483E-1,9.810059547E0
2.015600156E1,1.528458446E-1,1.534874886E-1,1.008282661E1
2.017600156E1,3.016406894E-1,1.102865040E-1,1.010334969E1
2.019600156E1,5.761886239E-1,-2.340571582E-2,9.969360352E0
2.021601875E1,6.756437421E-1,-3.120123595E-2,9.783407211E0
2.023800000E1,5.796074867E-1,7.856812328E-2,9.785935402E0
2.025800156E1,5.387049317E-1,9.681194276E-2,9.919368744E0
2.028000156E1,6.443275809E-1,6.493074447E-2,9.672784805E0
2.030000156E1,7.143914700E-1,1.702756248E-2,9.432053566E0
2.032200000E1,6.864846945E-1,3.692816570E-2,9.469738007E0
2.034200000E1,6.402286887E-1,2.134670317E-2,9.609108925E0
2.036200000E1,6.667755842E-1,-9.439858049E-2,9.760058403E0
2.038200156E1,7.496724129E-1,-1.677760780E-1,9.855357170E0
2.040400156E1,7.528519034E-1,-1.336156130E-1,9.791968346E0
2.042400156E1,7.352018952E-1,-3.728250787E-2,9.808239937E0
2.044400156E1,7.273680568E-1,-3.797203675E-2,9.961909294E0
2.046400156E1,8.476718664E-1,-2.036986686E-2,1.018083477E1
2.048400156E1,9.270349145E-1,-4.109407961E-2,1.018849754E1
2.050400781E1,9.241618514E-1,-1.178234592E-1,1.026134777E1
2.052600156E1,8.784422278E-1,-2.167135626E-1,1.054561615E1
2.054800156E1,8.280681968E-1,-2.093873024E-1,1.040581322E1
2.056800156E1,7.251845598E-1,-1.094437465E-1,9.974588394E0
2.059000000E1,5.983971953E-1,8.263827115E-2,9.439408302E0
2.061000000E1,6.133274436E-1,1.723250598E-1,9.090304375E0
2.063000000E1,7.826549411E-1,9.303867817E-2,8.850693703E0
2.065000000E1,9.650548100E-1,4.787445813E-2,8.836730003E0
2.067000000E1,1.043977261E0,-1.291624010E-1,8.942487717E0
2.069000000E1,1.038039684E0,-2.118389681E-2,9.056652069E0
2.071000156E1,1.176367044E0,-4.625597596E-2,9.052504539E0
2.073200000E1,1.644251585E0,-2.618298829E-1,9.383413315E0
2.075200156E1,2.131854773E0,-5.591131449E-1,9.518838882E0
2.077400156E1,2.595803022E0,-9.201491475E-1,9.742303848E0
2.079400156E1,2.742194176E0,-9.661178589E-1,9.889173508E0
2.081400781E1,2.786706924E0,-1.252857089E0,9.869914055E0
2.083600000E1,2.197235584E0,-1.224691629E0,9.686528206E0
2.085600156E1,1.414877415E0,-1.097051978E0,1.032085705E1
2.087600156E1,1.005670071E0,-1.111034036E0,1.068655777E1
2.089800156E1,9.134070873E-1,-1.344305873E0,1.047652817E1
2.092000000E1,7.750509381E-1,-1.425469398E0,1.035532379E1
2.094000000E1,4.894322753E-1,-1.270918846E0,1.067850399E1
2.096000000E1,3.825838566E-1,-1.026930571E0,1.113367939E1
2.098000156E1,4.062577188E-1,-7.874816656E-1,1.121155834E1
2.100000156E1,5.001487136E-1,-5.214762688E-1,1.079934406E1
2.102000156E1,6.060203314E-1,-1.940452605E-1,1.048741722E1
2.104000156E1,6.215826273E-1,-1.400129125E-2,1.049369049E1
2.106200000E1,6.010404229E-1,2.006340958E-2,1.036799526E1
2.108200000E1,6.475262642E-1,1.487948447E-1,1.017225361E1
2.110200156E1,6.066523790E-1,2.000690699E-1,9.690367699E0
2.112400156E1,-9.613198787E-2,1.079976484E-1,9.522343636E0
2.114400156E1,-4.397573769E-1,-3.354276717E-1,1.051974869E1
2.116600156E1,1.153047532E-1,-9.667595029E-1,1.119972134E1
2.118800156E1,1.196938038E0,-1.615396619E0,9.359777451E0
2.121000156E1,1.077496052E0,-1.519695520E0,7.711551189E0
2.123000156E1,1.201123148E-1,-9.517048001E-1,7.982756615E0
2.125200156E1,-7.500459552E-1,-2.743946612E-1,9.388918877E0
2.127400156E1,-7.580808997E-1,2.405693755E-2,9.520016670E0
2.129600156E1,-4.354861379E-1,-3.039582968E-1,9.114735603E0
2.131601875E1,-4.498992264E-1,-4.059799910E-1,9.737994194E0
2.133800156E1,-5.866081715E-1,-5.009436011E-1,1.079122257E1
2.136000156E1,-7.129645348E-1,-4.296730161E-1,1.158209515E1
2.138000156E1,-6.318872571E-1,-3.048489094E-1,1.151402283E1
2.140000156E1,-3.425432146E-1,-1.278695166E-1,1.055246258E1
2.142200156E1,-4.102703929E-2,9.913910925E-2,9.800320625E0
2.144400156E1,1.114165708E-1,1.079018861E-1,9.488441467E0
2.146400156E1,1.800056547E-1,-9.980947524E-2,9.331353188E0
2.148400156E1,2.895164490E-1,-2.700946927E-1,9.114084244E0
2.150400156E1,4.134882092E-1,-5.457342863E-1,8.880591393E0
2.152600156E1,7.087315917E-1,-7.546811104E-1,8.793634415E0
2.154800156E1,8.834412694E-1,-8.086176515E-1,8.681854248E0
2.156800781E1,5.824613571E-1,-8.561569452E-1,8.719931602E0
2.159000000E1,3.883395195E-1,-9.999622703E-1,9.608840942E0
2.161000000E1,5.516623259E-1,-1.120285273E0,1.041007519E1
2.163000000E1,7.812280059E-1,-1.290752411E0,1.020093632E1
2.165000000E1,8.743433356E-1,-1.423295379E0,1.024748039E1
2.167000000E1,9.013977647E-1,-1.242743850E0,1.072754574E1
2.169000000E1,7.598238587E-1,-6.974788308E-1,1.070722485E1
2.171000156E1,5.968170166E-1,-9.720458649E-3,9.816696167E0
2.173200000E1,4.887619019E-1,5.566901565E-1,9.396580696E0
2.175200000E1,6.432932615E-1,8.669500351E-1,9.617201805E0
2.177200000E1,1.005507231E0,1.069039822E0,9.165587425E0
2.179200000E1,1.443129063E0,1.140444517E0,8.318653107E0
2.181200156E1,1.842357397E0,1.053937078E0,8.167215347E0
2.183400000E1,1.902518868E0,6.931884289E-1,8.691307068E0
2.185400156E1,1.619677544E0,2.942282557E-1,9.473798752E0
2.187600469E1,1.201515794E0,-2.454152554E-1,1.045301723E1
2.189800156E1,1.221167326E0,-7.426909208E-1,1.178223991E1
2.191800156E1,1.402149916E0,-1.175304055E0,1.273884773E1
2.194000156E1,1.582873821E0,-1.239363313E0,1.238472652E1
2.196200156E1,1.456651449E0,-5.922297239E-1,1.110036278E1
2.198400312E1,1.126270771E0,2.432413250E-1,1.005967903E1
2.200600156E1,8.475952744E-1,6.047849059E-1,9.476326942E0
2.202600156E1,7.804714441E-1,6.272138357E-1,9.376460075E0
2.204600156E1,7.232691646E-1,4.169071317E-1,9.775583267E0
2.206800156E1,6.548141241E-1,2.586503923E-1,1.009294891E1
2.208800156E1,6.414161921E-1,1.276396811E-1,1.018590164E1
2.211000000E1,5.686037540E-1,5.474102870E-2,1.012834454E1
2.213000000E1,4.175583422E-1,1.816432923E-1,9.997640610E0
2.215000000E1,4.416248798E-1,2.573288083E-1,9.931158066E0
2.217000000E1,5.422483683E-1,3.291356862E-1,9.475388527E0
2.219000156E1,4.343656600E-1,5.463281274E-1,9.123862267E0
2.221000156E1,2.529617846E-1,6.922882199E-1,9.422246933E0
2.223200000E1,2.815198004E-1,4.684303701E-1,9.864456177E0
2.225200000E1,4.761779904E-1,7.332961261E-2,1.011788654E1
2.227200000E1,8.015021086E-1,-1.500494033E-1,1.030034351E1
2.229200000E1,8.016074896E-1,-1.570979506E-1,1.019150352E1
2.231200156E1,5.029068589E-1,-1.980483718E-2,1.025126266E1
2.233400000E1,2.661394775E-1,-3.292506188E-2,1.049130535E1
2.235400156E1,3.500322998E-1,-3.442862034E-1,1.053442955E1
2.237600156E1,8.078132272E-1,-8.028045893E-1,1.009950924E1
2.239600156E1,1.117460132E0,-9.889872670E-1,9.359700203E0
2.241601875E1,1.079373121E0,-7.427196503E-1,8.503936768E0
2.243800000E1,7.868208885E-1,-2.795087099E-1,8.049009323E0
2.245800000E1,2.768271863E-1,3.353989124E-1,7.909934998E0
2.247800156E1,-2.526840568E-1,4.055298865E-1,8.517075539E0
2.250000156E1,-6.965977550E-1,2.858964205E-1,9.351915359E0
2.252200000E1,-7.255388498E-1,-7.295611501E-2,9.950465202E0
2.254200156E1,-6.567007899E-1,-1.978951395E-1,1.066439629E1
2.256401406E1,-6.372981668E-1,-3.892301619E-1,1.118791294E1
2.258600156E1,-7.346847653E-1,-1.732061356E-1,1.087862968E1
2.260600156E1,-7.607815266E-1,2.328313291E-1,1.009558201E1
2.262600156E1,-1.006330848E0,6.531190872E-1,9.793912888E0
2.264800000E1,-1.029315233E0,6.590567231E-1,9.666618347E0
2.266800000E1,-1.071433902E0,6.907942295E-1,9.413196564E0
2.268800156E1,-1.019297838E0,6.000635624E-1,9.294233322E0
2.271000156E1,-8.931713104E-1,4.933204651E-1,9.285556793E0
2.273000156E1,-7.481784821E-1,2.605178952E-1,9.675878525E0
2.275200156E1,-6.148405671E-1,8.666051924E-2,1.020674992E1
2.277200156E1,-4.854579270E-1,-2.403778490E-3,1.028876591E1
2.279400156E1,-3.293942511E-1,-1.298998147E-1,1.040062332E1
2.281400625E1,-2.396117151E-1,-1.344487965E-1,1.036985207E1
2.283600156E1,-2.329270989E-1,4.114196077E-2,1.019019127E1
2.285800156E1,-1.924172044E-1,2.059300691E-1,9.923592567E0
2.287800156E1,-5.332366005E-2,3.090148270E-1,9.666598320E0
2.289800156E1,2.718855441E-2,3.469102383E-1,9.572210312E0
2.291800156E1,8.596141636E-2,4.177690446E-1,9.627650261E0
2.294000156E1,1.586015075E-1,3.350158632E-1,9.666790009E0
2.296200156E1,2.497918606E-1,3.172891736E-1,9.682946205E0
2.298400312E1,3.176339269E-1,2.295273244E-1,9.863459587E0
2.300600000E1,3.542748094E-1,1.207539588E-1,1.010290813E1
2.302600156E1,4.457716346E-1,1.120103300E-1,1.014285374E1
2.304600156E1,4.771739841E-1,1.112154573E-1,1.012024307E1
2.306800000E1,4.372674227E-1,1.558337957E-1,1.014234543E1
2.308800156E1,4.511442184E-1,1.876766831E-1,1.009005642E1
2.311000000E1,4.622054100E-1,2.223542929E-1,1.006109715E1
2.313000000E1,4.989516437E-1,2.813282907E-1,9.964781761E0
2.315000000E1,4.666777849E-1,2.873424888E-1,9.966238022E0
2.317000000E1,4.177211523E-1,3.519859612E-1,9.974493027E0
2.319000000E1,3.565445244E-1,4.252964258E-1,9.816284180E0
2.321000156E1,4.398723245E-1,4.430901110E-1,9.752167702E0
2.323000156E1,4.918456376E-1,3.811185956E-1,9.634554863E0
2.325200000E1,5.352860093E-1,3.284557462E-1,9.568016052E0
2.327200000E1,5.098979473E-1,3.092542291E-1,9.674978256E0
2.329200000E1,5.289461613E-1,2.630653083E-1,9.758057594E0
2.331200156E1,5.494309664E-1,2.349669486E-1,9.715334892E0
2.333401719E1,5.306700468E-1,2.438829690E-1,9.628244400E0
2.335600000E1,5.668032765E-1,2.789532244E-1,9.589840889E0
2.337600156E1,5.394711494E-1,2.645018399E-1,9.584716797E0
2.339800156E1,5.308615565E-1,2.274395972E-1,9.691411972E0
2.341800156E1,4.687751234E-1,2.415557951E-1,9.849869728E0
2.344000156E1,3.584215641E-1,3.366055787E-1,9.968708992E0
2.346200156E1,4.202877581E-1,2.240589708E-1,1.006184387E1
2.348400156E1,4.587960839E-1,1.953572780E-1,1.001769447E1
2.350400156E1,3.623480499E-1,3.359256685E-1,1.010643291E1
2.352400156E1,3.059789836E-1,4.575319588E-1,1.007760620E1
2.354400156E1,2.739445567E-1,5.035772324E-1,9.866496086E0
2.356400156E1,3.033645153E-1,5.100703239E-1,9.782497406E0
2.358400313E1,3.649625182E-1,4.555495679E-1,9.841078758E0
2.360600000E1,3.934248090E-1,3.653551936E-1,9.840465546E0
2.362600156E1,4.060278833E-1,2.871030867E-1,9.800434113E0
2.364800000E1,4.359937012E-1,3.114760816E-1,9.766149521E0
2.366800000E1,4.206804037E-1,2.582194507E-1,9.858441353E0
2.368800156E1,4.059129655E-1,1.940835714E-1,9.944728851E0
2.371000156E1,3.765408993E-1,2.176425159E-1,9.859265327E0
2.373200000E1,2.992081642E-1,3.092829883E-1,9.744850159E0
2.375200000E1,2.072421014E-1,3.502142429E-1,9.713467598E0
2.377200000E1,1.562168747E-1,3.640431464E-1,9.735753059E0
2.379200000E1,1.179000735E-1,2.598187625E-1,9.880966187E0
2.381200000E1,1.276684105E-1,2.062748373E-1,9.965337753E0
2.383200000E1,1.097023264E-1,1.744032353E-1,9.978687286E0
2.385200000E1,6.889554858E-2,2.151621282E-1,9.950474739E0
2.387200156E1,4.811387509E-2,2.597517371E-1,9.954678535E0
2.389401250E1,-1.264138496E-3,3.216849267E-1,9.883485794E0
2.391602344E1,-6.669288874E-2,3.056725264E-1,9.881752014E0
2.393800000E1,-7.636545599E-2,1.893143207E-1,1.002056694E1
2.395800000E1,-9.325893968E-2,8.437166363E-2,1.014177132E1
2.397800156E1,-1.480287015E-1,6.061160937E-2,1.008434868E1
2.400000156E1,-2.172115445E-1,1.844301522E-1,1.002909088E1
2.402200000E1,-2.697978020E-1,3.339528143E-1,9.735753059E0
2.404200000E1,-2.728240788E-1,3.590057790E-1,9.578071594E0
2.406200000E1,-2.269415855E-1,2.781296074E-1,9.645404816E0
2.408200000E1,-2.426762879E-1,2.661394775E-1,9.763784409E0
2.410200000E1,-1.702468842E-1,2.245186567E-1,9.679335594E0
2.412200000E1,-7.374141132E-4,1.300243139E-1,9.734910011E0
2.414200000E1,-3.853707016E-2,1.499440670E-1,9.912148476E0
2.416200000E1,-1.382220387E-1,2.023483515E-1,1.014105320E1
2.418200156E1,-5.378334969E-2,1.863359362E-1,1.029112244E1
2.420400156E1,5.425260961E-2,2.318736464E-1,1.003703022E1
2.422400156E1,-5.023992807E-2,2.849291563E-1,1.023462772E1
2.424400156E1,-3.140043318E-1,9.089346975E-2,1.070582581E1
2.426600000E1,-5.247324109E-1,-1.169998497E-1,1.163436413E1
2.428600156E1,-7.531775236E-1,1.113878414E-1,1.170627594E1
2.430600156E1,-7.634055614E-1,5.395860076E-1,1.044419765E1
2.432800156E1,-6.960614920E-1,9.195745587E-1,9.077510834E0
2.435000000E1,-5.990101099E-1,1.090903640E0,8.563973427E0
2.437000000E1,-3.451385498E-1,9.555546045E-1,8.160396576E0
2.439000000E1,2.164358273E-2,5.746179819E-1,8.089691162E0
2.441000000E1,3.003956974E-1,2.409045696E-1,8.287395477E0
2.443000156E1,5.200206041E-1,5.576574802E-2,8.804178238E0
2.445200000E1,5.736698508E-1,-1.095107868E-1,9.692485809E0
2.447200156E1,6.139116287E-1,-2.808590233E-1,1.029719353E1
2.449400469E1,7.123516202E-1,-3.370269835E-1,1.074897957E1
2.451602188E1,5.851812363E-1,-1.235312298E-1,1.079547501E1
2.453800000E1,2.295273244E-1,1.727081239E-1,1.073318768E1
2.455800156E1,-8.039729297E-2,5.426219106E-1,1.069078159E1
2.458000156E1,-4.440669417E-1,8.341207504E-1,1.041288090E1
2.460200000E1,-6.326534152E-1,9.629095793E-1,1.010091686E1
2.462200000E1,-5.151938796E-1,9.716532826E-1,9.685207367E0
2.464200000E1,-3.328897953E-1,9.501916170E-1,9.024464607E0
2.466200000E1,-2.263095230E-1,8.995973468E-1,8.485539436E0
2.468200000E1,-1.311831027E-1,9.363914132E-1,8.366078377E0
2.470200000E1,3.711970150E-2,8.594226837E-1,8.649494171E0
2.472200000E1,2.870073318E-1,6.509738564E-1,8.910644531E0
2.474201406E1,4.584608972E-1,3.755161762E-1,9.259201050E0
2.476400156E1,4.957817197E-1,4.868848249E-2,1.001134491E1
2.478400156E1,5.016331673E-1,-2.576448321E-1,1.061882114E1
2.480400156E1,5.525721908E-1,-4.978215694E-1,1.101686096E1
2.482400156E1,4.244345129E-1,-4.217912853E-1,1.114510441E1
2.484400156E1,9.399636090E-2,-7.017884403E-2,1.108441639E1
2.486400156E1,-2.051352113E-1,3.406565785E-1,1.073266029E1
2.488600156E1,-3.470730484E-1,6.283246875E-1,1.008753777E1
2.490800156E1,-3.046382070E-1,7.813620567E-1,9.461932182E0
2.493000156E1,-2.214540839E-1,8.179071546E-1,9.067463875E0
2.495200000E1,-1.819018722E-1,7.328460217E-1,8.957599640E0
2.497200000E1,-1.348989010E-1,5.356020331E-1,9.103521347E0
2.499200000E1,-1.163294762E-1,3.238588870E-1,9.446897507E0
2.501200000E1,-1.455195844E-1,1.082658023E-1,9.834240913E0
2.503200000E1,-1.343913227E-1,4.855440930E-3,1.007631302E1
2.505200000E1,-1.990826577E-1,6.859866530E-2,1.021568584E1
2.507200000E1,-2.820369601E-1,2.101534456E-1,1.032996464E1
2.509200000E1,-3.736391366E-1,3.073676229E-1,1.031968975E1
2.511200000E1,-4.128082693E-1,4.246164560E-1,1.018126678E1
2.513200000E1,-4.247505367E-1,4.792904258E-1,1.006274319E1
2.515200000E1,-3.482605815E-1,4.405713975E-1,9.855404854E0
2.517200000E1,-1.659469157E-1,3.342114091E-1,9.579699516E0
2.519200000E1,-3.072239645E-2,2.559401691E-1,9.390115738E0
2.521200000E1,-1.050575729E-2,1.922352463E-1,9.573551178E0
2.523200000E1,4.213795182E-4,1.624130756E-1,9.714837074E0
2.525200156E1,1.203325838E-1,6.540959328E-2,9.872931480E0
2.527401094E1,2.217701077E-1,-1.559104118E-2,9.921178818E0
2.529600156E1,1.853207797E-1,5.219359696E-2,9.987374306E0
2.531602344E1,9.090305120E-2,1.686092466E-1,1.011749458E1
2.533800156E1,1.357512325E-1,2.671258748E-1,1.008327675E1
2.536000000E1,2.426762879E-1,2.453003228E-1,9.872595787E0
2.538000156E1,2.971778810E-1,2.628163099E-1,9.754801750E0
2.540200000E1,2.641474903E-1,2.223255783E-1,9.833790779E0
2.542200000E1,4.231416285E-1,5.791094899E-2,1.002752972E1
2.544200000E1,5.817622542E-1,-7.339664549E-2,1.002825737E1
2.546200156E1,5.033665299E-1,2.183511853E-2,9.988073349E0
2.548400156E1,4.609412849E-1,6.228755042E-2,1.011909389E1
2.550400156E1,6.757203341E-1,-1.069154739E-1,1.025286198E1
2.552400156E1,8.107532859E-1,-2.020131648E-1,1.018429184E1
2.554600156E1,6.650613546E-1,1.982399030E-3,1.004740143E1
2.556800000E1,5.692166686E-1,2.258115262E-1,1.015864563E1
2.558800156E1,7.075152993E-1,3.082582653E-1,9.805740356E0
2.561000000E1,9.482954144E-1,2.346604913E-1,9.413445473E0
2.563000156E1,1.063485265E0,1.323131621E-1,9.539735794E0
2.565000156E1,1.075101972E0,-5.356308073E-2,9.563868523E0
2.567200156E1,1.192360401E0,-8.676586673E-3,9.576567650E0
2.569400000E1,1.175505161E0,1.140023097E-1,9.159727097E0
2.571400156E1,1.100681543E0,3.223457336E-1,9.030123711E0
2.573400781E1,1.039792180E0,4.144267142E-1,9.401464462E0
2.575600156E1,9.312295318E-1,4.237353802E-1,9.473156929E0
2.577600156E1,8.209526539E-1,4.362426996E-1,9.612901688E0
2.579800000E1,7.604559064E-1,3.367109299E-1,1.001744556E1
2.581800156E1,7.779431939E-1,2.293357849E-1,1.023825741E1
2.583800156E1,8.413703442E-1,1.556518376E-1,1.039786530E1
2.586000156E1,8.868697286E-1,5.917508900E-2,1.054945564E1
2.588000156E1,8.504300117E-1,-3.982993960E-2,1.053050423E1
2.590200000E1,9.353284240E-1,-1.053448692E-1,1.044265556E1
2.592200000E1,1.100643277E0,-2.424464375E-1,1.022697639E1
2.594200000E1,1.197704196E0,-2.861358225E-1,9.807732582E0
2.596200156E1,1.217987895E0,-2.802556753E-1,9.407449722E0
2.598400156E1,1.144533873E0,-3.331579566E-1,9.366203308E0
2.600400156E1,1.043737888E0,-4.075697362E-1,9.655307770E0
2.602600156E1,1.023846865E0,-5.075037479E-1,9.860395432E0
2.604800156E1,1.097913861E0,-6.953240633E-1,9.888628006E0
2.607000156E1,1.155652523E0,-8.900588155E-1,9.996118546E0
2.609200000E1,1.029985547E0,-8.147755861E-1,1.014333248E1
2.611200156E1,8.496926427E-1,-6.187383533E-1,1.004050541E1
2.613400313E1,7.083772421E-1,-3.888949454E-1,9.970729828E0
2.615600156E1,7.094690204E-1,-3.468336463E-1,1.003899288E1
2.617600156E1,6.756054163E-1,-3.583832681E-1,1.021638393E1
2.619600156E1,5.759587288E-1,-2.855229080E-1,1.035407066E1
2.621601875E1,5.941833854E-1,-2.166561037E-1,1.035467339E1
2.623800000E1,6.349518299E-1,-1.754949838E-1,1.022006130E1
2.625800156E1,6.444233656E-1,-1.358374357E-1,1.018177319E1
2.627800312E1,7.559069395E-1,-7.226658612E-2,9.879625320E0
2.630000000E1,9.092411995E-1,-7.014053315E-2,9.414336205E0
2.632000000E1,1.112451434E0,-1.271321177E-1,9.270722389E0
2.634000000E1,1.233588457E0,-1.670769602E-1,9.279888153E0
2.636000000E1,1.315700054E0,-9.689813107E-2,9.065098763E0
2.638000156E1,1.420269132E0,6.809109449E-2,8.940983772E0
2.640200156E1,1.620922446E0,2.029038072E-1,8.887851715E0
2.642400156E1,1.828451753E0,9.535626322E-2,8.817643166E0
2.644600156E1,1.880664587E0,-2.884534188E-2,9.170989037E0
2.646600156E1,1.895738482E0,-1.890653223E-1,9.792255402E0
2.648600156E1,1.791724682E0,-9.962751716E-2,1.020156002E1
2.650800000E1,1.814814448E0,-4.013544023E-1,1.027711010E1
2.652800000E1,1.838277578E0,-2.955306768E-1,1.045836163E1
2.654800156E1,1.842730880E0,-3.726718724E-1,1.072567844E1
2.656800156E1,1.732837081E0,-4.432146251E-1,1.089195156E1
2.659000156E1,1.503980160E0,-8.613379300E-2,1.098832321E1
2.661200156E1,1.221780300E0,5.670331717E-1,1.005211353E1
2.663400156E1,5.005030632E-1,3.751522601E-1,1.010152912E1
2.665400781E1,1.232535020E-1,-1.362971216E-1,1.146077538E1
2.667600156E1,7.084251046E-1,-8.796201348E-1,1.181999207E1
2.669600156E1,1.113773108E0,-1.020236373E0,1.015232563E1
2.671601875E1,9.743155837E-1,-5.871827602E-1,8.669892311E0
2.673800000E1,4.249420762E-1,-1.816241443E-1,8.090754509E0
2.675800156E1,-1.686954498E-1,1.493024174E-2,8.619394302E0
2.678000000E1,-3.892684579E-1,-3.567552269E-1,9.651860237E0
2.680000156E1,-1.692509055E-1,-9.610804319E-1,1.016278362E1
2.682200156E1,2.382996827E-1,-1.395857930E0,1.047197914E1
2.684400156E1,5.409650803E-1,-1.575442195E0,1.024096775E1
2.686400156E1,3.556634486E-1,-1.194563031E0,9.725399971E0
2.688400156E1,-2.853218019E-1,-4.849982262E-1,9.422151566E0
2.690400156E1,-6.838606000E-1,-1.342476755E-1,9.403983116E0
2.692400156E1,-6.871262789E-1,-3.467187285E-1,9.514768600E0
2.694400156E1,-5.680195689E-1,-8.280777335E-1,9.782727242E0
2.696400156E1,-5.005509853E-1,-1.027064681E0,1.010545635E1
2.698400156E1,-4.271447361E-1,-1.162442327E0,1.018869686E1
2.700400156E1,-4.055011570E-1,-1.130158901E0,9.952830315E0
2.702400156E1,-4.812632799E-1,-1.042923808E0,9.504301071E0
2.704400156E1,-6.518740654E-1,-7.713639140E-1,9.186982155E0
2.706400313E1,-8.707041144E-1,-5.625512004E-1,8.959476471E0
2.708400469E1,-9.528156519E-1,-3.455407619E-1,8.891001701E0
2.710600000E1,-8.225902915E-1,-2.243366987E-1,9.034070015E0
2.712600000E1,-6.075430512E-1,-2.663884461E-1,9.068843842E0
2.714600000E1,-3.891344070E-1,-2.447257191E-1,9.156222343E0
2.716600156E1,-1.989773065E-1,-1.912296712E-1,9.260973930E0
2.718800156E1,-2.826115675E-2,-1.504420638E-1,9.369075775E0
2.720800156E1,3.543418646E-2,-2.343731970E-1,9.570687294E0
2.722800156E1,1.252167523E-1,-3.900154531E-1,9.693537712E0
2.725000000E1,1.203229949E-1,-4.994017482E-1,9.931330681E0
2.727000000E1,4.688804597E-2,-5.094861388E-1,1.019265366E1
2.729000156E1,-7.386591285E-2,-4.053096175E-1,1.039374733E1
2.731200156E1,-2.229863703E-1,-3.062950075E-1,1.052353096E1
2.733401406E1,-3.646943569E-1,-2.743467689E-1,1.054393101E1
2.735600000E1,-6.402095556E-1,-3.161591291E-1,1.035846615E1
2.737600156E1,-9.298887849E-1,-2.829850912E-1,1.024716377E1
2.739600156E1,-1.103947282E0,-2.657276690E-1,1.032442951E1
2.741601875E1,-1.138337493E0,-3.717237413E-1,1.040955734E1
2.743800156E1,-1.185876846E0,-4.272788167E-1,1.029769135E1
2.746000156E1,-1.260173678E0,-2.925522923E-1,1.028526115E1
2.748200000E1,-1.323380589E0,-2.602018416E-2,1.023722363E1
2.750200000E1,-1.363287210E0,3.124241531E-1,1.011088562E1
2.752200000E1,-1.842625499E0,1.293347776E-1,1.036250687E1
2.754200156E1,-2.053899527E0,-6.656646729E-1,1.103433895E1
2.756200469E1,-1.349592328E0,-1.300099373E0,1.240900421E1
2.758400156E1,-5.767536163E-1,-2.224136829E0,1.182066250E1
2.760400156E1,-7.016830444E-1,-2.434405088E0,1.082411957E1
2.762400156E1,-1.589941382E0,-1.966587663E0,1.084989929E1
2.764400781E1,-2.355051756E0,-1.910400629E0,1.106467915E1
2.766600000E1,-2.512293100E0,-1.717705727E0,1.088910770E1
2.768600000E1,-1.827283502E0,-1.669486403E0,9.533050537E0
2.770600000E1,-8.864675164E-1,-2.108669281E0,8.279293060E0
2.772600156E1,-1.816049814E-1,-2.218065262E0,6.962951660E0
2.774600156E1,-2.209465057E-1,-2.251401901E0,5.914990425E0
2.776800156E1,-1.186595082E0,-1.976815701E0,6.366843224E0
2.779000000E1,-2.718683004E0,-2.127650499E0,8.263855934E0
2.781000000E1,-3.512619495E0,-2.897807598E0,1.022292519E1
2.783000000E1,-3.004646540E0,-4.137783527E0,1.252505589E1
2.785000000E1,-1.491558909E0,-5.286186695E0,1.406420135E1
2.787000156E1,-8.952398598E-2,-5.298780441E0,1.276550961E1
2.789200156E1,1.112537608E-1,-3.576573372E0,1.033794212E1
2.791400625E1,-2.668577135E-1,-1.912967205E0,9.602884293E0
2.793600156E1,-4.295485318E-1,-1.405013323E0,9.197919846E0
2.795600156E1,-6.019980460E-2,-1.960918188E0,8.744266510E0
2.797800156E1,5.025429130E-1,-2.524915457E0,8.648047447E0
2.800000000E1,6.469132900E-1,-2.709968328E0,8.586986542E0
2.802000000E1,4.529542327E-1,-2.760926247E0,8.878772736E0
2.804000000E1,3.742616251E-2,-2.794138670E0,8.951335907E0
2.806000000E1,-3.234566450E-1,-2.936842680E0,9.196655273E0
2.808000156E1,-3.955987096E-1,-3.312119484E0,9.803174019E0
2.810200156E1,-8.221688867E-2,-3.517245054E0,9.875382423E0
2.812400469E1,2.657468319E-1,-3.433543682E0,9.014792442E0
2.814600000E1,2.114942074E-1,-3.034142971E0,8.693499565E0
2.816600156E1,9.278967977E-2,-3.041450262E0,9.486363411E0
2.818600156E1,2.863752544E-1,-3.318210125E0,9.941348076E0
2.820600156E1,6.211134195E-1,-3.716490507E0,1.002467537E1
2.822600156E1,9.061478972E-1,-3.758264542E0,1.030135918E1
2.824600156E1,1.211379886E0,-3.423679590E0,9.988475800E0
2.826800156E1,1.041353226E0,-2.601022482E0,9.099958420E0
2.829000156E1,5.397488475E-1,-2.143509626E0,9.320655823E0
2.831200000E1,2.240206599E-1,-1.882637501E0,9.810844421E0
2.833200000E1,-3.519476205E-2,-1.941036701E0,9.949794769E0
2.835200000E1,-3.969586641E-2,-2.239545822E0,9.874310493E0
2.837200000E1,6.980534643E-2,-2.589731455E0,1.013230991E1
2.839200156E1,3.945740163E-1,-2.706051350E0,1.115646267E1
2.841400156E1,1.035540104E0,-2.582816839E0,1.188996983E1
2.843400156E1,1.157041073E0,-2.154609203E0,1.171134281E1
2.845401094E1,7.442423701E-1,-1.353174090E0,1.121157742E1
2.847600313E1,3.761099279E-1,-6.084623933E-1,1.053658485E1
2.849800156E1,2.803610265E-1,-3.281780183E-1,1.008139896E1
2.851800156E1,4.657392502E-1,-1.243356839E-1,9.764166832E0
2.854000000E1,6.621595621E-1,-1.960180849E-1,9.507987976E0
2.856000156E1,7.721683383E-1,-9.461884946E-2,9.483998299E0
2.858000156E1,8.318797350E-1,2.389413305E-2,9.442874908E0
2.860000156E1,8.090390563E-1,1.089840569E-2,9.471288681E0
2.862000156E1,8.386984468E-1,-2.636399269E-1,9.712576866E0
2.864200000E1,8.659636378E-1,-6.511749625E-1,9.911171913E0
2.866200000E1,8.286140561E-1,-9.278393388E-1,1.008437824E1
2.868200156E1,8.523836732E-1,-1.161561251E0,1.036402988E1
2.870400156E1,1.007144928E0,-1.434490681E0,1.038117313E1
2.872400156E1,1.060909033E0,-1.589127421E0,1.012087536E1
2.874400156E1,8.911505938E-1,-1.371006131E0,9.679747581E0
2.876400469E1,6.319543719E-1,-7.804522514E-1,9.466702461E0
2.878600000E1,5.169081688E-1,2.872084454E-2,8.889565468E0
2.880600156E1,2.069931030E-1,1.530373748E-2,8.745100021E0
2.882800156E1,2.659287751E-1,-9.510439634E-1,1.020973873E1
2.884800156E1,1.219146609E0,-1.823854923E0,1.153802109E1
2.887000156E1,2.272020817E0,-1.870158792E0,1.046588898E1
2.889200156E1,2.362761021E0,-9.477974176E-1,7.965039730E0
2.891400156E1,1.362013459E0,3.885023296E-1,7.257572174E0
2.893400781E1,2.685240805E-1,1.343597293E0,8.044546127E0
2.895600156E1,6.960423291E-2,1.259283066E0,9.990764618E0
2.897600156E1,8.736920953E-1,5.011734366E-1,1.100974655E1
2.899600156E1,2.249084234E0,-4.728835821E-1,1.072999763E1
2.901602031E1,3.240896702E0,-1.139908195E0,1.029258728E1
2.903800000E1,3.600994349E0,-1.390619397E0,1.002842999E1
2.905800156E1,3.061954021E0,-1.138653517E0,1.026727581E1
2.908000000E1,2.032639027E0,-6.670437455E-1,1.064238930E1
2.910000000E1,1.478907943E0,-4.619851708E-1,1.051637840E1
2.912000000E1,1.412550330E0,-4.765036106E-1,1.037471771E1
2.914000000E1,1.752172589E0,-4.821251929E-1,1.016911316E1
2.916000000E1,1.929314852E0,-4.258231521E-1,9.641967773E0
2.918000000E1,1.812056422E0,-5.572744086E-2,9.289971352E0
2.920000156E1,1.184947848E0,1.543110758E-1,9.496697426E0
2.922000156E1,7.547672987E-1,-3.961925209E-2,1.048109627E1
2.924000156E1,8.950962424E-1,-4.492288530E-1,1.089618492E1
2.926000156E1,1.130053639E0,-1.076844811E0,1.057470036E1
2.928200000E1,9.185211062E-1,-1.440485835E0,1.073683548E1
2.930200000E1,5.326332450E-1,-1.402963877E0,1.124268246E1
2.932200156E1,1.485458463E-1,-1.216465235E0,1.125397396E1
2.934400156E1,-5.300762504E-2,-6.805662513E-1,1.035560226E1
2.936400156E1,5.796841159E-2,-2.467751652E-1,9.336236954E0
2.938400156E1,1.604115032E-2,3.601358235E-1,8.491687775E0
2.940400156E1,7.862558588E-3,5.886096954E-1,8.094460487E0
2.942400156E1,3.664086014E-2,8.012818694E-1,7.770305157E0
2.944400156E1,-1.597411372E-2,5.467686057E-1,8.012846947E0
2.946400781E1,-2.890280262E-2,1.097406298E-1,8.608438492E0
2.948600156E1,-6.899131835E-2,-5.234969854E-1,9.515620232E0
2.950800000E1,-2.362023592E-1,-8.647952080E-1,1.032033062E1
2.952800000E1,-3.374770880E-1,-1.017401695E0,1.099373341E1
2.954800156E1,-2.899378240E-1,-1.096458077E0,1.149127769E1
2.956800156E1,-1.258583963E-1,-1.055871725E0,1.120585060E1
2.959000156E1,-9.358455986E-2,-7.353072762E-1,1.032571316E1
2.961200156E1,-2.622608542E-1,-2.761280835E-1,9.722795486E0
2.963400313E1,-2.938739061E-1,-2.893153392E-2,9.431555748E0
2.965600156E1,-2.206209004E-1,3.169922903E-2,9.143543243E0
2.967600156E1,-1.927428097E-1,-5.227021128E-2,9.084578514E0
2.969800156E1,-2.284164131E-1,-1.859624386E-1,9.458829880E0
2.972000156E1,-2.199984193E-1,-3.601549566E-1,9.894843102E0
2.974201406E1,-8.739794046E-2,-5.534436703E-1,1.015531254E1
2.976400156E1,1.227172017E-1,-6.253750324E-1,1.031974697E1
2.978400156E1,2.514965236E-1,-5.586534142E-1,1.007760620E1
2.980600156E1,3.156419694E-1,-4.001285732E-1,9.727890968E0
2.982800156E1,2.517455220E-1,-2.550495267E-1,9.708248138E0
2.984800156E1,2.461143583E-1,-2.995146215E-1,9.807071686E0
2.987000156E1,3.606529534E-1,-4.864347577E-1,9.898319244E0
2.989200156E1,4.548983276E-1,-6.111918092E-1,9.942947388E0
2.991400156E1,4.492576122E-1,-5.845108032E-1,9.966257095E0
2.993400312E1,3.972842395E-1,-4.961647987E-1,9.876187325E0
2.995600156E1,3.829094470E-1,-4.368652105E-1,9.751420975E0
2.997600156E1,4.535001218E-1,-3.857058883E-1,9.768017769E0
2.999600156E1,4.980130792E-1,-4.023503661E-1,9.672776222E0
3.001601875E1,4.573308527E-1,-3.533362746E-1,9.531863213E0
3.003800000E1,3.833595812E-1,-2.695009112E-1,9.609128952E0
3.005800156E1,3.733422160E-1,-3.097330928E-1,9.676893234E0
3.007800156E1,3.691667616E-1,-3.496108949E-1,9.789498329E0
3.009800156E1,3.846428692E-1,-3.585652113E-1,9.930325508E0
3.011800156E1,3.797682822E-1,-3.957040608E-1,1.000757122E1
3.014000000E1,4.190140367E-1,-4.138904512E-1,9.986865997E0
3.016000000E1,3.846524358E-1,-4.120421112E-1,9.926694870E0
3.018000000E1,3.445351720E-1,-4.166581333E-1,1.004153156E1
3.020000000E1,3.341635168E-1,-4.324119985E-1,1.001779938E1
3.022000156E1,3.877744675E-1,-5.005509853E-1,9.855271339E0
3.024004375E1,3.561039865E-1,-5.283524394E-1,9.865509033E0
3.026200000E1,2.881469727E-1,-4.594377577E-1,9.835044861E0
3.028200000E1,2.525403798E-1,-4.754788876E-1,9.769655228E0
3.030200000E1,3.236864805E-1,-5.380632877E-1,9.783177376E0
3.032200000E1,2.622225285E-1,-5.183925629E-1,9.783570290E0
3.034200000E1,2.028559297E-1,-4.256220460E-1,9.959831238E0
3.036200000E1,1.769123524E-1,-4.008755386E-1,9.892065048E0
3.038200000E1,1.427327245E-1,-3.015161753E-1,9.889068604E0
3.040200156E1,1.708885282E-1,-2.971012890E-1,9.936453819E0
3.042200156E1,2.192418426E-1,-3.846524358E-1,1.008335209E1
3.044400000E1,2.743755281E-1,-4.316745698E-1,1.011119270E1
3.046400156E1,3.024547100E-1,-4.394509196E-1,1.010158730E1
3.048600000E1,2.634866834E-1,-4.718014002E-1,1.006395054E1
3.050600000E1,2.623470426E-1,-5.195704699E-1,1.012338352E1
3.052600156E1,2.862316072E-1,-6.127337217E-1,1.001963902E1
3.054600156E1,3.406470120E-1,-6.180679202E-1,9.900666237E0
3.056600312E1,3.177297115E-1,-6.012032032E-1,9.828887939E0
3.058800156E1,2.347562760E-1,-5.356786847E-1,9.739641190E0
3.061000000E1,1.665693969E-1,-5.046785474E-1,9.815174103E0
3.063000000E1,1.966501474E-1,-5.504556894E-1,9.900378227E0
3.065000000E1,1.840470731E-1,-5.295304060E-1,9.899861336E0
3.067000000E1,1.538035125E-1,-4.987696707E-1,9.929731369E0
3.069000000E1,1.436233670E-1,-3.901591301E-1,9.986559868E0
3.071000000E1,1.872840226E-1,-3.125965595E-1,9.974215508E0
3.073000000E1,2.894398272E-1,-3.009415865E-1,9.802589417E0
3.075000000E1,3.309170008E-1,-2.415462136E-1,9.602128029E0
3.077000000E1,2.476083338E-1,-1.676037014E-1,9.621665001E0
3.079000156E1,2.203144431E-1,-2.426283956E-1,9.816035271E0
3.081200000E1,3.127497733E-1,-4.480796456E-1,9.911975861E0
3.083200000E1,4.062481523E-1,-4.962318242E-1,9.869062424E0
3.085200000E1,3.877361715E-1,-4.053287804E-1,9.786586761E0
3.087200000E1,3.907432854E-1,-3.018513918E-1,9.711484909E0
3.089200156E1,3.686687648E-1,-2.245186567E-1,9.710767746E0
3.091400156E1,2.882235646E-1,-1.567723304E-1,9.693137169E0
3.093400156E1,3.378506005E-1,-2.791734934E-1,9.783215523E0
3.095400156E1,4.479647279E-1,-4.601751268E-1,9.988541603E0
3.097400781E1,4.798363447E-1,-5.071206093E-1,1.000973606E1
3.099400781E1,3.410013616E-1,-4.934066832E-1,9.827441216E0
3.101400781E1,1.837980747E-1,-4.033463597E-1,9.904601097E0
3.103600156E1,1.837980747E-1,-5.076377988E-1,1.007118034E1
3.105600156E1,3.462973237E-1,-6.062022448E-1,9.934117317E0
3.107600156E1,3.445351720E-1,-5.861867666E-1,9.555249214E0
3.109600156E1,1.338454634E-1,-3.692912459E-1,9.418723106E0
3.111601875E1,-2.473689243E-2,-2.325536013E-1,9.612402916E0
3.113800000E1,5.896440148E-2,-2.568499446E-1,9.629316330E0
3.115800156E1,1.028070226E-1,-3.365385830E-1,9.665994644E0
3.118000000E1,7.794563472E-2,-2.849866152E-1,1.000533962E1
3.120000000E1,1.052203774E-1,-2.601826787E-1,9.988025665E0
3.122000156E1,1.556518376E-1,-2.171923965E-1,9.847485542E0
3.124201406E1,2.171349376E-1,-2.252656519E-1,9.903759003E0
3.126400000E1,3.271628618E-1,-3.264254332E-1,9.998272896E0
3.128400156E1,4.053958058E-1,-4.238311648E-1,9.972702026E0
3.130400156E1,4.798363447E-1,-4.915104806E-1,9.912857056E0
3.132400156E1,5.157589316E-1,-5.066896677E-1,9.771436691E0
3.134400156E1,5.346540213E-1,-5.303635597E-1,9.714798927E0
3.136400156E1,5.116600394E-1,-5.340985060E-1,9.716810226E0
3.138400156E1,4.901505411E-1,-5.234012604E-1,9.709301949E0
3.140400156E1,4.572350681E-1,-5.090743303E-1,9.869397163E0
3.142400625E1,3.808504641E-1,-5.911858678E-1,1.013902283E1
3.144600156E1,2.911732495E-1,-6.474112868E-1,1.030219269E1
3.146800000E1,1.727943271E-1,-6.418950558E-1,1.034064388E1
3.148800000E1,8.095274866E-2,-5.481955409E-1,1.006409359E1
3.150800000E1,-2.129881829E-2,-4.408778548E-1,9.703890800E0
3.152800000E1,-1.557188779E-1,-3.833021224E-1,9.517277718E0
3.154800156E1,-1.852058768E-1,-4.247409701E-1,9.519422531E0
3.156800156E1,-2.152961940E-1,-4.722036123E-1,9.541237831E0
3.158800156E1,-2.359533757E-1,-4.421324432E-1,9.488518715E0
3.161000000E1,-1.082274914E-1,-6.036356688E-1,9.800376892E0
3.163000000E1,7.450755686E-3,-6.318776608E-1,1.001874828E1
3.165000000E1,9.557653219E-3,-5.386666059E-1,1.009834099E1
3.167000000E1,1.978568360E-2,-4.340496361E-1,1.027082825E1
3.169000000E1,7.746678591E-2,-3.400628269E-1,1.015225792E1
3.171000000E1,1.497908384E-1,-2.872754931E-1,9.945887566E0
3.173000000E1,2.229672074E-1,-3.412311971E-1,9.967090607E0
3.175000000E1,2.793363035E-1,-4.700967073E-1,1.005382729E1
3.177000000E1,3.304477334E-1,-6.099947095E-1,1.003257656E1
3.179000156E1,4.494874179E-1,-7.145829797E-1,9.918066025E0
3.181200000E1,4.503397644E-1,-7.610592842E-1,9.729020119E0
3.183200156E1,3.778050244E-1,-7.443285584E-1,9.758593559E0
3.185400156E1,3.367492557E-1,-7.373949289E-1,9.767423630E0
3.187400156E1,2.468613386E-1,-7.497777939E-1,9.766455650E0
3.189400312E1,7.670064270E-2,-6.873178482E-1,9.927872658E0
3.191401094E1,-4.741477221E-2,-6.425366998E-1,1.001752186E1
3.193600000E1,-6.019023061E-2,-6.459077001E-1,9.974397659E0
3.195600000E1,-5.535394326E-2,-6.166219115E-1,9.782640457E0
3.197600000E1,-1.476264745E-1,-4.928416312E-1,9.627545357E0
3.199600000E1,-3.030005693E-1,-4.104906619E-1,9.690272331E0
3.201601875E1,-3.320470452E-1,-3.889333010E-1,9.777019501E0
3.203800000E1,-2.631802261E-1,-4.612190127E-1,9.798691750E0
3.205800156E1,-1.716067940E-1,-5.287833810E-1,9.799696922E0
3.208000156E1,-8.430462331E-2,-5.918657780E-1,9.835696220E0
3.210200156E1,-2.245761082E-2,-6.032334566E-1,9.846068382E0
3.212400000E1,5.271074176E-2,-6.901717782E-1,9.848299980E0
3.214400625E1,8.188170195E-2,-7.872805595E-1,9.926982880E0
3.216600156E1,1.596836746E-1,-8.988120556E-1,1.009969997E1
3.218800156E1,2.102875262E-1,-8.400487900E-1,1.002735710E1
3.221000156E1,2.068302929E-1,-6.973351836E-1,9.846900940E0
3.223200000E1,1.419187039E-1,-5.288599730E-1,9.764914513E0
3.225200000E1,2.700659446E-3,-3.792128265E-1,9.825957298E0
3.227200000E1,-2.987005934E-2,-3.794809580E-1,9.875861168E0
3.229200000E1,1.556805670E-1,-5.714864135E-1,9.970020294E0
3.231200000E1,2.679782212E-1,-6.780474782E-1,9.973401070E0
3.233200000E1,1.558242142E-1,-6.002168059E-1,9.911066055E0
3.235200000E1,7.552269846E-2,-5.573509932E-1,1.003672409E1
3.237200000E1,1.394478977E-1,-6.105405688E-1,1.006817341E1
3.239200156E1,2.751895487E-1,-7.305762768E-1,9.975977898E0
3.241200156E1,2.926672101E-1,-7.533403039E-1,9.867664337E0
3.243400156E1,1.827446222E-1,-6.711426377E-1,9.856488228E0
3.245400312E1,1.169136614E-1,-6.355360746E-1,9.850703239E0
3.247600156E1,1.959797740E-1,-6.757203341E-1,9.806937218E0
3.249600156E1,1.990730911E-1,-6.624373198E-1,9.659358025E0
3.251601875E1,1.287888885E-1,-7.174656391E-1,9.840600014E0
3.253800000E1,1.238185316E-1,-7.207121849E-1,9.926504135E0
3.255800156E1,1.297944635E-1,-7.148320079E-1,9.820919991E0
3.258000156E1,3.299209848E-2,-6.819069386E-1,9.887976646E0
3.260200156E1,-3.145981207E-2,-6.702998877E-1,9.974253654E0
3.262400000E1,-7.891288958E-3,-7.254431248E-1,9.948559761E0
3.264400156E1,-4.346912727E-2,-7.193427086E-1,9.838014603E0
3.266400156E1,-1.229757741E-1,-6.914071441E-1,9.846825600E0
3.268400313E1,-1.678814292E-1,-6.610869765E-1,9.976322174E0
3.270400781E1,-1.545792371E-1,-6.819739938E-1,9.890964508E0
3.272600000E1,-1.454142332E-1,-6.111822724E-1,9.784221649E0
3.274600156E1,-2.118868530E-1,-5.579160452E-1,9.858699799E0
3.276800156E1,-2.220191211E-1,-4.706330299E-1,9.861180305E0
3.278800156E1,-1.073176935E-1,-5.260061026E-1,9.910778046E0
3.280800156E1,5.391742103E-3,-5.139585137E-1,9.917041779E0
3.283000000E1,1.187619790E-1,-6.275010705E-1,9.805213928E0
3.285000156E1,1.790479720E-1,-5.121867657E-1,9.761237144E0
3.287000156E1,2.226703316E-1,-5.548610091E-1,9.665382385E0
3.289200156E1,3.183809519E-1,-5.243780613E-1,9.778274536E0
3.291400156E1,4.426591396E-1,-6.263902187E-1,9.769415855E0
3.293402031E1,5.574755073E-1,-6.183073521E-1,9.730725288E0
3.295600000E1,5.068237782E-1,-5.961849093E-1,9.797772408E0
3.297600156E1,3.458089232E-1,-6.239576936E-1,1.014945221E1
3.299600156E1,3.539204597E-1,-8.678214550E-1,1.066104507E1
3.301602031E1,3.480882049E-1,-1.145242453E0,1.090119362E1
3.303800000E1,1.811740249E-1,-1.216924787E0,1.096100044E1
3.305800156E1,-1.496759206E-1,-7.715075612E-1,1.125871372E1
3.308000156E1,-4.147140384E-1,-3.288866878E-1,1.059733009E1
3.310000156E1,-4.569765031E-1,1.579215378E-2,9.681989670E0
3.312200156E1,-5.475826263E-1,3.071090281E-1,9.020671844E0
3.314400156E1,-5.800576210E-1,4.537586868E-1,8.828063011E0
3.316400156E1,-6.074090004E-1,3.893546462E-1,8.980238914E0
3.318400156E1,-4.685165286E-1,1.296316534E-1,9.189396858E0
3.320400156E1,-2.877542973E-1,-3.018705249E-1,9.476672173E0
3.322600000E1,6.285258383E-2,-7.051019669E-1,9.632581711E0
3.324600156E1,2.421495616E-1,-7.292547226E-1,9.081647873E0
3.326800156E1,3.143586814E-1,-5.594866276E-1,8.495796204E0
3.329000156E1,2.939122021E-1,-5.179998875E-1,8.527610779E0
3.331200000E1,3.099150360E-1,-7.410437465E-1,9.090103149E0
3.333200156E1,2.682176232E-1,-8.894746900E-1,9.553314209E0
3.335400156E1,1.793735921E-1,-9.110799432E-1,1.016152859E1
3.337400781E1,5.610093474E-2,-7.799638510E-1,1.054449558E1
3.339600156E1,-8.564538509E-2,-5.288599730E-1,1.044412994E1
3.341602031E1,-1.692604870E-1,-3.427347839E-1,1.018306637E1
3.343800000E1,-2.735136151E-1,-2.280620784E-1,1.015742970E1
3.345800000E1,-3.951486349E-1,-1.470518708E-1,1.017524242E1
3.347800156E1,-4.133541286E-1,2.688209713E-2,9.963078499E0
3.350000156E1,-2.529713511E-1,3.732847869E-1,9.319669724E0
3.352000156E1,-1.243165284E-1,5.542672873E-1,8.850683212E0
3.354200156E1,1.226022765E-1,2.677675188E-1,9.671818733E0
3.356400156E1,7.051307559E-1,-3.388082683E-1,1.043704414E1
3.358400156E1,1.250280857E0,-7.161152959E-1,1.037273502E1
3.360400156E1,1.528697729E0,-9.958921671E-1,1.025501728E1
3.362600000E1,1.644337773E0,-1.092694402E0,1.043723488E1
3.364600000E1,1.748868585E0,-1.114491343E0,1.040202141E1
3.366600156E1,1.853906989E0,-1.039121866E0,9.755672455E0
3.368600156E1,1.907019973E0,-9.776004553E-1,9.253599167E0
3.370600156E1,2.027553797E0,-1.076979041E0,9.121419907E0
3.372800000E1,2.077611685E0,-1.162135959E0,9.555689812E0
3.374800000E1,1.951619148E0,-1.699701309E0,9.832277298E0
3.376800156E1,1.619437933E0,-1.896188617E0,1.042659473E1
3.378800156E1,1.261303663E0,-2.259207010E0,1.105462265E1
3.380800156E1,1.128396869E0,-2.448607445E0,1.160420704E1
3.383000000E1,1.251612067E0,-2.695411444E0,1.143349075E1
3.385000000E1,1.173398137E0,-2.618998051E0,1.052585793E1
3.387000156E1,7.078888416E-1,-2.100069284E0,9.695195198E0
3.389200156E1,1.008437723E-1,-1.562417746E0,9.262639999E0
3.391400000E1,-2.651147544E-1,-1.318908215E0,8.988235474E0
3.393400469E1,-3.348817825E-1,-1.364091635E0,8.905452728E0
3.395600156E1,-2.597421706E-1,-1.753733635E0,9.094423294E0
3.397800156E1,-3.353031576E-1,-2.013628960E0,9.554080963E0
3.399800156E1,-5.127326846E-1,-2.159387827E0,9.798844337E0
3.401800156E1,-7.719672322E-1,-2.167997599E0,9.934557915E0
3.404000000E1,-9.922912717E-1,-2.054474115E0,9.990716934E0
3.406000156E1,-1.226195216E0,-1.865925908E0,9.907341003E0
3.408000156E1,-1.469072580E0,-1.591129065E0,9.702387810E0
3.410200156E1,-1.670032382E0,-1.362779617E0,9.554598808E0
3.412400156E1,-1.919211149E0,-9.670180678E-1,9.438910484E0
3.414400156E1,-1.864901066E0,-9.789986610E-1,9.271689415E0
3.416400156E1,-1.646214724E0,-1.051159859E0,9.380271912E0
3.418400156E1,-1.455837369E0,-1.170515656E0,9.529688835E0
3.420400156E1,-1.505579352E0,-1.192235827E0,9.768420219E0
3.422400156E1,-1.400454760E0,-1.143298388E0,1.002280903E1
3.424400156E1,-1.032954335E0,-1.151534438E0,1.003233719E1
3.426600000E1,-4.933779240E-1,-1.182007790E0,9.442424774E0
3.428600000E1,-6.015192345E-2,-1.163208485E0,8.990150452E0
3.430600156E1,2.739924192E-1,-1.046017051E0,8.729575157E0
3.432800000E1,2.533352673E-1,-1.134554744E0,8.580646515E0
3.434800156E1,-1.945719868E-1,-1.581303239E0,9.722393990E0
3.437000000E1,-2.008831054E-1,-2.212069988E0,1.180781937E1
3.439000000E1,4.348923564E-1,-2.714967251E0,1.271382427E1
3.441000156E1,9.491190314E-1,-2.475767374E0,1.126183605E1
3.443000156E1,9.023746252E-1,-1.495849371E0,9.201291084E0
3.445000156E1,5.707489848E-1,-4.509431124E-1,8.146999359E0
3.447200156E1,3.475327492E-1,2.462771535E-1,7.845300674E0
3.449400156E1,6.275681853E-1,3.617064357E-1,7.978188992E0
3.451400156E1,1.061703920E0,-1.772858500E-1,8.316230774E0
3.453400156E1,1.249792457E0,-9.358934164E-1,9.185603142E0
3.455400469E1,1.149542451E0,-1.709977150E0,1.053773403E1
3.457400938E1,1.033126712E0,-2.068427563E0,1.172685719E1
3.459600156E1,1.399698257E0,-2.273888111E0,1.235453987E1
3.461601875E1,1.753350496E0,-2.113620281E0,1.103274059E1
3.463800000E1,1.534577966E0,-1.669802547E0,9.707827568E0
3.465800000E1,1.125830173E0,-1.357771039E0,1.002303791E1
3.467800000E1,1.006551147E0,-1.399420381E0,1.075932217E1
3.469800156E1,1.344334722E0,-1.658674240E0,1.074838543E1
3.471800156E1,1.591282248E0,-1.663807392E0,1.022627735E1
3.474000000E1,1.393166900E0,-1.293778658E0,1.004993916E1
3.476000156E1,9.904237390E-1,-8.904898167E-1,1.014129257E1
3.478200000E1,6.985131502E-1,-7.881328464E-1,1.015625191E1
3.480200000E1,5.336005092E-1,-9.563494921E-1,1.028777885E1
3.482200156E1,4.559134543E-1,-1.164453506E0,1.072785282E1
3.484400156E1,3.264541924E-1,-1.504276991E0,1.096230316E1
3.486400156E1,1.522329301E-1,-1.580968022E0,1.084315681E1
3.488400156E1,-8.365340531E-2,-1.419742465E0,1.056341934E1
3.490400156E1,-2.485660315E-1,-1.157912612E0,1.007401562E1
3.492400156E1,-2.773730457E-1,-8.721119165E-1,9.516472816E0
3.494400156E1,-1.713578105E-1,-5.944036841E-1,9.006814003E0
3.496400156E1,6.856993586E-2,-3.362033665E-1,8.641448975E0
3.498600000E1,4.229213595E-1,-2.074432075E-1,8.519690514E0
3.500600000E1,8.203205466E-1,-2.342391163E-1,8.407449722E0
3.502600156E1,1.157318830E0,-4.682962596E-1,8.807569504E0
3.504800156E1,1.431789994E0,-6.948835254E-1,9.231514931E0
3.507000000E1,1.596386552E0,-1.007901430E0,9.602137566E0
3.509000156E1,1.681035995E0,-1.247436523E0,9.992009163E0
3.511200156E1,1.725261688E0,-1.356688738E0,1.029811192E1
3.513400156E1,1.669218302E0,-1.393511653E0,1.032372093E1
3.515400625E1,1.625634313E0,-1.362224102E0,1.034353542E1
3.517600156E1,1.621343851E0,-1.252675056E0,1.018408203E1
3.519600156E1,1.579742193E0,-1.029995084E0,9.913172722E0
3.521601875E1,1.491319418E0,-8.110501766E-1,9.623570442E0
3.523800000E1,1.436884880E0,-7.146979570E-1,9.639027596E0
3.525800156E1,1.536531568E0,-8.612231016E-1,9.946298599E0
3.527800156E1,1.704757810E0,-1.024641752E0,1.001557827E1
3.530000156E1,1.755304217E0,-1.137121320E0,9.826531410E0
3.532000156E1,1.534281015E0,-1.035549641E0,9.825152397E0
3.534000156E1,1.343807936E0,-8.212399483E-1,9.830927849E0
3.536000156E1,1.235542059E0,-7.595365644E-1,9.547826767E0
3.538000156E1,1.213754892E0,-8.718054891E-1,9.537034035E0
3.540200156E1,1.214540124E0,-9.964858890E-1,9.636881828E0
3.542400156E1,1.158362627E0,-1.053870082E0,9.674136162E0
3.544400156E1,1.003534436E0,-1.075781822E0,9.707520485E0
3.546400156E1,9.285863638E-1,-1.082428217E0,9.903969765E0
3.548400469E1,8.922136426E-1,-1.091918826E0,9.994614601E0
3.550600000E1,8.195831180E-1,-9.471845031E-1,9.804467201E0
3.552600156E1,7.513675690E-1,-6.517400146E-1,9.639190674E0
3.554800156E1,7.521719933E-1,-2.148269415E-1,9.476528168E0
3.557000000E1,9.541276693E-1,1.368621588E-1,8.901958466E0
3.559000156E1,1.325334311E0,2.416994423E-1,8.429821014E0
3.561200156E1,1.386683345E0,5.104437936E-3,8.563523293E0
3.563400156E1,7.937831879E-1,-1.148067594E0,1.036902905E1
3.565400312E1,1.320555449E0,-2.122019291E0,1.237612724E1
3.567600469E1,2.433179140E0,-2.692136288E0,1.195853043E1
3.569800156E1,2.851848602E0,-2.242265701E0,8.957454681E0
3.572000156E1,2.245473862E0,-1.628440142E0,7.507258892E0
3.574201406E1,1.375344396E0,-1.051447153E0,7.864818573E0
3.576401719E1,2.031240761E-1,-8.200236559E-1,9.317409515E0
3.578600000E1,-1.030215502E0,-8.044517599E-3,1.058683395E1
3.580600156E1,-5.039028525E-1,1.883949488E-1,1.011127949E1
3.582800000E1,5.812547207E-1,-9.678320885E-1,9.532561302E0
3.584800156E1,7.716224790E-1,-1.686868310E0,9.935764313E0
3.586800156E1,1.929535121E-1,-1.608309865E0,1.118107510E1
3.589000000E1,-2.068973333E-1,-1.353968978E0,1.202981091E1
3.591000000E1,-9.230126441E-2,-1.138203502E0,1.146051693E1
3.593000156E1,3.313575089E-1,-7.558973432E-1,9.902475357E0
3.595200000E1,6.752893925E-1,-7.024683952E-1,8.730216980E0
3.597200156E1,4.961647987E-1,-3.532979786E-1,8.387989998E0
3.599400156E1,-1.638591662E-2,1.624322236E-1,8.686518669E0
3.601400469E1,-2.148939669E-1,2.562466264E-1,8.804743767E0
3.603600156E1,-2.535746992E-1,1.157165542E-1,8.802521706E0
3.605600156E1,3.964798059E-3,-3.304668665E-1,9.208894730E0
3.607800000E1,2.859634459E-1,-8.809896111E-1,9.558591843E0
3.609800156E1,1.959127337E-1,-1.166388035E0,9.848921776E0
3.611800156E1,-9.107543156E-3,-1.220554471E0,1.015895176E1
3.614000000E1,-1.193174347E-1,-1.169136643E0,1.053966904E1
3.616000000E1,-2.291442603E-1,-9.429227710E-1,1.038197613E1
3.618000156E1,-3.567360640E-1,-7.206547260E-1,1.018363190E1
3.620200000E1,-3.949570954E-1,-5.273085237E-1,1.016061783E1
3.622200156E1,-4.852280617E-1,-2.936632037E-1,1.017529964E1
3.624201562E1,-6.257964373E-1,-7.343494892E-2,9.998109818E0
3.626400156E1,-7.747445107E-1,5.286397412E-3,1.015168381E1
3.628400156E1,-8.998846412E-1,1.208880320E-1,1.039983749E1
3.630400156E1,-9.196032882E-1,-2.170104347E-2,1.054486942E1
3.632400156E1,-7.942811847E-1,3.038720787E-2,1.049307728E1
3.634400156E1,-5.603964329E-1,-8.606676757E-2,1.037512016E1
3.636400156E1,-2.936057448E-1,-8.533892781E-2,1.010241127E1
3.638600156E1,-1.277354509E-1,-3.645890579E-2,9.861477852E0
3.640600156E1,-5.621585622E-2,-2.061886527E-2,9.959438324E0
3.642600156E1,-1.155920550E-1,1.099896207E-1,1.004385853E1
3.644600156E1,-3.722026050E-1,-2.231012881E-1,1.034338188E1
3.646600156E1,-4.120995700E-1,-9.991003275E-1,1.087472248E1
3.648600156E1,2.699606121E-1,-1.973540425E0,1.172131252E1
3.650600156E1,8.566645384E-1,-2.537116528E0,1.203422451E1
3.652600156E1,9.512450695E-1,-3.101123333E0,1.161594868E1
3.654800156E1,1.458260417E-1,-2.132563114E0,1.087693501E1
3.656800781E1,-6.150129437E-1,-1.306017876E0,1.093819809E1
3.659000156E1,-6.263518929E-1,-6.121208072E-1,9.864800453E0
3.661200156E1,2.557581961E-1,-4.150492251E-1,8.057609558E0
3.663400469E1,1.276588321E0,-4.640346169E-1,6.683337212E0
3.665400469E1,1.690804482E0,-3.623576462E-1,6.148415565E0
3.667600312E1,1.165516615E0,-5.671864152E-1,6.683825493E0
3.669800156E1,1.051437631E-1,-1.262539148E0,9.037287712E0
3.671800156E1,-9.639056027E-2,-1.883939862E0,1.080524349E1
3.674000000E1,4.746457040E-1,-3.077449560E0,1.316671085E1
3.676000000E1,1.231012344E0,-3.634599447E0,1.275742722E1
3.678000000E1,1.606202841E0,-3.470069885E0,1.094234467E1
3.680000156E1,1.177142859E0,-2.301689625E0,9.675304413E0
3.682200156E1,5.208729506E-1,-1.040366769E0,8.662959099E0
3.684400000E1,6.600335240E-2,-1.633228660E-1,7.508293152E0
3.686400156E1,-2.387689501E-1,3.609306812E-1,6.892792225E0
3.688600156E1,-3.537576497E-1,2.961340249E-1,7.102179050E0
3.690800156E1,-3.026941121E-1,-3.284844756E-2,7.901449680E0
3.693000000E1,-6.940311939E-2,-4.317607582E-1,8.463761330E0
3.695000156E1,7.375099510E-2,-5.544587970E-1,8.873456955E0
3.697000156E1,3.507984057E-2,-5.809195042E-1,9.252976418E0
3.699000156E1,9.260771796E-3,-6.731920838E-1,9.723648071E0
3.701000156E1,1.589749940E-3,-7.878839374E-1,1.021730328E1
3.703200156E1,-1.291145086E-1,-1.057710409E0,1.087872601E1
3.705200156E1,-2.347562760E-1,-1.199964404E0,1.168258381E1
3.707400156E1,-1.117804870E-1,-1.190703511E0,1.246798706E1
3.709600156E1,-3.289824426E-1,-1.355098963E0,1.191620064E1
3.711601875E1,-4.830828607E-1,-1.618777275E0,1.195638466E1
3.713800156E1,8.283937350E-3,-2.155097723E0,1.236423206E1
3.716000156E1,4.916541278E-1,-2.943470001E0,1.166105461E1
3.718200000E1,6.961380690E-2,-3.484032631E0,1.160712814E1
3.720200000E1,-6.015384197E-1,-3.462255239E0,1.254821205E1
3.722200000E1,-8.272157907E-1,-3.289977789E0,1.175246620E1
3.724201406E1,-8.137891889E-1,-2.990185499E0,9.445556641E0
3.726400000E1,-1.394852281E0,-3.012911320E0,7.655345440E0
3.728400156E1,-2.174528837E0,-3.048680782E0,7.694820881E0
3.730600156E1,-2.673327446E0,-3.455771446E0,9.954602242E0
3.732800000E1,-2.009357691E0,-3.846591473E0,1.127492809E1
3.734800156E1,-1.074527383E0,-4.096421719E0,1.100192165E1
3.736800156E1,-5.217157006E-1,-3.187458277E0,9.100705147E0
3.739000000E1,-6.601388454E-1,-1.807153106E0,7.821043015E0
3.741000156E1,-7.843213677E-1,-1.026566625E0,7.446743011E0
3.743200000E1,-5.585768223E-1,-6.660286188E-1,7.439876556E0
3.745200000E1,-1.449066550E-1,-7.333152294E-1,7.435011387E0
3.747200156E1,1.636580527E-1,-8.346474767E-1,7.630589008E0
3.749400938E1,4.281024039E-1,-8.726577759E-1,7.880773544E0
3.751401094E1,7.108384967E-1,-8.813439608E-1,8.131360054E0
3.753600156E1,8.207132220E-1,-9.073258042E-1,8.172445297E0
3.755800156E1,8.409777284E-1,-8.692484498E-1,8.521739006E0
3.757800156E1,7.756351233E-1,-6.954964399E-1,8.914551735E0
3.760000000E1,6.928724051E-1,-2.508069873E-1,8.650088310E0
3.762000156E1,6.290047169E-1,-6.504566967E-2,8.532465935E0
3.764200000E1,8.216900229E-1,-2.595314682E-1,9.198532104E0
3.766200000E1,1.235743284E0,-5.092850327E-1,9.988408089E0
3.768200156E1,1.595946193E0,-7.315626740E-1,1.031544590E1
3.770400156E1,1.598349810E0,-9.400019050E-1,1.034446526E1
3.772400312E1,1.352656960E0,-9.554205537E-1,1.084851074E1
3.774600156E1,1.206256270E0,-9.909313321E-1,1.145915699E1
3.776800156E1,1.023549914E0,-1.097482920E0,1.175424671E1
3.779000156E1,9.049220681E-1,-1.375497580E0,1.204501724E1
3.781000156E1,1.153200865E0,-1.815647721E0,1.249421787E1
3.783200156E1,1.659555316E0,-2.380143166E0,1.260165024E1
3.785400156E1,1.896341801E0,-2.796782017E0,1.193153286E1
3.787600781E1,1.700448275E0,-2.237582445E0,1.059305954E1
3.789800000E1,1.576658487E0,-1.475852847E0,9.362152100E0
3.791800156E1,1.747106433E0,-1.008782506E0,7.455467224E0
3.794000156E1,2.060880899E0,-9.452499747E-1,6.017040730E0
3.796200156E1,1.855190277E0,-1.280955315E0,6.626949310E0
3.798400156E1,1.372452140E0,-2.575758696E0,9.522515297E0
3.800400313E1,1.383953929E0,-3.709614515E0,1.191066551E1
3.802600156E1,1.645391226E0,-4.670167923E0,1.404628277E1
3.804800156E1,2.073666096E0,-4.937389851E0,1.300610828E1
3.807000000E1,1.650744677E0,-3.534550190E0,1.038766479E1
3.809000156E1,1.084401011E0,-2.257358551E0,8.978179932E0
3.811200156E1,6.815430522E-1,-9.133304954E-1,7.518693447E0
3.813400625E1,4.434348643E-1,-1.022802964E-1,6.292297363E0
3.815600000E1,3.582779169E-1,2.167710215E-1,6.084930897E0
3.817600156E1,2.798247039E-1,2.884534188E-2,7.049966335E0
3.819800156E1,5.324608684E-1,-3.235619664E-1,8.496361732E0
3.821800156E1,8.336610198E-1,-5.205473900E-1,9.255016327E0
3.823800156E1,1.009989142E0,-5.347976089E-1,9.430406570E0
3.826000000E1,1.116531134E0,-4.071866870E-1,9.581700325E0
3.828000000E1,1.211542726E0,-3.767037094E-1,9.990974426E0
3.830000156E1,1.389948964E0,-4.510005414E-1,1.036682606E1
3.832200156E1,1.440208077E0,-8.223603964E-1,1.103954887E1
3.834400156E1,1.566181421E0,-1.057289004E0,1.173193264E1
3.836400156E1,1.687634468E0,-1.263803363E0,1.241061211E1
3.838400156E1,1.878414035E0,-1.159751296E0,1.192624569E1
3.840400156E1,2.047981024E0,-3.775368631E-1,1.057026672E1
3.842401562E1,1.831324816E0,3.087370992E-1,9.466606140E0
3.844600156E1,6.613455415E-1,-2.794512212E-1,9.878801346E0
3.846600156E1,-1.283292025E-1,-1.897663474E0,1.271549988E1
3.848800156E1,1.182093978E0,-3.468738556E0,1.489810181E1
3.851000156E1,3.010555506E0,-4.428497791E0,1.322585773E1
3.853200156E1,3.473622799E0,-4.074414253E0,8.635206223E0
3.855200156E1,2.558319330E0,-2.676248312E0,6.080247402E0
3.857400781E1,1.200778365E0,-9.495882392E-1,6.259611607E0
3.859600156E1,4.714374840E-1,-2.154015303E-1,8.199269295E0
3.861602031E1,7.915996909E-1,-3.359352350E-1,9.361835480E0
3.863800156E1,2.099848986E0,-1.689990401E0,9.086349487E0
3.866000000E1,3.007136583E0,-2.504526615E0,9.488211632E0
3.868000000E1,3.017795324E0,-2.990702629E0,1.062840748E1
3.870000000E1,2.514352322E0,-2.807048321E0,1.124655151E1
3.872000156E1,1.845460176E0,-1.967238903E0,1.019066143E1
3.874201406E1,1.444306970E0,-1.477873683E0,8.674777031E0
3.876400000E1,1.272374511E0,-1.259560823E0,8.146328926E0
3.878400156E1,1.249782801E0,-1.475259185E0,8.226669312E0
3.880400156E1,1.201400876E0,-1.822734475E0,8.327053070E0
3.882400156E1,9.546735883E-1,-2.181634903E0,8.385414124E0
3.884400156E1,6.390603185E-1,-2.464370966E0,8.752799034E0
3.886400156E1,2.986910343E-1,-2.674208403E0,9.234799385E0
3.888600156E1,7.681556791E-2,-2.967517376E0,9.665478706E0
3.890800156E1,-3.393062577E-2,-3.186969757E0,9.996443748E0
3.893000000E1,-2.314618379E-1,-3.253815889E0,9.893003464E0
3.895000156E1,-4.866837561E-1,-3.053449869E0,9.603430748E0
3.897200000E1,-7.289960980E-1,-2.834993362E0,9.357775688E0
3.899200000E1,-7.298005223E-1,-2.790834665E0,9.169955254E0
3.901200000E1,-5.531851053E-1,-2.856033802E0,9.023104668E0
3.903200156E1,-2.696733177E-1,-2.968532562E0,9.003108025E0
3.905200156E1,5.253836140E-2,-2.969499826E0,9.002160072E0
3.907400156E1,1.020025685E-1,-2.833029985E0,8.709272385E0
3.909401563E1,-4.293186665E-1,-3.050873756E0,9.243534088E0
3.911601875E1,-5.070344806E-1,-3.648983717E0,1.157351398E1
3.913800156E1,5.361096561E-2,-4.157416344E0,1.342878056E1
3.916000000E1,5.493256450E-1,-4.171542168E0,1.217986870E1
3.918000000E1,5.776825547E-1,-3.426284552E0,9.591210365E0
3.920000000E1,2.614085078E-1,-2.437086582E0,8.429255486E0
3.922000156E1,3.080283999E-1,-1.820570111E0,8.109381676E0
3.924201406E1,5.763418078E-1,-1.528487086E0,7.586525917E0
3.926400156E1,7.607432008E-1,-1.507992625E0,7.422561646E0
3.928400156E1,8.623435497E-1,-1.451949239E0,8.036722183E0
3.930400156E1,7.580425143E-1,-1.470940113E0,9.008327484E0
3.932400156E1,7.439550757E-1,-1.532327414E0,9.864589691E0
3.934400156E1,9.135603309E-1,-1.458356023E0,1.068473816E1
3.936400156E1,7.658572197E-1,-1.647929072E0,1.097253990E1
3.938400156E1,8.709818721E-1,-1.691063046E0,1.197859383E1
3.940400156E1,1.888517618E0,-1.973492503E0,1.200655746E1
3.942400156E1,2.836573601E0,-2.270766258E0,9.969292641E0
3.944400156E1,2.931719303E0,-2.443120003E0,8.738414764E0
3.946400156E1,2.441473007E0,-2.891640186E0,9.635493279E0
3.948600000E1,1.741925359E0,-3.187285900E0,1.127234173E1
3.950600156E1,1.289382935E0,-3.330851793E0,1.154623890E1
3.952600156E1,9.053721428E-1,-3.301269054E0,1.104798603E1
3.954600156E1,5.199248791E-1,-3.035914898E0,1.070104694E1
3.956600469E1,5.431006849E-2,-2.550897360E0,1.041846466E1
3.958800000E1,-3.366055787E-1,-1.978118181E0,1.003180122E1
3.960800000E1,-4.271830320E-1,-1.556834459E0,9.571558952E0
3.962800156E1,-5.242439508E-1,-1.084601998E0,9.074532509E0
3.965000156E1,-5.549089313E-1,-8.268710971E-1,8.796363831E0
3.967200000E1,-2.692232132E-1,-8.141243458E-1,8.773638725E0
3.969200156E1,1.489193458E-2,-9.095284939E-1,8.847035408E0
3.971400469E1,2.484798282E-1,-9.693069458E-1,8.814301491E0
3.973600156E1,4.050989449E-1,-9.049412012E-1,8.891462326E0
3.975600156E1,5.627906322E-1,-1.059328914E0,9.052898407E0
3.977800156E1,6.603112817E-1,-1.390035152E0,9.404865265E0
3.980000156E1,6.600431204E-1,-1.834331989E0,1.027307892E1
3.982200156E1,6.530137062E-1,-2.189334631E0,1.106023502E1
3.984400156E1,6.455916762E-1,-2.441386700E0,1.110262203E1
3.986400156E1,4.229405224E-1,-2.591158152E0,1.076572990E1
3.988600156E1,-1.866806895E-1,-2.600332975E0,1.089983273E1
3.990600156E1,-7.702434063E-1,-2.548340321E0,1.128627682E1
3.992800000E1,-1.229556680E0,-2.539366961E0,1.133162308E1
3.994800156E1,-1.217576027E0,-2.551462412E0,1.076105595E1
3.997000000E1,-1.167355299E0,-2.532136440E0,9.345613480E0
3.999000000E1,-1.305108070E0,-2.233905077E0,8.724184036E0
4.001000000E1,-1.510329485E0,-2.065439463E0,8.703919411E0
4.003000000E1,-1.466783643E0,-2.045653820E0,8.549253464E0
4.005000000E1,-1.409389853E0,-2.124892235E0,8.639017105E0
4.007000000E1,-1.292821050E0,-2.414159775E0,9.112647057E0
4.009000156E1,-1.048909307E0,-2.472405910E0,9.324027061E0
4.011000156E1,-1.010946870E0,-2.268870115E0,9.139040947E0
4.013200000E1,-1.075523257E0,-1.652133346E0,8.782755852E0
4.015200000E1,-1.132534027E0,-1.061512470E0,8.347882271E0
4.017200000E1,-1.099896193E0,-6.336111426E-1,7.973448277E0
4.019200000E1,-9.224954844E-1,-4.336090684E-1,7.822144032E0
4.021200156E1,-8.241129518E-1,-4.348253608E-1,7.839334488E0
4.023400156E1,-7.435432673E-1,-5.871348977E-1,7.935571671E0
4.025600156E1,-6.492213011E-1,-8.014829755E-1,8.306126595E0
4.027600156E1,-6.463674307E-1,-1.023521185E0,8.950015068E0
4.029600156E1,-5.655008554E-1,-1.219290257E0,9.757320404E0
4.031601875E1,-2.838661075E-1,-1.297935009E0,1.042666245E1
4.033800156E1,8.797255158E-2,-1.242437482E0,1.056282520E1
4.036000000E1,2.099044472E-1,-1.019968271E0,1.047647095E1
4.038000156E1,1.571649760E-1,-9.809331894E-1,1.077397442E1
4.040200156E1,1.265096217E-1,-1.049637198E0,1.121721745E1
4.042400156E1,1.106600016E-1,-1.160440803E0,1.152723789E1
4.044400156E1,1.761366278E-1,-1.480765820E0,1.205164528E1
4.046400156E1,2.399564683E-1,-1.675395250E0,1.245896626E1
4.048400156E1,3.271054029E-1,-1.743907809E0,1.231973839E1
4.050400156E1,4.695891440E-1,-1.483562231E0,1.165472507E1
4.052400156E1,7.838616371E-1,-8.480262160E-1,1.078829193E1
4.054400156E1,1.057068706E0,-1.680729538E-1,9.663419724E0
4.056400156E1,6.401903629E-1,7.545565814E-2,8.456789970E0
4.058400156E1,1.062077403E0,-9.395231009E-1,9.362765312E0
4.060600156E1,2.602995396E0,-3.551664114E0,1.202436161E1
4.062800156E1,3.828711748E0,-4.927277088E0,1.187215614E1
4.065000156E1,3.864701271E0,-5.133034229E0,9.901652336E0
4.067000156E1,2.313727856E0,-4.536523819E0,9.259804726E0
4.069200156E1,2.780051231E-1,-3.787741899E0,1.134445477E1
4.071400156E1,-5.087582469E-1,-3.080801249E0,1.323994541E1
4.073400625E1,-2.023579180E-1,-3.121157885E0,1.280407619E1
4.075600156E1,7.293792367E-1,-3.321131229E0,1.013075829E1
4.077800156E1,7.931032777E-1,-2.756741285E0,9.004764557E0
4.080000156E1,3.732847869E-1,-1.908705473E0,8.469058037E0
4.082200156E1,-1.488906145E-1,-1.112125874E0,7.667689323E0
4.084400000E1,-5.530893207E-1,-6.643143296E-1,7.153424740E0
4.086400156E1,-8.001230359E-1,-3.407619298E-1,7.068354130E0
4.088600156E1,-7.811705470E-1,-3.858782649E-1,7.340909481E0
4.090800156E1,-5.680578351E-1,-5.746755004E-1,7.417772770E0
4.093000000E1,-4.267520607E-1,-9.534477592E-1,7.521221638E0
4.095000156E1,-5.601378679E-1,-1.066971183E0,8.081043243E0
4.097200156E1,-7.282491326E-1,-1.113504887E0,8.542367935E0
4.099400156E1,-5.482051373E-1,-1.230025887E0,8.874941826E0
4.101601875E1,1.508347038E-2,-1.645343304E0,9.231305122E0
4.103800000E1,1.113083482E0,-1.781429648E0,1.031083965E1
4.105800156E1,1.570328116E0,-1.175792456E0,9.374773979E0
4.107800156E1,-6.630980968E-2,-4.615254700E-1,7.428662300E0
4.110000000E1,-3.221254587E0,2.202856988E-1,7.937850952E0
4.112000156E1,-4.309218407E0,6.782294810E-2,1.160664940E1
4.114200000E1,-3.207377911E0,-2.680356741E0,1.642113113E1
4.116200000E1,-9.547214508E-1,-4.904139042E0,1.559086895E1
4.118200156E1,4.292803705E-1,-4.840721607E0,1.182286549E1
4.120400156E1,5.262455344E-2,-2.532624722E0,8.568302155E0
4.122400469E1,-1.275247574E0,-2.466123551E-1,7.938099861E0
4.124400938E1,-2.238865852E0,9.300802946E-1,7.967453003E0
4.126600000E1,-2.266360760E0,9.351081252E-1,8.147142410E0
4.128600000E1,-1.265335560E0,-3.598484993E-1,8.369966507E0
4.130600156E1,-4.699434936E-1,-1.114318967E0,8.723407745E0
4.132600156E1,1.047702655E-1,-1.608855724E0,9.159124374E0
4.134800156E1,7.169197500E-2,-1.426723957E0,9.254815102E0
4.136800156E1,-1.032762825E-1,-1.363200903E0,9.510592461E0
4.138800156E1,1.260307804E-2,-1.732951880E0,9.881521225E0
4.140800156E1,3.617925942E-1,-2.170640707E0,1.040013504E1
4.143000000E1,7.118248940E-1,-2.630892515E0,1.078147316E1
4.145000156E1,1.090530157E0,-3.177517653E0,1.100220871E1
4.147200156E1,1.344277263E0,-3.050595999E0,1.087329578E1
4.149401406E1,1.271014690E0,-2.483495951E0,1.026429653E1
4.151602500E1,9.418789744E-1,-1.706654072E0,9.239061356E0
4.153800000E1,6.060969234E-1,-1.145012617E0,8.576682091E0
4.155800156E1,2.887981832E-1,-9.971179962E-1,8.599694252E0
4.158000156E1,-8.368213475E-2,-1.087235689E0,9.118106842E0
4.160200000E1,-1.804078817E-1,-1.495945096E0,9.767710686E0
4.162200000E1,-1.418708265E-1,-1.684838057E0,1.012302971E1
4.164200000E1,-1.355501264E-1,-1.595093727E0,1.045271111E1
4.166200000E1,-1.943612993E-1,-1.507408619E0,1.053829861E1
4.168200156E1,-4.922382832E-1,-1.370613456E0,1.026673889E1
4.170400156E1,-5.385326147E-1,-1.595323563E0,1.067152214E1
4.172400156E1,1.190205514E-1,-1.993958235E0,1.122498417E1
4.174400156E1,8.716139197E-1,-2.264330626E0,1.061443424E1
4.176400156E1,1.091909170E0,-1.943440557E0,8.857617378E0
4.178400156E1,6.142563820E-1,-1.405970931E0,7.957885742E0
4.180400156E1,-2.611403763E-1,-9.881349206E-1,8.873524666E0
4.182400156E1,-9.463321567E-1,-1.076969385E0,1.037323380E1
4.184600000E1,-1.043718696E0,-1.398874640E0,1.090084839E1
4.186600000E1,-4.532510936E-1,-1.965926886E0,1.062337971E1
4.188600156E1,2.226224542E-1,-2.397745132E0,1.051445293E1
4.190800156E1,7.347326279E-1,-2.393857002E0,1.056211662E1
4.193000156E1,1.030445337E0,-1.802967906E0,9.794401169E0
4.195200000E1,1.090194941E0,-1.170553923E0,8.547281265E0
4.197200000E1,1.176309586E0,-8.623818755E-1,7.898221970E0
4.199200000E1,1.388282537E0,-7.785848379E-1,7.907741547E0
4.201200000E1,1.494719267E0,-1.103181124E0,8.376276970E0
4.203200000E1,1.476695657E0,-1.420010567E0,9.181935310E0
4.205200000E1,1.340197563E0,-1.556843996E0,9.993263245E0
4.207200000E1,1.264425755E0,-1.629101038E0,1.069144154E1
4.209200000E1,1.220506549E0,-1.651319265E0,1.105830097E1
4.211200156E1,1.352340937E0,-1.499459863E0,1.108449364E1
4.213400156E1,1.555369139E0,-1.524914861E0,1.100107956E1
4.215400156E1,1.634808779E0,-1.045930862E0,1.017002201E1
4.217400156E1,1.462866783E0,-6.945866942E-1,9.429774284E0
4.219400156E1,1.212529063E0,-4.033463597E-1,9.225960732E0
4.221400781E1,1.105565667E0,-3.574830294E-1,9.361817360E0
4.223600156E1,1.091746330E0,-6.113929152E-1,9.580493927E0
4.225800000E1,1.055210948E0,-7.952867150E-1,9.709465027E0
4.227800156E1,8.871475458E-1,-8.193054199E-1,9.865211487E0
4.229800156E1,6.657987833E-1,-7.860643268E-1,9.916677475E0
4.232000000E1,5.791094899E-1,-7.533786893E-1,9.919943810E0
4.234000000E1,6.011744738E-1,-8.507269025E-1,9.792514801E0
4.236000000E1,5.745605230E-1,-8.156949282E-1,9.633118629E0
4.238000156E1,4.900356233E-1,-7.354221344E-1,9.585875511E0
4.240200156E1,4.275086522E-1,-6.576105952E-1,9.642063141E0
4.242400156E1,4.160643518E-1,-5.586630106E-1,9.578607559E0
4.244400156E1,4.062385559E-1,-4.962605536E-1,9.568024635E0
4.246400156E1,4.092743993E-1,-4.732474983E-1,9.618475914E0
4.248400469E1,4.270106554E-1,-3.725090623E-1,9.689333916E0
4.250600000E1,4.522646964E-1,-3.627598584E-1,9.723169327E0
4.252600156E1,4.602613151E-1,-3.564583063E-1,9.640587807E0
4.254800156E1,3.466516733E-1,-4.216476381E-1,9.712673187E0
4.256800156E1,2.996199727E-1,-5.680387020E-1,1.008502865E1
4.259000156E1,3.557305038E-1,-7.300399542E-1,1.040295029E1
4.261000156E1,4.241184592E-1,-7.670447230E-1,1.055095005E1
4.263200000E1,5.189863443E-1,-6.673502326E-1,1.046515179E1
4.265200000E1,6.616328955E-1,-3.570042253E-1,1.021479511E1
4.267200000E1,9.151309133E-1,-2.470816299E-2,9.953299522E0
4.269200156E1,5.401893854E-1,-9.497319162E-2,9.905328751E0
4.271400156E1,-7.676576376E-1,-8.663754463E-1,1.121590614E1
4.273400156E1,-5.225967169E-1,-2.017105341E0,1.398713684E1
