"Time (s)","Gyroscope x (rad/s)","Gyroscope y (rad/s)","Gyroscope z (rad/s)"
1.548510000E-1,-2.665117681E-1,-1.221730490E-4,-2.216219008E-1
1.748510000E-1,-2.638065219E-1,7.752752304E-2,-2.803173363E-1
1.948572500E-1,-2.455852777E-1,1.786344498E-1,-3.691022396E-1
2.168713130E-1,-1.681799293E-1,1.743583977E-1,-4.153360128E-1
2.388510000E-1,-8.888962120E-2,2.286381321E-3,-3.984062970E-1
2.588525630E-1,-6.932447851E-2,-1.654572189E-1,-3.694512844E-1
2.808510000E-1,-2.740166895E-2,-2.811725438E-1,-3.954916000E-1
3.008931880E-1,-3.316125600E-3,-2.917317748E-1,-3.929957747E-1
3.228510000E-1,-2.520255372E-2,-2.766346931E-1,-3.287153244E-1
3.428619380E-1,-8.548622578E-2,-2.589021325E-1,-2.511703372E-1
3.648525630E-1,-1.454208344E-1,-2.266833633E-1,-1.686686128E-1
3.848556880E-1,-1.391725540E-1,-1.611462533E-1,-1.242848933E-1
4.068510000E-1,-4.209734127E-2,-1.314931065E-1,-1.152615398E-1
4.268588130E-1,2.124065720E-2,-1.534842551E-1,-8.454374969E-2
4.488510000E-1,1.239183731E-2,-2.727077007E-1,-3.159045801E-2
4.688572500E-1,-3.799581900E-2,-4.550247788E-1,4.066617228E-3
4.908510000E-1,-1.232202426E-1,-5.969898701E-1,1.815142459E-3
5.108510000E-1,-1.925447285E-1,-6.103067398E-1,3.996803891E-3
5.308510000E-1,-2.369808108E-1,-6.041282415E-1,4.756022245E-2
5.508588130E-1,-2.477494925E-1,-5.486617088E-1,1.438325793E-1
5.728510000E-1,-2.081654221E-1,-4.491779208E-1,2.568077445E-1
5.928525630E-1,-1.621410847E-1,-3.403217494E-1,3.229208291E-1
6.148572500E-1,-1.468694508E-1,-1.606226563E-1,3.469016552E-1
6.368510000E-1,-3.843215108E-2,-5.375614017E-2,3.267779946E-1
6.568525630E-1,3.626793995E-2,5.115560070E-2,3.270572424E-1
6.788525630E-1,-2.696533687E-2,6.452482194E-2,3.088011146E-1
7.008525630E-1,-4.286528751E-2,2.469640970E-2,3.665540516E-1
7.228510000E-1,-5.881759338E-3,-1.022762954E-1,4.002389014E-1
7.428666250E-1,-4.904375225E-2,-1.563815027E-1,3.545810878E-1
7.648525630E-1,-1.114741787E-1,-8.724901080E-2,3.078586161E-1
7.848525630E-1,-1.177748144E-1,5.323254038E-3,3.419449031E-1
8.048525630E-1,-1.073377505E-1,7.443828881E-2,4.323704243E-1
8.248525630E-1,-8.351400495E-2,5.843362212E-2,4.786739945E-1
8.448525630E-1,-4.899139330E-2,-4.839798063E-2,4.232597947E-1
8.668525630E-1,-4.838052765E-2,-6.696828455E-2,2.593384683E-1
8.888525630E-1,-7.876671106E-2,-7.290240377E-2,1.348441392E-1
9.108510000E-1,-7.375761122E-2,-1.863662601E-1,7.178539038E-2
9.308525630E-1,-9.784315526E-2,-2.224945724E-1,5.110324174E-2
9.528525630E-1,-1.182635128E-1,-2.188817412E-1,3.679154068E-2
9.748525630E-1,-1.220683306E-1,-1.352281123E-1,1.825614460E-2
9.948525630E-1,-9.859365225E-2,-7.204718888E-2,9.372417815E-3
1.014865063E0,-8.333947510E-2,-5.773549154E-2,3.063052893E-2
1.036851000E0,-6.569419056E-2,-5.635667965E-2,4.331907257E-2
1.056852563E0,-5.672319978E-2,-6.965608895E-2,4.426154867E-2
1.076868188E0,-8.520697057E-2,-4.146902263E-2,5.682792142E-2
1.098851000E0,-1.383522451E-1,-3.684389964E-2,6.241297349E-2
1.118852563E0,-1.498190612E-1,-5.284857005E-2,5.400048569E-2
1.140852563E0,-1.642354876E-1,-7.627088577E-3,3.745476529E-2
1.162851000E0,-1.816189587E-1,-2.844886621E-3,3.108431399E-2
1.182851000E0,-1.932777613E-1,-6.161012221E-3,2.607521974E-2
1.202851000E0,-1.943598688E-1,-5.061454722E-4,2.192133479E-2
1.222851000E0,-2.119004279E-1,8.936085738E-3,3.633775562E-2
1.242865063E0,-2.538232207E-1,5.811946467E-3,6.763150543E-2
1.264852563E0,-2.537883222E-1,7.278022822E-3,7.162830979E-2
1.284852563E0,-2.161415666E-1,9.459684789E-2,7.192502171E-2
1.306852563E0,-1.657364666E-1,1.066047102E-1,7.990117371E-2
1.326852563E0,-1.702219546E-1,1.553866565E-1,1.132195070E-1
1.348851000E0,-1.572541595E-1,5.672320258E-3,1.402197480E-1
1.368852563E0,-1.899616420E-1,-1.322959550E-2,1.188743785E-1
1.388852563E0,-1.225919276E-1,-3.892084211E-2,1.108458638E-1
1.410851000E0,-6.728244573E-2,4.272565991E-2,1.224697530E-1
1.430852563E0,-9.670869261E-2,5.023057386E-2,2.087239176E-1
1.452852563E0,-1.772905439E-1,4.553563893E-2,2.647664547E-1
1.472852563E0,-2.068738788E-1,6.126105785E-3,2.912605405E-1
1.492852563E0,-1.947962046E-1,-6.274458766E-2,2.510132492E-1
1.514863500E0,-1.685289890E-1,-1.015781611E-1,1.485100687E-1
1.536852563E0,-1.122770309E-1,-1.769938320E-1,9.070476145E-2
1.556852563E0,-6.700319052E-2,-1.805717647E-1,4.708898440E-2
1.576852563E0,-5.934119597E-2,-2.426531315E-1,-1.188569237E-2
1.598851000E0,-6.448991597E-2,-2.831447721E-1,-4.183554277E-2
1.618852563E0,-4.675737023E-2,-2.731091082E-1,-1.640609466E-3
1.640852563E0,3.412118554E-2,-2.253918201E-1,3.806563094E-2
1.662852563E0,8.588765562E-2,-2.111848444E-1,5.108578876E-2
1.682852563E0,7.016223669E-2,-2.589195967E-1,5.400048569E-2
1.702852563E0,6.283185212E-4,-2.735280097E-1,5.408775434E-2
1.724852563E0,-5.075417459E-2,-2.509434521E-1,6.637486815E-2
1.746851000E0,-6.283185212E-4,-1.869247556E-1,9.971065819E-2
1.766851000E0,7.470009476E-2,-1.231504306E-1,1.344601661E-1
1.786852563E0,9.576621652E-2,-2.413790300E-2,1.716705859E-1
1.806852563E0,5.881759524E-2,2.923426405E-2,1.717229486E-1
1.828852563E0,-7.801621687E-3,1.169370580E-2,1.371654272E-1
1.848852563E0,-7.305948436E-2,-1.139699966E-1,1.217018068E-1
1.870851000E0,-1.308473349E-1,-2.046049535E-1,1.225570217E-1
1.890852563E0,-1.256462485E-1,-2.374694943E-1,1.271123290E-1
1.912851000E0,-1.918116771E-2,-1.378635615E-1,1.672199965E-1
1.932851000E0,7.826056331E-2,-7.520623505E-2,2.166128159E-1
1.952851000E0,1.443387289E-2,-3.721041977E-2,3.171612322E-1
1.972851000E0,-1.076169983E-1,-9.040805511E-3,3.931353986E-1
1.992851000E0,-1.291718185E-1,6.859143823E-2,4.488812387E-1
2.012851000E0,-7.665485889E-2,1.657190174E-1,5.028119087E-1
2.032852563E0,-1.250877529E-1,1.681973785E-1,5.151863098E-1
2.054868188E0,-2.848028243E-1,1.111774743E-1,5.363222361E-1
2.076863500E0,-3.266209066E-1,1.352106631E-1,5.902005434E-1
2.098851000E0,-1.503077596E-1,2.951526344E-1,6.518979073E-1
2.118852563E0,4.776966199E-2,4.013733566E-1,7.091272473E-1
2.140852563E0,7.112216949E-2,4.575380683E-1,7.820122242E-1
2.162852563E0,-6.455972791E-2,4.571017325E-1,8.377580643E-1
2.184852563E0,-2.545911670E-1,4.722861052E-1,8.708494902E-1
2.204852563E0,-3.922801912E-1,5.747892857E-1,8.850564361E-1
2.226852563E0,-5.341579914E-1,6.063448191E-1,9.310982227E-1
2.248852563E0,-6.757740378E-1,4.970348477E-1,9.594598413E-1
2.268852563E0,-6.500827670E-1,3.766071498E-1,9.751154780E-1
2.288852563E0,-4.266806543E-1,2.690075934E-1,9.489529729E-1
2.310852563E0,-1.999449134E-1,1.076344550E-1,8.868367076E-1
2.330852563E0,-1.546710730E-1,-3.944443911E-2,7.949101925E-1
2.350852563E0,-2.014109939E-1,-1.819854826E-1,6.820921302E-1
2.370852563E0,-2.129127085E-1,-2.726204395E-1,5.678952336E-1
2.392851000E0,-1.323657632E-1,-2.912605405E-1,5.014680028E-1
2.412851000E0,-3.001966281E-3,-2.315702885E-1,4.655142128E-1
2.432851000E0,9.269443899E-2,-8.995427191E-2,4.740663171E-1
2.452851000E0,1.078962535E-1,4.328416660E-2,5.244016051E-1
2.472851000E0,1.609193534E-2,1.654746681E-1,5.638285875E-1
2.492851000E0,-9.058258682E-2,2.704736590E-1,5.930978060E-1
2.512851000E0,-1.522450745E-1,3.234444261E-1,6.645515561E-1
2.532852563E0,-1.947089285E-1,3.372325301E-1,7.386931777E-1
2.554854125E0,-2.045002282E-1,2.953446209E-1,7.955908775E-1
2.574854125E0,-1.878148764E-1,2.554813027E-1,8.116130233E-1
2.596852563E0,-1.684940904E-1,2.173632979E-1,8.039858937E-1
2.616871313E0,-1.542870998E-1,2.119004279E-1,8.011584878E-1
2.638851000E0,-9.553932399E-2,1.800656170E-1,7.749436498E-1
2.658852563E0,-2.448697016E-2,1.709026396E-1,7.486764193E-1
2.678852563E0,2.935643867E-2,1.735031754E-1,7.096683383E-1
2.700852563E0,2.424262278E-2,1.954245120E-1,6.563659906E-1
2.720852563E0,1.083849464E-2,1.293114424E-1,6.051405668E-1
2.742865063E0,-1.616174914E-2,-1.099557430E-2,5.693438649E-1
2.764852563E0,-1.597325355E-1,-1.115788966E-1,5.337740183E-1
2.786852563E0,-3.517711163E-1,-2.279749066E-1,4.454080164E-1
2.806852563E0,-4.190535545E-1,-4.023332894E-1,2.094744146E-1
2.828852563E0,-4.239928424E-1,-7.133858800E-1,-4.228234589E-1
2.850852563E0,-3.584208190E-1,-1.105072618E0,-9.237329364E-1
2.872852563E0,-2.635621727E-1,-1.154849410E0,-6.853907704E-1
2.892852563E0,-2.826037109E-1,-8.603949547E-1,-3.987902701E-1
2.914852563E0,-4.853062630E-1,-3.819478452E-1,-4.036073983E-1
2.934852563E0,-4.564734101E-1,-6.971892118E-1,-6.637138128E-1
2.954854125E0,-3.097784817E-1,-9.921672940E-1,-9.889384508E-1
2.976852563E0,-3.364471197E-1,-8.837474585E-1,-1.067513227E0
2.998851000E0,-4.201007485E-1,-7.866024375E-1,-8.669922948E-1
3.018852563E0,-3.915297091E-1,-5.769186020E-1,-5.150291920E-1
3.038852563E0,-1.015432552E-1,-2.703863978E-1,-8.047713339E-2
3.060852563E0,3.978129029E-1,-1.381777227E-1,3.029891551E-1
3.082851000E0,1.035992503E0,-5.616469681E-2,4.735427201E-1
3.102852563E0,1.489184737E0,-1.971698403E-1,4.960574806E-1
3.124852563E0,1.498365164E0,-1.929461509E-1,2.906671464E-1
3.144863500E0,1.114759207E0,-1.469916254E-1,1.570796408E-2
3.166851000E0,5.283460617E-1,-2.920110226E-1,-3.337593079E-1
3.186851000E0,1.340587437E-1,-4.575031698E-1,-4.706629515E-1
3.206851000E0,-7.696902007E-2,-4.791801572E-1,-3.820525706E-1
3.226851000E0,-1.488242298E-1,-2.932851315E-1,-2.139250040E-1
3.246851000E0,-3.385938704E-2,-1.407782584E-1,-1.658062823E-2
3.266851000E0,1.213876456E-1,-2.211332135E-2,8.234463632E-2
3.286852563E0,1.667312980E-1,5.197590590E-2,9.827949107E-2
3.306852563E0,-4.066617042E-2,1.993864179E-1,1.502902955E-1
3.328852563E0,-2.934247553E-1,2.691646814E-1,3.280346394E-1
3.350852563E0,-2.384817898E-1,9.567894787E-2,4.741536081E-1
3.372852563E0,5.928883329E-2,1.215272769E-1,5.308768153E-1
3.394852563E0,3.513696790E-1,4.865803421E-1,6.333101988E-1
3.414865063E0,5.013807416E-1,7.931648493E-1,6.806784272E-1
3.436852563E0,5.026024580E-1,8.043349981E-1,7.314674854E-1
3.456852563E0,5.000891685E-1,4.982042313E-1,7.657108307E-1
3.476863500E0,5.500230789E-1,1.618792862E-1,6.673964262E-1
3.498851000E0,5.121145248E-1,2.107834071E-1,5.074370503E-1
3.518851000E0,3.911632001E-1,3.382971585E-1,3.951076269E-1
3.538852563E0,2.974390090E-1,5.014156103E-1,2.890265286E-1
3.560852563E0,2.843141258E-1,7.284306288E-1,-1.215621829E-1
3.582851000E0,1.540078521E-1,3.850196302E-1,-1.723512560E-1
3.602852563E0,-2.293362655E-2,3.238981962E-1,-1.859124750E-1
3.624852563E0,-1.668185741E-1,8.433430642E-2,-2.335599661E-1
3.644852563E0,-1.781806648E-1,-1.862266362E-1,-3.481931984E-1
3.664852563E0,-2.314306647E-1,-3.114365637E-1,-4.066617191E-1
3.686851000E0,-3.185749352E-1,-3.674441576E-1,-3.661002517E-1
3.706852563E0,-4.095240533E-1,-4.241673648E-1,-3.207915127E-1
3.726852563E0,-4.526511431E-1,-4.384965301E-1,-3.583859205E-1
3.746852563E0,-4.948357344E-1,-4.190535545E-1,-3.769387603E-1
3.768852563E0,-5.561665893E-1,-2.782752812E-1,-3.521027267E-1
3.788852563E0,-5.787162781E-1,-1.358913332E-1,-2.877000868E-1
3.810851000E0,-5.425879359E-1,5.754350498E-2,-2.057743222E-1
3.830851000E0,-3.991393447E-1,1.242848933E-1,-1.953547001E-1
3.850852563E0,-1.988628209E-1,8.040732145E-2,-2.075894624E-1
3.872852563E0,-2.183406800E-2,9.590584040E-2,-2.400002182E-1
3.894861938E0,6.609562039E-2,1.625599712E-1,-2.958333194E-1
3.916869750E0,4.068362340E-2,1.974141896E-1,-3.454879224E-1
3.938851000E0,-6.468190253E-2,2.344326228E-1,-3.417354524E-1
3.958852563E0,-2.078512609E-1,3.866951466E-1,-2.580643892E-1
3.978852563E0,-3.097784817E-1,5.779134035E-1,-1.465902030E-1
4.000851000E0,-2.900388241E-1,6.854431629E-1,-5.359905958E-2
4.020851000E0,-2.352878302E-1,6.990567446E-1,-3.652974218E-2
4.040851000E0,-1.831374019E-1,6.151238680E-1,-2.825688012E-2
4.060852563E0,-1.670105606E-1,5.216091275E-1,-5.047492310E-2
4.082851000E0,-2.520953417E-1,4.454080164E-1,-5.473352596E-2
4.102852563E0,-4.007973969E-1,3.794345856E-1,4.801400751E-2
4.124869750E0,-4.114439189E-1,2.490410358E-1,2.194925994E-1
4.146852563E0,-1.129577085E-1,7.178539038E-2,2.456550896E-1
4.168851000E0,3.761708140E-1,-2.733185515E-2,-7.941247895E-3
4.188852563E0,7.546280026E-1,-6.094689667E-2,-3.518409133E-1
4.210852563E0,9.474694133E-1,2.844886621E-3,-6.354743838E-1
4.232852563E0,9.226159453E-1,9.763371944E-2,-7.278197408E-1
4.254860375E0,7.450810671E-1,7.358308136E-2,-6.387904882E-1
4.274861938E0,5.290092826E-1,-4.188790335E-4,-4.655142128E-1
4.294866625E0,3.712489903E-1,-1.101826355E-1,-2.792177796E-1
4.316871313E0,2.667037547E-1,-2.126683742E-1,-1.418603659E-1
4.338851000E0,1.838006228E-1,-2.363001257E-1,-1.018050537E-1
4.358851000E0,9.082693607E-2,-1.979203373E-1,-9.770353138E-2
4.378851000E0,2.235766686E-2,-1.907470375E-1,-1.010545641E-1
4.398852563E0,-1.483529899E-2,-2.387261391E-1,-1.301317513E-1
4.418852563E0,-4.925319180E-2,-2.924299240E-1,-1.815665960E-1
4.438852563E0,-1.332558841E-1,-3.387858570E-1,-2.305056304E-1
4.458852563E0,-2.374694943E-1,-3.447723389E-1,-2.876477242E-1
4.478868188E0,-3.103195429E-1,-3.106336892E-1,-3.400599360E-1
4.500852563E0,-3.643200397E-1,-2.287079394E-1,-4.172733128E-1
4.522852563E0,-3.930830657E-1,-1.334304214E-1,-5.094441772E-1
4.544857250E0,-3.888593614E-1,-1.004786044E-1,-6.211103201E-1
4.564857250E0,-3.759090006E-1,-9.140289575E-2,-7.147647142E-1
4.586852563E0,-3.530800939E-1,-1.476548519E-2,-7.435451746E-1
4.608852563E0,-2.774899006E-1,1.546361744E-1,-7.411191463E-1
4.630852563E0,-1.110552996E-1,4.824438989E-1,-7.325844765E-1
4.652851000E0,1.013338193E-1,8.304451108E-1,-6.114411950E-1
4.672852563E0,2.342057377E-1,9.538398981E-1,-4.740139842E-1
4.694858813E0,4.964763522E-1,6.935763955E-1,-5.415232778E-1
4.716871313E0,6.268001199E-1,6.707474589E-1,-9.954485297E-1
4.738851000E0,5.583831668E-1,5.898863673E-1,-1.400940895E0
4.758852563E0,5.211552978E-1,1.404990107E-1,-1.530357003E0
4.780852563E0,7.305424809E-1,-5.808804631E-1,-1.639230728E0
4.802852563E0,8.439365029E-1,-1.032920718E0,-1.811407447E0
4.822852563E0,4.768588543E-1,-8.429416418E-1,-1.924574614E0
4.844852563E0,-3.657162786E-1,3.019419499E-3,-1.745660901E0
4.864852563E0,-8.626813293E-1,5.402492285E-1,-1.280041933E0
4.884852563E0,-7.459188104E-1,6.773971915E-1,-8.472875357E-1
4.904852563E0,-1.933999360E-1,5.998871326E-1,-6.933320165E-1
4.924852563E0,3.726976216E-1,3.643374741E-1,-8.648455739E-1
4.944852563E0,6.723880768E-1,1.198866665E-1,-1.282345772E0
4.964852563E0,6.884276867E-1,-2.130697966E-1,-1.718852639E0
4.984852563E0,5.331282616E-1,-4.622853696E-1,-1.973007441E0
5.004852563E0,3.814417124E-1,-4.739965200E-1,-2.015558481E0
5.024852563E0,3.146479428E-1,-2.667561173E-1,-1.882756472E0
5.044852563E0,2.562317848E-1,3.148574010E-2,-1.626210570E0
5.064852563E0,2.069785893E-1,2.364048511E-1,-1.325437903E0
5.084852563E0,1.691223979E-1,2.977880836E-1,-1.058158159E0
5.106852563E0,6.819001585E-2,2.273116857E-1,-8.636412621E-1
5.126852563E0,-8.199556917E-2,1.308298856E-1,-7.860264778E-1
5.146852563E0,-2.523920536E-1,9.611528367E-2,-7.337538600E-1
5.168852563E0,-2.982069552E-1,-1.822123677E-2,-6.759136319E-1
5.188852563E0,-2.153910846E-1,-1.234820411E-1,-6.494719386E-1
5.210852563E0,-1.283340603E-1,-1.495921761E-1,-6.006899476E-1
5.232851000E0,-7.826056331E-2,-2.168397009E-1,-5.738293529E-1
5.252851000E0,-3.635520861E-2,-3.644770980E-1,-5.853659511E-1
5.272851000E0,-6.131341681E-2,-4.182507098E-1,-5.980370641E-1
5.292851000E0,-1.932079494E-1,-2.830051482E-1,-5.707750320E-1
5.312852563E0,-3.576179743E-1,-1.535889693E-3,-5.018694401E-1
5.334860375E0,-4.280768931E-1,2.570171952E-1,-3.778812289E-1
5.356851000E0,-3.837804496E-1,4.048465788E-1,-2.714510560E-1
5.376852563E0,-1.090656221E-1,1.905550510E-1,-2.070135027E-1
5.396852563E0,4.175700247E-1,-3.536735177E-1,-2.528283894E-1
5.416869750E0,7.592706084E-1,-4.749564528E-1,-3.264987469E-1
5.438851000E0,6.605547667E-1,7.023204863E-2,-3.901160061E-1
5.458852563E0,2.193878889E-1,7.310835123E-1,-3.407580853E-1
5.478852563E0,-1.275137514E-1,8.914617896E-1,-2.116909772E-1
5.500851000E0,-1.367640048E-1,4.531049132E-1,-4.382521659E-2
5.520851000E0,3.782128543E-2,-5.546656251E-2,4.694935866E-3
5.540851000E0,1.416858286E-1,-2.920633852E-1,1.429424621E-2
5.560852563E0,1.638166010E-1,-4.131194353E-1,-6.405358016E-2
5.580852563E0,1.294859797E-1,-5.127952099E-1,-1.781457514E-1
5.600852563E0,3.930481523E-2,-5.827305317E-1,-2.897595465E-1
5.622851000E0,-9.011135250E-2,-5.324475765E-1,-3.807610273E-1
5.642851000E0,-1.754754037E-1,-3.758566678E-1,-3.940429986E-1
5.662852563E0,-1.891413331E-1,-2.897944748E-1,-3.894876838E-1
5.684852563E0,-2.189690024E-1,-4.784994721E-1,-4.133463204E-1
5.704852563E0,-3.902381659E-1,-6.072174907E-1,-4.993561506E-1
5.724852563E0,-6.272887588E-1,-4.472406209E-1,-5.698500276E-1
5.744855688E0,-6.518106461E-1,-2.272767723E-1,-5.163382292E-1
5.766852563E0,-2.866354287E-1,-9.899507463E-2,-4.388630390E-1
5.788851000E0,4.810127243E-2,1.423316002E-1,-4.788834453E-1
5.808851000E0,1.038296372E-1,3.349635899E-1,-5.440016985E-1
5.828852563E0,1.517040133E-1,2.133315951E-1,-6.114237309E-1
5.850852563E0,3.275459409E-1,-1.898918301E-2,-7.815409899E-1
5.872851000E0,5.370552540E-1,-2.320764363E-1,-8.906065822E-1
5.892852563E0,6.182130575E-1,-2.030516118E-1,-8.841663599E-1
5.914858813E0,5.917539001E-1,1.770287454E-1,-7.448366880E-1
5.936852563E0,8.082619905E-1,2.704213262E-1,-5.586973429E-1
5.956852563E0,1.186038494E0,-4.561243355E-1,-8.016646504E-1
5.976852563E0,1.201467156E0,-6.391744614E-1,-1.345823407E0
5.998851000E0,7.276452184E-1,-2.894628644E-1,-1.713442087E0
6.018854125E0,1.585282534E-1,1.315978263E-2,-1.606785059E0
6.040851000E0,-1.782155633E-1,1.211782098E-1,-1.292625785E0
6.060851000E0,-3.305130005E-1,8.897688240E-2,-1.076379418E0
6.080852563E0,-3.934670389E-1,5.222025141E-2,-9.540318847E-1
6.102851000E0,-2.748369873E-1,-2.123018503E-1,-8.584925532E-1
6.122851000E0,-1.587551534E-1,-6.953217387E-1,-8.411788940E-1
6.142851000E0,-1.868549436E-1,-1.051491022E0,-9.405055642E-1
6.162852563E0,-2.686934471E-1,-9.879959822E-1,-9.838420749E-1
6.184851000E0,-2.491806597E-1,-4.741885066E-1,-8.649677038E-1
6.204852563E0,-7.222172618E-2,-2.879793290E-3,-7.812442780E-1
6.224855688E0,8.007570356E-2,2.776818871E-1,-7.432659268E-1
6.246852563E0,-3.967133537E-2,2.031388730E-1,-6.113539338E-1
6.268851000E0,-2.598271668E-1,-2.801253460E-2,-5.056044459E-1
6.288894750E0,-3.961024582E-1,-2.119004279E-1,-4.116882682E-1
6.310851000E0,-3.193603456E-1,-2.882585824E-1,-3.739193380E-1
6.330851000E0,-1.847081929E-1,-2.705085874E-1,-3.095341325E-1
6.350852563E0,-1.651430577E-1,1.553343027E-3,-1.689129621E-1
6.372851000E0,-2.188991904E-1,4.810999930E-1,-1.291543692E-1
6.392851000E0,-2.229309082E-1,4.896521270E-1,-2.575756907E-1
6.412852563E0,-3.181909621E-1,3.762231767E-1,-3.476870358E-1
6.432852563E0,-4.230678082E-1,3.845832944E-1,-3.174928427E-1
6.454858813E0,-3.899589181E-1,2.984164059E-1,-2.169618756E-1
6.476857250E0,-2.442588210E-1,1.429424584E-1,-1.041961554E-2
6.498852563E0,1.760688126E-1,-5.724680051E-2,8.402015269E-2
6.518852563E0,5.464451313E-1,9.456194192E-2,-1.183507740E-1
6.538852563E0,3.571990728E-1,5.041034222E-1,-2.922553718E-1
6.558852563E0,-6.279694289E-2,4.748517275E-1,-2.666513920E-1
6.580851000E0,-3.785270154E-1,3.767293096E-1,-1.869247556E-1
6.600851000E0,-3.105987906E-1,1.759291887E-1,-1.503426582E-1
6.620851000E0,8.965755999E-2,-1.895776689E-1,-2.080781460E-1
6.640852563E0,3.924721777E-1,-3.692243993E-1,-3.696432710E-1
6.662852563E0,3.404613733E-1,-2.629862130E-1,-4.417253733E-1
6.682852563E0,1.576904953E-1,-1.206371561E-1,-3.576354086E-1
6.704852563E0,3.698352724E-2,-7.272786647E-2,-1.731715649E-1
6.724852563E0,5.625196174E-2,-1.193630695E-1,-1.380031854E-1
6.744852563E0,1.185253114E-1,-1.080009714E-1,-2.185850292E-1
6.764852563E0,1.954594254E-1,1.308996975E-2,-2.370157093E-1
6.784854125E0,2.524269819E-1,2.703863978E-1,-1.373399645E-1
6.806852563E0,2.758841813E-1,4.738568962E-1,-6.628760695E-2
6.828852563E0,7.710864395E-2,1.849874407E-1,-2.007652223E-1
6.850851000E0,-1.772207320E-1,-5.119050667E-2,-3.948109150E-1
6.870851000E0,-1.727177799E-1,4.916592315E-2,-5.453106761E-1
6.890851000E0,8.237954229E-3,1.504299343E-1,-7.288669348E-1
6.910851000E0,1.595405489E-1,-3.295181692E-2,-9.381842613E-1
6.930852563E0,1.812698990E-1,-3.179291785E-1,-1.060776234E0
6.952852563E0,-4.101523664E-3,-2.799682617E-1,-1.080742717E0
6.974852563E0,-3.695036471E-1,1.508488059E-1,-8.851262927E-1
6.994852563E0,-3.226590157E-1,3.379481137E-1,-7.358657122E-1
7.014872875E0,4.645542800E-1,-4.153883457E-2,-9.446070790E-1
7.036852563E0,9.948376417E-1,-2.630385756E-1,-1.513514638E0
7.056852563E0,6.587570906E-1,3.853686899E-2,-1.814583898E0
7.076858813E0,4.960225895E-2,3.139323592E-1,-1.707787156E0
7.098852563E0,-1.535366178E-1,2.443460971E-1,-1.524440408E0
7.118852563E0,-2.359685116E-2,1.563465893E-1,-1.513916016E0
7.140852563E0,1.085420251E-1,1.684940904E-1,-1.615494251E0
7.162852563E0,2.086192071E-1,1.490336657E-1,-1.696355343E0
7.184851000E0,1.972047538E-1,4.194026068E-2,-1.708642483E0
7.204852563E0,9.513789415E-2,-8.431685716E-2,-1.644187450E0
7.226852563E0,-1.265189201E-1,-3.473205119E-2,-1.507859707E0
7.246852563E0,-3.481059074E-1,8.143706620E-2,-1.327706814E0
7.266852563E0,-5.653644800E-1,1.832770258E-1,-1.096328616E0
7.286894750E0,-6.372371316E-1,2.618517578E-1,-8.850390315E-1
7.308851000E0,-4.205021858E-1,3.323106840E-2,-7.731633782E-1
7.328852563E0,-1.142667085E-1,-4.745899141E-1,-8.646361232E-1
7.350852563E0,3.134611249E-2,-7.082371712E-1,-1.045277715E0
7.370852563E0,7.140141726E-2,-6.667332053E-1,-9.737889767E-1
7.390852563E0,4.754276946E-2,-5.041732788E-1,-6.466794014E-1
7.412851000E0,-5.916666240E-2,-4.248654842E-1,-3.706206679E-1
7.432851000E0,-1.779188663E-1,-4.492652118E-1,-3.229906261E-1
7.452852563E0,-9.899507463E-2,-2.519382834E-1,-4.473627806E-1
7.474852563E0,1.216843575E-1,8.255407214E-3,-4.461236000E-1
7.494866625E0,3.868522346E-1,-1.047197584E-4,-3.002140820E-1
7.516869750E0,6.821270585E-1,-1.001644433E-1,-3.609864414E-1
7.538852563E0,5.758714080E-1,-9.646435082E-2,-6.460859776E-1
7.558852563E0,1.357167959E-1,-1.469567232E-2,-7.832688689E-1
7.578852563E0,-2.583087189E-3,-1.128878966E-1,-7.065965533E-1
7.600851000E0,2.232799679E-1,-3.762755394E-1,-5.332853794E-1
7.620851000E0,3.266558349E-1,-4.270471632E-1,-4.994957745E-1
7.640852563E0,2.169095129E-1,-3.192905188E-1,-5.234940648E-1
7.662852563E0,1.176875532E-1,-1.763480604E-1,-4.887794554E-1
7.684852563E0,1.290670931E-1,-5.660102889E-2,-4.702440500E-1
7.704852563E0,1.682671905E-1,-7.155850180E-4,-4.850269854E-1
7.726852563E0,1.849874407E-1,7.330382615E-2,-4.870690405E-1
7.748852563E0,1.374272257E-1,2.253220081E-1,-5.184849501E-1
7.768852563E0,1.699950732E-2,3.249104917E-1,-5.186769366E-1
7.790852563E0,-1.164832711E-1,2.289872020E-1,-5.022882819E-1
7.812852563E0,-1.016828790E-1,6.178465672E-3,-5.816833377E-1
7.834854125E0,5.033529550E-2,-1.425585002E-1,-6.317568421E-1
7.854858813E0,9.889035672E-2,-1.633802652E-1,-5.963964462E-1
7.876852563E0,1.554390192E-1,-3.857701123E-1,-4.939281642E-1
7.896852563E0,3.087138236E-1,-5.817705989E-1,-5.447870493E-1
7.916869750E0,3.514744043E-1,-3.626270592E-1,-7.941422462E-1
7.938852563E0,3.090977967E-1,3.485422581E-2,-1.045103192E0
7.960851000E0,2.200685591E-1,5.689773336E-2,-1.147065282E0
7.980851000E0,-4.954989627E-2,1.378984600E-1,-9.633868337E-1
8.000852563E0,-3.119252324E-1,3.596774638E-1,-7.082371712E-1
8.022852563E0,9.449212253E-2,3.738146126E-1,-7.205941081E-1
8.044852563E0,7.503345013E-1,3.538131416E-1,-1.065139532E0
8.064852563E0,7.036643624E-1,4.065918922E-1,-1.219217181E0
8.086852563E0,1.937489957E-1,2.046922147E-1,-1.101232886E0
8.108852563E0,-1.967858672E-1,-2.900737152E-2,-8.443204761E-1
8.130851000E0,-2.331236303E-1,-3.923500329E-2,-5.815436840E-1
8.150852563E0,-9.599310579E-4,3.722787276E-2,-5.247157812E-1
8.172852563E0,4.209908545E-1,1.911135577E-2,-6.956882477E-1
8.194852563E0,7.645763755E-1,-1.620014608E-1,-9.244834185E-1
8.214852563E0,8.155748844E-1,-2.416582853E-1,-1.008678079E0
8.234852563E0,6.459463835E-1,-1.213003788E-2,-9.255655408E-1
8.254861938E0,3.472332656E-1,3.499385118E-1,-7.625517845E-1
8.276851000E0,1.957037747E-1,3.495021760E-1,-6.763848662E-1
8.296852563E0,7.525859773E-2,3.288898468E-1,-5.189213157E-1
8.316871313E0,9.367182106E-2,2.819230258E-1,-3.124662936E-1
8.338852563E0,3.205297291E-1,2.371378839E-1,-7.609635592E-2
8.360852563E0,5.111545920E-1,1.824218184E-1,-1.441641990E-2
8.380852563E0,4.576602280E-1,2.121796757E-1,-8.293804526E-2
8.402851000E0,2.887298167E-1,1.437802166E-1,-2.150594741E-1
8.422852563E0,1.723512560E-1,1.471836120E-1,-3.172484934E-1
8.444852563E0,3.059562109E-2,2.253045589E-1,-3.690324128E-1
8.466851000E0,-6.894050539E-2,2.045525908E-1,-3.419798017E-1
8.486852563E0,1.271472424E-1,1.212480217E-1,-3.164456487E-1
8.506852563E0,5.186769366E-1,1.341285557E-1,-2.656914592E-1
8.528851000E0,7.591134906E-1,-1.607099175E-1,-2.771233916E-1
8.548852563E0,3.027622700E-1,-2.384817898E-1,-1.555088311E-1
8.568852563E0,-3.838851750E-1,-2.572440803E-1,-7.951720059E-2
8.590851000E0,-5.870240331E-1,-4.761258066E-1,-2.134537697E-2
8.610851000E0,-4.607320130E-1,-2.146929502E-1,1.204277156E-3
8.630851000E0,-4.969999492E-1,-3.972369432E-2,-8.527678996E-2
8.650852563E0,-6.761405468E-1,-3.133913279E-1,-1.510233432E-1
8.672852563E0,-8.008268476E-1,-6.382669210E-1,-1.930508614E-1
8.694855688E0,-6.179862022E-1,-6.608863473E-1,-2.904751599E-1
8.714863500E0,-2.716081440E-1,-4.971046746E-1,-2.766172290E-1
8.736852563E0,4.801400751E-2,-4.216890037E-1,-1.387536824E-1
8.756852563E0,2.266833633E-1,-3.780034184E-1,-8.977973461E-2
8.778851000E0,3.335673213E-1,-2.232276052E-1,-1.827185154E-1
8.798851000E0,3.511253297E-1,-5.316272750E-2,-3.432539105E-1
8.818852563E0,3.341432810E-1,6.761405617E-2,-5.170363188E-1
8.838852563E0,2.927964330E-1,1.122595742E-1,-6.478313208E-1
8.860852563E0,2.572091818E-1,9.121090919E-2,-7.420267463E-1
8.880852563E0,1.667487621E-1,1.118756011E-1,-7.786088586E-1
8.902851000E0,8.541641384E-2,1.933475733E-1,-8.044920564E-1
8.922851000E0,8.552113432E-4,2.458296269E-1,-7.565827966E-1
8.942851000E0,-1.774476171E-1,1.920211166E-1,-6.471157074E-1
8.962851000E0,-4.248829484E-1,-4.529129341E-2,-4.773824513E-1
8.982851000E0,-6.397504210E-1,-4.488986731E-1,-3.460813463E-1
9.002851000E0,-5.841616988E-1,-8.312130570E-1,-5.153608322E-1
9.022852563E0,-3.386636972E-1,-9.577494264E-1,-9.206611514E-1
9.044852563E0,-2.492155582E-1,-4.843637645E-1,-1.144464731E0
9.064852563E0,-1.803099662E-1,-3.013485372E-1,-1.196231246E0
9.084852563E0,-4.218460619E-2,-4.371700585E-1,-1.235867620E0
9.104852563E0,-1.656142920E-1,-2.948210239E-1,-1.269465208E0
9.124852563E0,-5.804266930E-1,6.342526525E-2,-1.284021258E0
9.144852563E0,-9.322501421E-1,1.701346934E-1,-1.331860781E0
9.164866625E0,-1.054004312E0,1.743234843E-1,-1.388863206E0
9.186851000E0,-8.994030952E-1,1.403070241E-1,-1.382510185E0
9.206852563E0,-5.229181051E-1,1.696459949E-2,-1.367831945E0
9.226852563E0,-6.539748609E-2,-1.509186178E-1,-1.402860761E0
9.246852563E0,2.656390965E-1,-1.554215699E-1,-1.448274255E0
9.266852563E0,3.763104379E-1,-1.443212777E-1,-1.466390729E0
9.286852563E0,2.623927891E-1,-5.989969894E-2,-1.456808925E0
9.306852563E0,4.237659276E-2,1.306902468E-1,-1.395896912E0
9.328852563E0,-8.133234084E-2,2.961125672E-1,-1.238223791E0
9.350851000E0,1.700997949E-1,4.428772926E-1,-9.801419973E-1
9.370851000E0,5.755397677E-1,5.551717877E-1,-8.393288255E-1
9.390851000E0,6.528055072E-1,4.469962716E-1,-8.444775343E-1
9.410851000E0,3.741462231E-1,2.750988007E-1,-9.030159116E-1
9.430852563E0,2.069436908E-1,3.773401678E-2,-9.427046776E-1
9.452852563E0,2.113593668E-1,-1.409004331E-1,-9.445023537E-1
9.474861938E0,1.614080518E-1,-3.576179594E-2,-8.624718785E-1
9.494866625E0,-3.141592816E-2,4.274311364E-1,-7.436847687E-1
9.516869750E0,-1.898045540E-1,8.414057493E-1,-6.639057994E-1
9.538852563E0,-2.413615882E-1,8.039335608E-1,-6.940650940E-1
9.560852563E0,-5.336693525E-1,6.129596233E-1,-6.298893094E-1
9.580852563E0,-7.754498124E-1,3.384891450E-1,-4.215842783E-1
9.602852563E0,-1.319119781E-1,-6.496813297E-1,-2.985909283E-1
9.624852563E0,8.412312269E-1,-8.452804089E-1,-4.446575344E-1
9.644852563E0,8.606916666E-1,-1.403593719E-1,-7.390247583E-1
9.664852563E0,1.983392090E-1,2.700373530E-1,-9.301906824E-1
9.684852563E0,-4.603829384E-1,7.843509316E-2,-8.280365467E-1
9.704852563E0,-5.665513277E-1,-1.852317899E-1,-5.599365234E-1
9.724852563E0,-2.102598101E-1,-2.741039693E-1,-3.839026093E-1
9.744852563E0,8.901178837E-2,-1.781457514E-1,-3.899763525E-1
9.764852563E0,1.634326279E-1,-1.386838555E-1,-4.980297089E-1
9.784852563E0,9.665632993E-2,-1.452812105E-1,-6.473949552E-1
9.806852563E0,4.178318381E-2,-1.716356725E-1,-7.823264003E-1
9.828852563E0,3.534291685E-2,-1.001644433E-1,-8.587718010E-1
9.850852563E0,5.881759338E-3,4.379031062E-2,-9.020035863E-1
9.870852563E0,-1.365196556E-1,1.205149814E-1,-9.275552034E-1
9.892852563E0,-3.509159088E-1,1.805717647E-1,-8.862782121E-1
9.914852563E0,-3.124662936E-1,3.308446109E-1,-8.335692286E-1
9.934852563E0,-7.227408141E-2,4.274660349E-1,-8.938354850E-1
9.954852563E0,1.812524348E-1,3.552792072E-1,-9.913120866E-1
9.974852563E0,4.116184413E-1,1.856681257E-1,-1.097881913E0
9.994852563E0,5.256931782E-1,8.920377493E-2,-1.141340613E0
1.001485256E1,5.097059608E-1,1.649336144E-2,-1.012814522E0
1.003685256E1,5.706179142E-1,-4.286528528E-1,-8.266228437E-1
1.005685256E1,7.002609968E-1,-9.927258492E-1,-8.092219234E-1
1.007685569E1,4.969301522E-1,-9.083042741E-1,-6.927735209E-1
1.009885100E1,2.467371970E-1,-2.045351416E-1,-5.436002612E-1
1.011885256E1,2.196671367E-1,8.948303014E-2,-6.598566175E-1
1.014085256E1,-2.823942713E-2,1.059938446E-1,-1.035852909E0
1.016285256E1,-6.047740579E-1,2.430021912E-1,-1.266725063E0
1.018485100E1,-9.506808519E-1,4.517784715E-1,-1.227280617E0
1.020485100E1,-7.814711928E-1,4.386710525E-1,-1.177521229E0
1.022485100E1,-2.075894624E-1,5.588544160E-2,-1.231556654E0
1.024485100E1,2.536312342E-1,-3.277379274E-1,-1.430070400E0
1.026485256E1,4.773999155E-1,-5.307196975E-1,-1.599908471E0
1.028485881E1,6.326993108E-1,-6.159616113E-1,-1.675062299E0
1.030685256E1,6.377258301E-1,-4.665788710E-1,-1.632057428E0
1.032885256E1,5.249950290E-1,-6.037093699E-2,-1.458362222E0
1.035085256E1,3.600614369E-1,2.446078956E-1,-1.228921175E0
1.037285100E1,2.609965205E-1,2.916096151E-1,-1.027004123E0
1.039285256E1,1.744282097E-1,3.344225287E-1,-8.702211380E-1
1.041485413E1,7.328637689E-2,3.115412593E-1,-6.835232973E-1
1.043685256E1,1.009672955E-1,1.329591870E-1,-5.098106861E-1
1.045885100E1,2.264215648E-1,7.883652300E-2,-4.117929935E-1
1.047885256E1,3.197617829E-1,2.658660114E-1,-3.590665758E-1
1.050085256E1,2.599493265E-1,5.124461055E-1,-3.473205268E-1
1.052285256E1,2.230705321E-1,4.224220514E-1,-3.718423843E-1
1.054485100E1,2.114466429E-1,1.222254038E-1,-4.613777995E-1
1.056485256E1,-5.330235511E-2,1.047372073E-1,-4.184426963E-1
1.058685256E1,-3.337593079E-1,-1.384744197E-1,-3.346668780E-1
1.060885256E1,2.124589235E-1,-8.470780849E-1,-2.320938855E-1
1.063085100E1,6.341304779E-1,-4.538554251E-1,-2.624975145E-1
1.065085256E1,2.695835531E-1,2.327920198E-1,-5.704433918E-1
1.067285256E1,-2.802475095E-1,1.150870100E-1,-9.006946087E-1
1.069486506E1,-2.325651199E-1,-2.229832709E-1,-9.772098660E-1
1.071687131E1,-8.133234456E-3,-2.418851852E-1,-9.749408960E-1
1.073885100E1,8.098327555E-3,-9.616763890E-2,-9.953787327E-1
1.075885256E1,-6.147049740E-2,4.066617228E-3,-1.055243492E0
1.078085256E1,-1.443561763E-1,-4.293509759E-3,-1.148897886E0
1.080285100E1,-1.646892726E-1,-8.951793611E-2,-1.196266174E0
1.082285256E1,-1.390154809E-1,-3.316125646E-2,-1.203683734E0
1.084485256E1,-7.567747682E-2,1.862964481E-1,-1.187085629E0
1.086485256E1,4.084070213E-3,3.299370408E-1,-1.192653298E0
1.088485256E1,9.304349869E-2,3.737971783E-1,-1.194712758E0
1.090485412E1,2.900737226E-1,3.144210577E-1,-1.217978001E0
1.092685100E1,6.337115765E-1,1.708851904E-1,-1.270372748E0
1.094685256E1,8.643917441E-1,-1.335176919E-2,-1.303272247E0
1.096885256E1,9.115854502E-1,-4.216715321E-2,-1.296936750E0
1.099085256E1,9.251990318E-1,8.255407214E-2,-1.315140486E0
1.101085256E1,1.098684788E0,1.099208370E-1,-1.443858504E0
1.103285256E1,1.303761005E0,-3.154333532E-1,-1.913107753E0
1.105486038E1,7.897964120E-1,-3.194999695E-1,-2.316174030E0
1.107685256E1,-6.462430358E-1,7.764271498E-1,-2.310449362E0
1.109685256E1,-1.303062797E0,1.362072349E0,-1.949951649E0
1.111687131E1,-5.368632674E-1,7.969871759E-1,-1.721261144E0
1.113885100E1,9.055117369E-1,-4.885176420E-1,-2.139703751E0
1.115885100E1,1.091703415E0,-8.278969526E-1,-2.925939798E0
1.117885256E1,4.480434656E-1,-3.491705656E-1,-3.489995241E0
1.120085100E1,7.190756500E-3,3.116983473E-1,-3.566894531E0
1.122085100E1,1.233249679E-1,7.548025250E-1,-3.389254808E0
1.124085100E1,2.505769134E-1,9.272585511E-1,-3.291830540E0
1.126085100E1,1.443736404E-1,8.227307796E-1,-3.449206829E0
1.128085256E1,4.176572710E-2,4.745375812E-1,-3.621052027E0
1.130285100E1,8.187339455E-2,-1.043881401E-1,-3.571100712E0
1.132285100E1,2.657612860E-1,-4.581663907E-1,-3.509717464E0
1.134285100E1,5.732010603E-1,-5.125333667E-1,-3.620685577E0
1.136285100E1,7.130193710E-1,-2.784847319E-1,-3.786945581E0
1.138285256E1,7.104537487E-1,9.128072299E-3,-3.909485102E0
1.140485881E1,7.469834685E-1,4.604178667E-2,-3.945386648E0
1.142685256E1,7.963064909E-1,-2.347991467E-1,-3.848869801E0
1.144685256E1,8.192750216E-1,-5.703212619E-1,-3.776211739E0
1.146885725E1,7.897440195E-1,-8.603076935E-1,-3.714950800E0
1.149085256E1,7.004704475E-1,-9.953612685E-1,-3.650443316E0
1.151085256E1,6.046518683E-1,-9.887988567E-1,-3.539073944E0
1.153285256E1,4.268377125E-1,-7.991688251E-1,-3.400826454E0
1.155485256E1,2.628465891E-1,-3.097086847E-1,-3.334119797E0
1.157485881E1,1.135511175E-1,2.096140385E-2,-3.316457272E0
1.159685256E1,-1.526115835E-1,-2.595304511E-2,-3.090663910E0
1.161686975E1,-2.347642332E-1,-2.551147640E-1,-2.742558002E0
1.163885256E1,-9.834930301E-2,-5.967804193E-1,-2.464020967E0
1.165885256E1,-2.377138473E-2,-6.595075727E-1,-2.427875042E0
1.167885256E1,-3.138101846E-2,-5.300216079E-1,-2.474998951E0
1.169885256E1,3.354522958E-2,-5.249601603E-1,-2.524304628E0
1.172085100E1,8.616690338E-2,-7.072073817E-1,-2.506816387E0
1.174085256E1,-8.306021988E-2,-7.706326842E-1,-2.329892397E0
1.176085256E1,-3.900810778E-1,-5.902180076E-1,-2.057080030E0
1.178085256E1,-6.477615237E-1,-3.118903339E-1,-1.810953617E0
1.180285100E1,-7.077484727E-1,-1.164134592E-2,-1.472307444E0
1.182285256E1,-5.114338398E-1,2.442588210E-1,-1.134202242E0
1.184485256E1,3.986331820E-2,2.181137949E-1,-9.106080532E-1
1.186685256E1,7.711388469E-1,-2.088286430E-1,-1.036673188E0
1.188885100E1,1.005972862E0,-5.607568622E-1,-1.190890551E0
1.190885256E1,7.095461488E-1,-4.614126980E-1,-1.038872361E0
1.193085100E1,3.671300113E-1,-1.755626649E-1,-6.623175144E-1
1.195085100E1,2.473829687E-1,-6.921976060E-2,-3.662748039E-1
1.197085100E1,1.728225052E-1,-3.803072497E-2,-2.142915279E-1
1.199085256E1,7.386233658E-2,5.567600485E-3,-1.281246245E-1
1.201285100E1,3.077015467E-2,1.342158206E-2,2.174680308E-2
1.203285256E1,1.319468915E-1,1.617920212E-2,1.353851855E-1
1.205486819E1,2.828131616E-1,8.087855577E-2,2.045351416E-1
1.207685256E1,3.509159088E-1,2.031737715E-1,3.043155968E-1
1.209685256E1,3.760486245E-1,2.435607016E-1,4.026125371E-1
1.211687131E1,3.767991364E-1,2.129301727E-1,4.789881706E-1
1.213885100E1,3.899938166E-1,9.944885969E-2,6.072349548E-1
1.215885100E1,4.083721340E-1,-2.190388180E-2,7.543836832E-1
1.217885256E1,3.967831433E-1,-1.145285070E-1,9.261066318E-1
1.220085100E1,3.619463742E-1,-1.176875532E-1,1.126068950E0
1.222085256E1,3.335498869E-1,-8.930850029E-2,1.281158924E0
1.224286506E1,4.451636672E-1,-2.212728411E-1,1.206947565E0
1.226485256E1,6.901555657E-1,-2.213077545E-1,9.415527582E-1
1.228485256E1,9.081995487E-1,3.055722415E-1,1.000108600E0
1.230685256E1,9.541366100E-1,8.841663599E-1,1.397101164E0
1.232885256E1,6.648308039E-1,9.143954515E-1,1.829244733E0
1.235085256E1,3.042109013E-1,4.503647685E-1,2.120644808E0
1.237285100E1,1.720894575E-1,1.751263440E-1,2.218941689E0
1.239285256E1,2.261248529E-1,1.924225539E-1,2.157907724E0
1.241485413E1,2.624975145E-1,1.531002820E-1,2.066208124E0
1.243685256E1,2.369284481E-1,6.667157635E-3,2.015261889E0
1.245685256E1,2.013586313E-1,-1.010545641E-1,1.968923330E0
1.247685256E1,1.451241225E-1,-2.492330223E-2,2.010305166E0
1.249685256E1,4.696680978E-2,1.774650812E-1,2.201156855E0
1.251687288E1,-7.887142897E-2,4.308519661E-1,2.473498106E0
1.253885256E1,-1.419650763E-1,4.845033884E-1,2.704911232E0
1.255885256E1,-1.000073627E-1,4.089655578E-1,2.840820074E0
1.257885256E1,4.427900165E-2,3.158696890E-1,2.911418676E0
1.260085100E1,2.275560200E-1,3.143512607E-1,2.938035011E0
1.262085100E1,4.175525606E-1,1.783901006E-1,2.937267065E0
1.264085256E1,4.610810876E-1,4.176572710E-2,2.932362556E0
1.266285256E1,2.414488494E-1,4.468042776E-2,2.898555517E0
1.268285256E1,-5.304055661E-2,5.023057386E-2,2.957425594E0
1.270485256E1,-3.397283256E-1,-8.313003182E-2,3.054500818E0
1.272485256E1,-6.383541822E-1,-2.697406411E-1,3.081239223E0
1.274485256E1,-1.130554438E0,-2.873684466E-1,3.088988304E0
1.276485256E1,-1.551004291E0,-2.106786966E-1,3.121765614E0
1.278485256E1,-1.533184528E0,-9.594074637E-2,3.109356403E0
1.280685256E1,-8.116478920E-1,-6.501351297E-2,2.753815413E0
1.282685256E1,-5.349434167E-2,-1.453859210E-1,2.190178871E0
1.284885256E1,2.615550458E-1,-7.834783196E-2,1.922899008E0
1.286885256E1,2.623753548E-1,-3.438298590E-3,1.932428598E0
1.289085100E1,1.441467404E-1,1.011767387E-1,2.073887587E0
1.291085256E1,3.092723340E-2,1.743583977E-1,2.228279352E0
1.293285100E1,-1.164658219E-1,2.559525371E-1,2.383735895E0
1.295285100E1,-2.735803723E-1,2.594082952E-1,2.474353313E0
1.297285100E1,-4.206592441E-1,1.476024985E-1,2.503901720E0
1.299285100E1,-5.433210135E-1,-1.010545623E-2,2.505507469E0
1.301285100E1,-6.045646071E-1,-1.711644381E-1,2.438102722E0
1.303285256E1,-5.523967147E-1,-3.548603356E-1,2.309297562E0
1.305485256E1,-3.896971047E-1,-5.675287247E-1,2.140489340E0
1.307486194E1,-2.426356673E-1,-6.528055072E-1,1.959585905E0
1.309685256E1,-2.084446698E-1,-5.445950627E-1,1.790917277E0
1.311687131E1,-2.198416740E-1,-3.556806445E-1,1.672932982E0
1.313885100E1,-1.419127136E-1,-1.284562349E-1,1.557496905E0
1.315885100E1,1.141445339E-2,-1.813396998E-2,1.380660176E0
1.317885256E1,1.010894701E-1,-2.782054804E-2,1.181640267E0
1.319885256E1,8.295550197E-2,-7.504915702E-4,1.027178645E0
1.322085256E1,1.129228063E-2,1.386315078E-1,9.963561296E-1
1.324286506E1,-1.330813617E-1,4.720941186E-1,1.197173715E0
1.326485256E1,-1.513724029E-1,8.550891280E-1,1.337602854E0
1.328485256E1,8.445648104E-2,8.583354950E-1,1.216145396E0
1.330685256E1,6.251943707E-1,3.741811514E-1,7.514689565E-1
1.332885256E1,1.062835693E0,-1.557008177E-1,3.487691283E-1
1.335085256E1,1.037877440E0,-2.209063172E-1,2.686934471E-1
1.337285100E1,6.880437136E-1,2.221455127E-1,3.455228209E-1
1.339285256E1,3.569721878E-1,6.612005234E-1,4.156501591E-1
1.341486350E1,2.411346883E-1,7.751007080E-1,4.124212861E-1
1.343685256E1,3.079808056E-1,5.991889834E-1,3.255213499E-1
1.345685256E1,3.329739273E-1,3.695909083E-1,1.491907388E-1
1.347885256E1,3.036174774E-1,1.632231921E-1,2.460914198E-3
1.350085256E1,3.169168830E-1,5.188863724E-2,-4.771730304E-2
1.352285256E1,3.471634388E-1,1.305506285E-2,-4.372049868E-2
1.354285256E1,3.313507438E-1,-2.991494350E-2,-3.632030264E-2
1.356485256E1,2.882760167E-1,-4.571017250E-2,-3.776892647E-2
1.358685256E1,2.603856623E-1,-3.536036983E-2,-5.660102889E-2
1.360885256E1,1.958259344E-1,-1.140747219E-1,-2.138028294E-2
1.363085100E1,8.712683618E-2,-2.052158117E-1,2.710496262E-2
1.365085256E1,2.043780498E-2,-2.406285405E-1,8.180358261E-2
1.367285256E1,-3.413863853E-2,-2.428102046E-1,1.703790426E-1
1.369485256E1,-1.098335683E-1,-2.098933011E-1,2.919761240E-1
1.371686975E1,-1.658586413E-1,-9.672614932E-2,4.225791097E-1
1.373885100E1,-1.918814927E-1,6.431538612E-2,4.292462766E-1
1.375885256E1,-1.252448261E-1,1.433613449E-1,3.077888191E-1
1.378085256E1,2.747148275E-2,1.165007278E-1,1.284736842E-1
1.380285100E1,-5.525712296E-2,2.588497698E-1,7.752752304E-2
1.382285256E1,-4.543091953E-1,5.062676668E-1,3.151715696E-1
1.384485256E1,-8.431860209E-1,4.912403822E-1,9.183922410E-1
1.386485256E1,-5.674414635E-1,3.276855648E-1,1.309572935E0
1.388485256E1,1.929287016E-1,2.574535310E-1,1.194590569E0
1.390485256E1,6.765943170E-1,2.328269184E-1,7.769682407E-1
1.392485725E1,5.798681974E-1,2.267182618E-1,5.381548405E-1
1.394685256E1,3.461337090E-1,2.541199327E-2,6.500653028E-1
1.396885256E1,2.357416153E-1,-1.916371584E-1,9.162629247E-1
1.399085256E1,1.534144431E-1,-2.137679309E-1,1.070899129E0
1.401085256E1,5.735151842E-2,-1.041961536E-1,1.088771343E0
1.403285256E1,-2.338741207E-3,-6.997025013E-2,9.749583602E-1
1.405486038E1,-1.092576087E-1,-2.622880936E-1,7.730761170E-1
1.407685100E1,-2.954493463E-1,-4.279023707E-1,5.811597109E-1
1.409685256E1,-4.532620013E-1,-3.670427501E-1,5.146277547E-1
1.411686975E1,-4.814665318E-1,-2.336646765E-1,6.179512739E-1
1.413885100E1,-4.237310290E-1,-2.095965892E-1,8.062548637E-1
1.415885100E1,-4.102745354E-1,-2.641032338E-1,8.132361770E-1
1.417885256E1,-4.184950590E-1,-2.189864665E-1,5.739864111E-1
1.420085100E1,-3.414387703E-1,-8.925613761E-2,1.965240687E-1
1.422085256E1,-1.484402567E-1,-5.599016324E-2,-1.566956639E-1
1.424286506E1,5.953317881E-2,-8.876744658E-2,-4.669279456E-1
1.426485256E1,1.607448310E-1,9.250245057E-4,-6.525437236E-1
1.428485256E1,1.550201476E-1,1.600117832E-1,-7.727968693E-1
1.430685256E1,1.275137514E-1,3.300766647E-1,-8.689994216E-1
1.432885256E1,2.303136438E-1,3.179291785E-1,-9.968448281E-1
1.435085256E1,3.569721878E-1,6.880088151E-2,-1.208972096E0
1.437085256E1,4.055446982E-1,-4.693190381E-2,-1.410784483E0
1.439285256E1,2.572266161E-1,1.825090796E-1,-1.383068681E0
1.441486194E1,2.972295582E-1,2.981371284E-1,-1.200245500E0
1.443685256E1,7.081673145E-1,1.860346496E-1,-1.207767844E0
1.445885100E1,7.732681036E-1,2.471560687E-1,-1.401796103E0
1.447885256E1,5.004906058E-1,3.739891648E-1,-1.528995633E0
1.450085256E1,4.020540416E-1,3.418227434E-1,-1.428499579E0
1.452285256E1,6.497337222E-1,9.545205534E-2,-1.261523962E0
1.454485256E1,9.100670218E-1,-2.228785455E-1,-1.245205164E0
1.456485725E1,8.981464505E-1,-4.680275023E-1,-1.290688396E0
1.458685256E1,7.125306726E-1,-6.805387735E-1,-1.290042639E0
1.460885256E1,5.022359490E-1,-6.565055847E-1,-1.143365145E0
1.463085100E1,3.154158890E-1,-4.256508946E-1,-8.675682545E-1
1.465085256E1,1.893682182E-1,-1.767843962E-1,-6.246010065E-1
1.467285256E1,7.148868591E-2,-2.354449220E-2,-3.795916438E-1
1.469485569E1,-6.956882030E-2,-4.557054490E-2,-1.376715750E-1
1.471687288E1,-2.153736353E-1,-1.976410896E-1,9.897761792E-2
1.473885100E1,-3.255388141E-1,-2.617993951E-1,3.068812490E-1
1.475885256E1,-2.962696254E-1,-9.976302087E-2,4.694063067E-1
1.477885256E1,-1.283340603E-1,1.544790864E-1,5.926789045E-1
1.480085100E1,4.181808978E-2,2.914699912E-1,6.995628476E-1
1.482085100E1,8.344419301E-2,1.241976321E-1,7.691317201E-1
1.484085100E1,1.056622341E-1,-2.154259831E-1,7.990117073E-1
1.486085256E1,1.363276690E-1,-3.890687823E-1,8.413184881E-1
1.488085256E1,1.413193047E-1,-3.998374641E-1,8.520697355E-1
1.490286975E1,-9.763371944E-2,-1.268505305E-1,8.833984137E-1
1.492485256E1,-3.671998084E-1,1.072679386E-1,1.020930290E0
1.494485256E1,-3.205820620E-1,-2.139773592E-2,1.227437735E0
1.496485256E1,-2.139075547E-1,-1.389805675E-1,1.309066772E0
1.498485256E1,-2.905274928E-1,-6.365215778E-2,1.161743522E0
1.500685256E1,-3.684040904E-1,1.729272157E-1,9.785537720E-1
1.502685256E1,-9.094911069E-2,1.754928529E-1,9.597565532E-1
1.504885256E1,4.203799963E-1,-2.712416053E-1,1.035224557E0
1.507085256E1,6.852861047E-1,-6.273411512E-1,1.094949722E0
1.509285256E1,6.936287284E-1,-6.533814669E-1,1.177730680E0
1.511485256E1,5.959776044E-1,-4.550771415E-1,1.326764345E0
1.513685256E1,4.801051617E-1,-2.292664498E-1,1.511472583E0
1.515685256E1,3.491356671E-1,-6.979571283E-2,1.670541883E0
1.517685256E1,2.313259393E-1,3.267256171E-2,1.782539606E0
1.519685256E1,1.251575649E-1,4.708898440E-2,1.806939363E0
1.521686975E1,-4.070107639E-2,-9.232792072E-3,1.764597654E0
1.523885100E1,-1.496096253E-1,-1.234645918E-1,1.602072597E0
1.525885256E1,-1.712866127E-1,-1.743758470E-1,1.376680851E0
1.527885256E1,-3.001442850E-1,-8.941321820E-2,1.159282565E0
1.529885256E1,-5.297074318E-1,2.711019814E-1,1.077077627E0
1.532085100E1,-6.591584682E-1,7.542265654E-1,1.142475128E0
1.534085100E1,-4.030838013E-1,9.902474284E-1,1.039151549E0
1.536085100E1,3.495894372E-2,9.093863368E-1,6.908885837E-1
1.538085256E1,7.908086479E-2,8.637983799E-1,3.135309517E-1
1.540285100E1,-2.105739713E-1,6.264684796E-1,1.132893190E-1
1.542285100E1,-4.139048159E-1,3.780906796E-1,1.410226077E-1
1.544285100E1,-4.588819742E-1,4.622853696E-1,3.369183540E-1
1.546285256E1,-4.659330845E-1,7.057762146E-1,5.611757040E-1
1.548485256E1,-4.114090204E-1,8.663116097E-1,6.545159221E-1
1.550485256E1,-2.487966865E-1,8.584227562E-1,5.747892857E-1
1.552485256E1,2.146754880E-3,6.822143197E-1,4.074994624E-1
1.554485256E1,1.766273230E-1,4.421442449E-1,2.113768309E-1
1.556486194E1,2.715034187E-1,2.553591132E-1,6.990043819E-2
1.558685256E1,3.994185925E-1,8.155923337E-2,-7.941247895E-3
1.560685256E1,5.300390124E-1,3.333578818E-3,-8.333947510E-2
1.562685256E1,5.661498904E-1,-6.239552051E-2,-1.812698990E-1
1.564885100E1,5.008047819E-1,-1.159422249E-1,-3.303384781E-1
1.566885100E1,4.490382969E-1,-1.268156171E-1,-4.589343369E-1
1.568885256E1,4.029965103E-1,-1.055226028E-1,-5.569171309E-1
1.571085100E1,3.183655143E-1,-1.459967941E-1,-6.496813297E-1
1.573085100E1,2.184454054E-1,-1.855983138E-1,-7.089003921E-1
1.575085100E1,1.351233870E-1,-2.021440268E-1,-7.887666225E-1
1.577085100E1,1.008451208E-1,-2.223898470E-1,-8.721410036E-1
1.579085256E1,1.317374557E-1,-2.907369435E-1,-9.562833309E-1
1.581285256E1,1.229584441E-1,-3.395887017E-1,-1.055487871E0
1.583485256E1,3.900810704E-2,-3.291341960E-1,-1.110692620E0
1.585485881E1,-2.412045002E-2,-3.104940653E-1,-1.118686199E0
1.587685256E1,-6.948155910E-2,-2.954493463E-1,-1.088160396E0
1.589685256E1,-1.370607018E-1,-2.598097026E-1,-1.042223334E0
1.591687131E1,-2.054077983E-1,-2.179218084E-1,-1.009149313E0
1.593885256E1,-2.598969638E-1,-1.687209755E-1,-9.741380811E-1
1.595885256E1,-3.310016990E-1,-9.222319722E-2,-9.376781583E-1
1.598085100E1,-4.119326174E-1,-1.542871073E-2,-8.163777590E-1
1.600085256E1,-3.864158988E-1,1.850049011E-3,-6.561041474E-1
1.602285100E1,-2.173283994E-1,-2.947861142E-2,-4.873482883E-1
1.604285100E1,-1.026777178E-1,-4.036946595E-2,-3.273714185E-1
1.606285100E1,-8.365362883E-2,-6.928957067E-3,-2.019695044E-1
1.608285100E1,-5.770058557E-2,7.630579174E-2,-1.041088924E-1
1.610285256E1,2.607521974E-2,1.716705859E-1,1.935570128E-2
1.612485256E1,1.510407925E-1,1.637118906E-1,1.554739326E-1
1.614685100E1,2.449744195E-1,4.761258140E-2,2.775771618E-1
1.616685256E1,2.291791886E-1,6.719517522E-3,4.004832506E-1
1.618885256E1,1.705710292E-1,1.015781611E-2,5.650503635E-1
1.621085256E1,7.630579174E-2,2.558652684E-2,7.565653324E-1
1.623285100E1,-8.534660190E-2,8.716174215E-2,9.356186390E-1
1.625285100E1,-1.979377866E-1,1.201135591E-1,1.063952684E0
1.627285100E1,-2.622880936E-1,1.368338168E-1,1.171203136E0
1.629285100E1,-2.977706194E-1,1.319992542E-1,1.245624065E0
1.631285100E1,-3.216990829E-1,1.129228026E-1,1.300444841E0
1.633285100E1,-3.211056888E-1,1.071108580E-1,1.346678615E0
1.635285100E1,-3.019244969E-1,1.161865667E-1,1.386978269E0
1.637285100E1,-2.726378739E-1,1.366069168E-1,1.419720650E0
1.639285256E1,-2.454631031E-1,1.489464045E-1,1.435760140E0
1.641485256E1,-2.426356673E-1,1.696285456E-1,1.479079247E0
1.643485256E1,-2.448347807E-1,2.005732358E-1,1.520181775E0
1.645685256E1,-2.393020988E-1,2.212728411E-1,1.548107028E0
1.647885256E1,-2.660754323E-1,2.465102971E-1,1.567358017E0
1.650085100E1,-3.135134876E-1,3.065496385E-1,1.597464919E0
1.652085100E1,-3.494323790E-1,3.507413566E-1,1.621567965E0
1.654085100E1,-3.484898806E-1,3.334276974E-1,1.619595766E0
1.656085100E1,-3.295181692E-1,2.675938904E-1,1.593729973E0
1.658085256E1,-3.171437681E-1,2.590243220E-1,1.556833744E0
1.660285100E1,-3.301115632E-1,2.292838991E-1,1.515975475E0
1.662285100E1,-3.135309517E-1,1.727177799E-1,1.471644163E0
1.664285256E1,-2.738945186E-1,1.349663138E-1,1.423891902E0
1.666285256E1,-2.384119779E-1,1.206546128E-1,1.356033564E0
1.668285256E1,-1.973269284E-1,1.514422148E-1,1.314581990E0
1.670485256E1,-1.018225104E-1,1.750914305E-1,1.247875452E0
1.672486038E1,-3.443534672E-2,1.809208244E-1,1.178655744E0
1.674685256E1,7.330382708E-3,1.517389268E-1,1.104653835E0
1.676685256E1,3.900810704E-2,9.196139872E-2,1.024106860E0
1.678685256E1,5.909684673E-2,1.080358773E-2,9.389522076E-1
1.680685256E1,7.984881103E-2,-3.337069601E-2,8.833634853E-1
1.682885256E1,1.034456640E-1,-3.108431399E-2,8.516334295E-1
1.685085256E1,9.484118968E-2,-8.436921239E-2,8.094662428E-1
1.687085256E1,6.822492182E-2,-1.882861257E-1,7.741233110E-1
1.689285256E1,4.522148147E-2,-2.771408260E-1,7.341029048E-1
1.691485256E1,2.815216035E-2,-2.725157142E-1,6.613575816E-1
1.693685256E1,5.225515738E-2,-1.822472811E-1,6.145479083E-1
1.695685256E1,1.016130671E-1,-4.391248524E-2,5.820498466E-1
1.697685256E1,9.033824503E-2,6.764896214E-2,5.483300686E-1
1.699885100E1,5.777040031E-3,7.070329040E-2,5.123588443E-1
1.701885256E1,-4.213224724E-2,3.874630900E-3,4.579394758E-1
1.703885256E1,-6.429792941E-2,-3.993313387E-2,4.113566577E-1
1.706085100E1,-1.128006279E-1,-5.014330894E-2,3.700796068E-1
1.708085256E1,-1.398008764E-1,-2.979277074E-2,2.972644866E-1
1.710285256E1,-1.598896086E-1,-2.274163999E-2,1.846209317E-1
1.712485256E1,-1.310393214E-1,-2.926917188E-2,2.932153083E-2
1.714685256E1,-3.593632951E-2,-5.907939374E-2,-1.684591770E-1
1.716685256E1,3.804817796E-2,-1.429773718E-1,-3.944095075E-1
1.718885256E1,6.508332491E-2,-2.653773129E-1,-6.407278180E-1
1.721085256E1,5.771803856E-2,-3.489262164E-1,-8.091520667E-1
1.723285100E1,3.059562109E-2,-3.431317210E-1,-9.337860346E-1
1.725285256E1,1.361356769E-2,-2.408205271E-1,-1.061090350E0
1.727486194E1,5.701990798E-2,-1.660506278E-1,-1.220404029E0
1.729685412E1,1.250004768E-1,-1.771334708E-1,-1.337515593E0
1.731686975E1,1.444958150E-1,-2.567553818E-1,-1.414571881E0
1.733885256E1,1.465902030E-1,-2.842443287E-1,-1.462777853E0
1.736085256E1,7.731808722E-2,-1.904677749E-1,-1.496462703E0
1.738085256E1,-3.056071512E-2,-8.688248694E-2,-1.502868056E0
1.740285100E1,-1.108458638E-1,-1.202531811E-2,-1.501751065E0
1.742285100E1,-1.177748144E-1,9.302604944E-3,-1.524161100E0
1.744285100E1,-1.099208370E-1,1.148426626E-2,-1.544860721E0
1.746285100E1,-8.005825430E-2,-1.680752076E-2,-1.573361993E0
1.748285256E1,-4.778711498E-2,-4.473278672E-2,-1.607762337E0
1.750285256E1,-4.070107639E-2,-6.042329967E-2,-1.603591084E0
1.752285256E1,-1.787217148E-2,-5.466371030E-2,-1.539293170E0
1.754485256E1,3.382448107E-2,-3.562216833E-2,-1.470876217E0
1.756485256E1,1.051560864E-1,-8.115781099E-2,-1.435376167E0
1.758485256E1,1.665567756E-1,-1.108807698E-1,-1.399946094E0
1.760485256E1,2.243620753E-1,-1.010371074E-1,-1.370868802E0
1.762485256E1,2.781705856E-1,-7.513642311E-2,-1.341617107E0
1.764485256E1,3.109827638E-1,-7.475244999E-2,-1.301788688E0
1.766485256E1,3.200061023E-1,-9.300859272E-2,-1.259900808E0
1.768485256E1,3.209311366E-1,-9.936159104E-2,-1.214277864E0
1.770485256E1,3.137753010E-1,-8.796459436E-2,-1.203631401E0
1.772485256E1,3.038269281E-1,-9.740682691E-2,-1.193473577E0
1.774485256E1,2.840174139E-1,-1.426806599E-1,-1.179929852E0
1.776685256E1,2.630036771E-1,-1.840973347E-1,-1.175950527E0
1.778885100E1,2.467371970E-1,-2.398605943E-1,-1.183979034E0
1.780885100E1,1.992467940E-1,-2.841919661E-1,-1.178167105E0
1.782885256E1,1.403942853E-1,-2.852915227E-1,-1.150695562E0
1.785085256E1,1.203579083E-1,-2.505071163E-1,-1.105596304E0
1.787085256E1,1.156455129E-1,-2.065073550E-1,-1.079206944E0
1.789285256E1,1.014908925E-1,-2.027025372E-1,-1.076152563E0
1.791485256E1,4.979424179E-2,-2.048667520E-1,-1.067233920E0
1.793685256E1,7.225662936E-3,-2.014982551E-1,-1.031315088E0
1.795685256E1,6.579891313E-3,-1.690002382E-1,-9.853605032E-1
1.797685256E1,6.113888323E-2,-1.500634104E-1,-9.707870483E-1
1.799885100E1,1.132369637E-1,-1.628043056E-1,-9.688497186E-1
1.801885256E1,1.468520015E-1,-1.898569167E-1,-9.480977654E-1
1.803885256E1,1.869073063E-1,-2.100329250E-1,-9.067509174E-1
1.806085100E1,1.979028881E-1,-2.164033800E-1,-8.333947062E-1
1.808085256E1,1.664171368E-1,-2.025279999E-1,-7.440338731E-1
1.810285100E1,1.084373072E-1,-1.430122852E-1,-6.598042846E-1
1.812285100E1,3.656464815E-2,-6.274458766E-2,-5.979148746E-1
1.814285100E1,-2.734931000E-2,-1.406735368E-2,-5.083620548E-1
1.816285100E1,-5.328490213E-2,-4.935790971E-2,-3.998723924E-1
1.818285100E1,-1.338492930E-1,-8.939576149E-2,-2.509957850E-1
1.820285100E1,-2.572615445E-1,-1.371828765E-1,-1.139699966E-1
1.822285100E1,-3.811101019E-1,-1.723512560E-1,-3.553490341E-2
1.824286506E1,-4.222474992E-1,-1.338318437E-1,4.468042776E-2
1.826489475E1,-3.560646176E-1,-1.313011199E-1,9.361945838E-2
1.828685100E1,-2.509085238E-1,-6.972590089E-2,1.345997900E-1
1.830685100E1,-1.804845035E-1,-1.452113967E-2,1.469916254E-1
1.832685100E1,-1.069712266E-1,7.435102481E-3,1.313360184E-1
1.834685100E1,-7.180284709E-2,-1.033234876E-2,1.174781099E-1
1.836685256E1,-5.873033032E-2,-3.904301673E-2,1.285434961E-1
1.838685256E1,-2.330014482E-2,-6.021386012E-2,1.620014608E-1
1.840885256E1,6.108652451E-4,-3.122393973E-2,2.307150662E-1
1.843085256E1,-1.860520989E-2,2.033308521E-2,3.043330610E-1
1.845285256E1,-1.584758982E-2,5.494296551E-2,3.662224412E-1
1.847485881E1,-1.780235767E-2,7.354817539E-2,3.917740583E-1
1.849685256E1,-7.984881103E-2,4.965461791E-2,4.247607887E-1
1.851686975E1,-1.725257933E-1,7.237880677E-2,5.115036368E-1
1.853885256E1,-2.081130594E-1,1.574636102E-1,6.264510155E-1
1.856085100E1,-1.683021039E-1,1.916196942E-1,6.822317243E-1
1.858085256E1,-1.266061813E-1,1.907644868E-1,7.027917504E-1
1.860285256E1,-7.515387982E-2,2.081305087E-1,7.389549613E-1
1.862485256E1,-1.429424621E-2,2.331061810E-1,8.212297559E-1
1.864485256E1,3.830997646E-2,2.361430526E-1,9.112014771E-1
1.866485256E1,1.015781611E-1,2.504896522E-1,1.005187511E0
1.868685100E1,1.787740737E-1,3.277030289E-1,1.124410868E0
1.870685100E1,2.208888680E-1,4.657061994E-1,1.261384368E0
1.872685256E1,2.386737764E-1,5.135805607E-1,1.429250121E0
1.874885100E1,1.794722080E-1,3.965911567E-1,1.655619264E0
1.876885256E1,7.691665739E-2,2.490061224E-1,1.817044854E0
1.879085256E1,-1.860520989E-2,7.449065149E-2,1.843312025E0
1.881285256E1,-4.520402849E-2,-1.857030392E-2,1.817481160E0
1.883485256E1,-1.139700040E-2,6.614797749E-3,1.825370073E0
1.885485256E1,-1.513200440E-2,9.986773878E-2,1.904224038E0
1.887685256E1,-3.071779385E-2,1.885479242E-1,1.999920368E0
1.889685256E1,-4.918337986E-2,2.428974658E-1,2.042803049E0
1.891686975E1,-6.815510988E-2,2.727600634E-1,2.090049267E0
1.893885256E1,-9.677850455E-2,1.974840015E-1,2.036659718E0
1.896085100E1,-1.579872072E-1,8.988445252E-2,1.994056106E0
1.898085100E1,-1.860346496E-1,5.656611919E-2,1.962256193E0
1.900085256E1,-1.855634004E-1,6.380923837E-2,1.939723969E0
1.902285256E1,-2.063328177E-1,4.782202095E-2,1.904991984E0
1.904485256E1,-2.463881224E-1,3.630284965E-2,1.839140654E0
1.906485256E1,-2.610838115E-1,4.921828583E-2,1.764562726E0
1.908485256E1,-2.447475195E-1,3.583160788E-2,1.653943777E0
1.910685256E1,-2.024756521E-1,-2.113593742E-2,1.487264872E0
1.912685256E1,-1.458571702E-1,-3.392919898E-2,1.339941621E0
1.914885100E1,-8.414231986E-2,-1.672025397E-2,1.220421433E0
1.916885256E1,-1.267109066E-2,1.523672417E-2,1.129001141E0
1.918885256E1,1.808161102E-2,3.935717419E-2,1.026532888E0
1.921085256E1,1.007054932E-2,3.824016452E-2,8.951793909E-1
1.923285100E1,-4.118977115E-3,2.199114859E-2,7.577347159E-1
1.925285100E1,-3.745476529E-2,2.715732343E-2,6.305699944E-1
1.927285100E1,-5.804964900E-2,2.933898382E-2,5.108229518E-1
1.929285100E1,-7.124433666E-2,4.244640842E-2,3.659606278E-1
1.931285100E1,-9.620254487E-2,3.871140257E-2,1.967509687E-1
1.933285100E1,-1.169370562E-1,2.974040993E-2,1.972221956E-2
1.935285100E1,-1.180017069E-1,-5.009094719E-3,-1.551074088E-1
1.937285100E1,-8.782497048E-2,-3.787364438E-2,-3.140196502E-1
1.939285256E1,-4.265584797E-2,-3.293436393E-2,-4.577125907E-1
1.941485881E1,1.076868176E-2,-1.219985168E-2,-6.103590727E-1
1.943685256E1,2.398082428E-2,-4.098033160E-2,-7.204719186E-1
1.945685256E1,4.180063680E-2,-5.859070271E-2,-7.866722345E-1
1.947685256E1,6.391395628E-2,-5.120795965E-2,-8.839569092E-1
1.949885256E1,4.946263134E-2,-1.439896598E-2,-9.380272031E-1
1.951885256E1,5.777039751E-2,-1.165879890E-2,-9.948027730E-1
1.953885256E1,6.574655324E-2,-3.110176697E-2,-1.072539687E0
1.955885256E1,3.179989755E-2,-3.274237737E-2,-1.124131680E0
1.957885256E1,9.058258496E-3,-3.438298590E-3,-1.141881704E0
1.960085256E1,1.446877979E-2,1.197295822E-2,-1.162302017E0
1.962285100E1,-2.809980186E-3,-2.501056902E-2,-1.159718871E0
1.964285100E1,-6.143558770E-3,-8.002334833E-2,-1.157240510E0
1.966285100E1,2.228785492E-2,-8.939576149E-2,-1.145861030E0
1.968285256E1,4.187044874E-2,-5.581562966E-2,-1.132421970E0
1.970485256E1,5.696754530E-2,-5.009094998E-2,-1.076623797E0
1.972485256E1,4.968952388E-2,-8.152432740E-2,-1.017055750E0
1.974485256E1,4.838052765E-2,-1.064127237E-1,-9.286897182E-1
1.976485256E1,4.324925691E-2,-8.766788989E-2,-8.213868737E-1
1.978485256E1,1.748819835E-2,-6.609562039E-2,-7.263536453E-1
1.980685256E1,1.258382387E-2,-6.211626902E-2,-6.669251919E-1
1.982885256E1,2.426007576E-2,-8.557349443E-2,-6.484072804E-1
1.985085100E1,2.127556317E-2,-1.181936935E-1,-6.554583907E-1
1.987085100E1,2.546435408E-2,-1.249132156E-1,-6.553013325E-1
1.989085100E1,2.871066518E-2,-1.265189201E-1,-6.570117474E-1
1.991085100E1,5.096361414E-2,-1.299572140E-1,-6.542192101E-1
1.993085256E1,9.012880176E-2,-1.324704885E-1,-6.590886712E-1
1.995285256E1,1.061160192E-1,-1.309869587E-1,-6.616368890E-1
1.997285256E1,1.208116934E-1,-1.308124214E-1,-6.559296250E-1
1.999285256E1,1.284387857E-1,-1.681973785E-1,-6.452133060E-1
2.001285256E1,1.003738865E-1,-1.989500821E-1,-6.163106561E-1
2.003285256E1,6.457718462E-2,-1.614429504E-1,-5.757492185E-1
2.005285256E1,5.255186185E-2,-1.239183769E-1,-5.241747499E-1
2.007485100E1,6.167993695E-2,-1.578475833E-1,-5.001590252E-1
2.009485256E1,3.755948693E-2,-1.662426144E-1,-4.868770540E-1
2.011485256E1,1.164134592E-2,-1.352979243E-1,-4.771381021E-1
2.013486194E1,-2.792526735E-3,-9.384635091E-2,-4.739790559E-1
2.015685256E1,-4.956734832E-3,-1.177224591E-1,-4.484798014E-1
2.017685256E1,2.251474652E-3,-1.404117346E-1,-4.247782230E-1
2.019685256E1,3.996803984E-2,-1.266759932E-1,-4.460538030E-1
2.021686975E1,4.335397854E-2,-1.073551998E-1,-5.003160834E-1
2.023885100E1,1.027998887E-2,-8.848819137E-2,-5.289569497E-1
2.025885256E1,1.750565320E-2,-1.004436985E-1,-5.336344242E-1
2.028085256E1,1.928588748E-2,-1.254018992E-1,-5.427973866E-1
2.030085256E1,-1.567305624E-2,-9.976302087E-2,-5.682617426E-1
2.032285100E1,-7.386233658E-2,-7.731808722E-2,-5.972691178E-1
2.034285100E1,-1.006531343E-1,-6.037093699E-2,-5.989097357E-1
2.036285100E1,-9.435249865E-2,-2.361430414E-2,-6.074618697E-1
2.038285256E1,-7.901105285E-2,-1.757546514E-2,-6.366437674E-1
2.040485256E1,-9.201376140E-2,-3.178244457E-2,-6.914296150E-1
2.042485256E1,-1.130798832E-1,-1.576032303E-2,-7.175571918E-1
2.044485256E1,-1.216669008E-1,4.031710327E-3,-7.271390557E-1
2.046485256E1,-1.207069680E-1,-1.535889693E-2,-7.574728727E-1
2.048485256E1,-1.072853878E-1,-4.365068302E-2,-8.047887683E-1
2.050485881E1,-1.032711342E-1,-2.696533687E-2,-8.658055067E-1
2.052685256E1,-2.689552307E-2,-2.272418700E-2,-9.367356300E-1
2.054885256E1,5.632177368E-2,-1.102524474E-1,-1.011872053E0
2.056885256E1,6.536258012E-2,-2.000321895E-1,-1.075925708E0
2.059085100E1,3.893829510E-2,-2.257408798E-1,-1.092244506E0
2.061085100E1,2.406809106E-2,-1.485100687E-1,-1.066169262E0
2.063085100E1,9.791296907E-3,-5.551892146E-2,-1.060758710E0
2.065085100E1,-6.000442058E-2,-9.564404376E-3,-1.098161221E0
2.067085100E1,-1.695412844E-1,-3.778637946E-2,-1.161115170E0
2.069085100E1,-2.702816725E-1,-1.241976321E-1,-1.211921692E0
2.071085256E1,-3.506017327E-1,-1.461887807E-1,-1.210717440E0
2.073285100E1,-3.664667904E-1,-7.958701253E-2,-1.218361974E0
2.075285256E1,-3.859620988E-1,-4.921828583E-2,-1.279588103E0
2.077485256E1,-4.226838350E-1,-3.977605328E-2,-1.416404486E0
2.079485256E1,-4.477991164E-1,-7.457792014E-2,-1.579261184E0
2.081485881E1,-4.024205506E-1,-3.317870945E-2,-1.760112166E0
2.083685100E1,-4.133463204E-1,1.197819486E-1,-1.925307631E0
2.085685256E1,-3.741113245E-1,2.329141945E-1,-1.943406701E0
2.087685256E1,-2.755351365E-1,2.245540619E-1,-1.889214158E0
2.089885256E1,-2.012539208E-1,1.981297731E-1,-1.860381365E0
2.092085100E1,-1.687035263E-1,2.516939342E-1,-1.846994638E0
2.094085100E1,-9.993755072E-2,3.387160599E-1,-1.804583192E0
2.096085100E1,8.848818950E-3,3.784222901E-1,-1.721383333E0
2.098085256E1,1.611986160E-1,3.102671802E-1,-1.632755518E0
2.100085256E1,2.153212726E-1,2.167175263E-1,-1.560900331E0
2.102085256E1,2.120051384E-1,1.760513633E-1,-1.462585926E0
2.104085256E1,2.391275615E-1,1.854761392E-1,-1.350640535E0
2.106285100E1,3.015230894E-1,1.986359209E-1,-1.235832691E0
2.108285100E1,2.737025321E-1,7.791149616E-2,-1.155774474E0
2.110285256E1,1.408131570E-1,-6.637486815E-2,-1.109575629E0
2.112485256E1,-1.286656708E-1,-1.447052509E-1,-1.007456422E0
2.114485256E1,-2.490933836E-1,-2.424087822E-1,-8.071275353E-1
2.116685256E1,1.411971357E-2,-4.674515426E-1,-6.781826019E-1
2.118885256E1,3.038094640E-1,-5.549623370E-1,-8.545830250E-1
2.121085256E1,2.511005104E-1,-2.923251987E-1,-1.172442317E0
2.123085256E1,5.654866621E-2,8.429939859E-3,-1.330586672E0
2.125285256E1,2.637192421E-2,6.218608096E-2,-1.276237130E0
2.127485256E1,4.921828583E-2,-5.379104614E-2,-1.097637534E0
2.129685256E1,-4.647811875E-2,-2.495820867E-3,-1.011400819E0
2.131686975E1,-1.863313466E-1,9.555677325E-2,-1.012709856E0
2.133885256E1,-2.316575497E-1,8.644615859E-2,-1.016183019E0
2.136085256E1,-1.978330761E-1,-6.555456668E-2,-1.046935797E0
2.138085256E1,-5.042256042E-2,-2.613630593E-1,-1.062469125E0
2.140085256E1,5.991715193E-2,-3.153984547E-1,-1.109418511E0
2.142285256E1,1.136558428E-1,-2.244842499E-1,-1.182984114E0
2.144485256E1,1.740267724E-1,-1.032711342E-1,-1.249987364E0
2.146485256E1,2.490061224E-1,-4.918337986E-2,-1.333222151E0
2.148485256E1,2.716779411E-1,-5.321509019E-2,-1.400068164E0
2.150485256E1,2.486047000E-1,-4.251622036E-2,-1.459863186E0
2.152685256E1,2.360383272E-1,2.642428502E-2,-1.526447535E0
2.154885256E1,1.485798806E-1,4.998622835E-2,-1.613452196E0
2.156885881E1,-5.609488115E-2,9.258971363E-2,-1.626350164E0
2.159085100E1,-2.108183205E-1,1.965938807E-1,-1.549991965E0
2.161085100E1,-1.937489957E-1,2.053903490E-1,-1.483006239E0
2.163085100E1,-2.067517042E-1,2.237163037E-1,-1.458379626E0
2.165085100E1,-2.800904512E-1,2.893406749E-1,-1.461678386E0
2.167085100E1,-2.849599123E-1,2.842792273E-1,-1.487404466E0
2.169085100E1,-2.011666447E-1,1.323657632E-1,-1.511193275E0
2.171085256E1,-2.093173414E-1,7.766715251E-3,-1.463650584E0
2.173285100E1,-2.946988344E-1,-3.961897269E-2,-1.331703663E0
2.175285100E1,-2.702118754E-1,-1.262920201E-1,-1.205760717E0
2.177285100E1,-2.022836655E-1,-2.591464818E-1,-1.102611780E0
2.179285100E1,-2.455678284E-1,-2.754478753E-1,-1.028033853E0
2.181285256E1,-3.337942064E-1,-1.266061813E-1,-9.657953978E-1
2.183485100E1,-3.879692256E-1,7.599163800E-2,-9.363865852E-1
2.185485256E1,-4.608018398E-1,2.292140871E-1,-8.857371211E-1
2.187685569E1,-4.940677881E-1,3.149795830E-1,-7.724652886E-1
2.189885256E1,-4.063475430E-1,4.239404798E-1,-6.863332987E-1
2.191885256E1,-1.614953130E-1,2.908940315E-1,-6.899809837E-1
2.194085256E1,7.916813344E-2,-3.412118554E-2,-8.448964357E-1
2.196285256E1,1.729272157E-1,-2.305929065E-1,-9.720436931E-1
2.198485413E1,2.185675800E-1,-1.668883860E-1,-9.507855773E-1
2.200685256E1,2.449045926E-1,1.745329246E-5,-8.082445264E-1
2.202685256E1,1.947089285E-1,1.093274206E-1,-6.457543969E-1
2.204685256E1,1.334478706E-1,1.054527909E-1,-5.414186120E-1
2.206885256E1,1.207767874E-1,5.030038953E-2,-4.572238922E-1
2.208885256E1,1.615302265E-1,3.382448107E-2,-3.956312239E-1
2.211085100E1,2.173982114E-1,3.637266159E-2,-3.425208628E-1
2.213085100E1,2.301740199E-1,2.361430414E-2,-2.801951468E-1
2.215085100E1,2.440319359E-1,-4.712388851E-3,-2.101376355E-1
2.217085100E1,2.541199327E-1,-1.647590846E-2,-1.518785506E-1
2.219085256E1,1.763131618E-1,3.860668465E-2,-9.545205534E-2
2.221085256E1,7.686430216E-2,7.515387982E-2,2.047271281E-2
2.223285100E1,2.031563222E-2,9.712757170E-2,1.817934960E-1
2.225285100E1,6.754423957E-3,7.258824259E-2,2.525491416E-1
2.227285100E1,8.883725852E-3,3.569198400E-2,2.438923120E-1
2.229285100E1,7.068583276E-3,-2.984513063E-3,1.933126599E-1
2.231285256E1,-4.469788074E-2,-2.808234841E-2,1.877101660E-1
2.233485100E1,-8.958774805E-2,-1.194154248E-1,2.533345520E-1
2.235485256E1,-3.881612420E-2,-1.880592257E-1,3.006155193E-1
2.237685256E1,1.105142459E-1,-1.904328763E-1,2.661277950E-1
2.239685256E1,2.399478704E-1,-1.591740251E-1,1.330813617E-1
2.241686975E1,2.912605405E-1,-6.462953985E-2,-1.872738265E-2
2.243885100E1,2.373647839E-1,1.023286507E-1,-1.226442829E-1
2.245885100E1,9.456194192E-2,2.192133516E-1,-1.027300805E-1
2.247885256E1,-9.862855822E-2,3.048391938E-1,-7.103490178E-3
2.250085256E1,-1.995784044E-1,3.753156066E-1,1.648288965E-1
2.252285100E1,-1.273915768E-1,5.693438649E-1,3.524866998E-1
2.254285256E1,-2.850122750E-2,6.297322512E-1,4.212352037E-1
2.256486506E1,-4.307472706E-2,2.948733866E-1,3.608468175E-1
2.258685256E1,-9.051277488E-2,-1.512676924E-1,2.622008026E-1
2.260685256E1,-5.640904233E-2,-2.161939293E-1,2.397907823E-1
2.262685256E1,2.480112948E-2,-3.239331022E-2,3.127106428E-1
2.264885100E1,1.035678387E-1,6.921976060E-2,4.124387503E-1
2.266885100E1,6.359979510E-2,4.255112633E-2,4.947135746E-1
2.268885256E1,4.380776547E-3,2.211332135E-2,5.590289831E-1
2.271085256E1,-6.078981608E-2,7.515387982E-2,6.294530034E-1
2.273085256E1,-1.133765876E-1,1.185427606E-1,6.774669886E-1
2.275285256E1,-1.134813055E-1,1.030965969E-1,7.110471129E-1
2.277285256E1,-8.464846760E-2,7.663740963E-2,7.334571481E-1
2.279485256E1,-5.963790044E-2,4.117231816E-2,7.297570705E-1
2.281485725E1,-1.392772701E-2,7.644542027E-3,6.896144748E-1
2.283685256E1,3.710569814E-2,-2.967059845E-4,6.689149141E-1
2.285885256E1,6.806784123E-2,-7.330382941E-4,6.877818704E-1
2.287885256E1,4.939281940E-2,-1.884955540E-2,6.869092584E-1
2.289885256E1,2.143264376E-2,-2.350958437E-2,6.762103438E-1
2.291885256E1,5.305801053E-3,-2.094395168E-4,6.879040599E-1
2.294085256E1,1.068141498E-2,1.329940930E-2,6.940127015E-1
2.296285256E1,-2.579596639E-2,5.707226694E-3,6.824761033E-1
2.298485413E1,-5.590289459E-2,1.567305624E-2,6.657558680E-1
2.300685100E1,-2.453932911E-2,3.731513768E-2,6.400995255E-1
2.302685256E1,1.324704941E-2,5.419247225E-2,6.032556295E-1
2.304685256E1,2.230530791E-2,5.201081187E-2,5.526410341E-1
2.306885100E1,4.660028964E-2,2.858849242E-2,4.922701120E-1
2.308885256E1,4.920083284E-2,8.464846760E-3,4.521973431E-1
2.311085100E1,8.065166324E-2,2.556907386E-2,4.164704680E-1
2.313085100E1,1.007404029E-1,3.996803984E-2,3.854908645E-1
2.315085100E1,1.055924222E-1,4.773475602E-2,3.428699374E-1
2.317085100E1,1.156455129E-1,1.734857261E-2,3.135658503E-1
2.319085100E1,1.103048101E-1,-1.476548519E-2,2.971597612E-1
2.321085256E1,9.918706119E-2,-1.406735368E-2,2.895501256E-1
2.323085256E1,1.023112014E-1,-1.467821933E-2,2.738246918E-1
2.325285100E1,6.981316954E-2,3.438298590E-3,2.333330661E-1
2.327285100E1,4.228932783E-2,6.335545331E-3,2.109230459E-1
2.329285100E1,3.906046972E-2,-5.550147034E-3,1.883384734E-1
2.331285256E1,3.551745042E-2,-1.850049011E-2,1.497841626E-1
2.333486819E1,2.602285892E-2,-1.117010694E-2,1.118057892E-1
2.335685100E1,8.499753661E-3,5.201081280E-3,8.353145421E-2
2.337685256E1,-4.415682983E-3,3.153809905E-2,5.902703479E-2
2.339885256E1,-6.283185212E-4,7.815584540E-2,3.595378250E-2
2.341885256E1,-2.188642882E-2,5.454153940E-2,-1.745329209E-4
2.344085256E1,-5.106833205E-2,1.164134592E-2,-7.470009383E-3
2.346285256E1,-1.816887781E-2,2.726204321E-2,-1.117010694E-2
2.348485256E1,1.233947743E-2,4.960225895E-2,-5.527457595E-2
2.350485256E1,4.206243437E-3,1.483529899E-2,-8.779006451E-2
2.352485256E1,2.017600648E-2,-1.424188633E-2,-8.981464058E-2
2.354485256E1,3.600614145E-2,-9.040805511E-3,-7.756242901E-2
2.356485256E1,2.265437320E-2,6.649704650E-3,-6.309365481E-2
2.358485413E1,1.078613475E-2,6.928957067E-3,-5.714207888E-2
2.360685100E1,1.017526910E-2,-3.071779385E-3,-6.597344577E-2
2.362685256E1,7.312929723E-3,-1.427679323E-2,-7.583455741E-2
2.364885100E1,-7.522369269E-3,-1.946042106E-2,-9.056513757E-2
2.366885100E1,-8.447393775E-3,-5.829399452E-3,-9.658651799E-2
2.368885256E1,-2.303834539E-3,-1.579522900E-2,-1.206022501E-1
2.371085256E1,-1.605702913E-3,-4.118977115E-2,-1.561022550E-1
2.373285100E1,-3.944444004E-3,-2.888519876E-2,-1.819156706E-1
2.375285100E1,-4.241149873E-3,1.797689125E-3,-1.781632155E-1
2.377285100E1,-2.785545401E-2,2.289872058E-2,-1.712516993E-1
2.379285100E1,-5.372123420E-2,-5.934119690E-4,-1.691049486E-1
2.381285100E1,-5.241223797E-2,3.490658419E-4,-1.689653248E-1
2.383285100E1,-3.544763848E-2,-5.131267942E-3,-1.802925169E-1
2.385285100E1,-3.865904361E-2,-5.183627829E-3,-1.946391165E-1
2.387285256E1,-3.124139272E-2,-2.967059845E-4,-1.971698403E-1
2.389486350E1,-3.480186686E-2,-3.193952609E-3,-1.944471300E-1
2.391687444E1,-6.192428246E-2,8.674286306E-3,-1.670105606E-1
2.393885100E1,-5.201081187E-2,4.096287861E-2,-1.556833684E-1
2.395885100E1,-2.434734255E-2,5.258677155E-2,-1.626123190E-1
2.397885256E1,7.173303049E-3,4.530874640E-2,-1.646019965E-1
2.400085256E1,3.438298777E-2,3.281218931E-2,-1.545488983E-1
2.402285100E1,4.417428374E-2,1.937315427E-2,-1.214225590E-1
2.404285100E1,9.948376566E-3,2.232276089E-2,-6.932447851E-2
2.406285100E1,-2.234021388E-2,1.816887781E-2,-3.862413764E-2
2.408285100E1,-2.979277074E-2,-1.712168008E-2,-2.932153177E-3
2.410285100E1,-4.445353523E-2,-4.098033160E-2,3.721041977E-2
2.412285100E1,-5.543165654E-2,-2.926917188E-2,4.860742018E-2
2.414285100E1,-6.832963973E-2,-1.446877979E-2,3.982841223E-2
2.416285100E1,-6.141813472E-2,-9.354964830E-3,6.290166825E-2
2.418285256E1,-8.744099177E-3,-1.223475765E-2,8.051203936E-2
2.420485256E1,5.253441166E-3,1.911135577E-2,6.230825558E-2
2.422485256E1,-3.647737950E-2,8.133234084E-2,6.019640714E-2
2.424485256E1,-4.164355621E-2,1.791580468E-1,7.616616786E-2
2.426685100E1,4.885176569E-2,2.328618318E-1,5.328490213E-2
2.428685256E1,3.275284767E-1,7.771950960E-2,6.106907129E-2
2.430685256E1,4.752531648E-1,-9.482374042E-2,8.831366152E-2
2.432885256E1,3.972718418E-1,-1.528559327E-1,1.605877429E-1
2.435085100E1,2.975262702E-1,-1.516865641E-1,2.630385756E-1
2.437085100E1,2.164033800E-1,-9.053023160E-2,3.838153481E-1
2.439085100E1,1.050688177E-1,-7.644542027E-3,4.366813898E-1
2.441085100E1,-6.199409440E-2,2.436479554E-2,4.246385992E-1
2.443085256E1,-1.980075985E-1,5.530948564E-2,3.774972558E-1
2.445285100E1,-2.404016554E-1,1.296430528E-1,3.251723051E-1
2.447285256E1,-1.883384734E-1,1.392423660E-1,2.586228848E-1
2.449485569E1,-1.297128648E-1,1.034282148E-1,1.420872509E-1
2.451687288E1,-6.171484292E-2,7.424630970E-2,-2.042035107E-3
2.453885100E1,1.645845547E-2,1.074424684E-1,-8.827875555E-2
2.455885256E1,8.635888994E-2,1.184205860E-1,-1.152615398E-1
2.458085256E1,1.249481216E-1,7.679449022E-2,-9.810495377E-2
2.460285100E1,1.357866228E-1,2.612757869E-2,-2.394591644E-2
2.462285100E1,1.780235767E-1,-1.727875904E-3,3.279473633E-2
2.464285100E1,1.951976269E-1,1.342158206E-2,6.389650702E-2
2.466285100E1,1.363625675E-1,6.197664142E-2,1.029744223E-1
2.468285100E1,1.272345055E-2,4.815363511E-2,1.570098251E-1
2.470285100E1,-1.207942367E-1,1.185078546E-2,2.159321308E-1
2.472285100E1,-2.233846933E-1,-3.057816811E-2,2.479065657E-1
2.474286506E1,-3.176150024E-1,-2.125811018E-2,2.456550896E-1
2.476485256E1,-3.580368459E-1,-3.752457909E-3,2.207492441E-1
2.478485256E1,-3.301988542E-1,-2.042035107E-3,1.615651250E-1
2.480485256E1,-2.490410358E-1,-1.000073645E-2,4.523893446E-2
2.482485256E1,-1.378635615E-1,-2.099631168E-2,-9.927432984E-2
2.484485256E1,-3.761184588E-2,-1.295034308E-2,-1.913055331E-1
2.486485256E1,6.749188155E-2,-1.965240762E-2,-2.253220081E-1
2.488685256E1,1.407782584E-1,-1.003564335E-2,-2.027548999E-1
2.490885256E1,1.373050511E-1,2.059488557E-3,-1.636071652E-1
2.493085256E1,7.675957680E-2,5.026548170E-3,-1.236042157E-1
2.495285100E1,-6.143558770E-3,1.441641990E-2,-7.977899909E-2
2.497285100E1,-6.620033830E-2,4.506440088E-2,-4.448844120E-2
2.499285100E1,-1.083500385E-1,4.438372329E-2,-1.431170013E-2
2.501285100E1,-1.496096253E-1,-7.470009383E-3,-3.141592722E-3
2.503285100E1,-1.459793448E-1,-6.284930557E-2,-1.377064735E-2
2.505285100E1,-1.199913844E-1,-7.195992768E-2,-2.492330223E-2
2.507285100E1,-7.709119469E-2,-7.642796636E-2,-3.237585723E-2
2.509285100E1,-3.975860029E-2,-9.213592857E-2,-1.953023486E-2
2.511285100E1,9.948377265E-4,-9.105382860E-2,-3.316125600E-3
2.513285100E1,3.659955412E-2,-7.372270525E-2,2.759365551E-2
2.515285100E1,4.201007634E-2,-8.965755999E-2,7.199483365E-2
2.517285100E1,2.483603545E-2,-1.040565297E-1,8.388052136E-2
2.519285100E1,-2.195624262E-2,-7.044149190E-2,8.592256159E-2
2.521285100E1,-5.019566789E-2,-4.771730304E-2,9.457939118E-2
2.523285100E1,-6.972590089E-2,-5.516985804E-2,1.001644433E-1
2.525285256E1,-7.463027537E-2,-5.621705577E-2,9.964084625E-2
2.527486194E1,-6.223843992E-2,-5.335471407E-2,7.152359188E-2
2.529685256E1,-5.448918045E-2,-4.235913977E-2,4.197516665E-2
2.531687444E1,-4.241150245E-2,-6.002187356E-2,3.824016452E-2
2.533885256E1,-2.586578019E-2,-1.007229537E-1,4.337143153E-2
2.536085100E1,-1.007054932E-2,-1.014036313E-1,3.803072497E-2
2.538085256E1,-2.071705833E-2,-6.920230389E-2,2.282890677E-2
2.540285100E1,-3.286454827E-2,-4.841543362E-2,3.406882659E-2
2.542285100E1,-2.350958437E-2,-4.855506122E-2,2.085668407E-2
2.544285100E1,-2.949606394E-3,-5.044001341E-2,-3.275983036E-2
2.546285256E1,-2.862340072E-3,-5.468116701E-2,-8.220500499E-2
2.548485256E1,-6.824237294E-3,-4.106759652E-2,-7.539822161E-2
2.550485256E1,3.134611249E-2,-3.206169978E-2,-1.014385372E-1
2.552485256E1,7.866198570E-2,-4.780456796E-2,-1.849525422E-1
2.554685256E1,7.251843065E-2,-6.270968169E-2,-2.758318484E-1
2.556885100E1,1.067792401E-1,-8.773770183E-2,-3.031462431E-1
2.558885256E1,1.331686229E-1,-1.270599663E-1,-3.194650710E-1
2.561085100E1,9.786061198E-2,-9.367182106E-2,-3.521550894E-1
2.563085256E1,8.253662288E-2,-5.347688869E-2,-3.981270492E-1
2.565085256E1,7.194247097E-2,-3.513347730E-2,-4.904026091E-1
2.567285256E1,8.166395873E-2,-7.983136177E-2,-5.934817791E-1
2.569485100E1,3.628539667E-2,-1.271472424E-1,-7.051828504E-1
2.571485256E1,-8.506734669E-2,-1.214051023E-1,-7.801970840E-1
2.573485881E1,-1.370083392E-1,-9.875072539E-2,-8.166220784E-1
2.575685256E1,-1.792453080E-1,-8.967501670E-2,-8.691216111E-1
2.577685256E1,-2.580469251E-1,-7.958701253E-2,-9.016545415E-1
2.579885100E1,-2.611361742E-1,-5.490805954E-2,-9.285849929E-1
2.581885256E1,-2.310466915E-1,-3.532546386E-2,-9.518153071E-1
2.583885256E1,-2.122145891E-1,-4.726351425E-2,-9.816080928E-1
2.586085256E1,-1.681973785E-1,-6.030112505E-2,-1.020528913E0
2.588085256E1,-1.140049100E-1,-6.572909653E-2,-1.046010733E0
2.590285100E1,-7.169812173E-2,-9.159488231E-2,-1.065540910E0
2.592285100E1,-3.232349828E-2,-1.287180334E-1,-1.099347949E0
2.594285100E1,5.235987483E-4,-1.360833198E-1,-1.156350493E0
2.596285256E1,-2.209586836E-2,-9.445721656E-2,-1.199285507E0
2.598485256E1,-8.777260780E-2,-3.077015467E-2,-1.227681994E0
2.600485256E1,-1.273392290E-1,-1.158898603E-2,-1.235152006E0
2.602685256E1,-1.283864230E-1,-1.872738265E-2,-1.227402806E0
2.604885256E1,-1.321388781E-1,-1.291543618E-2,-1.232743502E0
2.607085256E1,-1.202182770E-1,2.687807009E-2,-1.273357272E0
2.609285100E1,-8.052948862E-2,2.089159191E-2,-1.331302285E0
2.611285256E1,-8.056439459E-2,-5.427973811E-3,-1.333850384E0
2.613485412E1,-7.419394702E-2,3.944444004E-3,-1.283148646E0
2.615685256E1,-5.550146848E-2,4.588470608E-2,-1.219426632E0
2.617685256E1,-5.482079089E-2,4.750786349E-2,-1.170819163E0
2.619685256E1,-4.731587693E-2,1.474803220E-2,-1.101232886E0
2.621686975E1,-1.247910410E-2,-1.867502346E-3,-1.015781641E0
2.623885100E1,-4.345869645E-3,-1.680752076E-2,-9.387428164E-1
2.625885256E1,-3.455751808E-3,-6.450736523E-2,-8.879536986E-1
2.627885413E1,9.721484035E-3,-9.468410909E-2,-8.349131346E-1
2.630085100E1,1.446877979E-2,-5.433209985E-2,-7.851189375E-1
2.632085100E1,-9.826203808E-3,7.696901914E-3,-7.561115623E-1
2.634085100E1,-1.181587856E-2,2.754129469E-2,-7.576648593E-1
2.636085100E1,-4.553563893E-2,1.457349956E-2,-7.686604261E-1
2.638085256E1,-8.014551550E-2,3.270747140E-2,-7.605970502E-1
2.640285256E1,-1.062905490E-1,8.339183033E-2,-7.258998752E-1
2.642485256E1,-1.468869150E-1,1.818982214E-1,-7.114485502E-1
2.644685256E1,-2.045525908E-1,2.645744681E-1,-6.987600327E-1
2.646685256E1,-2.131745070E-1,2.798111737E-1,-7.011685967E-1
2.648685256E1,-1.955990493E-1,2.509259880E-1,-6.878342628E-1
2.650885100E1,-1.599245220E-1,2.101899981E-1,-7.058984041E-1
2.652885100E1,-1.318421662E-1,2.177996337E-1,-7.009940147E-1
2.654885256E1,-6.480407715E-2,2.471037209E-1,-7.137349248E-1
2.656885256E1,5.288347602E-3,2.149198502E-1,-7.668452859E-1
2.659085256E1,7.682939619E-2,3.504621238E-2,-8.493819237E-1
2.661285256E1,4.766494036E-2,-6.309365481E-2,-8.447742462E-1
2.663485256E1,-1.367465407E-1,4.007275775E-2,-7.224092484E-1
2.665485881E1,-1.183507740E-1,1.635373570E-2,-5.836380720E-1
2.667685256E1,1.639911383E-1,-2.821848392E-1,-5.943544507E-1
2.669685256E1,3.419449031E-1,-4.724082649E-1,-7.901629210E-1
2.671686975E1,3.237585723E-1,-4.017922580E-1,-9.629679322E-1
2.673885100E1,1.672723591E-1,-1.255240738E-1,-1.027963996E0
2.675885256E1,2.035053819E-2,6.932447851E-2,-9.414131641E-1
2.678085100E1,-1.039343551E-1,6.806784123E-2,-7.784168720E-1
2.680085256E1,-1.528908461E-1,1.291543595E-3,-7.154453397E-1
2.682285256E1,-8.154178411E-2,-5.185373127E-2,-7.554657459E-1
2.684485256E1,4.920083284E-2,-5.813691765E-2,-9.380097389E-1
2.686485256E1,1.026602685E-1,-3.176499158E-2,-1.133853197E0
2.688485256E1,5.415756628E-2,3.089232836E-3,-1.188394666E0
2.690485256E1,-5.777040031E-3,6.935938448E-2,-1.089277387E0
2.692485256E1,-5.281366408E-2,1.439896673E-1,-9.556550384E-1
2.694485256E1,-9.370672703E-2,1.989151686E-1,-9.020385146E-1
2.696485256E1,-1.342507303E-1,1.654397547E-1,-9.033649564E-1
2.698485256E1,-1.027126238E-1,1.438674927E-1,-9.201201200E-1
2.700485256E1,-2.783800103E-2,1.568527371E-1,-9.530894160E-1
2.702485256E1,-8.377580671E-4,1.726130694E-1,-9.998118877E-1
2.704485256E1,-2.893755957E-2,1.734682769E-1,-1.013652325E0
2.706485412E1,-9.423032403E-2,1.753357798E-1,-9.858317971E-1
2.708485569E1,-1.728923172E-1,1.853888780E-1,-9.178686738E-1
2.710685100E1,-2.214997411E-1,1.937489957E-1,-8.365537524E-1
2.712685100E1,-2.661277950E-1,1.876927018E-1,-7.927285433E-1
2.714685100E1,-3.157649636E-1,1.420348883E-1,-7.830419540E-1
2.716685256E1,-3.488040566E-1,1.058193147E-1,-7.688698769E-1
2.718885256E1,-3.574085236E-1,1.054178849E-1,-7.522892356E-1
2.720885256E1,-3.536386192E-1,8.489281684E-2,-7.476292253E-1
2.722885256E1,-3.596948981E-1,5.016076192E-2,-7.541218400E-1
2.725085100E1,-3.649832606E-1,2.642428502E-2,-7.790102363E-1
2.727085100E1,-3.488214910E-1,-5.183627829E-3,-8.004952669E-1
2.729085256E1,-3.107384145E-1,-3.944443911E-2,-8.217882514E-1
2.731285256E1,-2.335076034E-1,-5.338962004E-2,-8.207410574E-1
2.733486506E1,-1.160992980E-1,-4.276056588E-2,-8.172678947E-1
2.735685100E1,-3.218387067E-2,-3.316125646E-2,-8.082445264E-1
2.737685256E1,3.246312495E-3,-2.766346931E-2,-7.616965771E-1
2.739685256E1,3.869394958E-2,-1.045452245E-2,-6.676756740E-1
2.741686975E1,9.971065819E-2,-2.387610450E-2,-5.838999152E-1
2.743885256E1,1.427330226E-1,-5.028293654E-2,-5.186594725E-1
2.746085256E1,1.665044129E-1,-5.981243402E-2,-4.306250811E-1
2.748285100E1,1.757546514E-1,-6.162757427E-2,-3.148399293E-1
2.750285100E1,6.602580845E-2,-7.827802002E-2,-1.703964919E-1
2.752285100E1,-9.327039123E-2,1.692969352E-3,7.639306039E-2
2.754285256E1,-1.604830176E-1,1.352804750E-1,3.971496820E-1
2.756285569E1,-4.822344705E-2,-3.316125658E-4,6.472378969E-1
2.758485256E1,2.637890577E-1,-9.574875981E-2,6.829298735E-1
2.760485256E1,3.642676771E-1,-1.274090377E-3,6.276727319E-1
2.762485256E1,2.715383172E-1,-3.858922794E-2,6.982189417E-1
2.764485881E1,2.219709754E-1,-2.188817412E-1,8.995950818E-1
2.766685100E1,3.261496723E-1,-4.044451416E-1,1.210630178E0
2.768685100E1,5.170887113E-1,-4.460712373E-1,1.530531526E0
2.770685100E1,6.947981119E-1,-3.199886680E-1,1.709497690E0
2.772685256E1,8.033226728E-1,-6.366961449E-2,1.737789392E0
2.774685256E1,7.113612890E-1,3.611609936E-1,1.739901304E0
2.776885256E1,3.423288763E-1,8.643219471E-1,1.894327998E0
2.779085100E1,-1.440245658E-1,1.056378007E0,2.303852081E0
2.781085100E1,-5.640904307E-1,9.728989005E-1,2.839650631E0
2.783085100E1,-7.303155661E-1,7.460584641E-1,3.281550646E0
2.785085100E1,-4.055970609E-1,3.090279996E-1,3.333683491E0
2.787085256E1,4.581489414E-2,-4.855506122E-2,2.987445116E0
2.789285256E1,1.254542619E-1,-1.040041670E-1,2.646111012E0
2.791485725E1,7.578219473E-2,-2.373647876E-3,2.693269968E0
2.793685256E1,1.332035214E-1,1.921258420E-1,2.999627590E0
2.795685256E1,1.719847471E-1,3.532895446E-1,3.244828939E0
2.797885256E1,1.159073189E-1,3.976907134E-1,3.313298225E0
2.800085100E1,-1.253146399E-2,3.799407184E-1,3.296560526E0
2.802085100E1,-8.396779001E-2,3.100053668E-1,3.297363281E0
2.804085100E1,-1.454906464E-1,2.674542665E-1,3.385170698E0
2.806085100E1,-2.486395985E-1,2.387959510E-1,3.544903278E0
2.808085256E1,-2.936865389E-1,1.613556892E-1,3.705840111E0
2.810285256E1,-2.893581390E-1,-4.080579802E-2,3.794363260E0
2.812485569E1,-3.834837377E-1,-2.362128645E-1,3.751777172E0
2.814685100E1,-6.005328894E-1,-1.768542081E-1,3.803822994E0
2.816685256E1,-7.101744413E-1,-1.486322433E-1,3.887598753E0
2.818685256E1,-7.365463972E-1,-2.290046513E-1,3.958075047E0
2.820685256E1,-7.634069920E-1,-3.202853799E-1,3.903481245E0
2.822685256E1,-7.220078111E-1,-4.310963154E-1,3.773000479E0
2.824685256E1,-6.085613966E-1,-5.991889834E-1,3.540819168E0
2.826885256E1,-6.559645534E-1,-7.008020282E-1,3.312024117E0
2.829085256E1,-8.116478920E-1,-7.939327955E-1,3.158766747E0
2.831285100E1,-8.926661015E-1,-9.208706021E-1,3.046227932E0
2.833285100E1,-8.799251914E-1,-9.614844322E-1,2.980813026E0
2.835285100E1,-8.371646404E-1,-7.593752742E-1,2.903599501E0
2.837285100E1,-7.802494168E-1,-3.983364999E-1,2.808304548E0
2.839285256E1,-6.737843752E-1,-1.180540696E-1,2.675467491E0
2.841485256E1,-4.271867871E-1,-1.097113937E-1,2.402672529E0
2.843485256E1,-2.089333683E-1,-1.766273230E-1,2.068354845E0
2.845486194E1,-4.302236438E-2,-2.581865489E-1,1.837657213E0
2.847685413E1,6.106907129E-2,-3.404962718E-1,1.751734614E0
2.849885256E1,1.578301191E-1,-3.641280532E-1,1.706652761E0
2.851885256E1,2.297202349E-1,-3.790680468E-1,1.693388224E0
2.854085100E1,2.507863641E-1,-3.964340985E-1,1.599821091E0
2.856085256E1,2.526364028E-1,-4.441863000E-1,1.492431045E0
2.858085256E1,2.434908897E-1,-4.767541289E-1,1.381672502E0
2.860085256E1,2.092998773E-1,-4.979249835E-1,1.283584952E0
2.862085256E1,1.896649301E-1,-4.559498131E-1,1.171465039E0
2.864285100E1,1.875181794E-1,-4.229805470E-1,1.015275478E0
2.866285100E1,1.748470813E-1,-3.478615582E-1,8.517206907E-1
2.868285256E1,2.160717547E-1,-2.601936758E-1,6.905569434E-1
2.870485256E1,3.196395934E-1,-1.523672491E-1,5.027944446E-1
2.872485256E1,4.180761576E-1,-8.025024086E-2,2.666863203E-1
2.874485256E1,4.519879222E-1,7.679448463E-3,3.473205119E-2
2.876485569E1,4.470660985E-1,6.061528623E-2,-9.030333161E-2
2.878685100E1,3.084345758E-1,1.139176413E-1,-9.868091345E-2
2.880685256E1,5.045747012E-2,3.911457360E-1,7.681193948E-2
2.882885256E1,2.124065720E-2,7.511373758E-1,3.275284767E-1
2.884885256E1,2.759714723E-1,6.781127453E-1,3.389429450E-1
2.887085256E1,6.240250468E-1,3.770260215E-1,4.937536269E-2
2.889285256E1,5.855405331E-1,3.314729333E-1,-2.751511633E-1
2.891485256E1,2.295282483E-1,5.146976113E-1,-3.416307569E-1
2.893485881E1,-1.907819360E-1,6.157346964E-1,-5.984733999E-2
2.895685256E1,-5.118701458E-1,4.210955799E-1,3.986332119E-1
2.897685256E1,-4.922003150E-1,8.600982279E-2,7.194247246E-1
2.899685256E1,-3.443185389E-1,-9.808750451E-2,7.790277004E-1
2.901687131E1,-1.962099075E-1,-9.630727023E-2,5.909859538E-1
2.903885100E1,-1.042834222E-1,-1.408480667E-2,2.468942702E-1
2.905885256E1,-5.592034757E-2,3.712315485E-2,-3.371975943E-2
2.908085100E1,1.226966456E-2,-1.953023486E-2,-1.464156657E-1
2.910085100E1,6.382668763E-2,-7.260569930E-2,-8.922123164E-2
2.912085100E1,1.097986624E-1,-8.313003182E-2,-1.288053021E-2
2.914085100E1,1.593311131E-1,-1.314232945E-1,-1.377064735E-2
2.916085100E1,1.568352878E-1,-1.616349369E-1,-9.086184204E-2
2.918085100E1,1.032536775E-1,-1.122770309E-1,-1.596627235E-1
2.920085256E1,-4.087560996E-2,-6.033603102E-2,-1.455953717E-1
2.922085256E1,-1.022588387E-1,-7.920303941E-2,-4.251622036E-2
2.924085256E1,5.061454605E-3,-1.338143945E-1,3.775146976E-2
2.926085256E1,5.850343779E-2,-1.400801241E-1,-9.651671164E-3
2.928285100E1,2.684316412E-2,-9.841911495E-2,-1.326101124E-1
2.930285100E1,9.072221071E-2,-1.243721619E-1,-2.327920198E-1
2.932285256E1,2.169618756E-1,-1.833119243E-1,-3.056420684E-1
2.934485256E1,3.308446109E-1,-3.131120801E-1,-3.356966376E-1
2.936485256E1,3.118030727E-1,-3.878121674E-1,-3.628539443E-1
2.938485256E1,2.393195480E-1,-3.684215546E-1,-3.476346731E-1
2.940485256E1,1.712342501E-1,-2.816437781E-1,-3.169517815E-1
2.942485256E1,7.789404690E-2,-1.037947312E-1,-2.208190560E-1
2.944485256E1,-1.467821933E-2,9.599310905E-2,-1.212480217E-1
2.946485881E1,-1.027126238E-1,2.179741710E-1,-4.619886354E-2
2.948685256E1,-1.811477244E-1,2.671051919E-1,-1.705186628E-2
2.950885100E1,-2.044478655E-1,2.480985522E-1,-1.384046115E-2
2.952885100E1,-1.662077010E-1,1.837831736E-1,1.085594762E-2
2.954885256E1,-5.490805954E-2,9.042550623E-2,2.577851340E-2
2.956885256E1,9.276425093E-2,-3.532546386E-2,-5.567600485E-3
2.959085256E1,1.709200889E-1,-1.063254550E-1,-6.035348400E-2
2.961285256E1,1.651605070E-1,-8.801695704E-2,-3.570943698E-2
2.963485412E1,1.541998386E-1,-6.656685472E-2,4.557054490E-2
2.965685256E1,1.179842576E-1,-4.386012256E-2,1.073028445E-1
2.967685256E1,4.874704406E-2,-3.124139272E-3,1.525243223E-1
2.969885256E1,-3.539527580E-2,1.535889693E-2,2.026676387E-1
2.972085256E1,-5.867796764E-2,5.969026126E-3,2.369109988E-1
2.974286506E1,-3.460988030E-2,9.128072299E-3,2.586054206E-1
2.976485256E1,1.827359758E-2,-1.385791413E-2,2.353925556E-1
2.978485256E1,5.572836101E-2,-5.340707675E-2,1.909041107E-1
2.980685256E1,5.489060655E-2,-2.862340026E-2,1.597150862E-1
2.982885256E1,3.710569814E-2,2.089159191E-2,1.585282534E-1
2.984885256E1,1.698205434E-2,3.464478627E-2,1.906597614E-1
2.987085256E1,5.340707488E-3,1.923352852E-2,1.951452643E-1
2.989285256E1,1.443387289E-2,1.548107062E-2,1.625774205E-1
2.991485256E1,2.705260366E-2,7.906341925E-3,1.167799830E-1
2.993485412E1,2.419026382E-2,-1.645845547E-2,1.065872535E-1
2.995685256E1,1.216494478E-2,-2.295107953E-2,9.951867163E-2
2.997685256E1,1.122246683E-2,-1.706931926E-2,9.744173288E-2
2.999685256E1,1.441641990E-2,-1.371828746E-2,7.644542307E-2
3.001686975E1,-1.937315450E-3,-3.543018363E-3,5.820672959E-2
3.003885100E1,-3.232349828E-2,3.961897455E-3,4.986405745E-2
3.005885256E1,-5.227261037E-2,1.544616371E-2,5.091125518E-2
3.007885256E1,-6.026621908E-2,2.733185515E-2,4.272565991E-2
3.009885256E1,-6.169738993E-2,3.066543490E-2,4.169591516E-2
3.011885256E1,-5.420992523E-2,3.398156166E-2,2.851868048E-2
3.014085100E1,-4.564036056E-2,2.410299703E-2,2.483603545E-2
3.016085100E1,-6.019640714E-2,3.314380348E-2,1.427679323E-2
3.018085100E1,-5.571090803E-2,4.317944497E-2,1.495747175E-2
3.020085100E1,-3.349286690E-2,3.370230645E-2,1.556833647E-2
3.022085256E1,-2.518510073E-2,5.206317082E-2,5.375613924E-3
3.024089475E1,-2.008873969E-2,6.620033830E-2,-2.361430414E-2
3.026285100E1,-3.363249451E-2,4.155628756E-2,-2.747148275E-2
3.028285100E1,-3.878121451E-2,5.480333790E-2,-1.352630183E-2
3.030285100E1,-2.684316412E-2,7.939502597E-2,-1.457349956E-2
3.032285100E1,-3.443534672E-2,8.393288404E-2,-2.865830623E-2
3.034285100E1,-4.698426276E-2,6.150540337E-2,-2.389355749E-2
3.036285100E1,-4.848524556E-2,3.136356547E-2,-3.255039081E-2
3.038285100E1,-3.878121451E-2,3.462733328E-2,-1.043706853E-2
3.040285256E1,-4.450589418E-2,6.045820564E-2,2.157226950E-2
3.042285256E1,-3.977605328E-2,4.307472706E-2,3.405137360E-2
3.044485100E1,-2.096140385E-2,1.452113967E-2,2.431243658E-2
3.046485256E1,-2.181661548E-3,8.813912980E-3,1.947787404E-2
3.048685100E1,5.009094719E-3,1.073377486E-2,1.338667516E-2
3.050685100E1,1.141445339E-2,-1.645845547E-2,1.340412907E-2
3.052685256E1,1.993165910E-2,-2.335250564E-2,3.996803891E-3
3.054685256E1,4.687954485E-2,-8.063420653E-3,-4.747295752E-3
3.056685413E1,4.904375225E-2,-1.583013684E-2,-2.823942713E-2
3.058885256E1,2.389355749E-2,-3.153809905E-2,-3.937462717E-2
3.061085100E1,1.516691130E-2,-6.213372108E-3,-2.696533687E-2
3.063085100E1,2.857103944E-2,-8.709193207E-3,-1.797689125E-2
3.065085100E1,1.689478755E-2,-2.783800103E-2,-2.741912194E-2
3.067085100E1,7.574729156E-3,-4.832816496E-2,-3.942698613E-2
3.069085100E1,2.611012571E-2,-3.808308393E-2,-3.399901465E-2
3.071085100E1,6.459463388E-2,-3.085742146E-2,-1.394518092E-2
3.073085100E1,8.307766914E-2,-5.574581772E-2,-1.802925020E-2
3.075085100E1,7.005751878E-2,-4.920083284E-2,-3.628539667E-2
3.077085100E1,5.016076192E-2,-1.689478755E-2,-1.993165910E-2
3.079085256E1,5.023057386E-2,2.181661548E-3,9.459684603E-3
3.081285100E1,6.674139202E-2,-1.235693134E-2,1.591740362E-2
3.083285100E1,6.729989499E-2,-3.700098023E-2,-1.473057922E-2
3.085285100E1,5.855579674E-2,-5.523966998E-2,-4.391248524E-2
3.087285100E1,7.044149190E-2,-3.549999744E-2,-5.637413636E-2
3.089285256E1,6.339035928E-2,-1.539380383E-2,-5.113814771E-2
3.091485256E1,2.631956525E-2,-3.303908184E-2,-4.776966199E-2
3.093485256E1,-9.215338156E-3,-1.930334233E-2,-2.256710641E-2
3.095485256E1,2.565633971E-3,-1.665044017E-2,-3.255039081E-2
3.097485881E1,1.319468953E-2,-3.466223925E-2,-7.965682447E-2
3.099485881E1,-3.996803891E-3,-5.478588492E-2,-1.091179848E-1
3.101485881E1,-2.239257470E-2,-3.555235639E-2,-8.377580345E-2
3.103685256E1,4.590216093E-3,-3.001966281E-3,-4.852015153E-2
3.105685256E1,4.562290758E-2,-1.837831736E-2,-5.899212882E-2
3.107685256E1,3.070034087E-2,-2.916445211E-2,-1.126784533E-1
3.109685256E1,-2.003637888E-2,-9.896016680E-3,-1.139874533E-1
3.111686975E1,-3.007202223E-2,1.411971357E-2,-5.443681777E-2
3.113885100E1,-3.511602432E-2,1.000073645E-2,-6.998770405E-3
3.115885256E1,-7.466518879E-2,4.991641734E-3,4.293509759E-3
3.118085100E1,-8.326965570E-2,-1.986184716E-2,1.661553420E-2
3.120085100E1,-4.413937777E-2,-3.790855035E-2,3.607595712E-2
3.122085256E1,-4.457570985E-2,-3.738495335E-2,5.340707675E-2
3.124286506E1,-6.801547855E-2,-3.371975943E-2,7.457792014E-2
3.126485100E1,-5.836381018E-2,-3.591887653E-2,7.620107383E-2
3.128485256E1,-3.260274976E-2,-3.878121451E-2,8.243189752E-2
3.130485256E1,-2.017600648E-2,-3.792600334E-2,5.998696759E-2
3.132485256E1,-1.591740362E-2,-3.696607426E-2,3.337069601E-2
3.134485256E1,-3.021164984E-2,-2.694788389E-2,1.919862255E-2
3.136485256E1,-3.940953314E-2,-2.530727349E-2,3.857177682E-3
3.138485256E1,-6.134832278E-2,-1.378810126E-2,1.989675453E-3
3.140485256E1,-8.344419301E-2,1.219985168E-2,2.530727303E-3
3.142485725E1,-7.693411410E-2,3.134611249E-2,1.117010717E-3
3.144685256E1,-5.085889250E-2,1.312487572E-2,-6.422811653E-3
3.146885100E1,-1.111774705E-2,-2.836159989E-2,-1.741838641E-2
3.148885100E1,3.947934881E-2,-3.490658477E-2,-1.073377486E-2
3.150885100E1,2.949606441E-2,-1.778490469E-2,9.791296907E-3
3.152885100E1,-6.265731994E-3,-3.438298590E-3,6.227334589E-2
3.154885256E1,-4.129448906E-2,1.726130582E-2,1.168847010E-1
3.156885256E1,-7.766715437E-2,5.707226694E-3,1.498190612E-1
3.158885256E1,-1.309171468E-1,1.305506285E-2,2.024058253E-1
3.161085100E1,-1.484227926E-1,6.063273922E-2,2.528283894E-1
3.163085100E1,-1.282816976E-1,7.133160532E-2,2.555162013E-1
3.165085100E1,-1.188569218E-1,7.412413508E-2,2.528458536E-1
3.167085100E1,-7.850491256E-2,6.192428246E-2,2.585356236E-1
3.169085100E1,-2.905973233E-2,4.853760451E-2,2.745053768E-1
3.171085100E1,-2.563888580E-2,5.797983706E-2,2.905274928E-1
3.173085100E1,-3.358013555E-2,6.817255914E-2,2.966012657E-1
3.175085100E1,-2.059488557E-2,7.328637689E-2,2.998475730E-1
3.177085100E1,5.602506921E-3,7.421139628E-2,2.978578806E-1
3.179085256E1,6.091198884E-3,6.543239206E-2,2.717826664E-1
3.181285100E1,-1.165879890E-2,5.686282739E-2,2.321462482E-1
3.183285256E1,-2.839650773E-2,7.850491256E-2,2.160368562E-1
3.185485256E1,-2.750638872E-2,9.007643908E-2,1.972745657E-1
3.187485256E1,-4.883431271E-2,9.791296721E-2,1.757022887E-1
3.189485413E1,-7.417649031E-2,9.339256585E-2,1.594009250E-1
3.191486194E1,-6.162757427E-2,7.684684545E-2,1.643576622E-1
3.193685100E1,-3.588397056E-2,6.668902934E-2,1.745503843E-1
3.195685100E1,-1.188569237E-2,7.522369176E-2,1.626995951E-1
3.197685100E1,-1.932079531E-2,8.983209729E-2,1.602910310E-1
3.199685100E1,-3.679154068E-2,1.040216237E-1,1.842893213E-1
3.201686975E1,-4.056145251E-2,9.747663885E-2,2.292140871E-1
3.203885100E1,-3.958406672E-2,8.091346174E-2,2.672797143E-1
3.205885256E1,-5.171410739E-2,6.284930557E-2,2.830575109E-1
3.208085256E1,-5.235987902E-2,4.352851212E-2,2.908416688E-1
3.210285256E1,-4.590215907E-2,4.064871743E-2,2.990272641E-1
3.212485100E1,-4.852015153E-2,3.766420484E-2,2.913827300E-1
3.214485725E1,-5.595525727E-2,4.668755829E-2,2.779087722E-1
3.216685256E1,-2.160717547E-2,4.632103816E-2,2.571044564E-1
3.218885256E1,9.005898610E-3,2.823942713E-2,2.087064683E-1
3.221085256E1,1.368338149E-2,2.324778587E-2,1.646369100E-1
3.223285100E1,7.557275705E-3,5.153957382E-2,1.323308647E-1
3.225285100E1,-1.605702913E-3,4.616395757E-2,1.289798319E-1
3.227285100E1,-1.565560326E-2,3.405137360E-2,1.605004817E-1
3.229285100E1,-4.817108624E-3,5.721189082E-2,1.563815027E-1
3.231285100E1,1.591740362E-2,5.574581772E-2,9.958848357E-2
3.233285100E1,-1.108284108E-2,5.290092900E-2,5.443681777E-2
3.235285100E1,-1.048942842E-2,4.483750835E-2,4.111995548E-2
3.237285100E1,1.511455141E-2,5.014330894E-2,4.228932783E-2
3.239285256E1,3.480186686E-2,4.890412465E-2,2.687806962E-3
3.241285256E1,3.733259439E-2,4.164355621E-2,-4.560545459E-2
3.243485256E1,2.701769583E-2,3.663446009E-2,-8.164650202E-2
3.245485413E1,2.506292798E-2,1.984439418E-2,-8.370599151E-2
3.247685256E1,2.981022373E-2,1.202531811E-2,-1.031315029E-1
3.249685256E1,9.459684603E-3,2.485348843E-2,-1.158724055E-1
3.251686975E1,-3.979350906E-3,9.320057929E-3,-1.333256960E-1
3.253885100E1,-9.424777818E-4,-4.118977115E-3,-1.464680284E-1
3.255885256E1,3.804817796E-3,-2.548180753E-3,-1.622283608E-1
3.258085256E1,8.028514567E-4,3.595378250E-3,-1.651255935E-1
3.260285256E1,2.827433404E-3,-1.064650808E-2,-1.549154222E-1
3.262485100E1,1.624901593E-2,-3.202679008E-2,-1.532050073E-1
3.264485256E1,2.055997774E-2,-3.551745042E-2,-1.647067219E-1
3.266485256E1,2.179916203E-2,-4.014257342E-3,-1.498016119E-1
3.268485412E1,3.691371530E-2,-8.133234456E-3,-1.222254038E-1
3.270485881E1,4.209734127E-2,-2.539454028E-2,-1.203404516E-1
3.272685100E1,2.707005665E-2,-2.631956525E-2,-1.118232459E-1
3.274685256E1,1.946042106E-2,-2.258456126E-2,-9.831439704E-2
3.276885256E1,2.073451132E-2,-1.469567232E-2,-4.918337986E-2
3.278885256E1,3.469714522E-2,-1.274090377E-3,-1.499237865E-2
3.280885256E1,5.642649531E-2,8.918632753E-3,-6.405358203E-3
3.283085100E1,5.129522830E-2,8.883725852E-3,-1.286307629E-2
3.285085256E1,4.361577705E-2,-2.687806962E-3,-1.130973361E-2
3.287085256E1,3.450515866E-2,3.038618155E-2,-2.129301662E-3
3.289285256E1,4.759512842E-2,4.108504951E-2,2.768092230E-2
3.291485256E1,4.548327997E-2,3.138101846E-2,3.443534672E-2
3.293487131E1,3.485422581E-2,4.808381945E-2,2.509783395E-2
3.295685100E1,8.342674002E-3,8.319984376E-2,2.747148275E-2
3.297685256E1,-3.293436393E-2,1.308647841E-1,7.314674556E-2
3.299685256E1,-2.101376466E-2,1.530479193E-1,1.166578084E-1
3.301687131E1,3.326597437E-2,1.279500872E-1,9.470156580E-2
3.303885100E1,5.670574680E-2,8.768533915E-2,4.433136433E-3
3.305885256E1,1.596976221E-1,4.399975017E-2,-2.546435408E-2
3.308085256E1,2.918365002E-1,-1.537635084E-2,-8.045967668E-3
3.310085256E1,2.905624211E-1,-4.234168679E-2,2.881538495E-2
3.312285256E1,1.988628209E-1,-2.712241560E-2,7.115707546E-2
3.314485256E1,9.459684789E-2,3.951425478E-2,1.457524449E-1
3.316485256E1,1.073377486E-2,8.061675727E-2,2.253918201E-1
3.318485256E1,-4.482005537E-2,7.080800831E-2,2.752035260E-1
3.320485256E1,-8.110544831E-2,2.815216035E-2,2.835112810E-1
3.322685100E1,-2.752384171E-2,-7.216936350E-2,1.994387656E-1
3.324685256E1,3.560471581E-3,-1.454033852E-1,8.970992267E-2
3.326885256E1,-7.321656495E-2,-1.025031880E-1,1.706931926E-2
3.329085256E1,-1.755452156E-1,-1.403244678E-2,3.490658492E-5
3.331285100E1,-2.668957412E-1,1.633628085E-2,-3.298672289E-2
3.333285256E1,-3.220481575E-1,-1.047197497E-3,-8.703956753E-2
3.335485256E1,-3.320837915E-1,-1.726130582E-2,-1.627344936E-1
3.337485881E1,-2.646442652E-1,-6.513568759E-2,-2.212553918E-1
3.339685256E1,-1.731366664E-1,-1.034805700E-1,-2.588846982E-1
3.341687131E1,-1.328719109E-1,-9.436995536E-2,-2.769663036E-1
3.343885100E1,-9.560913593E-2,-1.017526984E-1,-2.834240198E-1
3.345885100E1,-6.326818466E-2,-1.572192609E-1,-2.904053330E-1
3.347885256E1,-4.445353523E-2,-3.135658503E-1,-2.964441776E-1
3.350085256E1,-1.198168546E-1,-4.901408255E-1,-2.902308106E-1
3.352085256E1,-2.801427841E-1,-4.535936117E-1,-2.452187538E-1
3.354285256E1,-3.389953077E-1,-2.795493901E-1,-1.692794859E-1
3.356485256E1,-2.435781509E-1,-2.325825691E-1,-1.975538135E-1
3.358485256E1,-1.811302751E-1,-2.231054306E-1,-3.172484934E-1
3.360485256E1,-1.470963508E-1,-1.619840115E-1,-4.700695276E-1
3.362685100E1,-1.063952744E-1,-8.276351541E-2,-6.174276471E-1
3.364685100E1,-1.525417715E-2,-8.108799905E-2,-7.415205836E-1
3.366685256E1,2.905973233E-2,-8.061675727E-2,-8.550193310E-1
3.368685256E1,-6.771877408E-3,-4.276056774E-3,-9.412037134E-1
3.370685256E1,-4.775220901E-2,1.134114936E-1,-1.013425469E0
3.372885100E1,-7.578219473E-2,2.466324717E-1,-1.096136570E0
3.374885100E1,-1.176177412E-1,2.778564095E-1,-1.218135118E0
3.376885256E1,-1.450543106E-1,2.979626060E-1,-1.310759664E0
3.378885256E1,-1.063952744E-1,3.154333532E-1,-1.339924216E0
3.380885256E1,2.846631967E-2,2.649758756E-1,-1.383522511E0
3.383085100E1,2.184628546E-1,1.137954667E-1,-1.487264872E0
3.385085100E1,3.226241171E-1,-4.893903062E-2,-1.659546256E0
3.387085256E1,2.848900855E-1,-1.542522013E-1,-1.786833167E0
3.389285256E1,2.106961459E-1,-2.522000670E-1,-1.787653446E0
3.391485100E1,1.240230948E-1,-2.611012459E-1,-1.719393611E0
3.393485569E1,1.314232964E-2,-2.735280097E-1,-1.636717439E0
3.395685256E1,-1.098161191E-1,-2.564761341E-1,-1.623540163E0
3.397885256E1,-1.726130694E-1,-2.152863592E-1,-1.678186417E0
3.399885256E1,-1.735206395E-1,-1.686511636E-1,-1.748767495E0
3.401885256E1,-1.552993953E-1,-9.232791513E-2,-1.815037727E0
3.404085100E1,-1.189965457E-1,8.813912980E-3,-1.876735091E0
3.406085256E1,-4.625122622E-2,1.129402518E-1,-1.916685700E0
3.408085256E1,8.028514683E-3,2.076592743E-1,-1.943406701E0
3.410285256E1,3.675663471E-2,2.585530877E-1,-1.914364338E0
3.412485256E1,5.682792142E-2,3.018023372E-1,-1.804548264E0
3.414485256E1,8.511970937E-2,3.735179007E-1,-1.667749405E0
3.416485256E1,8.553858846E-2,4.048989415E-1,-1.569801450E0
3.418485256E1,6.899286807E-2,3.849847317E-1,-1.512415051E0
3.420485256E1,3.471459821E-2,3.389254808E-1,-1.450037003E0
3.422485256E1,2.042035107E-3,2.600366175E-1,-1.350483418E0
3.424485256E1,-1.111774705E-2,1.354724616E-1,-1.260668755E0
3.426685100E1,-3.464478627E-2,9.079203010E-2,-1.206354141E0
3.428685100E1,-8.487536013E-2,1.499412358E-1,-1.174763680E0
3.430685256E1,-1.747074574E-1,2.225120217E-1,-1.155041456E0
3.432885100E1,-4.022111297E-1,3.990520835E-1,-1.108650565E0
3.434885256E1,-6.067985892E-1,6.164677143E-1,-9.883450270E-1
3.437085100E1,-5.711066127E-1,6.449165940E-1,-8.518254161E-1
3.439085100E1,-2.758667469E-1,4.034328461E-1,-8.988969326E-1
3.441085256E1,3.975860029E-2,9.705775976E-2,-1.102123022E0
3.443085256E1,6.794566661E-2,-6.300638430E-3,-1.260302305E0
3.445085256E1,-8.960520476E-2,1.675515994E-2,-1.250720382E0
3.447285256E1,-2.456550896E-1,1.151393726E-1,-1.074843526E0
3.449485256E1,-3.278600872E-1,2.580120265E-1,-8.366410136E-1
3.451485256E1,-4.058763087E-1,4.022809267E-1,-6.862459779E-1
3.453485256E1,-5.142961740E-1,5.159018636E-1,-6.239726543E-1
3.455485569E1,-5.421690941E-1,4.886747301E-1,-6.457718015E-1
3.457486038E1,-4.408701658E-1,3.327470124E-1,-6.603453159E-1
3.459685256E1,-1.873610914E-1,5.935864896E-2,-7.321132421E-1
3.461686975E1,1.214749180E-2,-1.496270746E-1,-8.689296246E-1
3.463885100E1,-3.176499158E-2,-6.171484292E-2,-9.591107965E-1
3.465885100E1,-1.216319948E-1,4.270820692E-2,-9.239947796E-1
3.467885100E1,-9.040805697E-2,4.834562074E-3,-8.506385684E-1
3.469885256E1,-1.396263397E-4,-1.044055969E-1,-8.613374233E-1
3.471885256E1,6.087708473E-2,-1.293288916E-1,-9.549219608E-1
3.474085100E1,8.738863468E-2,-7.354817539E-2,-1.053480744E0
3.476085256E1,9.941395372E-2,-5.354670063E-2,-1.047214985E0
3.478285100E1,1.063778177E-1,-5.105087906E-2,-9.762150049E-1
3.480285100E1,1.160643920E-1,-3.473205259E-3,-9.146921635E-1
3.482285256E1,1.785297245E-1,3.960151970E-2,-8.491201401E-1
3.484485256E1,2.871066630E-1,9.477137588E-3,-8.263784647E-1
3.486485256E1,3.860319257E-1,-1.822123677E-2,-8.291361332E-1
3.488485256E1,4.521799088E-1,-7.016223669E-2,-8.075638413E-1
3.490485256E1,4.676784277E-1,-1.342332661E-1,-7.529175878E-1
3.492485256E1,4.343077242E-1,-1.921083927E-1,-6.749536991E-1
3.494485256E1,3.724532723E-1,-2.185152173E-1,-5.728694201E-1
3.496485256E1,2.965139747E-1,-2.141344398E-1,-4.687430859E-1
3.498685100E1,1.965589821E-1,-1.989151686E-1,-3.749316335E-1
3.500685100E1,7.209955156E-2,-1.278802752E-1,-3.081029654E-1
3.502685256E1,4.136430100E-3,-6.798057258E-2,-2.907020450E-1
3.504885256E1,-2.902482450E-2,-2.799508162E-2,-2.950130105E-1
3.507085100E1,-5.735151842E-2,1.204277156E-3,-3.305130005E-1
3.509085256E1,-5.801474303E-2,1.617920212E-2,-3.976558149E-1
3.511285256E1,-1.706931926E-2,1.549852360E-2,-4.858996570E-1
3.513485256E1,1.247910410E-2,4.328416660E-3,-5.580166578E-1
3.515485725E1,4.995132238E-2,-1.518436475E-3,-6.102020144E-1
3.517685256E1,9.861110151E-2,2.024581889E-3,-6.681643724E-1
3.519685256E1,1.130798832E-1,-1.240929123E-2,-7.174001336E-1
3.521686975E1,5.824163556E-2,-2.546435408E-2,-7.336665988E-1
3.523885100E1,-1.000073645E-2,-3.665191354E-3,-7.186218500E-1
3.525885256E1,-2.356194425E-3,3.077015467E-2,-7.039960027E-1
3.527885256E1,3.918264061E-2,2.865830623E-2,-7.364940643E-1
3.530085256E1,7.206464559E-2,6.272713095E-2,-8.219802380E-1
3.532085256E1,7.820820063E-2,9.754645079E-2,-8.843583465E-1
3.534085256E1,7.923794538E-2,8.262388408E-2,-8.947081566E-1
3.536085256E1,6.414084882E-2,9.285151958E-2,-8.730136752E-1
3.538085256E1,5.152212083E-2,1.646369100E-1,-8.501673341E-1
3.540285256E1,6.747443229E-2,2.223025858E-1,-8.370599151E-1
3.542485256E1,6.152285635E-2,2.473655194E-1,-8.428195119E-1
3.544485256E1,4.738568887E-2,2.694264650E-1,-8.369551897E-1
3.546485256E1,4.558800161E-2,2.897595465E-1,-8.184372187E-1
3.548485569E1,7.649777830E-2,2.745752037E-1,-8.144753575E-1
3.550685100E1,8.518952131E-2,2.456027269E-1,-8.181056380E-1
3.552685256E1,5.159193277E-2,2.105041593E-1,-8.091346622E-1
3.554885256E1,-1.048942842E-2,8.894197643E-2,-7.894822359E-1
3.557085100E1,-1.207593307E-1,-4.223696887E-3,-7.453952432E-1
3.559085256E1,-2.724633515E-1,2.094395086E-2,-6.959500313E-1
3.561285256E1,-5.647012591E-1,2.031214237E-1,-6.437123418E-1
3.563485256E1,-7.999193072E-1,3.258355260E-1,-5.395860076E-1
3.565485412E1,-6.936113238E-1,3.417354822E-2,-5.421690941E-1
3.567685569E1,-2.256361693E-1,-3.713711500E-1,-7.891157269E-1
3.569885256E1,6.531021744E-2,-3.582462668E-1,-1.202915788E0
3.572085256E1,2.099631168E-2,9.574875981E-2,-1.461765647E0
3.574286506E1,-1.092750654E-1,4.198563993E-1,-1.549922228E0
3.576486819E1,-1.613906026E-1,4.590564966E-1,-1.512310386E0
3.578685100E1,-1.180540696E-1,8.869763464E-2,-1.282206178E0
3.580685256E1,-9.512044489E-2,-1.872563809E-1,-9.176242948E-1
3.582885100E1,-1.663298756E-1,4.492477328E-2,-7.407351732E-1
3.584885256E1,-2.391101122E-1,3.581764698E-1,-8.913919926E-1
3.586885256E1,-3.205646276E-1,3.634648025E-1,-1.019621372E0
3.589085100E1,-2.367364615E-1,6.675884128E-2,-1.050496221E0
3.591085100E1,-3.071779385E-2,-1.547234356E-1,-1.063464046E0
3.593085256E1,8.637634665E-2,-1.878672391E-1,-1.061631441E0
3.595285100E1,5.143485218E-2,-9.101892263E-2,-1.141637325E0
3.597285256E1,-8.562584966E-2,-6.998770405E-3,-1.249551058E0
3.599485256E1,-1.870120317E-1,1.061160211E-2,-1.233790755E0
3.601485569E1,-2.220407873E-1,3.232349828E-2,-1.131479502E0
3.603685256E1,-2.775771618E-1,9.545205534E-2,-9.993580580E-1
3.605685256E1,-3.213500082E-1,1.428726465E-1,-9.169610739E-1
3.607885100E1,-3.216292858E-1,1.837133616E-1,-9.483420849E-1
3.609885256E1,-2.771757245E-1,2.787290812E-1,-1.017143011E0
3.611885256E1,-2.256187052E-1,3.546509147E-1,-1.045853615E0
3.614085100E1,-1.663124263E-1,3.002140820E-1,-1.081493258E0
3.616085100E1,-1.163785532E-1,2.403318435E-1,-1.081423402E0
3.618085256E1,-6.590363383E-2,2.463706732E-1,-1.042799354E0
3.620285100E1,-3.007202223E-2,2.664245069E-1,-9.896366000E-1
3.622285256E1,-4.433136433E-3,2.138202786E-1,-9.434551597E-1
3.624286663E1,-1.867502369E-2,1.807463020E-1,-8.601680398E-1
3.626485256E1,-4.974188283E-2,1.592612863E-1,-7.342774868E-1
3.628485256E1,-4.581489414E-2,1.060985625E-1,-6.099227667E-1
3.630485256E1,-3.193952516E-2,2.321287990E-3,-5.056567788E-1
3.632485256E1,-3.413863853E-2,-1.059763953E-1,-4.022285640E-1
3.634485256E1,2.792526735E-3,-1.612509638E-1,-3.308620751E-1
3.636485256E1,2.565634064E-2,-1.803274155E-1,-3.086091280E-1
3.638685256E1,-2.740166849E-3,-1.618792862E-1,-3.058689535E-1
3.640685256E1,-4.687954485E-2,-1.415462047E-1,-3.040538132E-1
3.642685256E1,-1.117883399E-1,-9.695304185E-2,-2.751162350E-1
3.644685256E1,-2.191609889E-1,-1.150172018E-2,-1.551946700E-1
3.646685256E1,-2.809980214E-1,5.707226694E-2,3.396410868E-2
3.648685256E1,-2.168397009E-1,8.826129884E-2,1.074424684E-1
3.650685256E1,4.115486518E-2,1.122595742E-1,2.677335031E-2
3.652685256E1,3.462035060E-1,1.578475833E-1,-2.617295682E-1
3.654885256E1,4.196469784E-1,1.972047538E-1,-4.634372890E-1
3.656885881E1,4.639434218E-1,6.661921740E-2,-4.486019611E-1
3.659085256E1,6.267477274E-1,-1.556484550E-1,-2.475400418E-1
3.661285256E1,6.900508404E-1,-1.824218184E-1,-6.161012128E-2
3.663485569E1,5.951747298E-1,-3.153809905E-2,-3.087487444E-2
3.665485569E1,4.254938066E-1,3.174404800E-1,-5.907939374E-2
3.667685413E1,4.098033160E-2,8.286823034E-1,-1.069886796E-2
3.669885256E1,-2.848551869E-1,8.792270422E-1,1.514771283E-1
3.671885256E1,-4.936314821E-1,7.768285871E-1,3.811624646E-1
3.674085100E1,-2.623578906E-1,4.921479523E-1,4.650080800E-1
3.676085100E1,1.157851443E-1,9.080947936E-2,2.844537497E-1
3.678085100E1,2.394242734E-1,-1.550550461E-1,-5.099852011E-2
3.680085256E1,2.231054306E-1,-3.090454638E-1,-3.190985322E-1
3.682285256E1,2.086890191E-1,-4.166100919E-1,-3.809181154E-1
3.684485100E1,1.185253114E-1,-3.499559760E-1,-2.951351702E-1
3.686485256E1,-4.111995548E-2,-1.908692122E-1,-9.403833747E-2
3.688685256E1,-2.746973634E-1,-3.232349828E-2,1.266934574E-1
3.690885256E1,-4.477642179E-1,-3.317870945E-2,3.019070625E-1
3.693085100E1,-5.408251882E-1,-8.862782270E-2,3.727325201E-1
3.695085256E1,-5.972167850E-1,-1.188220158E-1,3.820874691E-1
3.697085256E1,-6.266779304E-1,-7.817329466E-2,4.181983471E-1
3.699085256E1,-6.159790754E-1,-3.979350906E-3,4.771206677E-1
3.701085256E1,-5.888217092E-1,9.463175386E-2,5.356066227E-1
3.703285256E1,-5.796064138E-1,1.736951619E-1,5.742133260E-1
3.705285256E1,-5.878617764E-1,1.533097178E-1,6.095387936E-1
3.707485256E1,-4.718672037E-1,-1.103048120E-2,6.559820175E-1
3.709685256E1,-4.557054639E-1,-1.274788529E-1,7.168591022E-1
3.711686975E1,-5.304055810E-1,-1.456302702E-1,8.407076597E-1
3.713885256E1,-3.986855447E-1,-2.230705321E-1,9.392838478E-1
3.716085256E1,-9.457939118E-2,-7.707373798E-2,8.938703537E-1
3.718285100E1,8.986700326E-2,9.604547173E-2,7.711039186E-1
3.720285100E1,2.931978703E-1,-1.024333760E-1,7.029662728E-1
3.722285100E1,6.811845303E-1,-4.331209064E-1,6.865601540E-1
3.724286506E1,9.555503130E-1,-4.551644027E-1,7.174175978E-1
3.726485100E1,9.117076397E-1,-1.358389705E-1,8.308465481E-1
3.728485256E1,5.443507433E-1,1.470439881E-1,1.019499183E0
3.730685256E1,2.533519864E-1,1.223824844E-1,1.298594713E0
3.732885100E1,3.036698401E-1,-1.914277077E-1,1.453684688E0
3.734885256E1,5.249950290E-1,-4.904549718E-1,1.355352879E0
3.736885256E1,6.332927346E-1,-5.919982195E-1,1.148671031E0
3.739085100E1,5.166174769E-1,-4.955513179E-1,1.104339600E0
3.741085256E1,3.157126009E-1,-4.584980011E-1,1.192304254E0
3.743285100E1,1.173384860E-1,-4.483925402E-1,1.306204438E0
3.745285100E1,6.405358203E-3,-3.939731717E-1,1.339313269E0
3.747285256E1,-8.480554819E-2,-3.404788375E-1,1.292137027E0
3.749486038E1,-1.762084365E-1,-3.267779946E-1,1.190663576E0
3.751486194E1,-2.073276639E-1,-3.011740148E-1,1.080009699E0
3.753685256E1,-1.988104582E-1,-2.065422684E-1,9.221272469E-1
3.755885256E1,-1.917244196E-1,-1.267632693E-1,7.269819975E-1
3.757885256E1,-1.616872996E-1,-1.501681209E-1,5.540024042E-1
3.760085100E1,-1.681450158E-1,-1.920211166E-1,4.243418872E-1
3.762085256E1,-2.439795732E-1,-1.359436959E-1,3.834313750E-1
3.764285100E1,-3.069510460E-1,-3.052580915E-2,3.735702634E-1
3.766285100E1,-2.776993215E-1,-1.453859266E-2,2.956762314E-1
3.768285256E1,-2.302263826E-1,-2.082177810E-2,1.749168932E-1
3.770485256E1,-2.456201911E-1,-2.565633971E-3,2.164208330E-2
3.772485412E1,-3.046123087E-1,-7.958701812E-3,-7.792895287E-2
3.774685256E1,-3.141418099E-1,-5.721189082E-2,-1.312836707E-1
3.776885256E1,-3.293785453E-1,-1.032362282E-1,-1.738173366E-1
3.779085256E1,-3.616671264E-1,-1.457000822E-1,-1.460840553E-1
3.781085256E1,-2.585879862E-1,-1.021017581E-1,-1.205848008E-1
3.783285256E1,-1.588249579E-3,-8.339183033E-2,-1.939584464E-1
3.785485256E1,2.833018303E-1,-1.344078034E-1,-4.806985855E-1
3.787685881E1,4.882558584E-1,-1.570621729E-1,-7.183077335E-1
3.789885100E1,6.666459441E-1,-1.737649739E-1,-8.027816415E-1
3.791885256E1,6.639407277E-1,-1.095194072E-1,-8.023104072E-1
3.794085256E1,3.867824078E-1,2.046398520E-1,-7.416078448E-1
3.796285256E1,-1.260651350E-1,7.730761170E-1,-5.725203753E-1
3.798485256E1,-4.075692892E-1,9.953263402E-1,-4.041833580E-1
3.800485412E1,-4.152836502E-1,1.000195861E0,-3.063925505E-1
3.802685256E1,-7.365289610E-3,6.197314858E-1,-4.240975678E-1
3.804885256E1,4.517435730E-1,1.036900133E-1,-8.013854027E-1
3.807085100E1,5.351353884E-1,-2.454107404E-1,-1.153418303E0
3.809085256E1,5.432511568E-1,-3.772005439E-1,-1.286342502E0
3.811285256E1,5.231798887E-1,-3.848974705E-1,-1.241732001E0
3.813485725E1,3.748792708E-1,-1.478642970E-1,-1.036079764E0
3.815685100E1,1.055575162E-1,1.411098689E-1,-7.768111229E-1
3.817685256E1,-1.667836607E-1,2.776818871E-1,-5.771454573E-1
3.819885256E1,-2.937912643E-1,2.493202835E-1,-4.375714958E-1
3.821885256E1,-2.815390527E-1,1.457873583E-1,-4.075169265E-1
3.823885256E1,-2.711194456E-1,5.729915947E-2,-4.117755294E-1
3.826085100E1,-3.593632877E-1,-7.470009383E-3,-4.035375714E-1
3.828085100E1,-4.194026291E-1,-1.012290921E-2,-3.719471097E-1
3.830085256E1,-4.287052155E-1,6.167993695E-2,-3.402519226E-1
3.832285256E1,-3.861366510E-1,2.516764700E-1,-3.180164397E-1
3.834485256E1,-2.299645841E-1,3.344050944E-1,-3.501304984E-1
3.836485256E1,-3.940953314E-2,2.381501794E-1,-4.642401338E-1
3.838485256E1,1.600292325E-1,5.197590590E-2,-6.580589414E-1
3.840485256E1,2.385341525E-1,3.874630900E-3,-8.313701153E-1
3.842486662E1,8.918632567E-2,1.954245120E-1,-9.030333757E-1
3.844685256E1,-3.337069452E-1,5.425356030E-1,-7.535633445E-1
3.846685256E1,-4.989372790E-1,6.272189617E-1,-4.963367283E-1
3.848885256E1,2.584832534E-2,3.138800263E-1,-4.491430223E-1
3.851085256E1,1.103240013E0,-6.035348400E-2,-9.037140012E-1
3.853285256E1,1.447296858E0,-1.045103148E-1,-1.606802464E0
3.855285256E1,1.014402866E0,6.822492182E-2,-2.062769651E0
3.857485881E1,3.064449131E-1,3.680375814E-1,-2.139250040E0
3.859685256E1,-5.811946467E-3,5.301612020E-1,-1.793936610E0
3.861687131E1,2.089159191E-2,5.521523356E-1,-1.394448280E0
3.863885256E1,-5.061454722E-4,5.483824611E-1,-1.260354638E0
3.866085100E1,-1.692620367E-1,6.130120158E-1,-1.460159898E0
3.868085100E1,-1.230631620E-1,6.131865382E-1,-1.788997412E0
3.870085100E1,1.106538773E-1,4.139746428E-1,-2.150228262E0
3.872085256E1,2.673495412E-1,1.625076085E-1,-2.320415258E0
3.874286506E1,2.119353265E-1,1.343554407E-1,-2.364606857E0
3.876485100E1,1.155407950E-1,2.747671902E-1,-2.340172291E0
3.878485256E1,7.990117371E-2,3.857526779E-1,-2.346961737E0
3.880485256E1,5.466371030E-2,4.096287787E-1,-2.428293943E0
3.882485256E1,2.862340072E-3,4.099952877E-1,-2.524566412E0
3.884485256E1,-3.202679008E-2,4.672944546E-1,-2.606509686E0
3.886485256E1,-8.377579972E-3,5.096361637E-1,-2.657961845E0
3.888685256E1,5.028293654E-2,5.190783739E-1,-2.687667370E0
3.890885256E1,1.479341090E-1,4.548153579E-1,-2.764479399E0
3.893085100E1,2.560572624E-1,3.800978065E-1,-2.846858978E0
3.895085256E1,3.235840499E-1,3.529579341E-1,-2.876005888E0
3.897285100E1,3.169517815E-1,2.878222466E-1,-2.836596251E0
3.899285100E1,2.521477044E-1,2.120400518E-1,-2.762768984E0
3.901285100E1,1.818458587E-1,1.820203811E-1,-2.686916828E0
3.903285256E1,8.513715863E-2,1.743932962E-1,-2.637541533E0
3.905285256E1,-4.096287861E-2,1.592263877E-1,-2.629879475E0
3.907485256E1,-2.867924869E-1,2.756572962E-1,-2.590522289E0
3.909486662E1,-5.640380383E-1,6.341304779E-1,-2.439691067E0
3.911686975E1,-6.317568421E-1,9.137845635E-1,-2.217824697E0
3.913885256E1,-3.934844732E-1,6.962118149E-1,-2.213635921E0
3.916085100E1,1.317723561E-2,1.076693609E-1,-2.384713173E0
3.918085100E1,8.908160776E-2,-4.016002640E-2,-2.552910566E0
3.920085100E1,2.005383372E-2,2.319542505E-2,-2.529383421E0
3.922085256E1,-1.359611470E-2,6.787585467E-2,-2.407297611E0
3.924286506E1,-3.865904361E-2,1.461887807E-1,-2.267374754E0
3.926485256E1,-9.538224339E-2,3.364820182E-1,-2.176635027E0
3.928485256E1,-1.558055431E-1,5.197415948E-1,-2.095721483E0
3.930485256E1,-1.774999797E-1,5.902354717E-1,-2.013045311E0
3.932485256E1,-2.214648277E-1,5.501103401E-1,-1.903525829E0
3.934485256E1,-2.519731820E-1,4.021238685E-1,-1.824898839E0
3.936485256E1,-3.416656554E-1,2.319717109E-1,-1.743548989E0
3.938485256E1,-3.700970709E-1,1.478293911E-2,-1.627327561E0
3.940485256E1,-1.127482727E-1,-2.670528293E-1,-1.592543125E0
3.942485256E1,1.282816976E-1,-2.160019428E-1,-1.715972781E0
3.944485256E1,6.543239206E-2,1.882337630E-1,-1.851811767E0
3.946485256E1,-5.832890421E-2,5.512098670E-1,-1.968260169E0
3.948685100E1,7.461282611E-2,6.198013425E-1,-2.052995920E0
3.950685256E1,2.862514555E-1,5.876523852E-1,-2.090921879E0
3.952685256E1,4.344124496E-1,5.943195224E-1,-2.114222050E0
3.954685256E1,5.125682950E-1,6.297671795E-1,-2.120801926E0
3.956685569E1,5.545783639E-1,5.820673108E-1,-2.068529367E0
3.958885100E1,5.291489363E-1,4.531747401E-1,-1.941225052E0
3.960885100E1,4.961447418E-1,3.381401002E-1,-1.794180989E0
3.962885256E1,4.354421794E-1,2.817659676E-1,-1.620590568E0
3.965085256E1,3.210707605E-1,2.374694943E-1,-1.369943857E0
3.967285100E1,2.042733282E-1,1.807986498E-1,-1.166473389E0
3.969285256E1,1.364847422E-1,1.304459125E-1,-1.026602626E0
3.971485569E1,4.363323003E-2,4.132939503E-2,-9.335067868E-1
3.973685256E1,-8.592256159E-2,-2.069960535E-2,-8.566774130E-1
3.975685256E1,-1.571145356E-1,-2.607521974E-2,-7.901977897E-1
3.977885256E1,-1.929636002E-1,8.669050038E-2,-7.315024137E-1
3.980085256E1,-1.893333197E-1,1.358040720E-1,-7.186742425E-1
3.982285256E1,-7.632324845E-2,9.777334332E-2,-7.456395626E-1
3.984485256E1,1.102175415E-1,6.981316954E-2,-8.046665788E-1
3.986485256E1,2.140995413E-1,1.285434961E-1,-8.553160429E-1
3.988685256E1,2.491108477E-1,1.651081443E-1,-8.883202076E-1
3.990685256E1,2.730916739E-1,1.145983189E-1,-8.527154922E-1
3.992885100E1,3.469190896E-1,-5.534439161E-2,-7.685906291E-1
3.994885256E1,4.825137258E-1,-2.324254960E-1,-6.920928359E-1
3.997085100E1,4.811174572E-1,-2.848726511E-1,-6.690021753E-1
3.999085100E1,3.181735277E-1,-2.866179645E-1,-6.514092088E-1
4.001085100E1,1.422966868E-1,-3.187843859E-1,-5.854532719E-1
4.003085100E1,7.731808349E-3,-2.949257493E-1,-5.041732788E-1
4.005085100E1,-1.045801267E-1,-1.795769334E-1,-4.078136384E-1
4.007085100E1,-1.624726951E-1,-1.032013148E-1,-3.829077780E-1
4.009085256E1,-1.698903441E-1,-1.028871611E-1,-4.377111197E-1
4.011085256E1,-1.493652761E-1,-9.758135676E-2,-5.336169600E-1
4.013285100E1,-1.296256036E-1,-6.065019220E-2,-5.886471868E-1
4.015285100E1,-1.404466480E-1,-1.527163107E-2,-5.825734735E-1
4.017285100E1,-1.857204884E-1,6.574655324E-2,-5.380326509E-1
4.019285100E1,-2.136981189E-1,1.977981627E-1,-4.806287587E-1
4.021285256E1,-2.339264750E-1,3.420670927E-1,-4.353200197E-1
4.023485256E1,-3.025877178E-1,4.090702832E-1,-4.003785253E-1
4.025685256E1,-4.183205068E-1,4.183554053E-1,-3.767816722E-1
4.027685256E1,-5.047492385E-1,4.386535883E-1,-3.510904312E-1
4.029685256E1,-5.108578801E-1,4.229456484E-1,-3.204773664E-1
4.031686975E1,-4.597197175E-1,3.297275901E-1,-3.316823840E-1
4.033885256E1,-3.778986931E-1,1.838529855E-1,-4.096287787E-1
4.036085100E1,-3.364122212E-1,1.277930140E-1,-4.739790559E-1
4.038085256E1,-3.046297729E-1,9.566149861E-2,-5.107880831E-1
4.040285256E1,-2.156703323E-1,8.691739291E-2,-5.211204290E-1
4.042485256E1,-7.803367078E-2,1.298874021E-1,-5.363222361E-1
4.044485256E1,1.358040720E-1,1.514422148E-1,-5.623101592E-1
4.046485256E1,3.741811514E-1,9.864600748E-2,-6.613750458E-1
4.048485256E1,6.232571006E-1,-5.567600206E-2,-7.923969030E-1
4.050485256E1,8.208109140E-1,-2.280970812E-1,-9.468236566E-1
4.052485256E1,9.383413792E-1,-3.657861054E-1,-1.102332473E0
4.054485256E1,9.112364054E-1,-3.988949955E-1,-1.199774265E0
4.056485256E1,5.845806003E-1,-1.918814927E-1,-1.053393483E0
4.058485256E1,2.579247653E-1,3.221703172E-1,-5.869367719E-1
4.060685256E1,5.197066665E-1,6.832091212E-1,-4.575904310E-1
4.062885256E1,1.026777148E0,6.521248221E-1,-8.186641335E-1
4.065085256E1,9.392314553E-1,4.961622059E-1,-1.395931840E0
4.067085256E1,4.037120938E-1,4.382521808E-1,-1.766709566E0
4.069285256E1,9.740682691E-2,5.576676130E-1,-1.744997621E0
4.071485256E1,3.245439827E-1,4.364021122E-1,-1.436877251E0
4.073485725E1,7.403512001E-1,1.403593719E-1,-1.173384905E0
4.075685256E1,8.337088823E-1,-3.077015467E-2,-1.172582030E0
4.077885256E1,6.935763955E-1,-1.072330326E-1,-1.299572110E0
4.080085256E1,5.967106223E-1,-1.652128696E-1,-1.316170216E0
4.082285256E1,5.604775548E-1,-2.208539695E-1,-1.194852352E0
4.084485100E1,4.271518886E-1,-1.992816925E-1,-9.984679818E-1
4.086485256E1,2.168746144E-1,-1.932952106E-1,-7.492000461E-1
4.088685256E1,4.948008433E-2,-2.602635026E-1,-5.153782964E-1
4.090885256E1,-2.389355749E-2,-2.503151298E-1,-3.369707167E-1
4.093085100E1,-3.358013555E-2,-5.494296551E-2,-2.291791886E-1
4.095085256E1,-8.779006079E-3,1.198168546E-1,-1.752834171E-1
4.097285256E1,-6.108652451E-4,1.338842064E-1,-1.127308160E-1
4.099485256E1,1.343903504E-2,8.421213925E-2,-6.124360487E-2
4.101686975E1,9.107127786E-2,1.410226077E-1,-2.555162087E-2
4.103885100E1,4.113042951E-1,1.474454105E-1,-2.042384297E-1
4.105885256E1,6.636440158E-1,-5.724680144E-3,-5.587148070E-1
4.107885256E1,2.373996824E-1,-3.932226822E-2,-7.831816077E-1
4.110085100E1,-9.458462596E-1,6.965608895E-2,-3.892956972E-1
4.112085256E1,-1.660366654E0,3.591538668E-1,6.288072467E-1
4.114285100E1,-1.221259236E0,2.321287841E-1,1.512205601E0
4.116285100E1,-2.193878889E-1,-2.122320384E-1,1.514247656E0
4.118285256E1,2.430545539E-1,-4.694237411E-1,9.456019402E-1
4.120485256E1,7.243116386E-3,-5.749638081E-1,3.678979576E-1
4.122485569E1,-3.159045875E-1,-5.251695514E-1,3.575656116E-1
4.124486038E1,-4.239055812E-1,-3.102497160E-1,8.020486236E-1
4.126685100E1,-3.411420584E-1,5.836381018E-2,1.447209597E0
4.128685100E1,-3.085044026E-1,1.959655732E-1,1.772870541E0
4.130685256E1,-3.742684126E-1,1.128355339E-1,1.765121222E0
4.132685256E1,-3.866078854E-1,-4.881685972E-2,1.618269324E0
4.134885256E1,-3.885102868E-1,-1.603084952E-1,1.462411404E0
4.136885256E1,-3.808831871E-1,-1.317374557E-1,1.469654441E0
4.138885256E1,-3.777765036E-1,-8.237954229E-2,1.517424107E0
4.140885256E1,-3.768340349E-1,-8.827875555E-2,1.521909595E0
4.143085100E1,-3.349635899E-1,-1.661728024E-1,1.405443788E0
4.145085256E1,-2.278352827E-1,-2.176774591E-1,1.197208643E0
4.147285256E1,-8.688248694E-2,-3.112445772E-1,8.621926308E-1
4.149486506E1,4.232423380E-2,-4.103967249E-1,5.775294304E-1
