"Time (s)","Linear Acceleration x (m/s^2)","Linear Acceleration y (m/s^2)","Linear Acceleration z (m/s^2)"
1.200312500E-2,8.559999615E-2,-2.996999919E-1,-1.324999928E-1
4.200156300E-2,1.623999923E-1,-4.960999787E-1,2.403999865E-1
6.200156300E-2,2.926000059E-1,-4.756999910E-1,1.015999988E-1
8.200156300E-2,5.411999822E-1,-5.363999605E-1,-1.905999929E-1
1.020078130E-1,5.910999775E-1,-4.551999867E-1,-2.193000019E-1
1.320000000E-1,5.691999793E-1,-4.892999828E-1,-1.241999939E-1
1.520062500E-1,5.487999916E-1,-7.124999762E-1,-2.023999989E-1
1.820000000E-1,3.520999849E-1,-7.304999828E-1,3.219999745E-2
2.020046880E-1,-1.279999912E-1,-1.444000006E-1,3.940999806E-1
2.320015630E-1,-4.508000016E-1,9.125999808E-1,5.212000012E-1
2.520046880E-1,-1.691000015E-1,9.835000038E-1,1.572999954E-1
2.820000000E-1,2.534999847E-1,7.371999621E-1,-5.609999970E-2
3.020078130E-1,2.658999860E-1,9.325000048E-1,-1.922999918E-1
3.320000000E-1,2.601999938E-1,8.025999665E-1,-2.696999907E-1
3.520015630E-1,2.176999897E-1,5.187000036E-1,-1.460999995E-1
3.720015630E-1,2.164999992E-1,2.796999812E-1,-1.008999944E-1
3.920046880E-1,1.842999905E-1,1.807999909E-1,5.959999934E-2
4.220000000E-1,-3.849999979E-2,3.509999812E-1,5.229999870E-2
4.420031250E-1,-1.719999909E-1,3.607999980E-1,8.169999719E-2
4.720000000E-1,-9.929999709E-2,2.649999857E-1,2.149999887E-2
4.920093750E-1,-2.719999850E-2,2.863000035E-1,-1.028999984E-1
5.220015630E-1,-1.673000008E-1,5.891000032E-1,-1.963000000E-1
5.420078130E-1,-2.904999852E-1,5.631999969E-1,-6.359999627E-2
5.720000000E-1,-2.305999994E-1,1.766999960E-1,-1.333999932E-1
5.920015630E-1,-1.596999913E-1,-4.889999703E-2,-3.734000027E-1
6.220000000E-1,-9.910000116E-2,-8.569999784E-2,-4.268999994E-1
6.420000000E-1,-9.589999914E-2,1.730000041E-2,-6.780000031E-2
6.620000000E-1,-9.279999882E-2,-2.679999918E-2,-3.003999889E-1
6.820015630E-1,-1.301999986E-1,2.043999881E-1,-1.206000000E-1
7.120015630E-1,-3.429999948E-2,2.383999974E-1,2.626999915E-1
7.320015630E-1,6.069999933E-2,2.456999868E-1,-1.296999902E-1
7.620015630E-1,2.131000012E-1,3.865000010E-1,-4.086999893E-1
7.920000000E-1,2.249999940E-1,3.783999979E-1,-9.089999646E-2
8.120015630E-1,2.245999873E-1,1.489999890E-1,1.459999941E-2
8.420000000E-1,6.150000095E-1,-5.212000012E-1,2.565999925E-1
8.620000000E-1,7.841999531E-1,-5.063999891E-1,-1.199999973E-1
8.820015630E-1,3.962999880E-1,-4.575999975E-1,-8.559999615E-2
9.120000000E-1,2.691999972E-1,-7.809999585E-2,-3.610000014E-2
9.320000000E-1,2.545000017E-1,-8.749999851E-2,-1.911999881E-1
9.520015630E-1,1.870999932E-1,-2.819999866E-2,-2.867999971E-1
9.820000000E-1,1.229999959E-1,1.650999933E-1,-2.196999937E-1
1.002000000E0,1.269999985E-2,1.949999928E-1,1.989999972E-2
1.022001563E0,-4.189999774E-2,1.022999957E-1,1.238999963E-1
1.052000000E0,-1.043999940E-1,-1.132999957E-1,4.019999877E-2
1.072000000E0,-2.545999885E-1,-8.389999717E-2,-1.975999922E-1
1.092001563E0,-3.339000046E-1,-1.828999966E-1,-1.528999954E-1
1.122000000E0,-3.434999883E-1,-3.782999814E-1,-6.340000033E-2
1.142000000E0,-3.780999780E-1,-4.138999879E-1,-1.094999984E-1
1.162000000E0,-4.918999970E-1,-4.063999951E-1,-8.709999919E-2
1.182000000E0,-5.169000030E-1,-2.547999918E-1,-8.549999446E-2
1.202000000E0,-4.621999860E-1,-1.972000003E-1,-1.806999892E-1
1.222000000E0,-4.551999867E-1,-2.437999994E-1,-2.272000015E-1
1.242014063E0,-4.666000009E-1,-4.034000039E-1,-7.819999754E-2
1.272000000E0,-2.718999982E-1,-3.840999901E-1,-9.290000051E-2
1.292000000E0,-7.936999798E-1,-4.939000010E-1,-3.119999915E-2
1.312001563E0,-4.636999965E-1,4.189999774E-2,-9.459999949E-2
1.342000000E0,-7.385999560E-1,-1.905999929E-1,4.390999973E-1
1.362000000E0,-4.658999741E-1,-2.951999903E-1,6.199999899E-2
1.382000000E0,-2.647999823E-1,-8.039999753E-2,2.036999911E-1
1.402000000E0,-1.501999944E-1,2.991999984E-1,1.339999959E-2
1.422001563E0,-3.373999894E-1,4.791999757E-1,-5.649999902E-2
1.442001563E0,-1.389999967E-2,4.822999835E-1,-1.559000015E-1
1.472001563E0,1.193999946E-1,3.779999912E-2,1.518999934E-1
1.492001563E0,3.562999964E-1,-2.029999942E-1,1.959999949E-1
1.522001563E0,6.358000040E-1,-1.645999998E-1,8.989999443E-2
1.552001563E0,7.822999954E-1,-1.819999889E-2,-8.439999819E-2
1.582000000E0,8.820999861E-1,-2.929999866E-2,7.710000128E-2
1.602001563E0,7.688999772E-1,1.021999940E-1,5.350000039E-2
1.622001563E0,7.015999556E-1,2.304999977E-1,1.289999932E-1
1.642001563E0,6.622999907E-1,3.304999769E-1,1.763999909E-1
1.662001563E0,4.739999771E-1,4.449999928E-1,1.671999991E-1
1.682001563E0,4.420000017E-1,5.030999780E-1,1.209999993E-2
1.702001563E0,4.411000013E-1,3.410999775E-1,-1.040999964E-1
1.732009375E0,2.002999932E-1,-3.720000014E-2,9.149999917E-2
1.762000000E0,-7.849999517E-2,-8.489999920E-2,2.329999954E-2
1.782000000E0,-2.739999890E-1,4.729999974E-2,-4.648000002E-1
1.802001563E0,-2.725999951E-1,2.642999887E-1,-5.309999585E-1
1.832001563E0,-1.511999965E-1,7.195000052E-1,-1.859000027E-1
1.862000000E0,1.485999972E-1,3.163999915E-1,2.909999900E-2
1.882001563E0,1.824999899E-1,5.599999800E-3,2.527000010E-1
1.912000000E0,2.710999846E-1,2.888999879E-1,1.039000005E-1
1.932000000E0,7.429999858E-2,4.995999932E-1,-8.069999516E-2
1.952000000E0,-2.771999836E-1,4.842000008E-1,-2.254000008E-1
1.972000000E0,-1.841000021E-1,1.154999956E-1,-1.567000002E-1
1.992000000E0,-2.592999935E-1,2.838000059E-1,-1.001999974E-1
2.012000000E0,-2.885999978E-1,4.649999738E-1,-1.621999890E-1
2.032001563E0,-3.258999884E-1,3.507999778E-1,-5.669999868E-2
2.062000000E0,-4.165000021E-1,-2.976999879E-1,1.221999973E-1
2.082000000E0,-4.329999983E-1,-6.617999673E-1,8.519999683E-2
2.102000000E0,-5.372999907E-1,-5.167999864E-1,-1.173999980E-1
2.122000000E0,-7.336999774E-1,-1.589999944E-1,-8.262000084E-1
2.142000000E0,-8.944000006E-1,9.399999678E-2,-1.218599916E0
2.162001563E0,-8.180999756E-1,8.749999851E-2,-1.277499914E0
2.192000000E0,-6.419000030E-1,-1.480000000E-2,-7.910999656E-1
2.212000000E0,-6.838999987E-1,-3.694999814E-1,-1.975999922E-1
2.232001563E0,-9.362999797E-1,-8.389999866E-1,5.625999570E-1
2.262000000E0,-7.414999604E-1,-8.854999542E-1,1.379799962E0
2.282001563E0,-2.194999903E-1,-6.547999978E-1,1.356999993E0
2.302001563E0,2.953999937E-1,-5.076999664E-1,8.363999724E-1
2.332000000E0,7.567999959E-1,-4.402000010E-1,2.300000051E-3
2.352000000E0,1.130100012E0,-3.759999871E-1,-7.800000161E-2
2.372001563E0,1.281899929E0,-5.346999764E-1,6.430000067E-2
2.402000000E0,1.423499942E0,-6.527000070E-1,1.776999980E-1
2.422000000E0,1.258000016E0,-4.870999753E-1,-8.949999511E-2
2.442001563E0,8.410999775E-1,-2.673999965E-1,-3.158999979E-1
2.462001563E0,4.329999983E-1,-2.078999877E-1,-4.822999835E-1
2.492000000E0,-2.132999897E-1,-1.350999922E-1,-2.258999944E-1
2.512000000E0,-6.628999710E-1,-7.569999993E-2,1.090000011E-2
2.532001563E0,-8.276999593E-1,-1.349000037E-1,1.894999892E-1
2.562000000E0,-8.898999691E-1,-1.656999886E-1,3.009999990E-1
2.582000000E0,-8.127999902E-1,-1.516000032E-1,2.352999896E-1
2.602001563E0,-7.908999920E-1,-7.939999551E-2,7.099999487E-2
2.632000000E0,-7.853999734E-1,3.959999979E-2,-1.289999951E-2
2.652000000E0,-7.628999949E-1,1.078999937E-1,-2.254999876E-1
2.672001563E0,-6.700999737E-1,7.279999554E-2,-3.894999921E-1
2.702000000E0,-5.137999654E-1,8.760000020E-2,-6.100000143E-1
2.722000000E0,-4.923999906E-1,3.157999814E-1,-7.238999605E-1
2.742014063E0,-3.349999785E-1,5.776999593E-1,-8.787999749E-1
2.772000000E0,2.768000066E-1,6.913999915E-1,-1.115700006E0
2.792000000E0,6.459000111E-1,3.637999892E-1,-3.834999800E-1
2.812000000E0,1.171800017E0,-3.392999768E-1,6.405999660E-1
2.832000000E0,1.184199929E0,-8.156999946E-1,1.465899944E0
2.852000000E0,1.699999906E-2,6.619999558E-2,2.270299911E0
2.872001563E0,-4.105999768E-1,1.197999954E0,1.830199957E0
2.892001563E0,5.469999835E-2,7.651000023E-1,5.539999604E-1
2.922000000E0,-5.332999825E-1,-1.630000025E-2,-1.040000003E-2
2.942000000E0,-1.300000004E-3,9.749999642E-2,8.585000038E-1
2.962001563E0,-2.030999959E-1,6.140000001E-2,2.459999919E-2
2.992000000E0,-1.566299915E0,9.711999893E-1,-4.448999763E-1
3.012000000E0,-1.766399980E0,1.757699966E0,-1.606999934E-1
3.032000000E0,-1.433300018E0,2.068099976E0,4.027999938E-1
3.052000000E0,-1.413499951E0,1.583899975E0,6.750000119E-1
3.072000000E0,-1.531399965E0,1.256500006E0,1.171700001E0
3.092001563E0,-1.355299950E0,1.177399993E0,1.592499971E0
3.122000000E0,-6.675999761E-1,8.517000079E-1,-5.156999826E-1
3.142000000E0,-6.714000106E-1,9.233999848E-1,-1.462799907E0
3.162001563E0,-3.425000012E-1,7.094999552E-1,-1.602199912E0
3.192000000E0,-9.872999787E-1,1.325299978E0,-1.054299951E0
3.212000000E0,-1.162299991E0,1.328499913E0,-8.456999660E-1
3.232004688E0,-1.305599928E0,1.173900008E0,-2.978000045E-1
3.262000000E0,-1.156000018E0,8.154000044E-1,3.251000047E-1
3.282000000E0,-1.096699953E0,6.392999887E-1,1.304000020E-1
3.302001563E0,-1.032099962E0,5.501999855E-1,-6.619999558E-2
3.332000000E0,-6.801999807E-1,2.370999902E-1,1.077600002E0
3.352001563E0,-2.763999999E-1,-1.292999983E-1,1.205999970E0
3.372001563E0,4.046999812E-1,-8.829999715E-2,4.863999784E-1
3.402000000E0,8.513000011E-1,-2.169999853E-2,4.719999805E-2
3.422000000E0,9.167000055E-1,1.284999996E-1,1.499999966E-2
3.442000000E0,9.784999490E-1,1.380999982E-1,2.601999938E-1
3.462001563E0,1.668299913E0,-1.345999986E-1,3.924999833E-1
3.492000000E0,2.474799871E0,-3.944000006E-1,-1.041000009E0
3.512000000E0,2.834899902E0,-2.708999813E-1,-1.465999961E0
3.532001563E0,2.857499838E0,-3.714999855E-1,-1.452799916E0
3.562009375E0,2.897899866E0,-1.088899970E0,-2.073999941E-1
3.592001563E0,1.963799953E0,-2.318999916E-1,-5.892999768E-1
3.622000000E0,1.558899999E0,-3.835999966E-1,9.359999746E-2
3.642000000E0,1.643299937E0,-1.254999936E-1,-2.927999794E-1
3.662001563E0,1.659799933E0,4.580999911E-1,-9.522999525E-1
3.692000000E0,1.425099969E0,1.044600010E0,-1.338400006E0
3.712000000E0,1.564799905E0,6.699000001E-1,-5.169999599E-1
3.732001563E0,1.463799953E0,7.738999724E-1,-9.113999605E-1
3.762000000E0,1.123899937E0,8.831999898E-1,-4.912999868E-1
3.782000000E0,7.021999955E-1,8.348999619E-1,-2.290000021E-2
3.802000000E0,4.648000002E-1,6.746999621E-1,4.734999835E-1
3.822000000E0,2.985000014E-1,5.013999939E-1,1.144999981E0
3.842000000E0,1.053999960E-1,4.477999806E-1,1.453499913E0
3.862000000E0,9.889999777E-2,4.833000004E-1,1.049099922E0
3.882001563E0,1.220999956E-1,5.777999759E-1,4.691999853E-1
3.902001563E0,4.129999876E-2,6.897999644E-1,2.620000020E-2
3.922001563E0,-8.999999845E-4,9.739999771E-1,-3.287999928E-1
3.952001563E0,-2.850000001E-2,1.403100014E0,-7.554999590E-1
3.982000000E0,-1.952999979E-1,1.351999998E0,8.789999783E-2
4.002000000E0,-6.439999491E-2,1.184700012E0,7.479000092E-1
4.022001563E0,-6.999999750E-3,1.271700025E0,1.232100010E0
4.052000000E0,3.619999886E-1,1.503299952E0,1.629299998E0
4.072000000E0,4.747999907E-1,1.560299993E0,1.628600001E0
4.092001563E0,1.526999921E-1,1.435899973E0,1.677699924E0
4.122000000E0,-4.270000011E-2,6.209999919E-1,2.659899950E0
4.142000000E0,3.700999916E-1,-5.374999642E-1,2.945799828E0
4.162001563E0,1.030300021E0,-1.570899963E0,2.514899969E0
4.192000000E0,1.038299918E0,-2.124899864E0,7.486000061E-1
4.212000000E0,5.306000113E-1,-1.812999964E0,-3.677999973E-1
4.232001563E0,-3.529999778E-2,-1.270799994E0,-9.407999516E-1
4.262000000E0,-7.523999810E-1,-7.281999588E-1,-1.202199936E0
4.282001563E0,-7.400999665E-1,-5.594999790E-1,-1.096599936E0
4.312000000E0,-1.156999990E-1,-5.213999748E-1,-1.038900018E0
4.332000000E0,2.461999953E-1,-5.318999887E-1,-1.290499926E0
4.352000000E0,4.220999777E-1,-4.265999794E-1,-1.445400000E0
4.372001563E0,4.429000020E-1,-3.411999941E-1,-1.297099948E0
4.392001563E0,4.373999834E-1,-3.334999979E-1,-1.150099993E0
4.422000000E0,4.377000034E-1,-1.418000013E-1,-1.367100000E0
4.442000000E0,4.003999829E-1,4.179999977E-2,-1.565099955E0
4.462000000E0,3.955999911E-1,1.840000004E-1,-1.724999905E0
4.482000000E0,4.341999888E-1,3.634999990E-1,-1.679999948E0
4.502000000E0,4.235999882E-1,5.548999906E-1,-1.508000016E0
4.522001563E0,3.037999868E-1,6.758999825E-1,-1.199000001E0
4.552000000E0,1.439999975E-2,7.558999658E-1,-5.198000073E-1
4.572000000E0,-2.325999886E-1,9.546999931E-1,-2.194999903E-1
4.592001563E0,-3.427000046E-1,1.002900004E0,1.890999973E-1
4.622000000E0,-3.443000019E-1,7.281999588E-1,1.077499986E0
4.642000000E0,-4.731999934E-1,5.681999922E-1,1.898899913E0
4.662000000E0,-2.451999933E-1,2.633999884E-1,2.634299994E0
4.682000000E0,6.014999747E-1,-6.304000020E-1,3.678399801E0
4.702000000E0,1.743899941E0,-1.394199967E0,3.185699940E0
4.722000000E0,1.772899985E0,-1.777599931E0,2.315199852E0
4.742014063E0,9.023999572E-1,-1.646499991E0,2.106799841E0
4.772000000E0,1.032299995E0,-8.470000029E-1,2.124399900E0
4.792000000E0,1.841599941E0,-4.071999788E-1,1.961999983E-1
4.812001563E0,2.448400021E0,1.630999893E-1,-2.633499861E0
4.842000000E0,1.980299950E0,1.305199981E0,-4.062399864E0
4.862000000E0,7.752000093E-1,9.118999839E-1,-1.286000013E0
4.882001563E0,5.727999806E-1,3.399999812E-3,1.566799998E0
4.902018750E0,9.131999612E-1,-1.223899961E0,2.947399855E0
4.932000000E0,1.930499911E0,-2.598599911E0,2.078999996E0
4.952001563E0,2.299200058E0,-2.558300018E0,7.483999729E-1
4.982000000E0,1.747799993E0,-1.384999990E0,-1.072799921E0
5.002000000E0,1.186599970E0,-6.728999615E-1,-1.875599980E0
5.022001563E0,7.670999765E-1,-1.807999909E-1,-2.317199945E0
5.052000000E0,1.748999953E-1,2.098999918E-1,-2.154299974E0
5.072000000E0,8.399999700E-3,2.041999996E-1,-1.597899914E0
5.092001563E0,1.677999943E-1,5.249999836E-2,-1.135900021E0
5.122000000E0,4.684000015E-1,-1.212999970E-1,-9.000999928E-1
5.142000000E0,3.892000020E-1,-4.270000011E-2,-5.555999875E-1
5.162000000E0,3.299999833E-1,1.056999937E-1,2.944999933E-1
5.182000000E0,4.210000038E-1,2.389999926E-1,8.376999497E-1
5.202000000E0,4.488999844E-1,3.562999964E-1,8.700000048E-1
5.222000000E0,3.326999843E-1,4.476999938E-1,9.129999876E-1
5.242014063E0,3.802999854E-1,6.579999924E-1,9.062999487E-1
5.272000000E0,6.004999876E-1,1.092999935E0,-1.366000026E-1
5.292000000E0,6.247999668E-1,1.337999940E0,-6.556999683E-1
5.312001563E0,5.547999740E-1,1.504099965E0,-1.334999949E-1
5.342000000E0,-1.008999944E-1,8.887999654E-1,1.402300000E0
5.362000000E0,-5.554999709E-1,3.289999962E-1,2.670699835E0
5.382001563E0,-4.963999987E-1,-1.211999953E-1,3.676800013E0
5.412000000E0,5.073999763E-1,-4.378999770E-1,6.717000008E-1
5.432000000E0,1.090899944E0,-3.097999990E-1,-1.711799979E0
5.452001563E0,8.434000015E-1,-2.160999924E-1,-2.279099941E0
5.482000000E0,-6.646999717E-1,-6.434999704E-1,8.668999672E-1
5.502000000E0,-7.392999530E-1,-8.816999793E-1,2.286999941E0
5.522001563E0,1.068999991E-1,-1.003499985E0,1.704999924E0
5.552000000E0,1.600399971E0,-6.592000127E-1,-2.034000009E-1
5.572000000E0,2.153800011E0,-3.885000050E-1,-1.202899933E0
5.592000000E0,2.558599949E0,2.089999989E-2,-2.145099878E0
5.612000000E0,2.745299816E0,4.199999869E-1,-2.961799860E0
5.632000000E0,2.742599964E0,7.644999623E-1,-3.337399960E0
5.652000000E0,2.570999861E0,8.818999529E-1,-3.141899824E0
5.672001563E0,2.191999912E0,8.689999580E-1,-2.356299877E0
5.702000000E0,1.756099939E0,6.031000018E-1,-2.370499849E0
5.722000000E0,9.703999758E-1,7.429999709E-1,-1.776099920E0
5.742014063E0,2.973999977E-1,8.779000044E-1,2.511000037E-1
5.772000000E0,3.595999777E-1,6.922999620E-1,2.606499910E0
5.792000000E0,3.141999841E-1,6.031000018E-1,2.733700037E0
5.812000000E0,-1.400000006E-1,5.419999957E-1,3.541299820E0
5.832000000E0,-2.989999950E-1,4.298000038E-1,4.388599873E0
5.852000000E0,-1.439999938E-1,5.983999968E-1,4.381700039E0
5.872000000E0,1.014999971E-1,9.847999811E-1,3.530200005E0
5.892001563E0,6.859999895E-1,1.098999977E0,1.903800011E0
5.922001563E0,1.372099996E0,1.333999932E-1,1.814099908E0
5.952001563E0,2.750699997E0,-2.108399868E0,3.435699940E0
5.982000000E0,3.828399897E0,-2.204699993E0,-1.051200032E0
6.002000000E0,3.054199934E0,-7.882999778E-1,-1.913800001E0
6.022001563E0,2.098700047E0,-1.292999983E-1,-1.274500012E0
6.052000000E0,1.427599907E0,-6.399999857E-1,1.365000010E-1
6.072000000E0,1.243799925E0,-1.003700018E0,1.103999987E-1
6.092001563E0,9.695000052E-1,-9.840999842E-1,3.359999955E-1
6.122000000E0,1.096799970E0,-8.834999800E-1,-5.503999591E-1
6.142000000E0,1.218999982E0,-8.422999978E-1,-2.142299891E0
6.162001563E0,1.051100016E0,-2.442999929E-1,-3.774399996E0
6.192000000E0,7.717999816E-1,-2.461999953E-1,-3.896399975E0
6.212000000E0,4.720999897E-1,-5.374999642E-1,-3.370100021E0
6.232001563E0,-8.810000122E-2,-1.112999991E-1,-3.015699863E0
6.262000000E0,-3.761000037E-1,2.980999947E-1,-2.406299829E0
6.282000000E0,-3.382999897E-1,4.943999946E-1,-1.635800004E0
6.302001563E0,-1.631999910E-1,5.708999634E-1,-8.585000038E-1
6.322001563E0,-1.044999957E-1,9.429999590E-1,-3.842999935E-1
6.352000000E0,2.996999919E-1,1.445500016E0,-6.347999573E-1
6.372000000E0,5.138999820E-1,1.146399975E0,5.986999869E-1
6.392000000E0,3.224000037E-1,1.029899955E0,2.216699839E0
6.412001563E0,9.789999574E-2,1.387499928E0,2.295300007E0
6.432001563E0,-2.019999921E-2,1.734599948E0,2.991299868E0
6.462001563E0,-1.809999906E-2,1.666299939E0,4.168499947E0
6.492000000E0,5.813999772E-1,1.289999951E-2,4.316100121E0
6.512000000E0,1.868199944E0,-1.522699952E0,2.060799837E0
6.532001563E0,1.987699986E0,-2.016299963E0,-5.240000039E-2
6.562000000E0,8.712999821E-1,-2.569599867E0,1.715099931E0
6.582000000E0,4.659999907E-1,-3.586599827E0,2.936199903E0
6.602000000E0,4.649999738E-1,-3.947999954E0,4.753399849E0
6.622000000E0,1.115999937E0,-3.582299948E0,4.125800133E0
6.642000000E0,1.363099933E0,-2.476199865E0,8.758999705E-1
6.662001563E0,1.028599977E0,-1.000900030E0,-1.843199968E0
6.682001563E0,6.128999591E-1,3.179999888E-1,-3.109400034E0
6.712000000E0,8.237999678E-1,1.010399938E0,-3.463199854E0
6.732001563E0,1.304700017E0,1.003799915E0,-3.974200010E0
6.762000000E0,1.347599983E0,1.643399954E0,-5.112299919E0
6.782000000E0,1.202099919E0,2.240700006E0,-5.668299675E0
6.802000000E0,1.513799906E0,1.852800012E0,-5.347799778E0
6.822001563E0,2.005499840E0,7.721999884E-1,-4.337100029E0
6.852000000E0,2.000699997E0,-1.270999908E-1,-2.489699841E0
6.872001563E0,2.226199865E0,-4.727999866E-1,-2.277999967E-1
6.892001563E0,2.535399914E0,-7.834999561E-1,2.489500046E0
6.922000000E0,2.512099981E0,-5.175999999E-1,4.689099789E0
6.942000000E0,2.631500006E0,1.145999953E-1,4.333399773E0
6.962000000E0,2.295500040E0,2.193000019E-1,4.043999672E0
6.982000000E0,1.830899954E0,-1.150399923E0,5.884799957E0
7.002000000E0,2.953799963E0,-2.871799946E0,8.700699806E0
7.022001563E0,4.591199875E0,-3.600999832E0,6.949199677E0
7.052000000E0,4.671799660E0,-1.662799954E0,-9.854999781E-1
7.072000000E0,3.691999912E0,-3.213000000E-1,-1.828399897E0
7.092001563E0,3.242899895E0,-6.466000080E-1,-1.943999976E-1
7.122000000E0,3.547499895E0,-1.784799933E0,-1.213999987E-1
7.142000000E0,3.351799965E0,-1.921700001E0,-1.049099922E0
7.162001563E0,2.845199823E0,-1.724799991E0,-1.788599968E0
7.192000000E0,2.151299953E0,-9.662999511E-1,-2.840099812E0
7.212001563E0,1.732999921E0,-5.871999860E-1,-3.633699894E0
7.232001563E0,1.303799987E0,-3.691999912E-1,-3.704399824E0
7.252001563E0,7.963999510E-1,-3.598999977E-1,-2.794299841E0
7.282000000E0,1.053999960E-1,-6.916999817E-1,-3.120999932E-1
7.302001563E0,1.970999986E-1,-1.006299973E0,1.967700005E0
7.322001563E0,9.361999631E-1,-1.092700005E0,2.890799999E0
7.352000000E0,1.207799911E0,1.146999970E-1,7.307999730E-1
7.372001563E0,7.480999827E-1,1.731099963E0,2.497999966E-1
7.392001563E0,8.496999741E-1,2.538100004E0,4.339999706E-2
7.422000000E0,1.833899975E0,2.002300024E0,1.129699945E0
7.442000000E0,2.353600025E0,1.135999918E0,1.789299965E0
7.462001563E0,1.972000003E0,6.990999579E-1,2.392499924E0
7.492000000E0,1.207700014E0,-4.409999847E-1,3.725199938E0
7.512000000E0,1.998199940E0,-1.947099924E0,3.419999838E0
7.532001563E0,1.975899935E0,-2.882799864E0,1.908199906E0
7.562000000E0,-5.421999693E-1,-3.151899815E0,2.085099936E0
7.582000000E0,-1.262399912E0,-2.550899982E0,3.379199982E0
7.602001563E0,-8.628000021E-1,-1.831699967E0,2.592000008E0
7.632000000E0,-1.071999967E-1,-9.432999492E-1,-1.130100012E0
7.652000000E0,9.319999814E-2,-5.329999700E-2,-2.436300039E0
7.672000000E0,3.041000068E-1,4.757999778E-1,-3.133399963E0
7.692000000E0,5.263000131E-1,7.507999539E-1,-3.662799835E0
7.712000000E0,6.543999910E-1,9.684999585E-1,-4.367799759E0
7.732001563E0,8.341999650E-1,1.074299932E0,-4.905399799E0
7.762000000E0,8.476999998E-1,1.154099941E0,-4.724299908E0
7.782000000E0,8.592000008E-1,1.261500001E0,-3.377699852E0
7.802000000E0,1.245700002E0,1.286700010E0,-1.718400002E0
7.822001563E0,1.360799909E0,1.513000011E0,-4.927999973E-1
7.852000000E0,1.143100023E0,1.624300003E0,6.425999999E-1
7.872001563E0,1.686100006E0,1.834899902E0,2.063199997E0
7.892001563E0,2.674799919E0,1.042400002E0,2.443199873E0
7.922001563E0,3.451499939E0,-2.079999894E-1,1.490499973E0
7.952001563E0,2.051399946E0,-1.756999940E-1,3.358399868E0
7.982000000E0,4.050000012E-1,-5.146999955E-1,3.294099808E0
8.002000000E0,6.710000038E-1,-1.801999927E0,4.725500107E0
8.022001563E0,1.735799909E0,-2.941900015E0,6.246099949E0
8.052000000E0,2.102499962E0,-2.331399918E0,2.897300005E0
8.072001563E0,1.331099987E0,-9.866999984E-1,9.223999977E-1
8.092001563E0,8.597999811E-1,-8.569999784E-2,5.022000074E-1
8.122001563E0,1.133399963E0,-6.639999896E-2,4.512999952E-1
8.152000000E0,1.874399900E0,-1.337599993E0,4.754999876E-1
8.172001563E0,1.911899924E0,-1.808499932E0,-8.029999584E-2
8.202000000E0,1.335600019E0,-1.440500021E0,-2.529500008E0
8.222000000E0,9.366999865E-1,-6.811000109E-1,-4.488599777E0
8.242014063E0,4.557999969E-1,2.659999952E-2,-5.355700016E0
8.272000000E0,3.900000080E-2,4.968999922E-1,-3.236599922E0
8.292000000E0,-2.017000020E-1,8.831999898E-1,-2.517699957E0
8.312001563E0,-2.823999822E-1,8.298999667E-1,-1.253499985E0
8.342000000E0,3.705999851E-1,2.886999846E-1,-1.212999970E-1
8.362000000E0,1.243700027E0,4.199999850E-3,-7.917000055E-1
8.382001563E0,1.761199951E0,-7.400000095E-2,-1.174199939E0
8.412000000E0,2.049900055E0,6.520000100E-2,-7.071999907E-1
8.432000000E0,1.818099976E0,9.699999541E-2,-3.350999951E-1
8.452001563E0,1.422399998E0,1.498999894E-1,5.564000010E-1
8.482000000E0,1.522799969E0,2.151999921E-1,2.867300034E0
8.502000000E0,1.351499915E0,-1.731999964E-1,3.444199800E0
8.522001563E0,1.735399961E0,1.067999974E-1,3.426299810E0
8.552000000E0,7.777999640E-1,-8.927999735E-1,-3.409999907E-1
8.572000000E0,5.110999942E-1,-1.585399985E0,1.120700002E0
8.592001563E0,9.792999625E-1,-1.903099895E0,2.299399853E0
8.622000000E0,1.249300003E0,-2.097399950E0,1.640199900E0
8.642000000E0,1.095099926E0,-1.453599930E0,1.790199995E0
8.662001563E0,9.829999804E-1,-8.563999534E-1,1.382300019E0
8.692000000E0,1.068899989E0,-3.946000040E-1,4.153999984E-1
8.712000000E0,9.918999672E-1,3.750999868E-1,-3.059999943E-1
8.732001563E0,1.208999991E0,9.095999599E-1,-8.387999535E-1
8.762000000E0,1.912799954E0,4.740999937E-1,-2.591099977E0
8.782000000E0,2.353199959E0,2.820000052E-1,-3.393800020E0
8.802000000E0,2.584199905E0,1.590999961E-1,-3.701799870E0
8.822001563E0,2.369199991E0,1.860000007E-2,-3.663999796E0
8.852000000E0,1.865799904E0,-7.189999521E-2,-3.198199987E0
8.872000000E0,1.624399900E0,4.949999973E-2,-2.943399906E0
8.892001563E0,1.394999981E0,2.852999866E-1,-2.153199911E0
8.922000000E0,1.027400017E0,8.405999541E-1,-7.820999622E-1
8.942000000E0,4.960999787E-1,8.010999560E-1,1.433999985E-1
8.962000000E0,-4.629999772E-2,3.267000020E-1,1.219299912E0
8.982000000E0,5.590000153E-1,-4.843999743E-1,2.538699865E0
9.002000000E0,2.406100035E0,-1.029600024E0,3.671099901E0
9.022001563E0,3.140599966E0,-1.485199928E0,2.711599827E0
9.052000000E0,2.718600035E0,-1.451099992E0,1.503199935E0
9.072000000E0,2.948400021E0,-1.051800013E0,2.133499861E0
9.092001563E0,3.136799812E0,-1.056900024E0,7.558999658E-1
9.122000000E0,2.794699907E0,-1.332799911E0,-7.904999852E-1
9.142001563E0,2.149299860E0,-1.810199976E0,4.574999809E-1
9.162001563E0,1.395099998E0,-1.893799901E0,1.498600006E0
9.192000000E0,2.710999846E-1,-1.784799933E0,2.505100012E0
9.212000000E0,1.512999982E-1,-1.378000021E0,2.320199966E0
9.232001563E0,4.323999882E-1,-7.166999578E-1,6.331999898E-1
9.252001563E0,5.425999761E-1,1.640000008E-2,-1.212499976E0
9.282043750E0,6.608999968E-1,8.619999886E-1,-3.324199915E0
9.312001563E0,4.805999994E-1,1.088299990E0,-3.128499985E0
9.342000000E0,1.497000009E-1,1.189599991E0,-8.104999661E-1
9.362000000E0,5.332999825E-1,6.498999596E-1,1.154999956E-1
9.382001563E0,8.596999645E-1,3.628000021E-1,-1.721999943E-1
9.412000000E0,1.144199967E0,6.564999819E-1,-7.678999901E-1
9.432000000E0,1.220999956E0,9.595999718E-1,-2.245000005E-1
9.452001563E0,1.454800010E0,1.544999957E0,-3.319000006E-1
9.482000000E0,1.831999898E0,2.177500010E0,-1.588400006E0
9.502000000E0,2.006999969E0,2.051399946E0,-7.213000059E-1
9.522001563E0,1.892499924E0,1.502799988E0,1.654599905E0
9.552000000E0,7.637999654E-1,1.100999951E0,2.907299995E0
9.572000000E0,-1.157799959E0,-4.668999910E-1,3.974299908E0
9.592001563E0,-1.038599968E0,-1.364199996E0,7.368499756E0
9.622000000E0,1.825799942E0,-1.839899898E0,3.413100004E0
9.642000000E0,2.858599901E0,-1.292299986E0,-8.919000030E-1
9.662001563E0,1.715799928E0,-6.746999621E-1,-1.706699967E0
9.682001563E0,3.359999955E-1,-3.920000046E-2,1.234999970E-1
9.712000000E0,4.937999845E-1,-1.349000037E-1,2.024100065E0
9.732001563E0,1.364199996E0,-5.277999640E-1,8.810999990E-1
9.762000000E0,2.142899990E0,-2.953000069E-1,-1.586599946E0
9.782001563E0,2.330399990E0,1.062999964E-1,-2.688299894E0
9.812001563E0,2.484699965E0,9.983999729E-1,-3.576299906E0
9.842000000E0,2.468099833E0,1.481799960E0,-4.217299938E0
9.862000000E0,2.186300039E0,1.369699955E0,-4.236400127E0
9.882001563E0,1.574299932E0,1.167299986E0,-3.636099815E0
9.902018750E0,1.310500026E0,8.011999726E-1,-2.091500044E0
9.932000000E0,1.279999971E0,-2.228000015E-1,8.928999901E-1
9.952000000E0,1.102699995E0,-3.759000003E-1,2.362900019E0
9.972000000E0,8.208000064E-1,-3.971000016E-1,3.026700020E0
9.992000000E0,4.399999976E-1,-4.719999805E-2,2.939299822E0
1.001200000E1,-2.150999904E-1,2.630999982E-1,3.232699871E0
1.003200156E1,-2.550999820E-1,2.653999925E-1,4.190899849E0
1.006200156E1,1.260800004E0,7.303999662E-1,1.580099940E0
1.009200156E1,2.475100040E0,2.070000023E-2,-1.319800019E0
1.012200000E1,4.584499836E0,-8.676999807E-1,1.979999989E-1
1.014200156E1,4.501499653E0,-1.058099985E0,-3.387999833E-1
1.016200156E1,3.265399933E0,-8.455999494E-1,2.606000006E-1
1.019200000E1,2.027699947E0,-1.078999996E0,3.376999855E0
1.021200000E1,1.498399973E0,-1.410899997E0,5.627199650E0
1.023200156E1,1.514599919E0,-1.591199994E0,4.878299713E0
1.025200156E1,1.547500014E0,-1.153399944E0,2.097599983E0
1.027200156E1,1.237499952E0,-4.749999940E-1,-1.785999984E-1
1.030200156E1,6.936999559E-1,5.047000051E-1,-3.473599911E0
1.033200000E1,2.999999933E-2,1.138700008E0,-5.023200035E0
1.035200000E1,-2.434999943E-1,1.252200007E0,-4.423999786E0
1.037200000E1,-3.456999958E-1,1.097100019E0,-3.684099913E0
1.039200156E1,-3.951999843E-1,9.733999968E-1,-3.219599962E0
1.042200000E1,-4.114999771E-1,7.498999834E-1,-1.701299906E0
1.044200000E1,-7.819999754E-2,4.800999761E-1,-9.917999506E-1
1.046200156E1,4.983999729E-1,4.090999961E-1,-8.624999523E-1
1.048200156E1,8.285999894E-1,3.427000046E-1,-1.114400029E0
1.051200000E1,8.761999607E-1,1.999999862E-3,5.078999996E-1
1.053200156E1,1.360799909E0,1.677999943E-1,1.883399963E0
1.056200469E1,9.779999852E-1,-1.667999923E-1,1.763000011E0
1.059200156E1,1.828999966E-1,-1.565099955E0,5.999799728E0
1.062200000E1,2.628399849E0,-1.441599965E0,3.134999990E0
1.064200000E1,3.407799959E0,-1.965799928E0,2.346999943E-1
1.066200156E1,2.698799849E0,-1.990999937E0,1.377499938E0
1.068200156E1,2.016799927E0,-1.194199920E0,3.232999802E0
1.071200000E1,1.884299994E0,-4.513999820E-1,1.940400004E0
1.073200156E1,1.922599912E0,-1.976999938E-1,8.269999921E-2
1.075200156E1,1.898599982E0,-7.419999689E-2,-8.014999628E-1
1.077200156E1,1.776499987E0,4.409999773E-2,-1.174399972E0
1.079200156E1,1.584899902E0,3.549999893E-1,-1.469200015E0
1.081200156E1,1.524699926E0,6.816999912E-1,-2.118200064E0
1.084200000E1,1.485499978E0,6.627999544E-1,-2.942600012E0
1.086200000E1,1.355899930E0,4.565999806E-1,-2.909899950E0
1.088200156E1,1.106699944E0,1.427000016E-1,-2.697799921E0
1.091200000E1,8.238999844E-1,-5.471999645E-1,-2.058599949E0
1.093200000E1,8.021999598E-1,-6.778999567E-1,-2.278499842E0
1.095200156E1,9.521999955E-1,-7.305999994E-1,-3.236399889E0
1.098200000E1,1.719599962E0,-1.564899921E0,-2.973399878E0
1.100200000E1,2.605599880E0,-2.268300056E0,-9.826999903E-1
1.102200156E1,4.216300011E0,-2.527999878E0,1.328599930E0
1.105200000E1,6.012300014E0,-1.373499990E0,-6.667000055E-1
1.107200000E1,4.721799850E0,-1.798299909E0,-1.050199986E0
1.109200156E1,2.386100054E0,-3.537899971E0,5.595900059E0
1.112200000E1,3.629699945E0,-5.780900002E0,1.425029945E1
1.114200000E1,5.599899769E0,-6.806200027E0,9.315499306E0
1.116200156E1,6.077300072E0,-6.302599907E0,1.868699908E0
1.118200156E1,5.104799747E0,-4.794300079E0,-1.310400009E0
1.121200000E1,3.316399813E0,-3.883899927E0,8.949999511E-2
1.123200000E1,2.895699978E0,-4.407099724E0,6.517999768E-1
1.125200156E1,2.891499996E0,-5.422800064E0,1.213599920E0
1.128200000E1,2.308300018E0,-5.121999741E0,3.179199934E0
1.130200000E1,2.434599876E0,-4.347199917E0,3.584699869E0
1.132200000E1,3.468400002E0,-4.170399666E0,2.917500019E0
1.134200000E1,4.224199772E0,-4.531799793E0,1.098999977E0
1.136200000E1,4.037099838E0,-4.725399971E0,-8.567000031E-1
1.138200156E1,3.074899912E0,-4.790100098E0,-1.538199902E0
1.141200000E1,1.517699957E0,-4.291699886E0,-1.091699958E0
1.143200156E1,8.634999990E-1,-3.940699816E0,-1.307099938E0
1.145200156E1,6.837999821E-1,-3.516799927E0,-1.947699904E0
1.148200000E1,1.153699994E0,-2.576799870E0,-3.121599913E0
1.150200156E1,1.481199980E0,-1.730499983E0,-3.509099960E0
1.152200156E1,1.906299949E0,-1.032099962E0,-3.685999870E0
1.155200000E1,2.363699913E0,-1.030200005E0,-2.509199858E0
1.157200000E1,1.607399940E0,-1.171199918E0,-4.755999744E-1
1.159200156E1,4.077000022E-1,-9.079999924E-1,2.093499899E0
1.162200000E1,1.747999936E-1,-6.104999781E-1,5.339499950E0
1.164200000E1,1.016600013E0,-5.659999847E-1,5.275599957E0
1.166200156E1,1.628999949E0,-3.379999995E-1,3.924399853E0
1.168200156E1,1.636399984E0,1.750999987E-1,3.222100019E0
1.171200000E1,1.285399914E0,1.379799962E0,2.187700033E0
1.173200000E1,7.030999660E-1,2.212399960E0,5.959999561E-1
1.175200156E1,7.419999689E-2,2.418699980E0,-7.555999756E-1
1.178200000E1,-6.055999994E-1,2.018499851E0,-2.246999890E-1
1.180200000E1,-1.489899993E0,8.161000013E-1,1.317099929E0
1.182200156E1,-2.338999987E0,-9.343999624E-1,3.183199883E0
1.185200000E1,-2.363999844E0,-3.036700010E0,5.002099991E0
1.187200000E1,-2.341500044E0,-3.482100010E0,3.392799854E0
1.189200156E1,-2.945999861E0,-2.555099964E0,2.245000005E-1
1.192200000E1,-3.443699837E0,-1.005999923E0,-1.565400004E0
1.194200000E1,-3.267499924E0,-9.201999903E-1,-1.026600003E0
1.196200156E1,-2.737499952E0,-1.188300014E0,-8.607999682E-1
1.199200000E1,-2.344899893E0,-9.998999834E-1,-9.006999731E-1
1.201200000E1,-2.244299889E0,-6.001999974E-1,-5.776000023E-1
1.203200156E1,-1.947399974E0,-4.425999820E-1,-5.094000101E-1
1.206200000E1,-1.768099904E0,3.460000083E-2,-1.384400010E0
1.208200000E1,-1.768399954E0,3.377999961E-1,-1.701299906E0
1.210200156E1,-1.775799990E0,4.007999897E-1,-1.813399911E0
1.213200000E1,-1.967199922E0,6.807000041E-1,-1.582099915E0
1.215200000E1,-2.065799952E0,7.968999743E-1,-1.680699944E0
1.217200156E1,-2.121199846E0,6.962999701E-1,-1.836299896E0
1.220200000E1,-2.050600052E0,5.409999937E-2,-1.380899906E0
1.222200156E1,-1.683599949E0,-9.898999929E-1,1.127999946E-1
1.224201406E1,-1.279600024E0,-2.520299911E0,1.578599930E0
1.227200000E1,-1.104399920E0,-3.376099825E0,2.198199987E0
1.229200000E1,-1.650200009E0,-3.117399931E0,2.335399866E0
1.231200156E1,-2.118499994E0,-3.210799932E0,2.909299850E0
1.234200000E1,-1.585099936E0,-3.737200022E0,4.132199764E0
1.236200000E1,-9.485999942E-1,-4.251399994E0,3.978799820E0
1.238200156E1,-5.213999748E-1,-4.549999714E0,3.246199846E0
1.241200000E1,-7.041999698E-1,-3.868199825E0,1.761299968E0
1.243200000E1,-7.954999804E-1,-3.079200029E0,5.992999673E-1
1.245200156E1,-8.948999643E-1,-2.363100052E0,-7.285999656E-1
1.248200000E1,-1.250000000E0,-1.240399957E0,-2.692100048E0
1.250200000E1,-1.524500012E0,-9.927999973E-1,-3.357100010E0
1.252200156E1,-1.686899900E0,-1.606799960E0,-2.939800024E0
1.255200000E1,-1.720600009E0,-2.757200003E0,-1.990299940E0
1.257200000E1,-1.720600009E0,-3.381099939E0,-1.810999990E0
1.259200156E1,-1.719999909E0,-3.891099930E0,-1.950499892E0
1.262200000E1,-1.520099998E0,-3.907299995E0,-1.505999923E0
1.264200000E1,-1.308200002E0,-3.916299820E0,-2.281599998E0
1.266200156E1,-1.100799918E0,-3.526999950E0,-2.398799896E0
1.268200156E1,-1.123799920E0,-2.835599899E0,-1.493799925E0
1.271200000E1,-9.619999528E-1,-2.514099836E0,1.049999986E-2
1.273200000E1,-1.114499927E0,-2.473799944E0,-2.630000003E-2
1.275200000E1,-1.866899967E0,-2.893399954E0,6.011999846E-1
1.277200000E1,-2.140599966E0,-3.322700024E0,2.278899908E0
1.279200000E1,-1.298200011E0,-3.554499865E0,4.532999992E0
1.281200156E1,-3.852999806E-1,-3.323799849E0,5.039299965E0
1.284200000E1,-6.947000027E-1,-8.731999993E-1,1.387399912E0
1.286200000E1,-1.045899987E0,3.861999810E-1,-3.683999777E-1
1.288200156E1,-1.305499911E0,9.529999495E-1,-1.606299996E0
1.291200000E1,-1.373999953E0,1.096199989E0,-2.278199911E0
1.293200000E1,-1.303699970E0,8.447999954E-1,-2.272699833E0
1.295200000E1,-1.194100022E0,4.697999954E-1,-1.716499925E0
1.297200000E1,-1.125900030E0,5.159999803E-2,-8.435999751E-1
1.299200000E1,-1.023999929E0,-2.753999829E-1,-1.423999965E-1
1.301200000E1,-7.780999541E-1,-5.271999836E-1,6.539999843E-1
1.303200156E1,-5.345000029E-1,-5.299000144E-1,1.383999944E0
1.306200000E1,-1.990999877E-1,1.411999911E-1,1.283999920E0
1.308200000E1,-1.929999888E-2,7.853999734E-1,3.032000065E-1
1.310200156E1,-7.799999788E-3,1.368899941E0,-2.509999871E-1
1.313200000E1,-1.363999993E-1,1.845699906E0,1.727999896E-1
1.315200000E1,-2.096999884E-1,1.733599901E0,7.876999974E-1
1.317200156E1,-2.761999965E-1,1.805199981E0,9.839999676E-1
1.320200000E1,-5.033999681E-1,1.865000010E0,1.038999915E0
1.322200000E1,-8.118999600E-1,1.867100000E0,1.114199996E0
1.324201406E1,-6.816999912E-1,1.445199966E0,1.533899903E0
1.327200000E1,2.089999914E-1,-5.722000003E-1,3.874699831E0
1.329200000E1,1.014500022E0,-1.496299982E0,5.330899715E0
1.331200000E1,1.638799906E0,-1.337799907E0,4.640399933E0
1.333200000E1,1.935299993E0,1.092999950E-1,1.431299925E0
1.335200000E1,2.245499849E0,1.104699969E0,-1.567799926E0
1.337200000E1,2.443699837E0,1.250999928E0,-3.234599829E0
1.339200156E1,2.454299927E0,9.001999497E-1,-2.713500023E0
1.342200156E1,2.573699951E0,1.479000002E-1,-2.287999988E-1
1.345200156E1,2.781299829E0,-3.096999824E-1,3.282999992E-1
1.348200000E1,2.485999823E0,5.089999735E-2,2.270999998E-1
1.350200000E1,2.224999905E0,2.599999905E-1,5.689999834E-2
1.352200156E1,2.015300035E0,3.104999959E-1,-2.013999969E-1
1.354200156E1,1.888499975E0,3.122999966E-1,-3.818999827E-1
1.357200000E1,1.620099902E0,2.734999955E-1,-6.130999923E-1
1.359200156E1,1.200899959E0,3.728999794E-1,-5.371999741E-1
1.361200156E1,7.624999881E-1,4.307999909E-1,-5.399000049E-1
1.364200000E1,1.603000015E-1,4.834999740E-1,-6.417999864E-1
1.366200156E1,-2.334999889E-1,5.654000044E-1,-7.613999844E-1
1.368200156E1,-5.259000063E-1,6.262999773E-1,-9.004999995E-1
1.371200000E1,-9.610999823E-1,2.137999982E-1,-1.058499932E0
1.373200000E1,-1.023699999E0,-3.735999763E-1,-9.009000063E-1
1.375200000E1,-8.448999524E-1,-6.363999844E-1,-1.931999922E-1
1.377200000E1,-6.942999959E-1,-3.563999832E-1,3.971999884E-1
1.379200000E1,-6.013000011E-1,5.033000112E-1,-2.099999934E-1
1.381200156E1,-1.392099977E0,1.241999984E0,-6.299999952E-1
1.384200000E1,-2.431900024E0,1.146099925E0,2.187099934E0
1.386200000E1,-1.170599937E0,-4.107999802E-1,4.536799908E0
1.388200156E1,4.528999925E-1,-1.830299973E0,4.873099804E0
1.391200000E1,4.448999763E-1,-1.972199917E0,1.692499995E0
1.393200000E1,-4.733999968E-1,-5.580999851E-1,7.771999836E-1
1.395200156E1,-8.690999746E-1,3.186999857E-1,5.891999602E-1
1.398200000E1,-2.751999795E-1,2.730000019E-1,-7.022999525E-1
1.400200000E1,3.777999878E-1,1.296999902E-1,-1.481199980E0
1.402200156E1,8.781999946E-1,4.719999805E-2,-1.640599966E0
1.405200000E1,1.326599956E0,4.082999825E-1,-1.878299952E0
1.407200000E1,1.204699993E0,8.154000044E-1,-2.450899839E0
1.409200156E1,8.007000089E-1,1.278699994E0,-2.808300018E0
1.412200000E1,2.182999998E-1,2.024899960E0,-1.916999936E0
1.414200000E1,5.363999605E-1,1.909999967E0,-1.454399943E0
1.416200000E1,1.314399958E0,1.070099950E0,-1.432899952E0
1.418200000E1,1.997799993E0,6.056999564E-1,-1.214699984E0
1.420200000E1,2.291499853E0,4.922999740E-1,-5.042999983E-1
1.422200156E1,2.250399828E0,7.184999585E-1,1.851999909E-1
1.424201406E1,2.085299969E0,1.000200033E0,1.858000010E-1
1.427204375E1,2.132200003E0,1.254499912E0,-1.608999968E-1
1.430200000E1,1.929799914E0,7.216999531E-1,8.475999832E-1
1.432200000E1,1.687500000E0,3.549999744E-2,2.083999872E0
1.434200000E1,1.906799912E0,-1.693999916E-1,3.054800034E0
1.436200000E1,1.999199986E0,-1.114999950E-1,2.845799923E0
1.438200156E1,1.426399946E0,3.830000013E-2,1.752299905E0
1.441200000E1,1.272199988E0,-3.185999990E-1,3.201999903E0
1.443200156E1,2.136399984E0,-1.331599951E0,3.623499870E0
1.445200156E1,2.422600031E0,-2.186899900E0,1.815799952E0
1.448200000E1,1.094599962E0,-2.535399914E0,1.659999967E0
1.450200000E1,1.119999960E-1,-2.531999826E0,3.066599846E0
1.452200156E1,-1.659999937E-1,-2.893999815E0,3.335500002E0
1.455200000E1,-1.570999920E-1,-3.037299871E0,9.739999771E-1
1.457200000E1,-3.544999957E-1,-2.482599974E0,-7.714999914E-1
1.459200156E1,-7.177000046E-1,-1.648999929E0,-2.194099903E0
1.462200156E1,-1.177299976E0,-6.455000043E-1,-3.429799795E0
1.465200000E1,-1.506399989E0,-5.651999712E-1,-3.260999918E0
1.467200156E1,-1.763799906E0,-5.397999883E-1,-2.779000044E0
1.470200000E1,-1.861599922E0,-5.306999683E-1,-1.876699924E0
1.472200000E1,-1.869099975E0,-6.277999878E-1,-1.585699916E0
1.474201406E1,-1.768499970E0,-7.268999815E-1,-1.287400007E0
1.477200156E1,-1.624599934E0,-1.197399974E0,-3.037999868E-1
1.480200000E1,-1.709199905E0,-1.363600016E0,4.998999834E-1
1.482200156E1,-1.655799985E0,-1.212299943E0,8.352999687E-1
1.485200000E1,-9.801999927E-1,-6.304000020E-1,3.000000026E-3
1.487200000E1,-2.780999839E-1,-1.257999986E-1,-6.042999625E-1
1.489200156E1,4.319999740E-2,1.948999912E-1,-1.436900020E0
1.492200000E1,-5.810999870E-1,2.788999975E-1,9.099999815E-2
1.494200000E1,-5.751999617E-1,1.252999902E-1,2.135999918E0
1.496200156E1,-6.759999692E-2,-7.278999686E-1,2.475899935E0
1.499200000E1,-3.276000023E-1,-2.499399900E0,2.541199923E0
1.501200000E1,-1.003700018E0,-2.544299841E0,4.185100079E0
1.503200156E1,-1.669899940E0,-2.147300005E0,5.203199863E0
1.506200000E1,-1.630599976E0,-1.472399950E0,2.548499823E0
1.508200000E1,-1.462299943E0,-1.088500023E0,6.549999863E-2
1.510200156E1,-1.401499987E0,-6.897999644E-1,-1.648299932E0
1.513200000E1,-1.482899904E0,-4.000999928E-1,-2.735199928E0
1.515200000E1,-1.407400012E0,-5.256999731E-1,-2.990499973E0
1.517200000E1,-1.120700002E0,-8.599999547E-1,-2.708199978E0
1.519200000E1,-8.740999699E-1,-1.282699943E0,-2.370899916E0
1.521200000E1,-6.460999846E-1,-1.691100001E0,-2.065399885E0
1.523200000E1,-2.412999868E-1,-2.028800011E0,-1.565999985E0
1.525200156E1,1.578999907E-1,-2.044800043E0,-1.351099968E0
1.528200156E1,2.682999969E-1,-1.510999918E0,-2.038199902E0
1.531200156E1,-2.246999890E-1,-1.349699974E0,-1.208199978E0
1.534200000E1,9.099999666E-1,-1.648899913E0,1.558099985E0
1.536200000E1,1.544699907E0,-1.581599951E0,1.272599936E0
1.538200156E1,1.489199996E0,-6.014999747E-1,-5.719999969E-2
1.541200000E1,8.502999544E-1,8.923999667E-1,2.809999883E-1
1.543200000E1,7.276999950E-1,1.536799908E0,2.983999848E-1
1.545200156E1,8.762999773E-1,1.506299973E0,4.829999804E-1
1.548200000E1,1.527099967E0,3.831999898E-1,1.877900004E0
1.550200000E1,2.040699959E0,-2.496999949E-1,2.972899914E0
1.552200156E1,2.333499908E0,-6.046000123E-1,3.541299820E0
1.554200156E1,2.412999868E0,-7.031999826E-1,3.109200001E0
1.557200000E1,2.428599834E0,-2.557999790E-1,2.324499846E0
1.559200156E1,2.455999851E0,-3.243999779E-1,1.699899912E0
1.562200156E1,2.715699911E0,-5.277999640E-1,4.278999865E-1
1.565200000E1,2.812299967E0,-7.222999930E-1,-3.725999892E-1
1.567200000E1,2.671399832E0,-7.933999896E-1,-6.548999548E-1
1.569200000E1,2.439499855E0,-9.230999947E-1,-6.719999909E-1
1.571200000E1,2.169699907E0,-1.018899918E0,-6.011999846E-1
1.573200000E1,1.928299904E0,-1.234200001E0,-5.706999898E-1
1.575200156E1,1.658299923E0,-1.433300018E0,-4.043999910E-1
1.578200156E1,1.211399913E0,-1.487100005E0,4.900000058E-3
1.580200156E1,9.933999777E-1,-1.381600022E0,-3.012000024E-1
1.582200156E1,6.491000056E-1,-1.129799962E0,-7.743999958E-1
1.585200000E1,1.309999973E-1,-7.214999795E-1,-8.287000060E-1
1.587200000E1,-2.135999948E-1,-4.553999901E-1,-8.231999874E-1
1.589200156E1,-4.942999780E-1,-3.066999912E-1,-8.853999972E-1
1.592200000E1,-7.501999736E-1,-1.826999933E-1,-6.953999996E-1
1.594200000E1,-9.230999947E-1,-9.059999883E-2,-5.625000000E-1
1.596200156E1,-1.204399943E0,1.788000017E-1,-3.901999891E-1
1.599200000E1,-1.666000009E0,4.178999960E-1,4.178999960E-1
1.601200000E1,-1.827699900E0,3.407999873E-1,1.032699943E0
1.603200156E1,-1.838699937E0,2.626000047E-1,1.070500016E0
1.606200000E1,-1.680699944E0,4.349999875E-2,7.750999928E-1
1.608200000E1,-1.677799940E0,-5.829999968E-2,8.042999506E-1
1.610200156E1,-1.716300011E0,-5.989999697E-2,1.010900021E0
1.613200000E1,-1.612100005E0,-8.919999748E-2,8.962999582E-1
1.615200000E1,-1.479099989E0,-2.329999954E-2,9.389999509E-2
1.617200156E1,-1.330199957E0,9.629999846E-2,-5.906000137E-1
1.620200000E1,-1.145299911E0,2.619000077E-1,-1.147499919E0
1.622200000E1,-9.797999859E-1,1.180000007E-1,-1.509299994E0
1.624201406E1,-8.064999580E-1,-1.384999901E-1,-1.283399940E0
1.627200000E1,-6.245999932E-1,-5.740000010E-1,-6.268000007E-1
1.629200000E1,-5.677999854E-1,-8.294000030E-1,-2.447999865E-1
1.631200000E1,-4.626999795E-1,-9.208999872E-1,9.499999695E-3
1.633200000E1,-3.892000020E-1,-9.905999899E-1,1.757999957E-1
1.635200000E1,-3.161999881E-1,-9.293999672E-1,3.032000065E-1
1.637200000E1,-2.611999810E-1,-8.762999773E-1,3.233999908E-1
1.639200156E1,-2.143999934E-1,-7.841999531E-1,2.751999795E-1
1.642200000E1,-1.884000003E-1,-6.304000020E-1,8.159999549E-2
1.644200000E1,-1.034999937E-1,-6.036999822E-1,-2.379999869E-2
1.646200000E1,2.149999887E-2,-5.518999696E-1,-1.388999969E-1
1.648200000E1,1.297999918E-1,-5.044000149E-1,-3.115999997E-1
1.650200000E1,1.973999888E-1,-5.169000030E-1,-2.879000008E-1
1.652200156E1,2.820999920E-1,-5.791999698E-1,4.160000011E-2
1.655200000E1,5.112999678E-1,-6.265000105E-1,5.238000154E-1
1.657200000E1,6.672999859E-1,-5.753999949E-1,4.617999792E-1
1.659200156E1,7.565000057E-1,-4.619999826E-1,5.364999771E-1
1.661200156E1,8.324999809E-1,-3.804999888E-1,7.301999927E-1
1.664200156E1,1.007699966E0,-2.760999799E-1,7.871999741E-1
1.666200156E1,1.089299917E0,-1.509999931E-1,7.329999804E-1
1.668200156E1,1.169899940E0,-7.149999589E-2,8.158999681E-1
1.671200000E1,1.296700001E0,-1.251000017E-1,9.120000005E-1
1.673200000E1,1.312399983E0,-1.679999977E-1,8.294999599E-1
1.675200000E1,1.297199965E0,-2.836000025E-1,8.141999841E-1
1.677200000E1,1.248999953E0,-3.619999886E-1,7.099999785E-1
1.679200000E1,1.152099967E0,-3.702999949E-1,5.246999860E-1
1.681200000E1,9.922999740E-1,-3.120999932E-1,2.687000036E-1
1.683200000E1,8.499999642E-1,-3.297999799E-1,1.498999894E-1
1.685200000E1,7.619999647E-1,-3.379999995E-1,1.089999974E-1
1.687200000E1,6.782000065E-1,-2.527000010E-1,3.659999743E-2
1.689200156E1,7.357999682E-1,-2.020999938E-1,-1.651999950E-1
1.692200000E1,7.846999764E-1,-5.009999871E-2,-4.799000025E-1
1.694200000E1,7.968999743E-1,1.630000025E-1,-5.938000083E-1
1.696200156E1,8.011999726E-1,3.495000005E-1,-7.731999755E-1
1.699200000E1,8.991000056E-1,6.333999634E-1,-6.730999947E-1
1.701200000E1,1.086300015E0,7.465999722E-1,-4.262999892E-1
1.703200156E1,1.261799932E0,9.204999804E-1,-3.479000032E-1
1.706200000E1,1.618899941E0,8.983999491E-1,-3.795000017E-1
1.708200000E1,1.941899896E0,6.499999762E-1,-1.653999984E-1
1.710200156E1,2.200399876E0,4.080999792E-1,1.176999956E-1
1.713200000E1,2.594199896E0,4.999999655E-4,6.653000116E-1
1.715200000E1,2.832700014E0,-2.179999948E-1,8.799999952E-1
1.717200156E1,2.909199953E0,-2.701999843E-1,7.889999747E-1
1.720200000E1,2.737499952E0,9.569999576E-2,3.303000033E-1
1.722200000E1,2.613800049E0,2.097999901E-1,5.819999799E-2
1.724201406E1,2.448099852E0,1.042999998E-1,-1.254999936E-1
1.727200000E1,1.880199909E0,-3.567999899E-1,3.177999854E-1
1.729200156E1,1.399199963E0,-4.165999889E-1,4.424999952E-1
1.731200156E1,1.029799938E0,-4.463000000E-1,2.136999965E-1
1.734200000E1,7.892000079E-1,-2.851999998E-1,-5.572999716E-1
1.736200000E1,7.076999545E-1,-2.872999907E-1,-1.139899969E0
1.738200156E1,5.379999876E-1,-3.353999853E-1,-1.112800002E0
1.741200000E1,4.460999966E-1,-5.404999852E-1,-4.077000022E-1
1.743200000E1,3.953000009E-1,-6.572999954E-1,-1.330000013E-1
1.745200156E1,3.251999915E-1,-7.369999886E-1,1.712999940E-1
1.748200156E1,1.360999942E-1,-5.570999980E-1,3.281999826E-1
1.750200156E1,-8.590000123E-2,-2.714000046E-1,3.964000046E-1
1.752200156E1,-3.016999960E-1,-1.063999981E-1,5.329999924E-1
1.755200000E1,-4.354999959E-1,-1.762000024E-1,8.851000071E-1
1.757200156E1,-4.777999818E-1,-2.434999943E-1,8.641999960E-1
1.760200156E1,-4.594999850E-1,-2.452999949E-1,6.553999782E-1
1.763200000E1,-4.296000004E-1,-2.114999890E-1,4.166999757E-1
1.765200000E1,-3.307999969E-1,-1.988999993E-1,2.581000030E-1
1.767200156E1,-2.838000059E-1,-2.125999928E-1,7.009999454E-2
1.770200000E1,-4.989999905E-2,-3.851999938E-1,-1.180000007E-1
1.772200000E1,-2.689999901E-2,-4.113999903E-1,-9.899999946E-2
1.774201406E1,-7.899999619E-3,-4.237999916E-1,-8.980000019E-2
1.777200000E1,5.399999674E-3,-4.632999897E-1,-1.102999970E-1
1.779200000E1,2.950000018E-2,-3.245999813E-1,-2.480999976E-1
1.781200000E1,-1.329999976E-2,-1.494999975E-1,-4.644999802E-1
1.783200000E1,-4.050000012E-2,1.209999993E-2,-5.042999983E-1
1.785200000E1,-5.460000038E-2,3.769999743E-2,-4.262000024E-1
1.787200000E1,1.950000040E-2,-2.349999920E-2,-3.280999959E-1
1.789200156E1,8.200000040E-3,-1.490999907E-1,-2.788999975E-1
1.792200000E1,-1.469999999E-1,-1.295000017E-1,-9.219999611E-2
1.794200000E1,-2.010999918E-1,-1.042999998E-1,7.449999452E-2
1.796200000E1,-2.119999975E-1,-2.329999954E-1,3.786000013E-1
1.798200000E1,-2.757000029E-1,-3.087999821E-1,6.534999609E-1
1.800200000E1,-3.971000016E-1,-1.788999885E-1,6.248999834E-1
1.802200156E1,-5.133000016E-1,-8.709999919E-2,5.868999958E-1
1.805200000E1,-6.240999699E-1,1.587999910E-1,1.781999916E-1
1.807200000E1,-6.416000128E-1,3.008999825E-1,-2.111999989E-1
1.809200000E1,-5.356999636E-1,2.861000001E-1,-5.715999603E-1
1.811200000E1,-4.888999760E-1,1.739999950E-1,-7.953000069E-1
1.813200000E1,-5.787999630E-1,9.969999641E-2,-6.372999549E-1
1.815200000E1,-6.467999816E-1,9.039999545E-2,-2.645999789E-1
1.817200156E1,-8.754000068E-1,3.236999810E-1,-4.414999783E-1
1.820200000E1,-9.081999660E-1,5.457000136E-1,-6.487999558E-1
1.822200000E1,-8.291999698E-1,3.653999865E-1,-6.408999562E-1
1.824201406E1,-7.919999957E-1,2.081999928E-1,-1.627999991E-1
1.827200000E1,-6.789000034E-1,-2.310999930E-1,3.933999836E-1
1.829200000E1,-4.926999807E-1,-3.046999872E-1,4.223999977E-1
1.831200000E1,-3.522999883E-1,-4.287999868E-1,5.982999802E-1
1.833200000E1,-3.035999835E-1,-3.824999928E-1,6.567999721E-1
1.835200000E1,-3.528999984E-1,-2.769999802E-1,5.780999660E-1
1.837200000E1,-3.992999792E-1,-5.319999903E-2,5.977999568E-1
1.839200156E1,-3.874999881E-1,1.587999910E-1,3.528999984E-1
1.842200000E1,-3.027999997E-1,3.604999781E-1,-5.829999968E-2
1.844200000E1,-1.631999910E-1,2.971999943E-1,-7.809999585E-2
1.846200156E1,-3.680000082E-2,1.671999991E-1,-1.078999937E-1
1.849200000E1,-9.449999779E-2,1.591999978E-1,-2.657999992E-1
1.851200000E1,-2.034000009E-1,2.078000009E-1,-3.446999788E-1
1.853200156E1,-2.361999899E-1,5.409999937E-2,-8.069999516E-2
1.856200000E1,-2.104000002E-1,-3.452999890E-1,5.256999731E-1
1.858200000E1,-2.894999981E-1,-4.479999840E-1,5.834999681E-1
1.860200156E1,-4.942999780E-1,-4.619999826E-1,6.218999624E-1
1.863200156E1,-8.362999558E-1,-4.714999795E-1,5.126999617E-1
1.865200156E1,-9.517999887E-1,-4.632999897E-1,4.038999975E-1
1.867200156E1,-9.679999948E-1,-4.290999770E-1,1.383000016E-1
1.870200000E1,-1.039600015E0,-3.339999914E-1,-3.035999835E-1
1.872200000E1,-1.213099957E0,-3.100999892E-1,-1.367999911E-1
1.874201406E1,-1.329599977E0,-1.546999961E-1,1.799999969E-3
1.877200000E1,-9.623999596E-1,-5.999999642E-1,4.419999942E-2
1.879200000E1,-6.532999873E-1,-9.394999743E-1,-3.319999948E-2
1.881200156E1,-4.052000046E-1,-9.343999624E-1,2.559999935E-2
1.884200000E1,-4.341000021E-1,-6.890999675E-1,-2.097999901E-1
1.886200000E1,-3.779000044E-1,-6.190999746E-1,-2.486999929E-1
1.888200156E1,-1.479000002E-1,-6.571999788E-1,-1.692999899E-1
1.891200000E1,1.653999984E-1,-6.284999847E-1,-1.178999990E-1
1.893200000E1,4.614000022E-1,-8.886999488E-1,9.030000120E-2
1.895200156E1,6.600999832E-1,-7.024999857E-1,3.599999938E-3
1.898200000E1,8.342999816E-1,-5.202000141E-1,-1.132999957E-1
1.900200000E1,9.677000046E-1,-3.955999911E-1,-1.524000019E-1
1.902200156E1,1.063699961E0,-3.387999833E-1,-1.228000000E-1
1.905200000E1,1.247599959E0,-3.384999931E-1,2.429999970E-2
1.907200000E1,1.312600017E0,-4.072999954E-1,3.775999844E-1
1.909200000E1,1.429099917E0,-4.417999983E-1,6.721999645E-1
1.911200000E1,1.468500018E0,-2.998999953E-1,7.409999967E-1
1.913200000E1,1.384099960E0,-2.410000004E-2,6.524999738E-1
1.915200000E1,1.350299954E0,2.395999879E-1,5.835999846E-1
1.917200000E1,1.389199972E0,3.251000047E-1,3.972999752E-1
1.919200000E1,1.501299977E0,2.845000029E-1,1.424999982E-1
1.921200000E1,1.638000011E0,2.500000000E-1,-1.389999967E-2
1.923200000E1,1.760599971E0,2.802000046E-1,-1.607999951E-1
1.925200000E1,1.871899962E0,2.944000065E-1,-2.782000005E-1
1.927200000E1,2.023299932E0,2.675999999E-1,-2.779999971E-1
1.929200000E1,2.195600033E0,1.867999882E-1,-2.383999974E-1
1.931200000E1,2.291100025E0,1.891999990E-1,-1.692999899E-1
1.933200000E1,2.297499895E0,2.276999950E-1,-6.099999696E-2
1.935200000E1,2.212499857E0,2.908999920E-1,2.628999949E-1
1.937200000E1,2.126800060E0,3.100000024E-1,3.707000017E-1
1.939200156E1,2.019899845E0,2.561999857E-1,3.310999870E-1
1.942200000E1,1.676699996E0,3.576999903E-1,3.208999932E-1
1.944200000E1,1.432799935E0,4.211999774E-1,3.204999864E-1
1.946200000E1,1.359899998E0,2.662000060E-1,1.235999987E-1
1.948200000E1,1.207299948E0,1.472000033E-1,-5.359999835E-2
1.950200000E1,1.049199939E0,6.719999760E-2,-7.389999926E-2
1.952200156E1,1.012499928E0,-1.494999975E-1,-1.539999992E-2
1.955200000E1,7.933999896E-1,-2.113999873E-1,-2.710999846E-1
1.957200000E1,5.749999881E-1,-2.270999998E-1,-2.716999948E-1
1.959200000E1,3.834999800E-1,-3.062999845E-1,-7.559999824E-2
1.961200156E1,1.356000006E-1,-3.562999964E-1,6.159999967E-2
1.964200000E1,-1.641999930E-1,-2.927999794E-1,2.572000027E-1
1.966200000E1,-2.660000026E-1,-2.338999957E-1,1.680999994E-1
1.968200156E1,-4.829999804E-1,2.469999902E-2,8.879999816E-2
1.971200000E1,-6.844999790E-1,2.476999909E-1,8.779999614E-2
1.973200000E1,-8.016999960E-1,4.206999838E-1,8.699999750E-2
1.975200000E1,-7.652999759E-1,5.349999666E-1,-4.129999876E-2
1.977200000E1,-6.046000123E-1,5.701999664E-1,-1.010999978E-1
1.979200000E1,-3.558999896E-1,3.914999962E-1,-5.260000005E-2
1.981200000E1,-9.799999744E-2,1.757999957E-1,1.428999901E-1
1.983200000E1,5.419999734E-2,-2.399999881E-3,2.210000008E-1
1.985200000E1,1.468999982E-1,-6.499999762E-2,1.418000013E-1
1.987200000E1,1.840000004E-1,-1.365000010E-1,1.997999996E-1
1.989200156E1,1.913999915E-1,-1.983999908E-1,2.973999977E-1
1.992200000E1,1.124999970E-1,-2.483999878E-1,3.062999845E-1
1.994200000E1,2.899999963E-3,-2.755999863E-1,2.075999975E-1
1.996200156E1,-7.209999859E-2,-2.839999795E-1,1.873999983E-1
1.998200156E1,-1.779999882E-1,-2.381999940E-1,1.476999968E-1
2.000200156E1,-2.201999873E-1,-1.072999984E-1,-4.869999737E-2
2.002200156E1,-2.989999950E-1,1.640000008E-2,-3.332999945E-1
2.004200156E1,-3.351999819E-1,2.960000001E-2,-3.136000037E-1
2.006200156E1,-2.541999817E-1,1.709999889E-2,-6.830000132E-2
2.009200000E1,-1.164999977E-1,3.429999948E-2,-2.541999817E-1
2.011200156E1,-5.819999799E-2,4.589999840E-2,-2.439999878E-1
2.014200469E1,-2.609999850E-2,8.899999410E-2,1.389999986E-1
2.017200156E1,3.619999811E-2,9.529999644E-2,2.965999842E-1
2.020200000E1,3.703999817E-1,-6.069999933E-2,1.111999974E-1
2.022200000E1,3.543999791E-1,-4.509999976E-2,-8.399999887E-2
2.024201406E1,2.563000023E-1,1.420000009E-2,1.459999941E-2
2.027200156E1,2.388999909E-1,-1.519999932E-2,-3.999999724E-3
2.030200000E1,3.497999907E-1,-7.599999756E-2,-3.948999941E-1
2.032200000E1,2.926000059E-1,-5.570000038E-2,-3.452000022E-1
2.034200000E1,2.285999954E-1,-5.549999699E-2,-1.975999922E-1
2.036200000E1,2.474000007E-1,-1.298999935E-1,-4.030000046E-2
2.038200156E1,3.306999803E-1,-1.963000000E-1,4.800000042E-2
2.041200000E1,3.215999901E-1,-1.216999963E-1,-2.019999921E-2
2.043200156E1,2.764999866E-1,-9.899999946E-3,5.839999765E-2
2.045200156E1,3.330999911E-1,5.899999756E-3,2.545999885E-1
2.047200156E1,4.281999767E-1,1.279999968E-2,4.214999974E-1
2.050200000E1,4.637999833E-1,-5.639999732E-2,4.221999943E-1
2.052200000E1,4.386000037E-1,-1.458999962E-1,6.872000098E-1
2.054200156E1,3.727999926E-1,-1.700000018E-1,7.071999907E-1
2.057200000E1,1.834999919E-1,-3.859999776E-2,5.209999904E-2
2.059200000E1,3.599999845E-2,5.819999799E-2,-4.065999985E-1
2.061200156E1,1.159999985E-2,1.255999953E-1,-7.570999861E-1
2.064200000E1,2.717999816E-1,-4.669999704E-2,-1.020300031E0
2.066200000E1,4.166999757E-1,-1.101999953E-1,-9.317999482E-1
2.068200156E1,4.019999802E-1,-1.263999939E-1,-7.452999949E-1
2.071200000E1,5.399000049E-1,-2.559999935E-2,-7.526999712E-1
2.073200000E1,9.473999739E-1,-1.869999915E-1,-4.075999856E-1
2.075200156E1,1.419799924E0,-4.267999828E-1,-2.782999873E-1
2.078200000E1,2.007900000E0,-7.985000014E-1,6.780000031E-2
2.080200000E1,2.057499886E0,-8.295999765E-1,1.490999907E-1
2.082200156E1,1.889999986E0,-9.983999729E-1,-9.269999713E-2
2.085200000E1,7.795000076E-1,-6.922999620E-1,4.391999841E-1
2.087200000E1,3.312999904E-1,-6.362000108E-1,8.996999860E-1
2.089200000E1,2.265999913E-1,-8.003000021E-1,7.716000080E-1
2.091200000E1,1.565999985E-1,-9.247999787E-1,5.551999807E-1
2.093200000E1,-4.789999872E-2,-8.555999994E-1,7.203999758E-1
2.095200156E1,-2.221999913E-1,-6.609999537E-1,1.051100016E0
2.097200156E1,-1.796000004E-1,-3.775999844E-1,1.497499943E0
2.099200156E1,-2.449999936E-2,-1.973999888E-1,1.198699951E0
2.101200156E1,7.559999824E-2,5.999999866E-2,7.928000093E-1
2.103200156E1,1.685999930E-1,2.694999874E-1,7.013999820E-1
2.106200000E1,1.942999959E-1,2.383999974E-1,5.597000122E-1
2.108200000E1,2.707000077E-1,3.043999970E-1,3.710999787E-1
2.110200156E1,2.377000004E-1,2.951000035E-1,-1.201999933E-1
2.113200000E1,-7.605999708E-1,6.899999827E-2,4.769999906E-2
2.115200000E1,-8.369999528E-1,-4.356999993E-1,1.069499969E0
2.117200156E1,-8.399999887E-2,-1.015900016E0,1.083500028E0
2.120200000E1,5.878999829E-1,-1.570799947E0,-1.633700013E0
2.122200000E1,-1.590999961E-1,-1.230599999E0,-2.178699970E0
2.124201406E1,-1.144899964E0,-6.205999851E-1,-9.720000029E-1
2.127200000E1,-1.501199961E0,-7.029999793E-2,-2.374999970E-1
2.129200000E1,-1.195799947E0,-3.384000063E-1,-6.387000084E-1
2.131200156E1,-1.133800030E0,-4.880999923E-1,-2.465999871E-1
2.134200000E1,-1.297099948E0,-5.354999900E-1,1.162699938E0
2.136200000E1,-1.386899948E0,-4.389999807E-1,1.848399997E0
2.138200156E1,-1.300199986E0,-3.118999898E-1,1.653699994E0
2.140200156E1,-1.072399974E0,-1.296999902E-1,6.577999592E-1
2.142200156E1,-8.539999723E-1,2.369999886E-2,2.510000020E-2
2.145200156E1,-7.545999885E-1,-1.318999976E-1,-3.326999843E-1
2.148200156E1,-6.053000093E-1,-4.796999991E-1,-6.340000033E-1
2.151200000E1,-3.811999857E-1,-9.630999565E-1,-9.246999621E-1
2.153200156E1,-1.043999940E-1,-1.200899959E0,-9.812999964E-1
2.156200000E1,-1.578999907E-1,-1.356299996E0,-1.107599974E0
2.158200000E1,-3.935999870E-1,-1.455099940E0,-5.604999661E-1
2.160200156E1,-2.872999907E-1,-1.579299927E0,4.351999760E-1
2.163200000E1,1.301999986E-1,-1.789299965E0,3.982999921E-1
2.165200000E1,2.786000073E-1,-1.886399984E0,4.903999865E-1
2.167200156E1,3.639999926E-1,-1.617599964E0,9.842000008E-1
2.170200000E1,1.966999918E-1,-6.627999544E-1,3.807999790E-1
2.172200000E1,4.690000042E-2,-2.859999985E-2,-3.562999964E-1
2.174201406E1,1.194999963E-1,4.053999782E-1,-2.696999907E-1
2.177200000E1,5.320999622E-1,8.068999648E-1,-6.331999898E-1
2.179200000E1,9.238999486E-1,9.147999883E-1,-1.484699965E0
2.181200156E1,1.283399940E0,8.693999648E-1,-1.630399942E0
2.184200000E1,1.228899956E0,4.045999944E-1,-8.466999531E-1
2.186200000E1,9.409999847E-1,4.769999906E-2,1.019999981E-1
2.188200156E1,7.482999563E-1,-3.174999952E-1,8.938999772E-1
2.190200156E1,8.395999670E-1,-6.541999578E-1,2.195699930E0
2.193200156E1,1.235800028E0,-1.084999919E0,2.880199909E0
2.195200156E1,1.262599945E0,-7.066000104E-1,1.879699945E0
2.198200000E1,7.888999581E-1,2.890999913E-1,3.314999938E-1
2.200200000E1,4.970999956E-1,6.349999905E-1,-2.465000004E-1
2.202200000E1,3.781999946E-1,6.978999972E-1,-4.723999798E-1
2.204200000E1,3.425000012E-1,4.451999962E-1,-1.300999969E-1
2.206200000E1,2.818999887E-1,2.514999807E-1,1.928000003E-1
2.208200000E1,3.024999797E-1,9.730000049E-2,3.886999786E-1
2.210200156E1,2.696999907E-1,-4.360000044E-2,3.592999876E-1
2.213200000E1,7.549999654E-2,2.290000021E-2,1.930999905E-1
2.215200000E1,1.088999957E-1,4.429999739E-2,1.055999994E-1
2.217200156E1,2.043999881E-1,7.189999521E-2,-3.734999895E-1
2.220200000E1,3.260000050E-2,2.870999873E-1,-5.483999848E-1
2.222200000E1,-7.069999725E-2,3.073999882E-1,-1.853999943E-1
2.224201406E1,5.649999902E-2,-7.989999652E-2,2.160999924E-1
2.227200000E1,5.248000026E-1,-4.820999801E-1,4.901999831E-1
2.229200000E1,5.274999738E-1,-4.936999977E-1,3.921999931E-1
2.231200156E1,2.212999910E-1,-3.553999960E-1,4.411999881E-1
2.234200000E1,-4.419999942E-2,-4.425999820E-1,7.156999707E-1
2.236200000E1,1.561999917E-1,-8.104000092E-1,6.182000041E-1
2.238200156E1,5.576999784E-1,-1.195899963E0,9.019999951E-2
2.240200156E1,7.466999888E-1,-1.288499951E0,-6.916999817E-1
2.243200000E1,4.554999769E-1,-8.169999719E-1,-1.765799999E0
2.245200156E1,-5.099999718E-3,-3.051999807E-1,-1.842899919E0
2.248200000E1,-6.955999732E-1,-9.839999676E-2,-1.079499960E0
2.250200000E1,-1.035400033E0,-2.151999921E-1,-3.867000043E-1
2.252200000E1,-9.136999846E-1,-4.921000004E-1,1.488000005E-1
2.254200156E1,-7.310000062E-1,-5.978999734E-1,8.522999883E-1
2.257200000E1,-5.780999660E-1,-7.459999919E-1,1.401000023E0
2.259200000E1,-6.972999573E-1,-4.095999897E-1,8.120999932E-1
2.261200156E1,-8.928999901E-1,-5.009999871E-2,7.100000046E-3
2.264200000E1,-9.515999556E-1,2.796999812E-1,-6.129999831E-2
2.266200000E1,-1.049700022E0,3.106999993E-1,-3.253999949E-1
2.268200156E1,-1.024500012E0,1.987999976E-1,-4.816999733E-1
2.271200156E1,-8.454999924E-1,5.379999802E-2,-5.013999939E-1
2.274201406E1,-6.268000007E-1,-2.712999880E-1,1.740999967E-1
2.277200156E1,-4.078999758E-1,-3.475999832E-1,4.769999981E-1
2.280200156E1,-1.826999933E-1,-4.663999975E-1,5.842999816E-1
2.282200156E1,-1.539999992E-1,-3.917999864E-1,4.958999753E-1
2.284200156E1,-1.674999893E-1,-2.483000010E-1,3.391000032E-1
2.286200156E1,-7.419999689E-2,-1.022999957E-1,4.519999772E-2
2.288200156E1,3.619999811E-2,-3.879999742E-2,-1.700000018E-1
2.290200156E1,6.729999930E-2,-6.799999624E-3,-2.383999974E-1
2.293200156E1,1.551999897E-1,8.399999700E-3,-1.304000020E-1
2.295200156E1,2.211999893E-1,-6.269999593E-2,-1.596999913E-1
2.297200156E1,2.969000041E-1,-1.089999974E-1,-6.179999933E-2
2.300200000E1,3.725999892E-1,-2.222999930E-1,2.709999979E-1
2.302200000E1,4.546999931E-1,-2.276999950E-1,3.199000061E-1
2.304200000E1,5.006999969E-1,-2.602999806E-1,2.807999849E-1
2.306200000E1,4.783999920E-1,-2.356999964E-1,3.594999909E-1
2.308200000E1,5.202000141E-1,-1.655000001E-1,2.910999954E-1
2.310200000E1,4.807999730E-1,-1.756999940E-1,2.620999813E-1
2.312200000E1,5.309000015E-1,-1.215000004E-1,1.939999908E-1
2.314200000E1,5.159000158E-1,-1.410999894E-1,1.261999905E-1
2.316200000E1,4.741999805E-1,-1.048000008E-1,2.154999971E-1
2.318200000E1,4.465000033E-1,-7.609999925E-2,8.889999986E-2
2.320200000E1,4.519999921E-1,-3.979999945E-2,-5.709999800E-2
2.322200000E1,5.250999928E-1,-9.879999608E-2,-8.559999615E-2
2.324201406E1,5.491999984E-1,-1.673000008E-1,-2.316999882E-1
2.327200000E1,5.457999706E-1,-2.263000011E-1,-1.228000000E-1
2.329200000E1,5.637999773E-1,-2.836999893E-1,-4.389999807E-2
2.331200156E1,5.798000097E-1,-3.197000027E-1,-8.280000091E-2
2.334200000E1,5.828999877E-1,-2.991999984E-1,-1.999999881E-1
2.336200000E1,5.715999603E-1,-2.911999822E-1,-2.292999923E-1
2.338200156E1,5.734999776E-1,-3.003000021E-1,-2.096999884E-1
2.340200156E1,5.640999675E-1,-3.285000026E-1,-6.260000169E-2
2.343200000E1,4.269999862E-1,-2.540999949E-1,1.136000007E-1
2.345200000E1,4.201000035E-1,-2.636999786E-1,2.307000011E-1
2.347200156E1,5.223999619E-1,-3.648999929E-1,2.303999960E-1
2.350200000E1,4.452999830E-1,-2.080999911E-1,2.892999947E-1
2.352200000E1,3.790999949E-1,-9.019999951E-2,2.892999947E-1
2.354200156E1,3.567999899E-1,-5.499999970E-2,7.379999757E-2
2.357200000E1,3.953000009E-1,-7.339999825E-2,-4.100000020E-3
2.359200000E1,4.551999867E-1,-1.433999985E-1,5.469999835E-2
2.361200156E1,4.747999907E-1,-2.138999999E-1,3.519999981E-2
2.364200000E1,5.005999804E-1,-2.240999937E-1,-1.370000001E-2
2.366200000E1,4.772999883E-1,-2.707999945E-1,1.539999992E-2
2.368200156E1,4.760999978E-1,-3.556999862E-1,1.328999996E-1
2.371200156E1,4.414999783E-1,-3.243999779E-1,4.449999705E-2
2.374201406E1,3.137999773E-1,-1.935999990E-1,-7.329999655E-2
2.377200000E1,2.076999992E-1,-1.693999916E-1,-6.379999965E-2
2.379200000E1,1.724999994E-1,-2.689000070E-1,7.299999893E-2
2.381200000E1,1.828999966E-1,-3.161000013E-1,1.606999934E-1
2.383200000E1,1.635999978E-1,-3.355000019E-1,1.699000001E-1
2.385200000E1,1.237999946E-1,-2.874999940E-1,1.498999894E-1
2.387200156E1,1.041999981E-1,-2.291999906E-1,1.493999958E-1
2.390200000E1,4.549999908E-2,-1.411999911E-1,1.169999968E-2
2.392200000E1,7.699999958E-3,-1.785999984E-1,1.189999953E-1
2.394200000E1,2.239999920E-2,-2.836000025E-1,2.458999902E-1
2.396200156E1,-6.599999964E-3,-3.723999858E-1,3.337999880E-1
2.399200000E1,-8.919999748E-2,-3.005999923E-1,2.456000000E-1
2.401200000E1,-1.306999922E-1,-1.675999910E-1,7.909999788E-2
2.403200156E1,-1.662999988E-1,-9.569999576E-2,-1.851999909E-1
2.406200000E1,-1.013000011E-1,-1.762000024E-1,-1.555999964E-1
2.408200000E1,-1.187999994E-1,-1.902999878E-1,-3.819999844E-2
2.410200000E1,-4.580000043E-2,-2.221999913E-1,-1.268000007E-1
2.412200000E1,1.021999940E-1,-3.105999827E-1,-6.849999726E-2
2.414200000E1,6.639999896E-2,-2.775999904E-1,1.072999984E-1
2.416200000E1,-3.500000015E-2,-2.056999952E-1,3.321999907E-1
2.418200156E1,5.020000041E-2,-2.144999951E-1,4.788999856E-1
2.421200000E1,1.257999986E-1,-8.659999818E-2,2.924999893E-1
2.423200000E1,-8.069999516E-2,-1.794999987E-1,5.963999629E-1
2.425204375E1,-1.080999970E-1,-4.738999903E-1,1.018100023E0
2.428200000E1,-4.891999960E-1,-3.594999909E-1,2.088500023E0
2.430200000E1,-5.564999580E-1,4.600000102E-3,1.022199988E0
2.432200156E1,-5.177999735E-1,2.851999998E-1,-4.443999827E-1
2.435200000E1,-4.305999875E-1,4.406999946E-1,-1.291100025E0
2.437200000E1,-1.909999996E-1,1.911999881E-1,-1.669499993E0
2.439200156E1,1.223999932E-1,-2.343999892E-1,-1.697299957E0
2.442200000E1,5.174999833E-1,-6.503999829E-1,-1.196900010E0
2.444200000E1,6.186000109E-1,-7.343999743E-1,-5.128999949E-1
2.446200156E1,6.550999880E-1,-8.549000025E-1,2.683999836E-1
2.449200000E1,8.392999768E-1,-9.333999753E-1,9.318999648E-1
2.451200000E1,7.673999667E-1,-7.638999820E-1,9.896000028E-1
2.453200156E1,4.779999852E-1,-5.178999901E-1,9.204999804E-1
2.456200000E1,5.049999803E-2,2.279999852E-2,8.529999852E-1
2.458200000E1,-2.631999850E-1,2.402999997E-1,5.701000094E-1
2.460200000E1,-3.978999853E-1,3.242999911E-1,3.070999980E-1
2.462200000E1,-2.666999996E-1,3.064000010E-1,-1.027999967E-1
2.464200000E1,-9.119999409E-2,2.506999969E-1,-7.671999931E-1
2.466200000E1,1.950000040E-2,1.550000012E-1,-1.293999910E0
2.468200000E1,1.277000010E-1,1.714999974E-1,-1.419499993E0
2.470200000E1,2.714999914E-1,9.659999609E-2,-1.135200024E0
2.472200000E1,5.225999951E-1,-8.359999955E-2,-8.725000024E-1
2.474201406E1,6.796999574E-1,-3.015999794E-1,-5.327999592E-1
2.477200000E1,7.005000114E-1,-6.265999675E-1,4.505999982E-1
2.479200000E1,7.471999526E-1,-8.639999628E-1,1.005900025E0
2.481200156E1,7.348999977E-1,-9.372999668E-1,1.346400023E0
2.483200156E1,5.159999728E-1,-6.877999902E-1,1.325299978E0
2.485200156E1,1.814000010E-1,-3.095999956E-1,1.187299967E0
2.488200156E1,-1.050999984E-1,1.776999980E-1,4.032999873E-1
2.490201875E1,-1.056999937E-1,3.088999987E-1,-1.938000023E-1
2.493200000E1,4.600000102E-3,3.395999968E-1,-7.705000043E-1
2.495200000E1,5.549999699E-2,2.440999895E-1,-8.387999535E-1
2.497200000E1,1.005999967E-1,4.429999739E-2,-7.015999556E-1
2.499200000E1,1.287000030E-1,-1.474999934E-1,-3.588999808E-1
2.501200000E1,1.066999957E-1,-3.368999958E-1,2.249999903E-2
2.503200000E1,1.120999977E-1,-4.077999890E-1,2.760999799E-1
2.505200000E1,3.909999877E-2,-3.182999790E-1,4.118999839E-1
2.507200000E1,-6.309999526E-2,-1.594000012E-1,5.185999870E-1
2.509200000E1,-1.770000011E-1,-3.830000013E-2,5.080000162E-1
2.511200000E1,-2.228000015E-1,7.509999722E-2,3.799999952E-1
2.513200000E1,-2.513999939E-1,1.322999895E-1,2.522999942E-1
2.515200000E1,-1.985999942E-1,8.509999514E-2,4.639999941E-2
2.517200000E1,-3.179999813E-2,-3.070000000E-2,-2.280999869E-1
2.519200000E1,8.529999852E-2,-1.111999974E-1,-4.145999849E-1
2.521200000E1,9.250000119E-2,-1.632999927E-1,-2.383999974E-1
2.523200000E1,8.179999888E-2,-1.905999929E-1,-9.189999849E-2
2.525200156E1,1.779999882E-1,-2.736999989E-1,5.449999869E-2
2.528200000E1,2.694000006E-1,-3.032999933E-1,1.224999949E-1
2.530200000E1,1.903999895E-1,-2.127999961E-1,2.201000005E-1
2.532200000E1,1.109999940E-1,-9.399999678E-2,3.177999854E-1
2.534200000E1,1.439999938E-1,-1.840000041E-2,2.586999834E-1
2.536200000E1,2.402999997E-1,-3.399999812E-2,4.289999977E-2
2.538200156E1,2.606000006E-1,-1.150000002E-2,-5.509999767E-2
2.541200000E1,2.617999911E-1,-1.096000001E-1,1.210999936E-1
2.543200000E1,4.393000007E-1,-2.703000009E-1,2.386000007E-1
2.545200156E1,4.672999978E-1,-2.875999808E-1,1.700000018E-1
2.547200156E1,3.775999844E-1,-1.685999930E-1,1.896999925E-1
2.550200000E1,5.523999929E-1,-3.323999941E-1,4.348999858E-1
2.552200000E1,7.224000096E-1,-4.470999837E-1,3.860999942E-1
2.554200156E1,5.943999887E-1,-3.066000044E-1,2.395000011E-1
2.556200469E1,4.368000031E-1,-1.133999974E-1,3.477999866E-1
2.559200000E1,6.141999960E-1,-1.139999926E-2,-1.114999950E-1
2.561200156E1,7.788999677E-1,-1.233999953E-1,-4.045999944E-1
2.564200000E1,8.828999996E-1,-3.634999990E-1,-3.348999918E-1
2.566200000E1,9.476999640E-1,-3.984999955E-1,-2.458999902E-1
2.568200000E1,1.006099939E0,-3.878999949E-1,-3.725000024E-1
2.570200000E1,9.603999853E-1,-2.047999948E-1,-7.834999561E-1
2.572200000E1,8.138999939E-1,-3.280000016E-2,-6.557999849E-1
2.574201406E1,7.597999573E-1,9.099999443E-3,-3.915999830E-1
2.577200000E1,5.548999906E-1,8.479999751E-2,-2.456999868E-1
2.579200000E1,4.963999987E-1,6.740000099E-2,1.356000006E-1
2.581200156E1,4.892999828E-1,1.129999943E-2,3.795000017E-1
2.584200000E1,5.522999763E-1,-6.039999798E-2,6.333999634E-1
2.586200000E1,5.842999816E-1,-1.145999953E-1,7.506999969E-1
2.588200156E1,5.454999804E-1,-1.589999944E-1,7.113999724E-1
2.591200000E1,6.715999842E-1,-2.680999935E-1,5.450999737E-1
2.593200156E1,8.064999580E-1,-3.847999871E-1,2.418999970E-1
2.595200156E1,8.528999686E-1,-3.810999990E-1,-2.474999875E-1
2.597200156E1,8.123999834E-1,-4.068999887E-1,-4.917999804E-1
2.599200156E1,7.174999714E-1,-4.429999888E-1,-3.445000052E-1
2.602200000E1,6.085000038E-1,-5.694000125E-1,2.789999917E-2
2.604200156E1,6.554999948E-1,-7.202000022E-1,5.719999969E-2
2.607200156E1,7.444999814E-1,-9.407999516E-1,2.138999999E-1
2.610200156E1,5.575999618E-1,-7.511000037E-1,3.115999997E-1
2.613200000E1,3.218999803E-1,-4.399999976E-1,1.546999961E-1
2.615200000E1,3.237999976E-1,-3.664000034E-1,2.035999894E-1
2.617200156E1,3.237999976E-1,-3.735999763E-1,3.797000051E-1
2.620200000E1,1.972000003E-1,-2.725999951E-1,5.655999780E-1
2.622200000E1,2.375999987E-1,-2.150999904E-1,5.166000128E-1
2.624201562E1,2.751999795E-1,-1.914999932E-1,3.989999890E-1
2.627200000E1,3.283999860E-1,-1.125999987E-1,1.837999970E-1
2.629200000E1,4.482999742E-1,-1.105000004E-1,-2.272000015E-1
2.631200000E1,6.132000089E-1,-1.389999986E-1,-5.110999942E-1
2.633200000E1,7.602999806E-1,-2.225999981E-1,-5.011999607E-1
2.635200000E1,8.829999566E-1,-2.061000019E-1,-6.387000084E-1
2.637200000E1,9.656999707E-1,-6.639999896E-2,-8.154000044E-1
2.639200156E1,1.165599942E0,7.719999552E-2,-9.136999846E-1
2.642200000E1,1.435999990E0,5.219999701E-2,-1.003000021E0
2.644200000E1,1.536899924E0,-7.699999958E-3,-7.495999932E-1
2.646200156E1,1.611899972E0,-1.319999993E-1,-1.429999918E-1
2.649200000E1,1.744399905E0,-1.010999978E-1,5.023999810E-1
2.651200000E1,1.647199988E0,-2.654999793E-1,5.019999743E-1
2.653200156E1,1.704699993E0,-1.495999992E-1,6.881999969E-1
2.656200000E1,1.716599941E0,-2.839999795E-1,1.011600018E0
2.658200000E1,1.540199995E0,-1.369999945E-1,1.236999989E0
2.660200156E1,1.375000000E0,4.773999751E-1,7.170000076E-1
2.662200156E1,8.601999879E-1,7.171999812E-1,9.999999311E-4
2.665200000E1,7.919999957E-2,1.043999940E-1,1.531299949E0
2.667200156E1,5.253999829E-1,-5.471999645E-1,2.178900003E0
2.670200000E1,9.633999467E-1,-7.168999910E-1,-1.257999986E-1
2.672200000E1,6.268999577E-1,-4.254999757E-1,-1.478199959E0
2.674201406E1,2.939999849E-2,-1.109999940E-1,-1.672999978E0
2.677200000E1,-6.219999790E-1,-1.473999918E-1,-4.570999742E-1
2.679200000E1,-5.401999950E-1,-7.730999589E-1,1.307999939E-1
2.681200156E1,-1.851999909E-1,-1.197000027E0,6.211000085E-1
2.683200156E1,1.882999986E-1,-1.486699939E0,6.408999562E-1
2.686200000E1,1.105999947E-1,-1.228699923E0,-3.509999812E-2
2.688200000E1,-5.138999820E-1,-5.584999919E-1,-3.780999780E-1
2.690200000E1,-9.434999824E-1,-1.727000028E-1,-4.075999856E-1
2.692200000E1,-9.478999972E-1,-3.430999815E-1,-3.098999858E-1
2.694200000E1,-8.060999513E-1,-8.264999986E-1,-5.590000004E-2
2.696200156E1,-6.829999685E-1,-1.008599997E0,2.667999864E-1
2.699200000E1,-5.591999888E-1,-1.163299918E0,3.445000052E-1
2.701200000E1,-5.277000070E-1,-1.096799970E0,-2.850000001E-2
2.703200156E1,-6.258999705E-1,-9.215999842E-1,-4.308999777E-1
2.706200000E1,-8.865999579E-1,-5.426999927E-1,-8.235999942E-1
2.708200000E1,-9.601999521E-1,-3.157999814E-1,-9.217000008E-1
2.710200156E1,-8.210999966E-1,-1.472999901E-1,-8.037999868E-1
2.713200000E1,-4.596999884E-1,-1.017999947E-1,-7.240999937E-1
2.715200000E1,-2.255999893E-1,-3.299999982E-3,-6.442999840E-1
2.717200156E1,-1.999999955E-2,1.330000013E-1,-5.345000029E-1
2.720200156E1,1.474999934E-1,2.029999942E-1,-2.759000063E-1
2.723200156E1,2.981999815E-1,9.200000018E-2,-8.419999480E-2
2.725200156E1,2.671000063E-1,7.719999552E-2,1.550000012E-1
2.728200000E1,1.468999982E-1,2.063999921E-1,5.141000152E-1
2.730200000E1,-3.839999810E-2,3.980999887E-1,6.949999928E-1
2.732200156E1,-1.791999936E-1,5.180999637E-1,7.770999670E-1
2.735200000E1,-4.976999760E-1,5.189999938E-1,6.133999825E-1
2.737200000E1,-7.991999984E-1,5.662999749E-1,4.667999744E-1
2.739200000E1,-1.036899924E0,5.751000047E-1,4.960999787E-1
2.741200000E1,-1.120899916E0,4.672999978E-1,6.128999591E-1
2.743200156E1,-1.155499935E0,3.972999752E-1,5.327000022E-1
2.746200156E1,-1.279799938E0,4.940999746E-1,4.902999997E-1
2.749200000E1,-1.376799941E0,8.511999846E-1,3.883000016E-1
2.751200000E1,-1.599299908E0,9.979999661E-1,3.868999779E-1
2.753200156E1,-2.026599884E0,5.008999705E-1,8.781999946E-1
2.756200469E1,-1.372599959E0,-5.478999615E-1,2.616699934E0
2.759200000E1,-5.216000080E-1,-1.715499997E0,1.516099930E0
2.761200000E1,-1.038900018E0,-1.617399931E0,9.327999949E-1
2.763200000E1,-1.945699930E0,-1.274399996E0,1.174299955E0
2.765200000E1,-2.582900047E0,-1.270200014E0,1.161999941E0
2.767200156E1,-2.522599936E0,-1.078199983E0,8.066999912E-1
2.770200000E1,-1.300699949E0,-1.631799936E0,-1.305199981E0
2.772200000E1,-5.591999888E-1,-1.994599938E0,-2.562999964E0
2.774201406E1,-3.896999955E-1,-2.161200047E0,-3.712499857E0
2.777200000E1,-1.563899994E0,-2.029299974E0,-3.136899948E0
2.779200000E1,-2.799000025E0,-2.310400009E0,-1.322899938E0
2.781200156E1,-3.274199963E0,-3.091099977E0,6.708999872E-1
2.784200000E1,-1.622599959E0,-4.831399918E0,4.024199963E0
2.786200000E1,3.159999847E-2,-5.301300049E0,3.794299841E0
2.788200000E1,8.087999821E-1,-4.358099937E0,1.372499943E0
2.790200156E1,5.259999633E-1,-2.641599894E0,1.449999958E-1
2.793200000E1,1.287999898E-1,-1.492999911E0,-5.417000055E-1
2.795200000E1,4.514999986E-1,-1.860899925E0,-9.606999755E-1
2.797200156E1,1.004500031E0,-2.602499962E0,-1.161599994E0
2.800200000E1,1.377300024E0,-2.920500040E0,-1.153100014E0
2.802200156E1,1.233399987E0,-3.054100037E0,-8.924999833E-1
2.804200156E1,8.478999734E-1,-3.129099846E0,-8.097999692E-1
2.807200000E1,4.924999774E-1,-3.474599838E0,-2.169999927E-1
2.809200000E1,5.685999990E-1,-3.798799992E0,1.271999925E-1
2.811200156E1,9.946999550E-1,-4.004199982E0,-1.393999904E-1
2.814200000E1,1.020799994E0,-3.449999809E0,-1.178200006E0
2.816200000E1,8.028999567E-1,-3.309700012E0,-4.788999856E-1
2.818200156E1,8.890999556E-1,-3.439999819E0,1.131999940E-1
2.821200000E1,1.250999928E0,-3.842199802E0,2.714000046E-1
2.823200000E1,1.449699998E0,-3.696499825E0,4.632999897E-1
2.825200156E1,1.616400003E0,-3.042399883E0,-6.969999522E-2
2.828200000E1,9.203999639E-1,-2.006199837E0,-7.484999895E-1
2.830200000E1,4.285999835E-1,-1.597099900E0,-2.748000026E-1
2.832200000E1,-1.809999906E-2,-1.298499942E0,1.553999931E-1
2.834200000E1,-2.379999906E-1,-1.245800018E0,1.127999946E-1
2.836200000E1,-3.057999909E-1,-1.484699965E0,1.692000031E-1
2.838200000E1,-1.675999910E-1,-1.513199925E0,8.174999952E-1
2.840200156E1,3.655000031E-1,-1.405200005E0,1.934299946E0
2.843200000E1,9.264999628E-1,-7.493000031E-1,2.052299976E0
2.845200000E1,5.691999793E-1,8.370000124E-2,1.568699956E0
2.847200156E1,1.799999923E-1,8.125000000E-1,9.332000017E-1
2.850200156E1,5.179999769E-2,1.242900014E0,3.240000010E-1
2.853200156E1,2.908999920E-1,1.251299977E0,-1.533000022E-1
2.856200000E1,4.608999789E-1,1.314599991E0,-2.382999957E-1
2.858200000E1,4.523999989E-1,1.364099979E0,-2.617000043E-1
2.860200156E1,3.744999766E-1,1.319999933E0,-2.345999926E-1
2.863200000E1,2.976000011E-1,8.264999986E-1,1.467999965E-1
2.865200000E1,2.705999911E-1,4.775999784E-1,2.545999885E-1
2.867200156E1,1.929999888E-1,1.793999970E-1,4.997999966E-1
2.870200000E1,3.030999899E-1,-2.307999879E-1,6.538999677E-1
2.872200156E1,3.551000059E-1,-4.566999972E-1,4.323999882E-1
2.874201406E1,1.992999911E-1,-3.962999880E-1,-2.759999968E-2
2.877200000E1,-9.479999542E-2,4.424999952E-1,-3.847000003E-1
2.879200000E1,-2.773000002E-1,9.615999460E-1,-1.088099957E0
2.881200156E1,-5.169000030E-1,6.234999895E-1,-7.317999601E-1
2.883200156E1,-1.086999997E-1,-3.454000056E-1,8.301999569E-1
2.886200000E1,1.644599915E0,-1.216599941E0,1.367200017E0
2.888200000E1,2.291499853E0,-8.050999641E-1,-7.511000037E-1
2.890200156E1,1.837099910E0,1.680999994E-1,-2.407799959E0
2.893200000E1,3.916999996E-1,1.713999987E0,-1.921999931E0
2.895200000E1,1.180000007E-1,1.794099927E0,-2.714000046E-1
2.897200156E1,7.677999735E-1,1.246199965E0,1.078799963E0
2.900200000E1,2.818599939E0,-1.850000024E-2,7.536000013E-1
2.902200000E1,3.621699810E0,-5.081999898E-1,4.138999879E-1
2.904200156E1,3.773699999E0,-5.575999618E-1,2.592000067E-1
2.907200000E1,2.584699869E0,-8.999999613E-3,7.903999686E-1
2.909200000E1,1.834399939E0,3.337999880E-1,8.392999768E-1
2.911200156E1,1.564199924E0,3.714999855E-1,6.615999937E-1
2.914200000E1,1.932500005E0,3.003999889E-1,3.447999954E-1
2.916200000E1,2.050799847E0,3.272999823E-1,-1.973999888E-1
2.918200000E1,1.869099975E0,6.990999579E-1,-5.040000081E-1
2.920200156E1,1.204399943E0,8.172000051E-1,-2.400999963E-1
2.922200156E1,8.094999790E-1,6.459000111E-1,7.806999683E-1
2.924205781E1,9.639999866E-1,2.289000005E-1,1.105199933E0
2.927200000E1,1.080399990E0,-6.161999702E-1,7.315999866E-1
2.929200000E1,7.150999904E-1,-7.695999742E-1,1.221499920E0
2.931200000E1,3.168999851E-1,-6.761999726E-1,1.406799912E0
2.933200000E1,-7.289999723E-2,-3.109999895E-1,1.198599935E0
2.935200000E1,-1.618999988E-1,1.171000004E-1,1.361999959E-1
2.937200000E1,-2.440999895E-1,5.101999640E-1,-8.568999767E-1
2.939200156E1,-2.081999928E-1,9.386000037E-1,-1.485000014E0
2.942200000E1,-3.388999999E-1,1.220700026E0,-2.033799887E0
2.944200000E1,-3.847000003E-1,9.711999893E-1,-1.847399950E0
2.946200156E1,-3.810999990E-1,5.731999874E-1,-1.269500017E0
2.949200000E1,-3.879999816E-1,-1.903999895E-1,-3.449999914E-2
2.951200000E1,-4.984999895E-1,-4.107999802E-1,6.423999667E-1
2.953200156E1,-5.468999743E-1,-5.164999962E-1,1.222000003E0
2.956200469E1,-3.346000016E-1,-5.503000021E-1,1.556199908E0
2.959200000E1,-2.694000006E-1,-1.585000008E-1,4.269999862E-1
2.961200156E1,-4.501999915E-1,2.160999924E-1,-7.449999452E-2
2.964200000E1,-4.818999767E-1,4.371999800E-1,-4.976999760E-1
2.966200000E1,-4.037999809E-1,4.095999897E-1,-7.143999934E-1
2.968200156E1,-4.271999896E-1,3.140999973E-1,-6.561999917E-1
2.971200000E1,-4.503999949E-1,1.041999981E-1,-1.869999990E-2
2.973200000E1,-3.789999783E-1,-3.059999831E-2,2.561999857E-1
2.975200156E1,-2.193000019E-1,-1.696999967E-1,4.526000023E-1
2.978200000E1,2.549999952E-2,-1.425999999E-1,3.251000047E-1
2.980200000E1,6.610000134E-2,-1.559999958E-2,-4.769999906E-2
2.982200156E1,4.289999977E-2,1.118000001E-1,-1.264999956E-1
2.985200000E1,2.349999920E-2,6.229999661E-2,1.009999961E-2
2.987200000E1,1.693999916E-1,-1.254999936E-1,1.078999937E-1
2.989200156E1,2.320999950E-1,-2.140999883E-1,1.371999979E-1
2.992200000E1,1.983999908E-1,-1.693999916E-1,1.368999928E-1
2.994200000E1,1.882999986E-1,-7.699999958E-2,9.200000204E-3
2.996200156E1,1.856999993E-1,-3.189999983E-2,-6.920000166E-2
2.999200000E1,2.504999936E-1,-2.419999987E-2,-1.084999964E-1
3.001200000E1,2.383999974E-1,1.209999993E-2,-2.653999925E-1
3.003200156E1,1.894000024E-1,8.169999719E-2,-2.457999885E-1
3.006200000E1,1.633999944E-1,6.250000000E-2,-9.839999676E-2
3.008200156E1,1.586000025E-1,3.319999948E-2,9.699999355E-3
3.010200156E1,1.944999993E-1,3.570000082E-2,1.669999957E-1
3.013200000E1,2.160999924E-1,2.369999886E-2,2.263000011E-1
3.015200000E1,2.110999972E-1,1.899999916E-3,1.186999977E-1
3.017200156E1,1.594000012E-1,3.289999813E-2,1.779000014E-1
3.020200000E1,1.712999940E-1,5.699999630E-3,1.977999955E-1
3.022200000E1,2.276999950E-1,-4.869999737E-2,4.099999741E-2
3.024201406E1,2.008000016E-1,-6.459999830E-2,6.059999764E-2
3.027200000E1,1.092999950E-1,2.019999921E-2,-7.899999619E-3
3.029200000E1,1.692999899E-1,-3.089999966E-2,-2.730000019E-2
3.031200000E1,1.841000021E-1,-6.520000100E-2,-4.679999873E-2
3.033200000E1,1.421999931E-1,3.790000081E-2,6.109999865E-2
3.035200000E1,1.265999973E-1,6.489999592E-2,1.397999972E-1
3.037200000E1,1.147999987E-1,1.631999910E-1,1.009999961E-1
3.039200156E1,9.079999477E-2,2.272000015E-1,7.180000097E-2
3.042200156E1,1.655000001E-1,1.290999949E-1,2.782000005E-1
3.045200000E1,2.442999929E-1,7.919999957E-2,2.981999815E-1
3.047200156E1,2.665999830E-1,8.020000160E-2,3.080999851E-1
3.050200000E1,2.198999971E-1,5.859999731E-2,3.276000023E-1
3.052200000E1,2.370999902E-1,-8.150000125E-2,2.293999940E-1
3.054200156E1,3.014999926E-1,-8.689999580E-2,1.309999973E-1
3.057200000E1,2.493999898E-1,-7.559999824E-2,2.600000007E-3
3.059200000E1,1.662999988E-1,-2.489999868E-2,-6.629999727E-2
3.061200156E1,1.119999960E-1,-2.109999955E-2,2.159999870E-2
3.064200000E1,1.294000000E-1,-6.979999691E-2,7.009999454E-2
3.066200000E1,1.141999960E-1,-3.669999912E-2,1.482999921E-1
3.068200000E1,8.469999582E-2,3.779999912E-2,1.579999924E-1
3.070200000E1,8.630000055E-2,1.103999987E-1,1.675999910E-1
3.072200000E1,1.679999977E-1,1.543999910E-1,9.829999506E-2
3.074201406E1,2.372999936E-1,1.772999913E-1,-1.375999898E-1
3.077200000E1,1.335999966E-1,2.333000004E-1,-1.775999963E-1
3.079200000E1,1.124999970E-1,1.440999955E-1,2.779999934E-2
3.081200000E1,2.004999965E-1,-5.469999835E-2,9.600000083E-2
3.083200000E1,2.951000035E-1,-1.171999946E-1,5.629999936E-2
3.085200000E1,2.651999891E-1,-5.439999700E-2,-2.249999903E-2
3.087200000E1,2.540999949E-1,3.830000013E-2,-9.149999917E-2
3.089200156E1,2.293999940E-1,1.032999977E-1,-1.017000005E-1
3.092200000E1,1.438999921E-1,1.375000030E-1,-1.216999963E-1
3.094200000E1,2.263000011E-1,-5.009999871E-2,7.440000027E-2
3.096200156E1,3.211999834E-1,-1.686999947E-1,1.920999885E-1
3.099200000E1,1.912999898E-1,-2.045999914E-1,3.519999981E-2
3.101200000E1,3.599999938E-3,-1.066999957E-1,6.480000168E-2
3.103200156E1,-3.219999745E-2,-1.819999963E-1,2.414999902E-1
3.106200000E1,1.997999996E-1,-3.156999946E-1,1.579999924E-2
3.108200000E1,1.056999937E-1,-2.471999973E-1,-3.373000026E-1
3.110200000E1,-1.446999907E-1,-3.379999846E-2,-3.568999767E-1
3.112200000E1,-1.932999939E-1,7.889999449E-2,-1.703999937E-1
3.114200000E1,-1.220999956E-1,6.199999712E-3,-1.996999979E-1
3.116200000E1,-1.008000001E-1,-3.370000049E-2,-8.179999888E-2
3.118200000E1,-1.111999974E-1,4.109999910E-2,2.127999961E-1
3.120200000E1,-8.799999952E-2,7.499999553E-2,1.643999964E-1
3.122200156E1,-6.509999931E-2,1.310999990E-1,2.740000002E-2
3.124201406E1,-4.199999850E-3,1.325999945E-1,9.669999778E-2
3.127200000E1,1.532000005E-1,-6.699999794E-3,2.053999901E-1
3.129200000E1,2.144999951E-1,-5.739999935E-2,1.568000019E-1
3.131200000E1,2.570999861E-1,-1.019999981E-1,6.889999658E-2
3.133200000E1,2.585999966E-1,-1.280999929E-1,-6.799999624E-2
3.135200000E1,2.622999847E-1,-1.429999918E-1,-7.750000060E-2
3.137200000E1,2.469999939E-1,-1.152999997E-1,-9.659999609E-2
3.139200156E1,2.148000002E-1,-9.749999642E-2,-3.739999980E-2
3.142200156E1,1.394999921E-1,-1.436000019E-1,3.163999915E-1
3.145200000E1,9.999999776E-3,-1.935999990E-1,5.131999850E-1
3.147200156E1,-1.184000000E-1,-1.589999944E-1,4.937999845E-1
3.150200000E1,-2.454999983E-1,1.300000004E-3,3.499999875E-3
3.152200000E1,-3.667999804E-1,3.409999982E-2,-2.319999933E-1
3.154200000E1,-4.157999754E-1,5.339999869E-2,-3.005999923E-1
3.156200469E1,-4.503999949E-1,-1.569999941E-2,-2.708999813E-1
3.159200000E1,-4.655999839E-1,8.899999782E-3,-2.894999981E-1
3.161200000E1,-3.175999820E-1,-9.609999508E-2,3.529999778E-2
3.163200000E1,-2.132999897E-1,-7.800000161E-2,2.129999995E-1
3.165200000E1,-2.060000002E-1,3.489999846E-2,3.315999806E-1
3.167200000E1,-1.886999905E-1,1.636999995E-1,4.795999825E-1
3.169200000E1,-1.059999987E-1,2.636999786E-1,3.231000006E-1
3.171200000E1,-1.349999942E-2,3.182999790E-1,1.368999928E-1
3.173200000E1,9.070000052E-2,2.462999970E-1,1.860999912E-1
3.175200156E1,1.479000002E-1,1.359999925E-1,2.549000084E-1
3.178200000E1,3.008999825E-1,-4.789999872E-2,1.665000021E-1
3.180200000E1,3.761999905E-1,-1.177999973E-1,9.399999864E-3
3.182200156E1,3.317999840E-1,-1.460999995E-1,-6.899999827E-2
3.185200000E1,2.917000055E-1,-1.176999956E-1,-1.960000023E-2
3.187200000E1,2.166999876E-1,-1.204999983E-1,-2.899999917E-2
3.189200000E1,7.949999720E-2,-4.179999977E-2,9.899999946E-2
3.191200000E1,1.399999950E-3,1.189999934E-2,2.078000009E-1
3.193200000E1,-2.129999921E-2,3.329999745E-2,1.987999976E-1
3.195200000E1,2.159999870E-2,4.910000041E-2,4.239999875E-2
3.197200000E1,-4.809999838E-2,1.694999933E-1,-1.435000002E-1
3.199200000E1,-1.871999949E-1,2.716000080E-1,-1.430999935E-1
3.201200000E1,-2.111999989E-1,2.996999919E-1,-3.439999744E-2
3.203200156E1,-1.401000023E-1,2.395000011E-1,2.520000003E-2
3.206200000E1,3.249999881E-2,1.736999899E-1,3.629999980E-2
3.208200000E1,1.248999983E-1,1.445999891E-1,5.689999834E-2
3.210200156E1,1.758999974E-1,1.341999918E-1,5.779999867E-2
3.213200000E1,2.425999939E-1,1.999999955E-2,5.909999833E-2
3.215200000E1,3.125000000E-1,-6.870000064E-2,1.973999888E-1
3.217200000E1,3.955999911E-1,-1.402999908E-1,3.060999811E-1
3.219200000E1,4.343999922E-1,-4.239999875E-2,2.081999928E-1
3.221200000E1,4.208000004E-1,7.209999859E-2,3.159999847E-2
3.223200000E1,3.781999946E-1,2.257999927E-1,-1.740000024E-2
3.225200000E1,2.626000047E-1,3.710999787E-1,4.149999842E-2
3.227200000E1,2.509000003E-1,3.718000054E-1,9.079999477E-2
3.229200000E1,4.271000028E-1,1.876999885E-1,1.893000007E-1
3.231200000E1,5.450999737E-1,7.909999788E-2,1.895999908E-1
3.233200000E1,4.482999742E-1,1.544999927E-1,1.209999993E-1
3.235200000E1,3.678999841E-1,1.955000013E-1,2.586999834E-1
3.237200000E1,4.479999840E-1,1.467999965E-1,2.884999812E-1
3.239200156E1,5.913999677E-1,1.459999941E-2,1.902999878E-1
3.241200156E1,6.183999777E-1,-1.209999993E-2,8.209999651E-2
3.244200156E1,4.587999880E-1,6.790000200E-2,9.160000086E-2
3.246200156E1,4.800999761E-1,1.026000008E-1,3.249999881E-2
3.249200000E1,5.383999944E-1,5.559999868E-2,-1.150999963E-1
3.251200000E1,4.715999961E-1,-4.900000058E-3,3.179999813E-2
3.253200156E1,4.605000019E-1,1.620000042E-2,9.070000052E-2
3.256200000E1,4.435999990E-1,-1.279999968E-2,3.170000017E-2
3.258200000E1,3.420999944E-1,3.649999946E-2,1.001999974E-1
3.260200156E1,3.086999953E-1,5.749999732E-2,1.884000003E-1
3.263200000E1,3.163000047E-1,-1.189999934E-2,1.488000005E-1
3.265200000E1,2.547000051E-1,4.399999976E-3,2.060000040E-2
3.267200156E1,1.599999964E-1,6.049999967E-2,1.280999929E-1
3.270200000E1,1.322000027E-1,3.249999881E-2,1.076999977E-1
3.272200000E1,1.528999954E-1,8.439999819E-2,8.799999952E-3
3.274201406E1,7.609999925E-2,1.379999965E-1,3.769999743E-2
3.277200000E1,6.509999931E-2,2.210000008E-1,8.599999547E-2
3.279200000E1,1.790999919E-1,1.574999988E-1,1.052000001E-1
3.281200000E1,2.667999864E-1,9.929999709E-2,9.479999542E-2
3.283200156E1,3.558000028E-1,3.940000013E-2,2.539999969E-2
3.286200000E1,4.314000010E-1,7.559999824E-2,-1.224999949E-1
3.288200000E1,5.304999948E-1,1.369999945E-1,-4.449999705E-2
3.290200000E1,6.256999969E-1,7.949999720E-2,-3.509999812E-2
3.292200000E1,7.687999606E-1,-1.769999973E-2,-3.549999744E-2
3.294200000E1,8.342999816E-1,1.289999951E-2,-2.599999867E-2
3.296200000E1,7.200999856E-1,2.769999951E-2,6.219999865E-2
3.298200000E1,6.211000085E-1,-7.819999754E-2,5.139999986E-1
3.300200000E1,7.371000051E-1,-2.976999879E-1,1.074299932E0
3.302200000E1,6.861999631E-1,-6.035000086E-1,1.153599977E0
3.304200156E1,4.528999925E-1,-5.633000135E-1,1.153900027E0
3.307200000E1,8.159999549E-2,1.111999974E-1,1.142400026E0
3.309200156E1,-4.789999872E-2,4.025000036E-1,2.470999956E-1
3.311200156E1,-8.479999751E-2,6.193999648E-1,-5.110999942E-1
3.314200000E1,-1.685999930E-1,8.192999959E-1,-9.843999743E-1
3.316200000E1,-1.884000003E-1,7.810999751E-1,-8.473999500E-1
3.318200156E1,-5.379999802E-2,5.232999921E-1,-6.212999821E-1
3.321200000E1,2.703000009E-1,-7.859999686E-2,-1.882999986E-1
3.323200000E1,5.702999830E-1,-3.458999991E-1,-2.763999999E-1
3.325200000E1,6.841999888E-1,-2.586999834E-1,-9.344999790E-1
3.327200000E1,7.091999650E-1,-1.367999911E-1,-1.288399935E0
3.329200000E1,6.643999815E-1,-9.299999475E-2,-1.209499955E0
3.331200000E1,6.746999621E-1,-2.672999799E-1,-7.073999643E-1
3.333200156E1,6.369000077E-1,-3.489999771E-1,-2.436999977E-1
3.336200000E1,4.660999775E-1,-2.469999939E-1,5.655999780E-1
3.338200000E1,3.553999960E-1,5.699999630E-3,7.754999995E-1
3.340200000E1,2.284999937E-1,2.497999966E-1,5.715999603E-1
3.342200000E1,1.160999984E-1,4.470999837E-1,3.965999782E-1
3.344200000E1,-7.199999876E-3,5.717999935E-1,3.782999814E-1
3.346200156E1,-1.395999938E-1,6.660999656E-1,3.788999915E-1
3.349200000E1,-1.109999940E-1,1.066100001E0,-1.903999895E-1
3.351200000E1,-8.069999516E-2,1.314099908E0,-8.664000034E-1
3.353200156E1,-1.979999989E-2,1.344799995E0,-6.072999835E-1
3.356200000E1,5.442999601E-1,6.978999972E-1,6.469999552E-1
3.358200000E1,1.033499956E0,3.413999975E-1,6.229000092E-1
3.360200156E1,1.287799954E0,7.079999894E-2,5.097000003E-1
3.362200156E1,1.364300013E0,8.799999952E-3,6.213999987E-1
3.365200000E1,1.471399903E0,6.000000052E-3,4.970999956E-1
3.367200156E1,1.533199906E0,8.540000021E-2,-1.987999976E-1
3.369200156E1,1.575299978E0,9.690000117E-2,-5.616999865E-1
3.372200000E1,1.629999995E0,-9.929999709E-2,-4.732999802E-1
3.374201406E1,1.651199937E0,-5.245000124E-1,-1.006999984E-1
3.377200000E1,1.231599927E0,-8.316999674E-1,7.931999564E-1
3.379200000E1,9.575999975E-1,-1.186800003E0,1.441599965E0
3.381200000E1,8.876000047E-1,-1.330199957E0,1.892399907E0
3.383200156E1,1.012499928E0,-1.604099989E0,1.633999944E0
3.386200000E1,6.359999776E-1,-1.321200013E0,1.641999930E-1
3.388200000E1,7.599999662E-3,-8.025999665E-1,-3.115999997E-1
3.390200156E1,-4.924999774E-1,-4.987999797E-1,-6.965999603E-1
3.393200000E1,-8.768999577E-1,-5.170999765E-1,-8.628000021E-1
3.395200000E1,-8.701999784E-1,-8.671000004E-1,-7.324000001E-1
3.397200156E1,-1.002300024E0,-1.169799924E0,-3.441999853E-1
3.400200000E1,-1.331699967E0,-1.344999909E0,8.549999446E-2
3.402200000E1,-1.662499905E0,-1.331399918E0,1.983999908E-1
3.404200156E1,-1.889499903E0,-1.227900028E0,2.506999969E-1
3.407200000E1,-2.268599987E0,-9.141999483E-1,4.470000044E-2
3.409200000E1,-2.535199881E0,-6.779999733E-1,-1.353999972E-1
3.411200156E1,-2.778699875E0,-5.324999690E-1,-3.366000056E-1
3.414200000E1,-2.710899830E0,-3.076999784E-1,-4.821999967E-1
3.416200000E1,-2.441999912E0,-4.397999942E-1,-4.011999965E-1
3.418200156E1,-2.184900045E0,-6.074000001E-1,-2.709999979E-1
3.421200000E1,-2.115000010E0,-6.575999856E-1,6.319999695E-2
3.423204375E1,-1.875199914E0,-6.376999617E-1,3.242000043E-1
3.426200000E1,-1.144400001E0,-6.951999664E-1,-2.075999975E-1
3.428200000E1,-6.857999563E-1,-7.109000087E-1,-7.182999849E-1
3.430200000E1,-3.055000007E-1,-5.799999833E-1,-9.936999679E-1
3.432200000E1,-2.026000023E-1,-5.762999654E-1,-1.278699994E0
3.434200000E1,-4.826999903E-1,-8.460999727E-1,-5.526999831E-1
3.436200000E1,-6.211000085E-1,-1.333799958E0,1.225199938E0
3.438200000E1,-7.199999690E-2,-1.741299987E0,2.720999956E0
3.440200156E1,6.484999657E-1,-1.835099936E0,2.361399889E0
3.442200156E1,8.553999662E-1,-1.040899992E0,1.547999978E-1
3.445200000E1,3.826999962E-1,4.619999826E-1,-1.660300016E0
3.447200156E1,1.645999998E-1,1.085500002E0,-1.932500005E0
3.450200000E1,6.528999805E-1,1.144999981E0,-1.690400004E0
3.452200000E1,1.064000010E0,5.615999699E-1,-1.213999987E0
3.454200156E1,1.231699944E0,-1.613999903E-1,-8.499999531E-3
3.457200000E1,1.143999934E0,-7.888999581E-1,1.884999990E0
3.459200000E1,1.445299983E0,-8.919999599E-1,2.611099958E0
3.461200156E1,1.833400011E0,-8.242999911E-1,1.694399953E0
3.464200000E1,1.493999958E0,-2.254000008E-1,-5.169999972E-2
3.466200000E1,1.094200015E0,6.509999931E-2,4.700999856E-1
3.468200156E1,1.029799938E0,-3.179999813E-2,1.100700021E0
3.471200000E1,1.499400020E0,-2.689000070E-1,6.704999804E-1
3.473200000E1,1.409299970E0,-4.649999738E-2,3.258000016E-1
3.475200156E1,9.868999720E-1,3.481999934E-1,3.728999794E-1
3.478200000E1,4.846999943E-1,5.572999716E-1,4.375000000E-1
3.480200000E1,2.854000032E-1,3.765999973E-1,5.625000000E-1
3.482200156E1,1.851999909E-1,1.317999959E-1,1.000399947E0
3.485200000E1,-3.539999947E-2,-3.382999897E-1,1.197000027E0
3.487200000E1,-2.671000063E-1,-4.091999829E-1,1.010399938E0
3.489200156E1,-4.862999916E-1,-2.565000057E-1,6.401999593E-1
3.492200000E1,-6.622999907E-1,1.589999907E-2,-2.050999999E-1
3.494200000E1,-6.211999655E-1,2.255999893E-1,-7.106999755E-1
3.496200156E1,-4.662999809E-1,4.046999812E-1,-1.087100029E0
3.499200000E1,-5.949999765E-2,4.535999894E-1,-1.373899937E0
3.501200000E1,3.158999979E-1,3.576999903E-1,-1.236199975E0
3.503200156E1,6.189000010E-1,1.230999976E-1,-8.236999512E-1
3.506200000E1,8.955000043E-1,-2.487999946E-1,-3.321999907E-1
3.508200000E1,9.896999598E-1,-5.175999999E-1,6.059999764E-2
3.510200156E1,1.065799952E0,-6.775999665E-1,3.946000040E-1
3.512200156E1,1.033800006E0,-7.271999717E-1,5.418999791E-1
3.515200469E1,9.652999640E-1,-7.433999777E-1,5.708999634E-1
3.518200000E1,9.636999965E-1,-5.877000093E-1,3.540000021E-1
3.520200000E1,8.765999675E-1,-3.947999775E-1,2.909999900E-2
3.522200000E1,7.766000032E-1,-2.150999904E-1,-1.871999949E-1
3.524201406E1,7.443000078E-1,-1.999999881E-1,-6.939999759E-2
3.527200000E1,9.442999959E-1,-4.594999850E-1,2.733999789E-1
3.529200000E1,1.040899992E0,-6.140999794E-1,1.058999971E-1
3.531200000E1,9.260999560E-1,-6.162999868E-1,2.620000020E-2
3.533200156E1,7.123999596E-1,-4.499000013E-1,7.299999893E-2
3.536200000E1,5.476999879E-1,-3.605999947E-1,-2.529000044E-1
3.538200000E1,5.419999957E-1,-5.011999607E-1,-2.351999879E-1
3.540200156E1,5.753999949E-1,-6.431999803E-1,-1.499999911E-1
3.543200000E1,5.236999989E-1,-7.249000072E-1,-1.152999997E-1
3.545200000E1,4.168999791E-1,-7.757999897E-1,-2.080000006E-2
3.547200156E1,4.109999835E-1,-8.129000068E-1,1.720999926E-1
3.550200000E1,4.287000000E-1,-7.136999965E-1,4.089999944E-2
3.552200000E1,3.937000036E-1,-4.814999998E-1,-1.475999951E-1
3.554200156E1,3.910999894E-1,-1.244999990E-1,-2.669000030E-1
3.557200000E1,6.614999771E-1,3.579999804E-1,-9.537999630E-1
3.559200000E1,1.019699931E0,4.657999873E-1,-1.423699975E0
3.561200156E1,1.070699930E0,3.078999817E-1,-1.235899925E0
3.564200000E1,5.879999995E-1,-1.069999933E0,1.545599937E0
3.566200000E1,1.426800013E0,-1.456900001E0,2.739500046E0
3.568200156E1,2.335999966E0,-2.020200014E0,1.481499910E0
3.571200000E1,2.131700039E0,-1.116400003E0,-2.103800058E0
3.573200000E1,1.323400021E0,-6.349999905E-1,-2.251699924E0
3.575200156E1,5.724999905E-1,-2.199999988E-1,-1.350899935E0
3.578200000E1,-1.182099938E0,4.875999987E-1,7.858999968E-1
3.580200000E1,-9.508999586E-1,9.052000046E-1,6.008999944E-1
3.582200156E1,1.299999934E-2,1.252000034E-1,-2.692999840E-1
3.585200000E1,3.829999864E-1,-8.756999969E-1,3.517999947E-1
3.587200000E1,-1.526999921E-1,-6.969999671E-1,1.620199919E0
3.589200156E1,-4.263999760E-1,-4.180999994E-1,2.231699944E0
3.592200000E1,-1.268000007E-1,6.960000098E-2,7.250999808E-1
3.594200000E1,2.374999970E-1,1.967999935E-1,-6.087999940E-1
3.596200156E1,3.220999837E-1,3.330999911E-1,-1.325199962E0
3.599200000E1,-3.736999929E-1,1.038100004E0,-1.107200027E0
3.601200000E1,-6.011999846E-1,1.196900010E0,-9.562999606E-1
3.603200000E1,-6.622999907E-1,1.120599985E0,-9.918999672E-1
3.605200156E1,-4.573999941E-1,8.180999756E-1,-6.335999966E-1
3.608200000E1,-1.105999947E-1,1.704999954E-1,-1.352999955E-1
3.610200000E1,-2.275999933E-1,-2.329999954E-2,1.736999899E-1
3.612200000E1,-3.876000047E-1,-2.989999950E-2,5.206999779E-1
3.614200000E1,-4.242999852E-1,7.189999521E-2,8.077999949E-1
3.616200000E1,-5.160999894E-1,3.392999768E-1,6.430999637E-1
3.618200156E1,-6.126999855E-1,5.601999760E-1,4.483999908E-1
3.621200000E1,-6.444000006E-1,8.499999642E-1,4.775999784E-1
3.623200000E1,-7.128999829E-1,1.082299948E0,3.590999842E-1
3.625200156E1,-8.860999942E-1,1.258000016E0,3.096999824E-1
3.628200000E1,-1.066299915E0,1.384299994E0,6.635000110E-1
3.630200000E1,-1.072399974E0,1.272699952E0,8.211999536E-1
3.632200156E1,-1.001399994E0,1.316499949E0,7.633000016E-1
3.635200000E1,-6.692000031E-1,1.181800008E0,5.587999821E-1
3.637200000E1,-5.090000033E-1,1.242399931E0,2.551999986E-1
3.639200000E1,-4.144999981E-1,1.239699960E0,1.381999999E-1
3.641200156E1,-4.028999805E-1,1.291899920E0,2.870999873E-1
3.643200156E1,-5.493999720E-1,1.352499962E0,3.583999872E-1
3.646200156E1,-8.787999749E-1,5.370999575E-1,1.033699989E0
3.649200000E1,-8.159999549E-2,-6.506999731E-1,2.191200018E0
3.651200000E1,5.758999586E-1,-1.371399999E0,2.300499916E0
3.653200156E1,4.629999995E-1,-1.439399958E0,1.615799904E0
3.655200156E1,-3.143999875E-1,-6.693999767E-1,1.142400026E0
3.658200000E1,-1.055099964E0,4.212999940E-1,7.728999853E-1
3.660200156E1,-4.927999973E-1,6.525999904E-1,-9.080999494E-1
3.662200156E1,4.215999842E-1,5.306999683E-1,-2.399999857E0
3.665200000E1,1.275900006E0,3.807999790E-1,-3.592700005E0
3.667200000E1,1.018999934E0,1.983999908E-1,-3.542299986E0
3.669200156E1,2.138999999E-1,-3.814999759E-1,-1.339299917E0
3.672200000E1,8.799999952E-2,-1.268700004E0,1.432399988E0
3.674201406E1,7.856000066E-1,-2.290899992E0,3.463299990E0
3.677200000E1,1.878799915E0,-2.831499815E0,1.876799941E0
3.679200000E1,1.718499899E0,-1.999399900E0,3.328999877E-1
3.681200000E1,1.022699952E0,-7.810999751E-1,-6.729999781E-1
3.683200156E1,5.070999861E-1,1.437999904E-1,-1.785399914E0
3.686200000E1,-1.626999974E-1,1.018599987E0,-2.858299971E0
3.688200000E1,-3.301999867E-1,1.030499935E0,-2.828199863E0
3.690200000E1,-3.346999884E-1,8.044999838E-1,-2.108599901E0
3.692200000E1,-1.498999894E-1,5.551999807E-1,-1.493799925E0
3.694200000E1,2.719999850E-2,4.323000014E-1,-1.033299923E0
3.696200156E1,2.219999954E-2,5.171999931E-1,-6.685000062E-1
3.699200156E1,-2.379999869E-2,5.724999905E-1,2.960000001E-2
3.702200000E1,-4.199999850E-3,5.437999964E-1,8.102999926E-1
3.704200156E1,-8.329999447E-2,3.814999759E-1,1.523999929E0
3.707200000E1,1.909999922E-2,5.145999789E-1,2.795599937E0
3.709200000E1,-1.204999983E-1,4.628999829E-1,2.371700048E0
3.711200156E1,-3.337000012E-1,3.059999943E-1,2.229699850E0
3.714200000E1,2.565999925E-1,-2.863999903E-1,2.670399904E0
3.716200000E1,6.322999597E-1,-9.296999574E-1,2.014799833E0
3.718200000E1,2.404999882E-1,-1.407999992E0,2.015799999E0
3.720200000E1,-3.619999886E-1,-1.415300012E0,2.952499866E0
3.722200000E1,-5.942999721E-1,-1.312299967E0,2.142699957E0
3.724201406E1,-6.466000080E-1,-1.165300012E0,-2.017000020E-1
3.727200000E1,-1.559099913E0,-1.482499957E0,-2.246099949E0
3.729200000E1,-2.294299841E0,-1.743899941E0,-1.293299913E0
3.731200000E1,-2.404799938E0,-2.275099993E0,8.161999583E-1
3.733200000E1,-1.573499918E0,-2.654799938E0,1.593899965E0
3.735200000E1,-6.789999604E-1,-2.819200039E0,9.364999533E-1
3.737200000E1,-3.968999982E-1,-1.859399915E0,-1.024699926E0
3.739200156E1,-6.328999996E-1,-7.644999623E-1,-2.004099846E0
3.742200000E1,-7.802000046E-1,5.900000036E-2,-2.348000050E0
3.744200000E1,-4.915999770E-1,1.278000027E-1,-2.369199991E0
3.746200000E1,-2.019999921E-1,-1.099999994E-2,-2.299700022E0
3.748200000E1,3.059999831E-2,-3.929999843E-2,-2.032000065E0
3.750200000E1,2.254000008E-1,-7.299999706E-3,-1.763399959E0
3.752200000E1,4.386000037E-1,-9.599999525E-3,-1.620599985E0
3.754200156E1,4.748999774E-1,5.590000004E-2,-1.536700010E0
3.757200000E1,3.838000000E-1,2.242999971E-1,-9.206999540E-1
3.759200000E1,3.170999885E-1,6.431999803E-1,-9.357999563E-1
3.761200156E1,2.398999929E-1,1.022499919E0,-1.166000009E0
3.764200000E1,3.553999960E-1,8.983999491E-1,-5.388999581E-1
3.766200000E1,7.708999515E-1,7.160999775E-1,2.529999912E-1
3.768200156E1,1.137399912E0,5.455999970E-1,5.932999849E-1
3.771200000E1,1.028900027E0,3.985999823E-1,7.986999750E-1
3.773200000E1,8.206999898E-1,4.590999782E-1,1.385999918E0
3.775200156E1,7.032999992E-1,4.251999855E-1,1.845499992E0
3.778200000E1,3.955000043E-1,3.102000058E-1,2.263399839E0
3.780200000E1,4.709999859E-1,1.429999992E-2,2.599599838E0
3.782200156E1,8.078999519E-1,-4.315999746E-1,3.041800022E0
3.785200000E1,1.287799954E0,-1.144799948E0,2.395699978E0
3.787200156E1,1.101499915E0,-7.578999996E-1,1.170400023E0
3.789200156E1,8.460999727E-1,-2.769999802E-1,-8.709999919E-2
3.792200000E1,1.072000027E0,3.483999968E-1,-2.502499819E0
3.794200000E1,1.262699962E0,2.410999984E-1,-3.761899948E0
3.796200156E1,1.099099994E0,-1.615999937E-1,-3.106199980E0
3.799200000E1,7.802000046E-1,-1.725799918E0,6.419000030E-1
3.801200000E1,1.116500020E0,-2.907899857E0,3.253299952E0
3.803200156E1,1.621500015E0,-3.521299839E0,4.362699986E0
3.805200156E1,1.933099985E0,-3.578999996E0,2.765799999E0
3.808200000E1,1.115399957E0,-1.686100006E0,-1.729999930E-1
3.810200000E1,5.374000072E-1,-5.613999963E-1,-1.545599937E0
3.812200000E1,1.817999929E-1,4.636999965E-1,-2.896399975E0
3.814200000E1,-5.729999766E-2,8.204999566E-1,-3.676699877E0
3.816200000E1,-1.612999886E-1,8.727999926E-1,-3.523000002E0
3.818200000E1,-1.071999967E-1,6.586999893E-1,-2.308399916E0
3.820200000E1,2.144999951E-1,3.703999817E-1,-1.080999970E0
3.822200156E1,5.338000059E-1,2.874999940E-1,-4.404999912E-1
3.824201406E1,7.048999667E-1,3.676999807E-1,-3.384999931E-1
3.827200000E1,8.155999780E-1,6.244999766E-1,4.369999841E-2
3.829200000E1,9.731999636E-1,6.297999620E-1,4.438999891E-1
3.831200000E1,1.044399977E0,4.857999980E-1,7.567999959E-1
3.833200156E1,1.187399983E0,2.284999937E-1,1.715999961E0
3.836200000E1,1.448499918E0,7.599999662E-3,2.643800020E0
3.838200000E1,1.659299970E0,7.249999791E-2,2.290799856E0
3.840200156E1,1.825799942E0,7.902999520E-1,9.524999857E-1
3.843200000E1,1.312399983E0,1.501999974E0,-4.179999828E-1
3.845200000E1,1.022999957E-1,4.736999869E-1,8.102999926E-1
3.847200156E1,2.279999852E-2,-1.033800006E0,3.771399975E0
3.850200000E1,2.518800020E0,-2.966099977E0,4.866399765E0
3.852200000E1,3.581099987E0,-3.253999949E0,8.682999611E-1
3.854200156E1,3.085700035E0,-2.563499928E0,-2.638599873E0
3.857200000E1,1.271099925E0,-5.001999736E-1,-3.661399841E0
3.859200000E1,5.040000081E-1,2.687999904E-1,-1.996799946E0
3.861200000E1,6.886000037E-1,3.595999777E-1,-5.938000083E-1
3.863200000E1,1.899399996E0,-8.183000088E-1,-5.924999714E-1
3.865200000E1,3.052399874E0,-1.683799982E0,-6.290000081E-1
3.867200000E1,3.474099874E0,-2.259299994E0,3.281999826E-1
3.869200000E1,3.253899813E0,-2.436800003E0,1.393800020E0
3.871200000E1,2.614899874E0,-1.663999915E0,1.005100012E0
3.873200000E1,2.134399891E0,-1.042799950E0,-5.354999900E-1
3.875200000E1,1.866899967E0,-7.554999590E-1,-1.438799977E0
3.877200000E1,1.837199926E0,-7.084999681E-1,-1.633999944E0
3.879200000E1,1.875599980E0,-1.023299932E0,-1.523299932E0
3.881200000E1,1.765999913E0,-1.366500020E0,-1.439899921E0
3.883200156E1,1.526199937E0,-1.682500005E0,-1.307600021E0
3.886200156E1,1.108299971E0,-1.949299932E0,-5.709999800E-1
3.889200156E1,9.309999943E-1,-2.282799959E0,5.040000007E-2
3.892200000E1,8.424999714E-1,-2.460299969E0,2.364999950E-1
3.894200000E1,5.983999968E-1,-2.333699942E0,-4.799999762E-3
3.896200156E1,3.666999936E-1,-2.111899853E0,-2.773000002E-1
3.898200156E1,2.542999983E-1,-1.990199924E0,-4.722999930E-1
3.901200000E1,4.858999848E-1,-2.047499895E0,-7.071999907E-1
3.903200156E1,7.511999607E-1,-2.121299982E0,-7.256999612E-1
3.905200156E1,1.042799950E0,-2.087699890E0,-7.329999804E-1
3.908200000E1,9.301999807E-1,-1.886799932E0,-9.884999990E-1
3.910200000E1,4.397999942E-1,-2.052199841E0,2.563999891E-1
3.912200000E1,8.525999784E-1,-2.538899899E0,2.402199984E0
3.914200000E1,1.369300008E0,-2.709899902E0,3.993699789E0
3.916200000E1,1.834800005E0,-2.583899975E0,2.304399967E0
3.918200000E1,1.714199901E0,-1.721099973E0,-1.973000020E-1
3.920200000E1,1.331900001E0,-7.156999707E-1,-1.229900002E0
3.922204219E1,1.317699909E0,-6.129999831E-2,-1.523399949E0
3.925200156E1,1.607899904E0,2.875999808E-1,-2.176300049E0
3.928200000E1,1.746199965E0,4.242999852E-1,-1.644500017E0
3.930200000E1,1.670599937E0,4.626999795E-1,-6.482999921E-1
3.932200000E1,1.684700012E0,4.657000005E-1,2.129999995E-1
3.934200000E1,1.866999984E0,6.130999923E-1,1.105099916E0
3.936200000E1,1.744899988E0,5.313000083E-1,1.427500010E0
3.938200000E1,1.750399947E0,5.902999640E-1,2.358999968E0
3.940200156E1,2.622900009E0,4.389999807E-1,2.630899906E0
3.943200000E1,3.619199991E0,9.189999849E-2,-2.577999830E-1
3.945200000E1,3.362499952E0,-1.906999946E-1,-6.750999689E-1
3.947200156E1,2.743899822E0,-5.737999678E-1,8.710999489E-1
3.950200000E1,1.962199926E0,-8.388999701E-1,2.073799849E0
3.952200000E1,1.549600005E0,-8.901000023E-1,1.664299965E0
3.954200156E1,1.229099989E0,-7.475000024E-1,1.237299919E0
3.957200000E1,5.733000040E-1,-1.241999939E-1,7.708999515E-1
3.959200000E1,2.784999907E-1,2.951000035E-1,4.020999968E-1
3.961200156E1,2.631999850E-1,5.963999629E-1,-9.669999778E-2
3.964200000E1,7.979999483E-2,1.141199946E0,-7.256000042E-1
3.966200000E1,2.180999964E-1,1.121500015E0,-8.539999723E-1
3.968200156E1,4.922999740E-1,1.078499913E0,-8.023999929E-1
3.971200000E1,8.017999530E-1,9.309999943E-1,-7.882999778E-1
3.973200000E1,9.292999506E-1,1.005900025E0,-7.594000101E-1
3.975200000E1,1.029500008E0,9.241999984E-1,-5.796999931E-1
3.977200000E1,1.153100014E0,7.267999649E-1,-3.481999934E-1
3.979200000E1,1.140599966E0,3.439999819E-1,3.258999884E-1
3.981200000E1,1.097599983E0,7.999999449E-3,1.178900003E0
3.983200156E1,1.108500004E0,-2.221999913E-1,1.595699906E0
3.986200000E1,8.741999865E-1,-5.001999736E-1,1.208999991E0
3.988200000E1,3.925999999E-1,-5.652999878E-1,1.250000000E0
3.990201875E1,-2.210000008E-1,-5.809999704E-1,1.583599925E0
3.993200000E1,-8.240999579E-1,-5.782999992E-1,1.792400002E0
3.995200000E1,-8.558999896E-1,-7.246999741E-1,8.750999570E-1
3.997200000E1,-9.299999475E-1,-7.687999606E-1,-4.016000032E-1
3.999200000E1,-1.144699931E0,-5.446999669E-1,-9.860999584E-1
4.001200000E1,-1.418200016E0,-4.346999824E-1,-9.949999452E-1
4.003200156E1,-1.487599969E0,-4.520999789E-1,-1.145399928E0
4.005200156E1,-1.433499932E0,-5.529999733E-1,-1.006899953E0
4.008200156E1,-1.221300006E0,-8.398000002E-1,-3.726999760E-1
4.011200156E1,-1.156499982E0,-5.393999815E-1,-5.602999926E-1
4.014200000E1,-1.306399941E0,3.777999878E-1,-1.092599988E0
4.016200000E1,-1.361299992E0,9.197999835E-1,-1.509799957E0
4.018200156E1,-1.255699992E0,1.301999927E0,-1.788599968E0
4.021200156E1,-1.023999929E0,1.402300000E0,-1.807500005E0
4.024201406E1,-8.098999858E-1,1.250000000E0,-1.569299936E0
4.027200000E1,-6.983000040E-1,1.021199942E0,-8.524999619E-1
4.029200000E1,-5.435000062E-1,9.204999804E-1,2.319999970E-2
4.031200000E1,-2.427999973E-1,9.190999866E-1,7.515999675E-1
4.033200000E1,1.552999914E-1,1.024099946E0,1.056699991E0
4.035200000E1,3.479999900E-1,1.234499931E0,9.080999494E-1
4.037200000E1,3.306999803E-1,1.479499936E0,1.123999953E0
4.039200156E1,2.770999968E-1,1.516899943E0,1.508899927E0
4.042200000E1,2.319999933E-1,1.388299942E0,1.945599914E0
4.044200000E1,3.075999916E-1,1.115999937E0,2.537199974E0
4.046200156E1,3.658999801E-1,8.714999557E-1,2.941399813E0
4.048200156E1,4.356999993E-1,7.253999710E-1,2.861899853E0
4.051200000E1,5.679000020E-1,1.007900000E0,1.792299986E0
4.053200156E1,8.438000083E-1,1.522499919E0,7.490999699E-1
4.055200156E1,8.410999775E-1,1.896499991E0,-4.895999730E-1
4.058200156E1,5.932999849E-1,9.977999926E-1,-5.715000033E-1
4.061200156E1,2.911199808E0,-2.395599842E0,2.564499855E0
4.064200000E1,3.936499834E0,-3.761499882E0,7.990999818E-1
4.066200156E1,3.113999844E0,-3.660300016E0,-4.709999859E-1
4.068200156E1,1.229799986E0,-2.956499815E0,4.591999948E-1
4.071200000E1,-2.565999925E-1,-2.091699839E0,3.359599829E0
4.073200000E1,-6.089999899E-2,-2.135999918E0,3.274799824E0
4.075200156E1,8.294999599E-1,-2.529399872E0,7.706999779E-1
4.078200000E1,9.120999575E-1,-1.984799981E0,-9.707999825E-1
4.080200000E1,4.848999977E-1,-1.402300000E0,-1.341599941E0
4.082200156E1,-1.939999871E-2,-7.590999603E-1,-2.140699863E0
4.085200000E1,-6.220999956E-1,-2.581999898E-1,-2.812500000E0
4.087200000E1,-8.553999662E-1,-2.439000010E-1,-2.646899939E0
4.089200156E1,-7.662999630E-1,-2.881999910E-1,-2.441099882E0
4.092200000E1,-5.232999921E-1,-6.994999647E-1,-2.371899843E0
4.094200000E1,-6.216999888E-1,-9.389999509E-1,-2.008699894E0
4.096200156E1,-7.608000040E-1,-9.277999997E-1,-1.410699964E0
4.099200000E1,-6.245999932E-1,-1.075500011E0,-9.501999617E-1
4.101200000E1,-2.233999968E-1,-1.443399906E0,-7.443999648E-1
4.103200000E1,7.766000032E-1,-1.721099973E0,2.945999801E-1
4.105200000E1,1.559000015E0,-1.419199944E0,1.372999996E-1
4.107200000E1,6.962999701E-1,-6.495000124E-1,-1.931099892E0
4.109200000E1,-2.131299973E0,-1.903999895E-1,-2.450299978E0
4.111200156E1,-4.117599964E0,3.145000041E-1,1.960000023E-2
4.114200000E1,-3.088999987E0,-2.231499910E0,6.610099792E0
4.116200000E1,-7.885999680E-1,-4.273099899E0,5.787699699E0
4.118200156E1,5.299000144E-1,-4.191899776E0,2.032099962E0
4.121200000E1,-4.389999807E-1,-8.980000019E-1,-1.717700005E0
4.123200000E1,-1.954599977E0,9.131999612E-1,-1.940199971E0
4.125200156E1,-2.561800003E0,1.815899968E0,-1.815099955E0
4.128200000E1,-1.695299983E0,7.746999860E-1,-1.444299936E0
4.130200000E1,-6.704999804E-1,-1.626999974E-1,-1.174299955E0
4.132200156E1,-5.590000004E-2,-5.356999636E-1,-6.974999905E-1
4.135200000E1,-1.169999968E-2,-2.465999871E-1,-4.787999988E-1
4.137200000E1,-1.241999939E-1,-2.233999968E-1,-1.934999973E-1
4.139200156E1,-1.319999993E-2,-5.363999605E-1,2.451999933E-1
4.142200156E1,5.582999587E-1,-1.248000026E0,1.013899922E0
4.145200000E1,1.137899995E0,-1.768599987E0,1.302399993E0
4.147200156E1,1.335099936E0,-1.566799998E0,1.170400023E0
4.150200000E1,1.087399960E0,-7.078999877E-1,2.104000002E-1
4.152200000E1,6.965000033E-1,-5.299999937E-2,-7.026000023E-1
4.154200156E1,3.282999992E-1,3.580999970E-1,-1.173599958E0
4.157200000E1,-2.856999934E-1,4.574999809E-1,-8.070999980E-1
4.159200000E1,-4.415999949E-1,2.357999980E-1,-2.142999917E-1
4.161200156E1,-4.564999938E-1,-5.179999769E-2,1.846999973E-1
4.164200000E1,-5.277999640E-1,-1.860000007E-2,7.721999884E-1
4.166200000E1,-6.200000048E-1,8.269999921E-2,8.639999628E-1
4.168200156E1,-9.461999536E-1,2.230999917E-1,5.913999677E-1
4.171200000E1,-8.062999845E-1,-9.529999644E-2,1.025699973E0
4.173200000E1,-7.679999620E-2,-5.827000141E-1,1.565400004E0
4.175200000E1,5.720999837E-1,-5.958999991E-1,2.337999940E-1
4.177200000E1,4.598999918E-1,-2.897999883E-1,-1.359200001E0
4.179200000E1,-2.093999982E-1,1.834999919E-1,-1.598500013E0
4.181200000E1,-9.577999711E-1,3.658999801E-1,-1.662999988E-1
4.183200000E1,-1.376500010E0,1.533999890E-1,8.877999783E-1
4.185200000E1,-1.210299969E0,-2.581000030E-1,1.159600019E0
4.187200000E1,-4.863999784E-1,-8.197000027E-1,8.157999516E-1
4.189200156E1,9.349999577E-2,-1.152799964E0,8.647999763E-1
4.192200000E1,6.506999731E-1,-7.860999703E-1,4.105999768E-1
4.194200000E1,7.434999943E-1,-2.360999882E-1,-6.231999993E-1
4.196200000E1,7.716000080E-1,2.309999913E-1,-1.617599964E0
4.198200000E1,8.932999969E-1,3.722999990E-1,-1.904099941E0
4.200200000E1,1.069199920E0,2.707000077E-1,-1.659799933E0
4.202200000E1,1.193400025E0,-7.949999720E-2,-9.831999540E-1
4.204200000E1,1.149799943E0,-2.754999995E-1,-1.479000002E-1
4.206200000E1,1.070400000E0,-3.300999999E-1,6.700999737E-1
4.208200000E1,1.074699998E0,-3.711999953E-1,1.156000018E0
4.210200000E1,1.024600029E0,-2.280000001E-1,1.395799994E0
4.212200156E1,1.289600015E0,-2.854000032E-1,1.516199946E0
4.215200156E1,1.468799949E0,2.502000034E-1,5.259000063E-1
4.218200156E1,1.112100005E0,7.967000008E-1,-3.677999973E-1
4.221200000E1,7.930999994E-1,9.698999524E-1,-3.673999906E-1
4.223200000E1,7.587999701E-1,7.682999969E-1,-1.711999923E-1
4.225200000E1,7.105000019E-1,5.266999602E-1,-6.309999526E-2
4.227200000E1,5.206999779E-1,4.838999808E-1,1.042999998E-1
4.229200000E1,2.910999954E-1,5.191999674E-1,2.131000012E-1
4.231200000E1,1.097999960E-1,5.440999866E-1,1.748999953E-1
4.233200156E1,6.979999691E-2,4.784999788E-1,1.465999931E-1
4.235200156E1,3.879999742E-2,4.305999875E-1,-5.879999697E-2
4.237200156E1,-6.929999590E-2,5.087000132E-1,-1.264999956E-1
4.239200156E1,-1.495999992E-1,5.870999694E-1,-7.609999925E-2
4.241200156E1,-2.237999886E-1,6.416999698E-1,-9.339999408E-2
4.244200000E1,-2.630999982E-1,7.822999954E-1,-1.583999991E-1
4.246200156E1,-2.645999789E-1,8.251999617E-1,-9.699999541E-2
4.248200156E1,-2.682999969E-1,9.395999908E-1,-1.609999873E-2
4.251200000E1,-2.199999988E-1,9.483000040E-1,5.299999844E-3
4.253200000E1,-2.119999975E-1,9.864999652E-1,-9.259999543E-2
4.255200156E1,-2.994000018E-1,9.116999507E-1,1.032999977E-1
4.258200000E1,-2.109999955E-1,7.167999744E-1,5.827000141E-1
4.260200000E1,-7.379999757E-2,6.129999757E-1,7.953999639E-1
4.262200156E1,3.019999899E-2,6.333000064E-1,8.106999993E-1
4.265200000E1,3.441999853E-1,9.716999531E-1,4.969999790E-1
4.267200000E1,6.509999633E-1,1.285300016E0,2.263999879E-1
4.269200156E1,3.604999781E-1,1.212899923E0,1.750999987E-1
4.272200000E1,-9.271000028E-1,1.345999986E-1,2.581399918E0
4.274201406E1,6.889999658E-2,-1.014699936E0,4.808899879E0
4.277200156E1,2.338199854E0,-2.238899946E0,3.232199907E0
4.280200000E1,2.727799892E0,-2.042099953E0,-1.374099970E0
4.282200156E1,2.136800051E0,-1.108699918E0,-3.097299814E0
4.285200000E1,4.527999759E-1,1.235999987E-1,-2.816799879E0
4.287200000E1,-4.648000002E-1,1.630000025E-1,-2.067399979E0
4.289200156E1,-7.993999720E-1,1.389999967E-2,-7.716000080E-1
4.291200156E1,-9.019999951E-2,-7.019999623E-1,4.287000000E-1
4.294200000E1,1.944000006E0,-1.607399940E0,1.867999882E-1
4.296200156E1,2.621700048E0,-1.783699989E0,-5.891000032E-1
4.298200156E1,2.502699852E0,-1.564499974E0,-1.070500016E0
4.301200000E1,1.565999985E0,-7.982999682E-1,1.004000008E-1
4.303200000E1,1.349099994E0,-6.953999996E-1,7.239999622E-2
4.305200000E1,1.389099956E0,-7.407000065E-1,-5.259000063E-1
4.307200000E1,1.298599958E0,-7.895999551E-1,-7.703999877E-1
4.309200000E1,9.473999739E-1,-7.584999800E-1,-6.103000045E-1
4.311200000E1,5.162000060E-1,-7.856999636E-1,-4.002999961E-1
4.313200000E1,1.108999997E-1,-9.145999551E-1,-2.588000000E-1
4.315200000E1,-1.127000004E-1,-1.053699970E0,3.969999775E-2
4.317200000E1,-3.763999939E-1,-1.104499936E0,3.188999891E-1
4.319200000E1,-6.053999662E-1,-8.870999813E-1,3.129999936E-1
4.321200000E1,-8.101999760E-1,-8.682000041E-1,5.605999827E-1
4.323200000E1,-9.596999884E-1,-2.768000066E-1,2.373999953E-1
4.325200000E1,-1.131799936E0,-5.979999900E-2,5.130000040E-2
4.327200000E1,-1.116799951E0,3.949999809E-2,1.788999885E-1
4.329200000E1,-1.114199996E0,-3.269999847E-2,4.136999846E-1
4.331200000E1,-1.074599981E0,-1.794999987E-1,4.319999814E-1
4.333200156E1,-9.372999668E-1,-1.823999882E-1,2.329999954E-1
4.336200000E1,-9.332999587E-1,1.080999970E-1,-1.436000019E-1
4.338200156E1,-9.453999996E-1,2.492999882E-1,-1.552999914E-1
4.340200156E1,-7.326999903E-1,1.864999980E-1,-2.829999849E-2
4.343200156E1,-3.291999996E-1,-1.428000033E-1,-2.889999934E-2
4.345200156E1,-1.823000014E-1,-3.768999875E-1,-3.999999899E-4
4.347200156E1,-9.179999679E-2,-5.561999679E-1,2.137999982E-1
4.349200156E1,-1.921999902E-1,-3.480999768E-1,7.449999452E-2
4.352200000E1,-2.106999904E-1,-8.289999515E-2,-5.074999928E-1
4.354200156E1,-1.127999946E-1,-3.659999743E-2,-7.246999741E-1
4.357200000E1,1.911000013E-1,-1.916999966E-1,-4.183000028E-1
4.359200000E1,4.948999882E-1,-3.786999881E-1,-2.188999951E-1
4.361200000E1,9.138999581E-1,-6.133999825E-1,-1.062999964E-1
4.363200000E1,1.260499954E0,-7.229999900E-1,-1.911999881E-1
4.365200000E1,1.394799948E0,-6.161999702E-1,-3.935000002E-1
4.367200000E1,1.344399929E0,-4.359000027E-1,-4.298000038E-1
4.369200156E1,1.253199935E0,-2.642999887E-1,-3.984999955E-1
4.372200000E1,1.012199998E0,-9.690000117E-2,-1.112999991E-1
4.374201406E1,1.012099981E0,-4.109999910E-2,2.651999891E-1
4.377200000E1,1.163800001E0,3.619999811E-2,5.174999833E-1
4.379200000E1,1.266299963E0,8.909999579E-2,5.223999619E-1
4.381200000E1,1.304099917E0,1.251000017E-1,7.042999864E-1
4.383200000E1,1.373600006E0,4.209999740E-2,9.055999517E-1
4.385200000E1,1.390100002E0,-1.019999944E-2,1.087599993E0
4.387200000E1,1.448499918E0,2.009999938E-2,1.051399946E0
4.389200156E1,1.447499990E0,1.193999946E-1,8.258999586E-1
4.391200156E1,1.340899944E0,1.990999877E-1,6.969000101E-1
4.394200000E1,1.034399986E0,2.929999828E-1,9.481999874E-1
4.396200000E1,8.453999758E-1,2.428999990E-1,1.072499990E0
4.398200156E1,6.821999550E-1,2.346999943E-1,1.117299914E0
4.401200000E1,4.490999877E-1,2.119999975E-1,7.253999710E-1
4.403200000E1,2.479999959E-1,3.120000064E-1,2.982999980E-1
4.405200000E1,9.820000082E-2,2.723000050E-1,1.651999950E-1
4.407200000E1,6.780000031E-2,-4.109999910E-2,3.673000038E-1
4.409200000E1,-1.310000010E-2,-4.131000042E-1,5.205999613E-1
4.411200000E1,-5.819999799E-2,-5.051999688E-1,4.478999972E-1
4.413200000E1,-7.159999758E-2,-4.220999777E-1,-8.779999614E-2
4.415200000E1,-1.100999936E-1,-3.114999831E-1,-8.793999553E-1
4.417200000E1,-2.316000015E-1,-2.054999918E-1,-1.396600008E0
4.419200156E1,-4.940999746E-1,-1.578999907E-1,-1.402699947E0
4.421204375E1,-9.628999829E-1,-2.151999921E-1,-1.280200005E0
4.424201875E1,-1.393000007E0,-2.105999887E-1,-4.113000035E-1
4.427200000E1,-8.572999835E-1,-7.181999683E-1,3.033999801E-1
4.429200000E1,-5.487999916E-1,-7.580999732E-1,2.829000056E-1
4.431200000E1,-4.370999932E-1,-5.146999955E-1,5.649999902E-2
4.433200000E1,-3.768000007E-1,-1.749999970E-1,-9.149999917E-2
4.435200000E1,-2.803999782E-1,3.999999911E-2,-3.766999841E-1
4.437200156E1,-1.076999977E-1,1.270999908E-1,-5.340999961E-1
4.439200156E1,3.529999778E-2,9.959999472E-2,-3.079999983E-1
4.441200156E1,1.983999908E-1,1.370000001E-2,-1.004000008E-1
4.444200000E1,2.917000055E-1,-2.791999876E-1,-1.370999962E-1
4.446200000E1,2.041999996E-1,-3.622999787E-1,-1.769999973E-2
4.448200000E1,1.127000004E-1,-3.788000047E-1,1.219999939E-1
4.450200000E1,7.580000162E-2,-3.432999849E-1,3.208000064E-1
4.452200000E1,1.488000005E-1,-3.725999892E-1,1.365000010E-1
4.454200156E1,2.762999833E-1,-3.450999856E-1,-8.799999952E-3
4.457200000E1,3.404999971E-1,-2.705999911E-1,-2.579999901E-2
4.459200000E1,2.917000055E-1,-9.359999746E-2,-7.349999994E-2
4.461200156E1,2.078000009E-1,3.539999947E-2,8.489999920E-2
4.464200000E1,2.721000016E-1,1.500999928E-1,-5.009999871E-2
4.466200000E1,3.358999789E-1,1.635999978E-1,1.282999963E-1
4.468200156E1,3.894999921E-1,7.029999793E-2,5.033000112E-1
4.471200000E1,4.481999874E-1,1.243999973E-1,4.068999887E-1
4.473200000E1,4.700999856E-1,2.120999992E-1,2.798999846E-1
4.475200000E1,5.719000101E-1,2.294999957E-1,4.077000022E-1
4.477200000E1,6.581999660E-1,2.348999977E-1,2.009999901E-1
4.479200000E1,6.416999698E-1,3.061999977E-1,1.349999942E-2
4.481200000E1,5.715000033E-1,4.120999873E-1,-6.899999920E-3
4.483200156E1,6.276999712E-1,3.841999769E-1,-5.639999732E-2
4.486200000E1,9.009999633E-1,1.379999965E-1,1.296000034E-1
4.488200000E1,9.465000033E-1,1.001999974E-1,2.472999990E-1
4.490201875E1,8.794999719E-1,1.233999953E-1,3.158999979E-1
4.493200000E1,8.568999767E-1,2.171999961E-1,4.624999762E-1
4.495200000E1,8.621000051E-1,1.631999910E-1,3.533999920E-1
4.497200000E1,8.529999852E-1,2.395000011E-1,1.944999993E-1
4.499200000E1,7.249999642E-1,2.807999849E-1,1.045999974E-1
4.501200000E1,6.388999820E-1,2.982999980E-1,9.290000051E-2
4.503200000E1,6.407999992E-1,2.298999876E-1,4.230000079E-2
4.505200000E1,6.687999964E-1,1.582999974E-1,-9.699999541E-2
4.507200000E1,6.258000135E-1,1.519999951E-1,-1.965999901E-1
4.509200000E1,5.491999984E-1,1.797999889E-1,-6.019999832E-2
4.511200156E1,4.907999933E-1,2.193999887E-1,-1.393999904E-1
4.514200000E1,5.281999707E-1,1.039999947E-1,-8.119999617E-2
4.516200000E1,4.510999918E-1,5.099999718E-3,2.649999969E-2
4.518200156E1,3.556999862E-1,5.200000014E-3,1.345999986E-1
4.521200000E1,2.615999877E-1,4.569999874E-2,2.917999923E-1
4.523200000E1,2.223999947E-1,8.309999853E-2,3.308999836E-1
4.525200000E1,1.861999929E-1,7.609999925E-2,9.459999949E-2
4.527200000E1,1.674999893E-1,1.666999906E-1,-8.289999515E-2
4.529200000E1,6.219999865E-2,2.018999904E-1,-1.718999892E-1
4.531200000E1,2.009999938E-2,1.657999903E-1,2.429999970E-2
4.533200000E1,1.098999977E-1,3.289999813E-2,1.718000025E-1
4.535200000E1,4.069999978E-2,-1.336999983E-1,7.369999588E-2
4.537200000E1,4.820000008E-2,-2.049999982E-1,2.408999950E-1
4.539200156E1,-3.399999812E-3,-2.001999915E-1,4.273999929E-1
4.541200156E1,-5.869999900E-2,-1.928000003E-1,2.699999809E-1
4.544200000E1,7.099999487E-2,-3.030999899E-1,-1.138999984E-1
4.546200000E1,2.239999920E-1,-3.526999950E-1,-3.795000017E-1
4.548200156E1,2.166999876E-1,-2.407999933E-1,-5.367999673E-1
4.551200000E1,8.249999583E-2,9.519999474E-2,-6.250999570E-1
4.553200000E1,2.599999867E-2,2.150999904E-1,-4.870999753E-1
4.555200156E1,1.523000002E-1,2.857999802E-1,-3.586999774E-1
4.558200000E1,2.657999992E-1,3.967999816E-1,-3.475999832E-1
4.560200000E1,2.518000007E-1,3.926999867E-1,-5.331000090E-1
4.562200156E1,1.805000007E-1,1.836999953E-1,2.769999951E-2
4.565200000E1,-1.079999935E-2,2.149999887E-2,1.160099983E0
4.567200000E1,-1.765999943E-1,-2.589999884E-2,1.455399990E0
4.569200000E1,-3.947999775E-1,2.162999958E-1,1.385699987E0
4.571200000E1,-6.627999544E-1,5.101999640E-1,1.157999992E0
4.573200000E1,-8.564999700E-1,6.823999882E-1,9.878000021E-1
4.575200156E1,-9.138000011E-1,6.728999615E-1,9.355999827E-1
4.578200000E1,-9.328999519E-1,4.056999981E-1,6.742999554E-1
4.580200000E1,-8.586999774E-1,3.291999996E-1,3.753999770E-1
4.582200156E1,-7.475999594E-1,2.610000074E-1,-1.294000000E-1
4.585200000E1,-3.269999921E-1,1.869999915E-1,-9.693999887E-1
