"Time (s)","Acceleration x (m/s^2)","Acceleration y (m/s^2)","Acceleration z (m/s^2)"
0.000000000E0,-4.010546207E0,4.922277451E0,9.713879585E0
2.000156200E-2,-4.433515549E0,4.438658237E0,1.152139664E1
4.000781200E-2,-5.106315136E0,3.879985809E0,1.329731941E1
6.200156200E-2,-6.370032310E0,3.266265631E0,1.565939999E1
8.200156200E-2,-2.958974600E0,2.728145123E0,1.286495495E1
1.020015620E-1,-2.382173300E0,2.940386295E0,1.268754482E1
1.220015620E-1,-1.017449498E0,2.121779680E0,1.212302113E1
1.420015620E-1,-1.897165328E-1,1.169519663E0,1.062577343E1
1.640078120E-1,-7.279235125E-1,1.828853965E0,1.040895462E1
1.860015620E-1,-7.828944325E-1,2.558012962E0,1.036169338E1
2.060015620E-1,-7.889373302E-1,2.768166542E0,1.097195625E1
2.280203120E-1,-9.417544603E-1,2.299917936E0,1.120141602E1
2.500015620E-1,-4.792425632E-1,6.898748875E-1,1.111833763E1
2.720046870E-1,6.511845589E-1,-5.682206750E-1,1.195012093E1
2.940015620E-1,-6.665457040E-2,1.372155309E0,1.157777500E1
3.140156250E-1,5.697816610E-1,2.113342762E0,1.102741528E1
3.360015620E-1,8.101786971E-1,1.951992631E0,1.021463203E1
3.580015620E-1,1.472884178E0,9.026235938E-1,1.052512074E1
3.780093750E-1,1.714181423E0,9.869186878E-1,1.063355923E1
4.000015620E-1,1.678067207E0,1.645257115E0,1.009069824E1
4.220015620E-1,1.523095369E0,1.625442624E0,9.768122673E0
4.440015620E-1,2.889226973E-1,1.647038341E0,9.964064598E0
4.660000000E-1,-3.930321336E-2,6.808918118E-1,1.158615494E1
4.860015620E-1,9.452404380E-1,7.695634961E-1,1.180812645E1
5.060015620E-1,8.006402254E-1,3.775943220E-1,1.195751476E1
5.280203120E-1,-1.657553762E-1,7.791498303E-1,1.098915672E1
5.500000000E-1,-5.212081075E-1,1.201372027E0,9.728110313E0
5.700000000E-1,1.637921333E-1,1.081231117E0,8.891595840E0
5.900000000E-1,8.062425852E-1,9.193159938E-1,1.006137371E1
6.100015620E-1,1.099369526E0,6.930160522E-1,1.064906406E1
6.320015620E-1,-7.438305765E-2,3.911167979E-1,1.067903042E1
6.540015620E-1,8.199470043E-1,8.092018366E-1,9.247737885E0
6.740078120E-1,8.549406528E-1,-6.665457040E-2,9.577610970E0
6.960031250E-1,3.527808189E-1,4.222509861E-1,9.363971710E0
7.180015620E-1,9.582935572E-1,-2.130839527E-1,9.045677185E0
7.380015620E-1,6.687005758E-1,-3.539971113E-1,9.525282860E0
7.580015620E-1,5.340506434E-1,-4.354095161E-1,8.260034561E0
7.780015620E-1,-7.642579079E-1,-3.913562000E-1,8.078678131E0
7.980015620E-1,-1.627204776E0,3.920840323E-1,8.541716576E0
8.200015620E-1,-4.478689432E-1,7.648804188E-1,6.918496132E0
8.420015620E-1,3.360693157E-1,1.080551147E0,4.939784050E0
8.620015620E-1,8.104563951E-1,1.099522710E0,7.089547157E0
8.840015620E-1,-6.617382169E-1,1.520988494E-1,6.738768101E0
9.040015620E-1,-2.105269432E-1,2.111465693E0,9.643489838E0
9.240015620E-1,-3.588908315E-1,-1.031517833E-1,8.920469284E0
9.440015620E-1,-1.679503798E0,5.596303344E-1,8.489379883E0
9.640140620E-1,-2.173724413E0,9.108501077E-1,7.648861408E0
9.860015620E-1,-8.445786238E-1,8.285278678E-1,7.549435139E0
1.008001562E0,-1.206677556E0,8.366873264E-1,7.815957546E0
1.028020312E0,-1.757027984E0,1.332746744E0,8.453351974E0
1.050001562E0,-1.181155562E0,1.167470217E0,9.165473938E0
1.072001562E0,-4.807269573E-1,1.203660965E0,8.814377785E0
1.094001562E0,-5.550047159E-1,1.518182516E0,9.287558556E0
1.114010937E0,-5.968266129E-1,1.808867335E0,9.208013535E0
1.136000000E0,-5.041997433E-1,1.809719563E0,9.221813202E0
1.156000000E0,-4.138425589E-1,1.586618304E0,9.194433212E0
1.176000000E0,-2.797672451E-1,1.292907238E0,9.288420677E0
1.196006250E0,-8.669883013E-2,1.462119818E0,9.205054283E0
1.218001562E0,3.373813033E-1,1.362406135E0,8.913928986E0
1.240000000E0,2.416228354E-1,1.576964855E0,8.476929665E0
1.260000000E0,-1.070112363E-1,2.070802450E0,7.663944721E0
1.280000000E0,7.920019329E-2,2.335409641E0,7.635473251E0
1.300000000E0,5.950070173E-2,2.194812536E0,8.394894600E0
1.320001562E0,-5.026865751E-2,2.140234470E0,8.669625282E0
1.342001562E0,7.780198008E-2,2.504976511E0,8.417945862E0
1.362001562E0,1.927907020E-1,3.326475143E0,8.200993538E0
1.384010937E0,-1.792107821E-1,4.130409718E0,8.071485519E0
1.406001562E0,-5.671768188E-1,4.333696842E0,8.051125526E0
1.426001562E0,-6.960423291E-2,4.007721424E0,8.693078041E0
1.448001562E0,4.363097548E-1,3.667294502E0,8.814081192E0
1.470001562E0,8.035420179E-1,3.663320065E0,8.263271332E0
1.492001562E0,9.981235266E-1,3.728796959E0,7.989987373E0
1.514001562E0,8.519718647E-1,4.070899487E0,7.986520290E0
1.536001562E0,6.012415290E-1,4.386876583E0,7.864550114E0
1.556001562E0,3.582779169E-1,4.550956249E0,7.817968845E0
1.576001562E0,2.814048827E-1,4.543936253E0,8.252727509E0
1.596012500E0,5.886576176E-1,4.448915005E0,8.908470154E0
1.618000000E0,7.681556940E-1,4.269790649E0,8.991290092E0
1.638000000E0,7.766311765E-1,4.177316666E0,8.713974953E0
1.658001562E0,5.129529238E-1,4.152599335E0,8.491496086E0
1.680000000E0,5.553494096E-1,4.386886120E0,8.457325935E0
1.700001562E0,8.198704123E-1,4.439223766E0,8.704847336E0
1.722000000E0,8.059553504E-1,4.337795258E0,9.004075050E0
1.742000000E0,5.155769587E-1,4.357063770E0,8.746707916E0
1.762000000E0,4.986547530E-1,4.399728298E0,8.791049004E0
1.782001562E0,6.103586555E-1,4.333189011E0,9.134903908E0
1.804001562E0,7.159429193E-1,4.299037933E0,9.348859787E0
1.824001562E0,7.968286276E-1,4.292037487E0,9.390701294E0
1.844001562E0,6.456108689E-1,4.604327679E0,9.102830887E0
1.866000000E0,3.431082368E-1,4.931767941E0,8.560391426E0
1.886000000E0,3.644166589E-1,4.944026470E0,8.575178146E0
1.906001562E0,6.453523040E-1,4.834295273E0,8.988043785E0
1.928021875E0,6.006190181E-1,4.462868690E0,9.223470688E0
1.950000000E0,3.652211130E-1,4.188818932E0,9.039777756E0
1.970000000E0,4.471794069E-1,4.022488594E0,9.000014305E0
1.990000000E0,7.134625316E-1,4.081261635E0,8.768869400E0
2.010000000E0,1.612015963E0,4.106956005E0,8.479726791E0
2.030001562E0,1.727646351E0,4.454249382E0,8.220634460E0
2.052000000E0,1.221722722E0,4.339710712E0,8.116650581E0
2.072001562E0,1.311074495E0,3.884774208E0,8.453130722E0
2.094001562E0,1.424779892E0,3.929517031E0,8.646994591E0
2.116001562E0,1.338330030E0,3.899848223E0,8.751554489E0
2.138000000E0,1.387267470E0,3.842291594E0,8.836653709E0
2.158001562E0,1.555857658E0,3.745833874E0,9.133218765E0
2.180001562E0,1.475575209E0,3.864969492E0,8.888636589E0
2.200001562E0,1.574034452E0,3.792606831E0,8.752013206E0
2.222000000E0,1.523861408E0,3.833643436E0,8.023764610E0
2.242000000E0,1.301066637E0,3.940281391E0,7.965173721E0
2.262000000E0,1.576112509E0,3.907758474E0,8.648861885E0
2.282001562E0,1.334317327E0,3.963859320E0,9.165827751E0
2.304001562E0,5.768685341E-1,3.768933058E0,9.056086540E0
2.324001562E0,4.168113768E-1,3.803036213E0,9.079262733E0
2.346001562E0,8.771492839E-1,3.985435963E0,9.041960716E0
2.366001562E0,1.199322581E0,4.028148651E0,8.999689102E0
2.386001562E0,1.045069098E0,4.162750721E0,8.991711617E0
2.406001562E0,6.604261398E-1,4.068102837E0,8.794898033E0
2.426001562E0,8.925583959E-1,3.839246035E0,8.536602974E0
2.446001562E0,9.258090854E-1,3.818225145E0,8.443717957E0
2.468000000E0,8.528338075E-1,3.478372812E0,8.367121696E0
2.488000000E0,8.749179244E-1,3.063170433E0,8.343792915E0
2.508000000E0,1.103794098E0,2.553473711E0,7.993138313E0
2.528020312E0,1.177372694E0,2.890979528E0,8.123680115E0
2.550000000E0,-7.877402306E-1,1.793898702E0,6.084748745E0
2.570000000E0,-2.209465057E-1,1.916395664E0,5.507947445E0
2.590000000E0,-2.029899955E-1,1.221100330E0,5.188273430E0
2.610001562E0,-1.260796189E0,-5.359181389E-2,4.660524368E0
2.632001562E0,-7.793892622E-1,-1.587729216E0,4.145033836E0
2.654001562E0,4.345954955E-2,-1.991784334E0,5.563856602E0
2.674014062E0,-7.213250995E-1,-2.378217936E0,5.045272350E0
2.696001562E0,-2.017928958E-1,-3.194966316E0,4.497756958E0
2.718001562E0,5.634035468E-1,-3.644626141E0,4.475816250E0
2.740001562E0,2.204973698E0,-4.037141323E0,5.234653950E0
2.762000000E0,4.764681816E0,-4.046967030E0,5.115595341E0
2.782001562E0,7.546322823E0,-4.561155319E0,5.432903290E0
2.802001562E0,9.813297272E0,-5.006668568E0,5.637166977E0
2.824001562E0,1.063997555E1,-3.090665340E0,5.337643147E0
2.844001562E0,1.119746113E1,-3.338063002E0,7.798748016E0
2.864001562E0,1.533084965E1,-5.385661125E0,1.051772881E1
2.884001562E0,1.497213078E1,-5.866148472E0,1.195050526E1
2.906000000E0,1.092357445E1,-6.129874706E0,9.865394592E0
2.926000000E0,1.183783340E1,-5.049266338E0,7.618924141E0
2.946001562E0,1.464554310E1,-5.755900383E0,9.027433395E0
2.968001562E0,1.313695621E1,-7.001373768E0,1.187380409E1
2.990000000E0,1.383989334E1,-8.882219315E0,9.388440132E0
3.010001562E0,7.919520855E0,-1.980627298E0,-2.225688219E0
3.030001562E0,1.670155907E1,-7.194346428E0,-7.520523071E0
3.052000000E0,2.020675659E1,-7.548994541E0,5.571498871E-1
3.072001562E0,1.714697647E1,-9.992516518E0,-4.371860504E0
3.094001562E0,1.344114494E1,-7.744112492E0,4.624639824E-2
3.116001562E0,1.449162388E1,-7.349567413E0,3.835750580E0
3.136001562E0,1.187277889E1,-5.084891796E0,3.051304579E0
3.158001562E0,7.345947266E0,-1.953208804E0,1.229480028E0
3.180001562E0,3.925303221E0,-8.902503848E-1,3.007337570E0
3.202001562E0,1.793582678E0,9.982576370E-1,1.050163984E0
3.224001562E0,2.877083540E0,-7.380079031E-1,1.780998826E0
3.244001562E0,5.637818336E0,-1.875761271E0,1.546864986E0
3.264001562E0,9.714932442E0,-2.824765444E0,-1.152300596E0
3.284001562E0,1.098453045E1,-3.316448212E0,-4.867507935E0
3.304001562E0,7.561138153E0,-2.928539515E0,-1.941984892E0
3.324001562E0,6.252658844E0,4.741381109E-1,2.822782993E0
3.346001562E0,7.268882275E0,-7.928915977E0,7.604434490E0
3.366001562E0,1.307578945E1,-3.897913456E0,3.849100590E0
3.386001562E0,2.057400703E1,-3.249209404E0,4.148816586E0
3.406001562E0,1.022489834E1,-5.256824017E0,2.520854950E0
3.428020312E0,7.317705154E0,-3.480336189E0,-2.543370008E0
3.450000000E0,1.035361004E1,-4.769268990E0,-3.850977898E0
3.470001562E0,9.734057426E0,-5.603858948E0,6.807194650E-2
3.492001562E0,1.076842022E1,-7.269629478E0,5.173171043E0
3.514020312E0,6.745835304E0,-7.023429394E0,4.217108250E0
3.536001562E0,1.171878433E1,-8.388343811E0,9.215090871E-1
3.556004687E0,9.273844719E0,-8.982020378E0,-4.936182976E0
3.578001562E0,1.000006390E1,-9.171736717E0,-5.246404648E0
3.598001562E0,1.196637344E1,-9.033553123E0,-2.421457291E0
3.620000000E0,9.313358307E0,-5.479609489E0,-5.975640416E-1
3.640000000E0,7.190975189E0,-3.671393394E0,2.290484905E0
3.660000000E0,7.434954166E0,-4.262904644E0,3.884592295E0
3.680001562E0,1.010334015E1,-1.374032378E0,-6.923159599E0
3.702001562E0,1.169357777E1,1.241958618E0,1.293146610E0
3.724000000E0,6.354967594E0,7.259698391E0,1.315853238E0
3.744001562E0,8.434581161E-1,2.519523621E0,6.366603374E0
3.764004687E0,-1.774400353E0,3.022401810E0,4.748429775E0
3.784007812E0,-3.363661766E-1,2.999580383E0,3.823722124E0
3.806001562E0,-1.092522144E0,-1.823127031E0,5.679793358E0
3.828020312E0,5.557794571E0,-7.295429707E0,1.323016763E0
3.850000000E0,1.162473011E1,-1.248894119E1,-5.649645329E-1
3.870000000E0,1.503674507E1,-1.363847446E1,-5.825264931E0
3.890001562E0,1.078048706E1,-1.028874683E1,-7.344434261E0
3.910001562E0,1.024062347E1,-6.199871540E0,-4.495027542E0
3.932001562E0,6.128553391E0,-2.438149691E0,3.005269051E0
3.954001562E0,1.306468010E0,-1.971490979E0,2.357120275E0
3.974003125E0,1.174978375E0,-2.808666706E0,9.526145458E-1
3.994009375E0,2.379242659E0,-4.355741978E0,-5.119952559E-1
4.016000000E0,5.126464844E0,-7.674642086E0,-7.656561136E-1
4.036000000E0,7.462305069E0,-1.160946465E1,-1.706586927E-1
4.056001562E0,1.068704605E1,-1.354270649E1,7.402679920E-1
4.076001562E0,9.290595055E0,-9.869455338E0,-8.393114060E-2
4.096001562E0,6.493611336E0,-5.646849155E0,-4.089555264E0
4.116001562E0,3.871979475E0,-2.472109079E0,-7.878982544E0
4.136001562E0,2.278341532E0,-1.940960169E0,-4.554183483E0
4.156001562E0,1.885539174E0,-8.507479668E0,-5.511662960E0
4.178000000E0,-2.599452019E0,-2.115513611E1,-1.761720657E0
4.198001562E0,-6.868026257E0,-3.011535072E1,4.258441925E0
4.220000000E0,1.359236091E-1,-3.673954391E1,2.281281471E0
4.240001562E0,-2.838134527E0,-2.617056847E1,8.286811113E-1
4.260001562E0,-1.192423534E1,-8.422255516E0,-1.072429895E0
4.282001562E0,-9.599647522E0,-4.364208698E0,-1.683152437E0
4.304001562E0,-7.997342110E0,-4.485622883E0,-1.688017607E0
4.326001562E0,-5.217568874E0,-5.887389660E0,-1.021289825E0
4.346001562E0,-4.160500050E0,-5.783060074E0,7.709329128E-1
4.368001562E0,-3.026673079E0,-5.698698044E0,-1.932216436E-1
4.390001562E0,-1.356765389E0,-6.958939075E0,-7.856045961E-1
4.410001562E0,-1.041362762E0,-7.201318264E0,-5.658072829E-1
4.432001562E0,-1.224797010E0,-6.925889015E0,1.636867821E-1
4.454001562E0,-1.635699511E0,-5.755076885E0,1.192982793E-1
4.474006250E0,-1.266819954E0,-4.969950676E0,-2.615138590E-1
4.496001562E0,-1.025091767E0,-4.756704330E0,-8.277904391E-1
4.518001562E0,-4.272788167E-1,-5.041317463E0,-3.160461187E0
4.540001562E0,2.173360586E-1,-5.961428165E0,-6.241338730E0
4.560006250E0,6.546322107E-1,-9.514135361E0,-1.013769150E1
4.582000000E0,-5.012788177E-1,-1.495738316E1,-1.623047638E1
4.602003125E0,-4.987792671E-1,-1.673612022E1,-1.270537663E1
4.624001562E0,-7.583298683E-1,-1.234962749E1,-8.131838799E0
4.644004687E0,-3.057204008E0,-8.674183846E0,-6.024712086E0
4.666001562E0,-5.416268349E0,-1.062618542E1,-7.821646690E0
4.686004687E0,-6.469180584E0,-1.388291264E1,-5.932908058E0
4.708000000E0,-8.189366341E0,-1.096606636E1,4.289145470E0
4.728020312E0,-5.544788837E0,-5.503293037E0,3.592059135E0
4.750001562E0,-3.785922289E0,-2.576103449E0,4.490229607E0
4.772001562E0,-4.269244671E0,-4.110786438E0,1.068139553E0
4.794006250E0,-5.663704395E0,-1.000745678E1,1.095165253E0
4.816001562E0,-4.821855068E0,-1.593619919E1,-1.719343305E0
4.836001562E0,-3.153594494E0,-1.442211533E1,4.723281041E-2
4.858001562E0,1.241632998E-1,-1.100851059E1,2.572818518E0
4.878001562E0,1.240397573E0,-1.043816376E1,-7.767843604E-1
4.900000000E0,8.617785573E-1,-9.554818153E0,1.101917028E0
4.920000000E0,9.717202783E-1,-8.617181778E0,2.372251749E0
4.940001562E0,1.211552262E0,-7.867825508E0,2.039199114E0
4.960001562E0,1.257616758E0,-7.562162399E0,8.824357390E-1
4.982000000E0,8.691813946E-1,-7.884460449E0,-1.036181808E0
5.002000000E0,-4.426400065E-1,-8.513589859E0,-1.012373805E0
5.022000000E0,-1.666287661E0,-8.141329765E0,1.028549075E-1
5.042000000E0,-1.823385715E0,-8.126858711E0,1.202751279E0
5.062001562E0,-1.371159315E0,-8.562220573E0,1.341375470E0
5.084000000E0,-1.250596881E0,-9.378911972E0,1.614094138E0
5.104001562E0,-1.968282819E0,-1.047128963E1,1.175907373E0
5.124007812E0,-2.611930370E0,-1.092291355E1,-8.595854640E-1
5.146000000E0,-2.125553131E0,-1.023048115E1,-5.285382271E0
5.166004687E0,1.386242807E-1,-1.140212727E1,-3.621287584E0
5.188000000E0,1.220305443E0,-1.247227764E1,1.904731095E-1
5.208000000E0,9.158492088E-1,-1.159083748E1,3.053086065E-2
5.228020312E0,-1.122449636E0,-1.204305458E1,-4.652480125E0
5.250001562E0,-2.677780628E0,-1.377434921E1,-4.272702217E0
5.272001562E0,-2.855516672E0,-1.358513165E1,-9.522985220E-1
5.294000000E0,-3.438801527E0,-1.333848000E1,-1.175744534E-1
5.314004687E0,-2.841668367E0,-1.464338779E1,2.834936142E0
5.336001562E0,-4.963850498E0,-1.535076809E1,2.883854151E0
5.356001562E0,-7.389693737E0,-1.392313480E1,-1.260595024E-1
5.376001562E0,-7.336523533E0,-1.271301937E1,-1.000900865E0
5.398000000E0,-5.977881432E0,-1.132601070E1,-5.012596250E-1
5.418000000E0,-4.522876740E0,-9.919791222E0,3.812526539E-2
5.438001562E0,-4.036279202E0,-8.980343819E0,2.626822293E-1
5.460001562E0,-3.606031656E0,-8.137470245E0,-7.044699043E-2
5.480001562E0,-3.062078714E0,-7.431448936E0,9.143168926E-1
5.502001562E0,-2.592307568E0,-6.243800163E0,1.209081411E0
5.524007812E0,-2.136796474E0,-5.696188927E0,6.849619746E-1
5.544007812E0,-1.831727028E0,-5.478460312E0,7.537809014E-1
5.566000000E0,-1.469302535E0,-5.300379276E0,1.429482102E0
5.586000000E0,-1.077247024E0,-5.093539715E0,1.272412896E0
5.606000000E0,-4.368460476E-1,-4.815534592E0,1.080177665E0
5.626001562E0,-1.651999168E-2,-4.118544102E0,7.692570090E-1
5.648001562E0,1.377144828E-2,-3.647164106E0,-3.377739787E-1
5.668001562E0,4.848737270E-2,-4.368470192E0,-2.727158546E0
5.690001562E0,-1.071414828E0,-8.412554741E0,-9.237338066E0
5.710001562E0,1.565147042E0,-1.884254837E1,-1.987504578E1
5.732000000E0,1.983031154E0,-2.054111099E1,-1.590915394E1
5.752000000E0,-5.464621782E-1,-1.377096939E1,-7.604233265E0
5.772000000E0,-1.454008341E0,-6.464976788E0,-7.073324203E0
5.792001562E0,-5.683059216E0,-8.684899330E0,-7.461156368E0
5.814001562E0,-8.763372421E0,-1.323632526E1,6.805374622E-1
5.834006250E0,-8.648460388E0,-1.320742226E1,7.029146671E0
5.856000000E0,-5.401903152E0,-3.843651295E0,6.024941444E0
5.876001562E0,-2.894149303E0,-2.739273310E0,4.052875996E0
5.896001562E0,-2.977285624E0,-1.089282322E1,4.048001289E0
5.916001562E0,-2.644415140E0,-1.818806076E1,3.319330692E0
5.936001562E0,-1.551730037E-1,-1.757953072E1,-2.021386147E0
5.956001562E0,1.099417448E0,-1.264685345E1,1.122210249E-1
5.976001562E0,9.478070140E-1,-1.019719219E1,1.559199989E-1
5.996010937E0,-9.618370533E-1,-7.543669701E0,-5.259007812E-1
6.018001562E0,-2.470021248E0,-5.967164516E0,-8.725045919E-1
6.038007812E0,-3.238416195E0,-6.514814377E0,-1.204647303E0
6.060000000E0,-3.271217108E0,-6.682494640E0,-1.044360399E0
6.080000000E0,-2.697259665E0,-6.503695965E0,-2.043527603E0
6.100000000E0,-1.982877851E0,-7.140505314E0,-1.073933601E0
6.120001562E0,-1.727933764E0,-7.693096638E0,7.189691663E-1
6.142001562E0,-1.739483237E0,-7.219935417E0,2.018743038E0
6.162004687E0,-1.519810557E0,-7.322790623E0,2.944954395E0
6.184000000E0,-1.548043013E0,-9.589170456E0,2.029469013E0
6.204017187E0,-1.774917483E0,-1.108203220E1,8.901163340E-1
6.226000000E0,-1.914106846E0,-1.115739155E1,-4.743584096E-1
6.246000000E0,-8.121994138E-1,-1.147269821E1,-3.031164885E0
6.266001562E0,1.043354750E0,-1.285844326E1,-5.301471233E0
6.286004687E0,1.961569428E0,-1.387965584E1,-3.023388386E0
6.308000000E0,1.452428102E0,-1.282355499E1,9.873687290E-3
6.328018750E0,7.877402306E-1,-1.162589836E1,-2.368574142E0
6.350000000E0,-3.230161071E-1,-1.329826736E1,-6.159495831E0
6.370003125E0,-1.209167600E0,-1.268021870E1,-1.977591395E0
6.392000000E0,-2.096200228E0,-1.215467262E1,-2.168476433E-1
6.412000000E0,-2.307359219E0,-1.316929722E1,1.308823824E0
6.432000000E0,-1.993929386E0,-1.509309578E1,4.012050152E0
6.452004687E0,-3.234307766E0,-1.642934799E1,3.912403345E0
6.474004687E0,-4.779171467E0,-1.573787308E1,3.042216301E0
6.494023437E0,-5.140130997E0,-1.324186039E1,1.986191392E0
6.516000000E0,-7.057187080E0,-1.191759872E1,-4.925476074E0
6.536003125E0,-6.563436031E0,-1.081093121E1,-6.243407726E-1
6.558000000E0,-5.086596012E0,-8.727401733E0,1.645668983E0
6.578000000E0,-3.051017284E0,-7.023515224E0,3.052702844E-1
6.598000000E0,-1.213467598E0,-5.868111610E0,2.259647548E-1
6.618004687E0,-4.189086854E-1,-5.089373589E0,1.697402835E0
6.640000000E0,1.252454817E-1,-5.144430637E0,2.643246651E0
6.660004687E0,-7.985429168E-1,-5.346931934E0,2.128751755E0
6.682000000E0,-1.934850216E0,-5.165815830E0,1.874037504E0
6.702004687E0,-2.187668324E0,-5.054973602E0,1.719228387E0
6.724000000E0,-2.448645830E0,-4.710544109E0,1.289018989E0
6.744000000E0,-2.383667231E0,-3.732177496E0,5.549663901E-1
6.764009375E0,-2.190665722E0,-2.829046249E0,-7.766119838E-1
6.784017187E0,-1.484089017E0,-4.329003811E0,-3.612448215E0
6.806000000E0,-1.197244525E0,-1.067658806E1,-1.123796082E1
6.826004687E0,6.575722694E-1,-2.102185822E1,-2.825107193E1
6.848000000E0,2.229672074E-1,-1.989594078E1,-1.379360962E1
6.868000000E0,-2.953487337E-1,-1.104710579E1,-8.026235580E0
6.888000000E0,-1.361247301E-1,-7.476162910E0,-6.399433136E0
6.908004687E0,-2.906579971E0,-1.047752476E1,-6.985887527E0
6.928018750E0,-5.543457985E0,-1.243011093E1,5.243503094E0
6.950001562E0,-8.784489632E0,-1.418383503E1,5.101181984E0
6.972000000E0,-6.042275429E0,-6.139595032E0,3.384874582E0
6.992006250E0,-2.697374821E0,-3.944351673E0,3.570023060E0
7.014000000E0,-3.874651670E0,-8.330595970E0,4.310731411E0
7.034003125E0,-5.306872368E0,-1.449257183E1,2.822055101E0
7.056000000E0,-4.639819145E0,-1.508301067E1,1.966233373E0
7.076000000E0,-1.673547029E0,-1.248563766E1,-2.274673700E0
7.096001562E0,9.625552893E-1,-8.788855553E0,-7.605420947E-1
7.116004687E0,3.593217731E-1,-8.758104324E0,-8.610507250E-1
7.138000000E0,-3.741754293E-1,-8.888138771E0,-4.880340993E-1
7.158007812E0,-5.796458125E-1,-8.173182487E0,3.618692458E-1
7.180000000E0,-1.083615780E0,-6.601714134E0,-9.833177924E-1
7.200001562E0,-1.260259867E0,-6.723215103E0,-2.339958668E0
7.222000000E0,-1.066751003E0,-7.430318832E0,-1.318295240E0
7.242000000E0,-1.065726161E0,-7.746937275E0,4.623586535E-1
7.262000000E0,-1.106628776E0,-7.031071186E0,1.845268726E0
7.282003125E0,-8.617019057E-1,-7.887611389E0,2.698399305E0
7.304000000E0,-8.150340915E-1,-1.048024368E1,2.000681162E0
7.324004687E0,-1.807066798E0,-1.157283401E1,3.843651414E-1
7.346000000E0,-2.864078045E0,-1.037976456E1,-2.628076792E0
7.366000000E0,-1.865150094E0,-1.008698273E1,-5.504518509E0
7.386000000E0,9.625456929E-1,-1.254283047E1,-1.823826313E0
7.406006250E0,1.903112650E0,-1.328787708E1,2.073388100E0
7.428020312E0,1.556336403E0,-1.159332848E1,8.727918863E-1
7.450000000E0,-3.201909363E-1,-1.235986519E1,-7.165213585E0
7.470001562E0,-1.309427261E0,-1.373843670E1,-5.925477028E0
7.492001562E0,-1.180667043E0,-1.300618458E1,-6.732782722E-1
7.514006250E0,-1.761203527E0,-1.258468056E1,-4.175487906E-3
7.536000000E0,-2.390256166E0,-1.352241325E1,1.491731286E0
7.556001562E0,-2.612705946E0,-1.478056526E1,3.684733868E0
7.578001562E0,-4.158584595E0,-1.539734077E1,3.023627758E0
7.600000000E0,-6.171207905E0,-1.426423264E1,1.306515813E0
7.620001562E0,-6.492241859E0,-1.279204655E1,-2.818253279E0
7.642001562E0,-5.499117374E0,-1.132156754E1,-1.683382273E0
7.664001562E0,-4.990014076E0,-9.612002373E0,6.154918075E-1
7.684006250E0,-3.852663040E0,-8.405371666E0,5.252208114E-1
7.706001562E0,-2.268975258E0,-7.198531151E0,5.518922210E-1
7.728020312E0,-1.046189547E0,-6.273325920E0,1.510042071E0
7.750001562E0,-6.402095556E-1,-5.783711433E0,1.612150073E0
7.772000000E0,-6.596408486E-1,-5.528077602E0,2.114731550E0
7.792001562E0,-1.766700506E0,-4.933990002E0,2.160690546E0
7.814001562E0,-2.218563080E0,-4.512390137E0,1.927763343E0
7.836001562E0,-2.094303846E0,-4.466086388E0,1.387162089E0
7.858001562E0,-1.822447181E0,-3.755247831E0,6.569497585E-1
7.878001562E0,-1.922658920E0,-2.868464470E0,-1.482010782E-1
7.900000000E0,-1.493129492E0,-4.416373253E0,-2.864116430E0
7.920000000E0,-1.828116655E0,-1.031604958E1,-1.051510429E1
7.940000000E0,6.300581098E-1,-1.981636810E1,-2.439434052E1
7.960001562E0,4.930236042E-1,-2.085602570E1,-1.683998299E1
7.980001562E0,-4.912997782E-1,-1.326373386E1,-7.583480358E0
8.002001562E0,1.096170902E0,-6.961351871E0,-6.591381073E0
8.024001562E0,-8.695453405E-1,-7.570982933E0,-5.359775066E0
8.044001562E0,-3.593687296E0,-1.205418301E1,-6.509451270E-1
8.064001562E0,-5.459459782E0,-1.368579292E1,7.204574108E0
8.084001562E0,-7.738854885E0,-1.132054234E1,-2.630413532E0
8.104001562E0,-4.919864178E0,-4.601875782E0,4.429100513E0
8.126001562E0,-4.893010616E0,-3.427998781E0,6.540748596E0
8.146001562E0,-6.247736454E0,-1.064908409E1,1.826689720E0
8.166001562E0,-3.406767130E0,-1.650605583E1,-2.515779257E0
8.188000000E0,-3.244986057E0,-1.351448345E1,-8.354614973E-1
8.208000000E0,-2.310050249E0,-1.103602409E1,3.370480537E0
8.228020312E0,-3.158430755E-2,-9.301118851E0,6.257629395E0
8.250000000E0,4.744062722E-1,-8.051307678E0,-5.344049931E0
8.270000000E0,-9.605920315E-1,-9.462430954E0,-1.410280466E0
8.290000000E0,-6.504663229E-1,-9.889977455E0,1.793458104E0
8.310000000E0,-9.379141331E-1,-7.674738407E0,6.341474056E-1
8.330001562E0,-1.046859860E0,-6.868878365E0,-1.964145660E0
8.352001562E0,-1.133865237E0,-7.075967312E0,-2.738459110E0
8.374007812E0,-1.473525763E0,-7.289443970E0,-5.257284045E-1
8.396001562E0,-1.594490528E0,-7.130038261E0,1.689042211E0
8.416001562E0,-1.597660422E0,-7.220720768E0,2.572215319E0
8.436001562E0,-1.806176186E0,-8.802531242E0,2.379913092E0
8.456001562E0,-2.271771669E0,-1.093889618E1,1.482757807E0
8.476001562E0,-2.890797377E0,-1.152007484E1,-2.233215570E-1
8.496007812E0,-2.061723709E0,-1.078832054E1,-4.162405968E0
8.518001562E0,1.483246207E0,-1.258134747E1,-7.495374203E0
8.540001562E0,2.056207418E0,-1.349110603E1,1.286165137E-2
8.562001562E0,1.685039163E0,-1.213530827E1,2.042512655E0
8.584000000E0,1.035923243E0,-1.305290985E1,-5.158891678E0
8.604007812E0,7.254910469E-1,-1.437607002E1,-6.909857273E0
8.626001562E0,-2.426092476E-1,-1.318702316E1,-1.166809440E0
8.646001562E0,-2.183176756E0,-1.207251263E1,-3.954742551E-1
8.666001562E0,-2.639032602E0,-1.348298550E1,2.135321617E0
8.688000000E0,-2.750420570E0,-1.567109394E1,3.955498934E0
8.708001562E0,-4.516172886E0,-1.633159637E1,3.263076544E0
8.728020312E0,-5.310234070E0,-1.470766735E1,2.440122604E0
8.750001562E0,-5.841546059E0,-1.239868927E1,-1.858139873E0
8.772000000E0,-5.848182678E0,-1.121100330E1,-2.815533161E0
8.792000000E0,-5.104543686E0,-9.219457626E0,-2.678632922E-2
8.812000000E0,-3.650410652E0,-8.006890297E0,8.907005191E-1
8.832000000E0,-1.574704766E0,-7.593172550E0,6.216688156E-1
8.852001562E0,-3.754682839E-1,-6.584638596E0,1.789186835E0
8.874009375E0,1.695860922E-1,-5.806580544E0,2.075993061E0
8.896001562E0,2.084392011E-1,-5.478680611E0,2.074843884E0
8.916001562E0,-7.936204076E-1,-4.831996918E0,2.493034363E0
8.938001562E0,-2.147474289E0,-4.522848129E0,2.442076206E0
8.960000000E0,-2.567426920E0,-4.724411011E0,1.898697734E0
8.980001562E0,-3.007960320E0,-4.622695923E0,1.031977534E0
9.002001562E0,-3.484655380E0,-3.138511181E0,-5.109130740E-1
9.024001562E0,-2.444115877E0,-3.516900301E0,-2.971472502E0
9.046001562E0,-1.815791249E0,-8.181600571E0,-8.291857719E0
9.066001562E0,-6.921733022E-1,-1.704504013E1,-1.823084068E1
9.086001562E0,-1.489911795E0,-2.176838875E1,-2.118988228E1
9.108001562E0,6.727994680E-1,-1.448702717E1,-9.623426437E0
9.128020312E0,1.997051477E0,-9.571271896E0,-5.614431858E0
9.150000000E0,1.641751975E-1,-9.976753235E0,-4.297285557E0
9.170000000E0,-2.995059967E0,-1.325174332E1,-1.938441396E0
9.190001562E0,-4.841717243E0,-1.516336060E1,1.480306149E0
9.212001562E0,-7.621031284E0,-7.618531704E0,5.560380459E0
9.234015625E0,-5.054178715E0,-2.148173571E0,4.227173805E0
9.256000000E0,-5.219608784E0,-2.857699871E0,4.890635967E0
9.276001562E0,-5.995234489E0,-1.130981636E1,4.268191159E-1
9.298001562E0,-1.724572301E0,-1.809830666E1,-5.288916111E0
9.320001562E0,-3.424196720E0,-1.255245495E1,-1.185896024E-1
9.342000000E0,-2.150663435E-1,-8.810269356E0,8.109735489E0
9.362001562E0,1.954817772E0,-9.136244774E0,-3.706817865E0
9.384001562E0,-7.761427164E-1,-8.754637718E0,-2.237113237E0
9.406004687E0,-9.676022530E-1,-8.786251068E0,1.818558931E0
9.428020312E0,-1.560531139E0,-7.272856712E0,1.160603642E0
9.450000000E0,-1.859250903E0,-7.445124626E0,-9.475579858E-1
9.470001562E0,-1.986708641E0,-7.858641624E0,-1.279068708E0
9.492001562E0,-1.559065819E0,-7.899956226E0,4.478976727E-1
9.514001562E0,-1.307971597E0,-6.971972466E0,1.707688332E0
9.534001562E0,-1.061014414E0,-7.130028248E0,2.452936172E0
9.554001562E0,-1.205863595E0,-8.958164215E0,2.038835049E0
9.574007812E0,-1.703570366E0,-1.108057594E1,1.317174792E0
9.596001562E0,-2.478420258E0,-1.164205456E1,-5.303730965E-1
9.618001562E0,-1.446796894E0,-1.051483631E1,-9.523139000E0
9.638001562E0,1.458835006E0,-1.212474537E1,-7.292939663E0
9.658001562E0,1.513710141E0,-1.286744499E1,1.320622563E0
9.680001562E0,1.605934739E0,-1.215351391E1,3.556107759E0
9.702000000E0,2.282842636E0,-1.217993641E1,-3.591177940E0
9.722001562E0,1.112757921E0,-1.369574356E1,-9.573943138E0
9.744001562E0,-1.174221754E0,-1.226273727E1,-1.622004628E0
9.766001562E0,-2.632884502E0,-1.186720467E1,1.475680590E0
9.786001562E0,-2.151113510E0,-1.446132278E1,4.100702763E0
9.806001562E0,-3.776939392E0,-1.778949356E1,3.942876816E0
9.828020312E0,-5.899322987E0,-1.820150566E1,3.228705645E0
9.850000000E0,-7.137345314E0,-1.434492683E1,2.054004908E0
9.870000000E0,-8.724184036E0,-1.065038586E1,-4.564507484E0
9.890001562E0,-6.468788147E0,-9.674854279E0,-2.224299669E0
9.910006250E0,-5.303635597E0,-8.291408539E0,9.399348497E-1
9.932001562E0,-3.166733980E0,-7.197841644E0,5.541427732E-1
9.954007812E0,-9.670946598E-1,-6.328871250E0,-3.865199164E-2
9.976001562E0,-2.402533591E-1,-5.382701874E0,8.001326323E-1
9.996001562E0,-1.088787168E-1,-5.024442673E0,1.383264422E0
1.001800156E1,-2.578267753E-1,-5.054772377E0,2.308383942E0
1.004000156E1,-1.466247439E0,-5.063803673E0,2.530757427E0
1.006200156E1,-2.263018608E0,-5.231953144E0,1.529866219E0
1.008200156E1,-2.589568615E0,-5.391876698E0,1.006388307E0
1.010400156E1,-2.329337835E0,-4.639254570E0,3.938078582E-1
1.012400156E1,-1.735221624E0,-4.000289440E0,-1.047252536E0
1.014400156E1,-1.103229046E0,-5.741487503E0,-4.949667454E0
1.016401094E1,-1.343242973E-1,-1.146050644E1,-1.105018806E1
1.018600000E1,1.095596313E0,-1.753792000E1,-2.271763992E1
1.020600156E1,-7.904696465E-2,-1.815759850E1,-1.435113144E1
1.022802031E1,-1.161216497E0,-1.321183681E1,-8.122540474E0
1.025000156E1,-2.092810154E0,-9.311500549E0,-6.352238178E0
1.027200000E1,-4.469352245E0,-9.288745880E0,-5.483669758E0
1.029200156E1,-6.317206383E0,-1.040828419E1,-3.626200438E0
1.031400781E1,-4.590020180E0,-1.064961052E1,5.326792717E0
1.033600156E1,-6.592616081E0,-7.976225376E0,-1.080340505E0
1.035600156E1,-5.474572182E0,-2.971098900E0,4.086164951E0
1.037800156E1,-4.126253605E0,-4.275326252E0,4.646312714E0
1.039800156E1,-3.590909958E0,-9.933820724E0,-3.466037810E-1
1.042000156E1,-2.702996254E0,-1.518541622E1,-1.820953250E0
1.044000156E1,-2.662984371E0,-1.392244530E1,1.338435411E0
1.046000781E1,-1.374712229E0,-1.109331322E1,1.855898976E0
1.048200000E1,2.824506760E0,-9.216363907E0,1.396039963E0
1.050200156E1,1.807507277E0,-9.515199661E0,-2.827178717E0
1.052400156E1,-2.948219776E-1,-9.752752304E0,1.618576169E0
1.054400156E1,-4.333696663E-1,-9.161652565E0,2.389729261E0
1.056400156E1,-6.414449215E-1,-7.792015553E0,1.800918579E-1
1.058402813E1,-9.033227563E-1,-7.651744366E0,-2.892444611E0
1.060600000E1,-8.719682693E-1,-8.326046944E0,-2.354132414E0
1.062600156E1,-1.231098533E0,-8.731576920E0,-6.378057599E-1
1.064800156E1,-1.659785151E0,-8.049152374E0,7.977575660E-1
1.067000000E1,-1.561641932E0,-7.378795624E0,1.926259756E0
1.069000156E1,-1.545160294E0,-8.792859077E0,2.555130482E0
1.071000156E1,-1.698341250E0,-1.055150604E1,1.583936810E0
1.073000156E1,-1.371188045E0,-1.012674522E1,-8.966476917E-1
1.075000938E1,-5.803736448E-1,-9.416165352E0,-4.299239159E0
1.077200000E1,1.436674237E0,-1.150438786E1,-4.822199821E0
1.079200156E1,2.014701605E0,-1.295175934E1,-1.044350788E-1
1.081400156E1,1.470279336E0,-1.159074211E1,-2.051351964E-2
1.083401563E1,-4.422281981E-1,-1.209118748E1,-5.837513447E0
1.085600156E1,-2.098374128E0,-1.401032257E1,-6.186952114E0
1.087800156E1,-2.402016401E0,-1.338477516E1,-2.063073874E0
1.089800156E1,-1.962986827E0,-1.312879658E1,2.300933123E0
1.091800156E1,-2.176558971E0,-1.404877377E1,3.808926105E0
1.093800156E1,-3.586763144E0,-1.630615044E1,2.771671534E0
1.095800156E1,-4.990339756E0,-1.678003120E1,2.124365568E0
1.098000156E1,-7.018314838E0,-1.448526478E1,-5.086241961E-1
1.100200156E1,-7.689754486E0,-1.283294010E1,-2.561748028E0
1.102400156E1,-6.204698086E0,-1.079891300E1,8.052179217E-2
1.104400469E1,-5.009436131E0,-9.135057449E0,1.543599248E0
1.106600156E1,-3.316438675E0,-8.280288696E0,5.183638334E-1
1.108800156E1,-1.836151600E0,-7.336121082E0,4.091882408E-1
1.111000156E1,-2.895739079E-1,-6.307773590E0,1.739990830E0
1.113200156E1,3.254677653E-1,-5.785253525E0,2.276139021E0
1.115200156E1,-6.526593864E-2,-5.341885090E0,2.566201210E0
1.117400156E1,-1.190425754E0,-4.123418331E0,2.327279091E0
1.119400312E1,-1.924373150E0,-3.425690889E0,1.468517065E0
1.121600156E1,-1.852547169E0,-3.383217812E0,1.002739549E0
1.123600156E1,-1.795038342E0,-3.314494610E0,5.434837937E-1
1.125800000E1,-1.748265266E0,-2.920428038E0,-1.650945693E-1
1.127800000E1,-1.295703650E0,-5.050098896E0,-2.931326389E0
1.129800156E1,-9.523272514E-1,-1.122224617E1,-1.045291233E1
1.131800156E1,9.039356709E-1,-1.961737061E1,-2.552145386E1
1.134000000E1,7.276170850E-1,-1.998155594E1,-1.387613201E1
1.136000000E1,-2.162730247E-1,-1.320496082E1,-5.965210915E0
1.138000000E1,-2.776316106E-1,-7.517084599E0,-5.856916428E0
1.140000156E1,-1.658329487E0,-6.399289608E0,-5.650402546E0
1.142000156E1,-3.975888014E0,-9.091099739E0,-2.156744957E0
1.144000156E1,-6.353933811E0,-1.163660526E1,8.735723495E0
1.146200000E1,-8.534410477E0,-1.501905632E1,-8.598699570E0
1.148200000E1,-5.695700645E0,-5.752605915E0,6.641190052E0
1.150200156E1,-3.532098532E0,-5.459402561E0,5.832715988E0
1.152400156E1,-4.036336899E0,-1.038494492E1,2.418421268E0
1.154400156E1,-2.875158548E0,-1.390664387E1,8.406521082E-1
1.156400156E1,-1.104924083E0,-1.414295197E1,-4.084967613E0
1.158601250E1,-2.334270000E0,-1.157832146E1,2.107893467E0
1.160800156E1,9.156480432E-1,-9.621109009E0,6.341071606E0
1.162802031E1,1.043163180E0,-8.634746552E0,-5.721461773E0
1.165000000E1,-6.763715744E-1,-9.264038086E0,-5.461556911E-1
1.167000000E1,-7.144968510E-1,-8.973304749E0,1.595256567E0
1.169000156E1,-1.265651584E0,-7.311336517E0,4.950730205E-1
1.171200156E1,-1.531465411E0,-6.641295433E0,-7.709329128E-1
1.173200156E1,-1.591943026E0,-7.000942707E0,-1.326521873E0
1.175400156E1,-1.834772587E0,-7.174321175E0,-4.945366979E-1
1.177600156E1,-1.552706838E0,-7.615189552E0,8.707328439E-1
1.179800156E1,-1.304274917E0,-8.457489014E0,1.830836415E0
1.182000156E1,-1.279423118E0,-1.002375698E1,1.835672736E0
1.184000156E1,-1.534405470E0,-1.024769974E1,3.876882792E-1
1.186200156E1,-1.382565260E0,-9.605201721E0,-2.172613621E0
1.188400156E1,8.825985193E-1,-1.097195625E1,-4.280938148E0
1.190600156E1,2.488600254E0,-1.296226597E1,-1.030541062E0
1.192600156E1,2.261438370E0,-1.247781372E1,1.098095775E0
1.194800156E1,9.964858890E-1,-1.189917278E1,-1.329394937E0
1.197000156E1,-1.636819959E0,-1.366565323E1,-7.235785007E0
1.199200156E1,-2.612370968E0,-1.385121346E1,-3.938164711E0
1.201400000E1,-2.608607292E0,-1.302769470E1,-1.204570755E-1
1.203400938E1,-3.140685081E0,-1.250537491E1,1.254073262E0
1.205600156E1,-3.412062883E0,-1.472412968E1,2.697154284E0
1.207600156E1,-5.045032978E0,-1.648768997E1,2.352312803E0
1.209600156E1,-6.879384041E0,-1.543581009E1,1.660398126E0
1.211600156E1,-8.055693626E0,-1.302685165E1,-1.093489408E0
1.213600156E1,-6.948844910E0,-1.104758358E1,-2.118198156E0
1.215600156E1,-5.598544121E0,-9.528539658E0,-1.831564307E-1
1.217600156E1,-4.774957657E0,-8.513293266E0,1.241604209E0
1.219600156E1,-2.814575672E0,-7.974951744E0,-5.485595018E-2
1.221600156E1,-1.438580036E0,-6.853373528E0,-4.404756427E-1
1.223600156E1,-3.792223930E-1,-6.009216309E0,1.132677555E0
1.225800000E1,1.807047725E-1,-5.959541321E0,1.739310861E0
1.227800156E1,-1.360098124E-1,-5.703505516E0,1.951379776E0
1.229800156E1,-8.987737298E-1,-5.102474689E0,1.326521873E0
1.231800156E1,-1.252560139E0,-4.560733795E0,1.126385689E0
1.233800156E1,-1.363258481E0,-4.272807121E0,1.029133201E0
1.236000000E1,-1.241977811E0,-3.877946138E0,5.067279935E-1
1.238000000E1,-1.298595786E0,-3.544836044E0,4.905240610E-2
1.240000156E1,-1.170649648E0,-4.495037079E0,-1.475613475E0
1.242200156E1,-9.924349189E-1,-9.164544106E0,-6.708055019E0
1.244400000E1,-2.324291021E-1,-1.534835529E1,-1.819309807E1
1.246400156E1,1.419675469E0,-2.192089844E1,-2.383029556E1
1.248400156E1,2.270852327E-1,-1.550008106E1,-8.216756821E0
1.250400156E1,-1.655619264E0,-1.008447361E1,-5.920956612E0
1.252400156E1,-4.255808830E0,-8.612805367E0,-6.826395988E0
1.254400156E1,-8.754504204E0,-1.117834568E1,-7.004572392E0
1.256600156E1,-7.607863426E0,-1.340065289E1,7.375060558E0
1.258600156E1,-6.452593803E0,-8.403331757E0,6.018860340E0
1.260800156E1,-2.963810921E0,-2.994073629E0,4.410933495E0
1.262802031E1,-1.500225902E0,-4.339825630E0,2.125217915E0
1.265000156E1,-3.336636066E0,-1.182597733E1,1.917832136E0
1.267200000E1,-4.897962093E0,-1.719345093E1,1.811405182E0
1.269200000E1,-2.494355917E0,-1.576458263E1,-1.046132088E0
1.271200156E1,1.533830881E0,-1.163019848E1,-1.120812058E0
1.273400156E1,1.001580715E0,-9.433547020E0,-6.611922979E-1
1.275401406E1,3.923330307E-1,-8.492731094E0,-2.330515832E-1
1.277600156E1,-2.746915519E-1,-7.997122288E0,4.336473942E-1
1.279600156E1,-8.043847084E-1,-7.727056026E0,7.294749618E-1
1.281600156E1,-1.049752116E0,-7.513454914E0,-5.799714103E-2
1.283600313E1,-9.174772501E-1,-7.441054344E0,-3.572531939E-1
1.285800000E1,-8.937938213E-1,-7.924366951E0,-2.064951062E-1
1.287800156E1,-1.020188451E0,-7.976828575E0,7.422982901E-2
1.289800781E1,-1.283464432E0,-7.499836922E0,5.441254377E-1
1.292000000E1,-1.222125053E0,-7.959791660E0,9.235106111E-1
1.294000000E1,-1.300195217E0,-9.475301743E0,1.240378380E0
1.296000000E1,-1.768213749E0,-1.043495560E1,5.670619011E-1
1.298000156E1,-2.444010735E0,-1.001004219E1,-6.728185415E-1
1.300000156E1,-1.954396486E0,-9.372179031E0,-2.993681192E0
1.302200000E1,1.372864008E0,-1.169323349E1,-4.071588993E0
1.304200000E1,2.567972898E0,-1.281088448E1,-1.185627818E0
1.306200156E1,2.116340399E0,-1.215098572E1,-1.075685978E0
1.308200156E1,-3.679026067E-1,-1.183506584E1,-4.672897339E0
1.310400156E1,-3.011178017E0,-1.346134186E1,-6.868648529E0
1.312400156E1,-3.371754169E0,-1.315272808E1,-3.271456242E0
1.314400625E1,-1.947022319E0,-1.298503876E1,1.486148119E0
1.316600156E1,-1.171205163E0,-1.408558655E1,4.377414703E0
1.318600156E1,-2.269616842E0,-1.693448639E1,3.533669472E0
1.320600156E1,-4.166332722E0,-1.836778831E1,2.889609814E0
1.322802031E1,-6.326774120E0,-1.561880493E1,2.021309614E0
1.325000156E1,-8.542903900E0,-1.222148991E1,-3.685423374E0
1.327000156E1,-6.656541348E0,-1.032823181E1,-1.720578790E0
1.329200156E1,-5.677782059E0,-8.503649712E0,6.135572791E-1
1.331401406E1,-3.900748253E0,-7.680483818E0,1.258718014E0
1.333600313E1,-1.509486675E0,-6.615016460E0,7.581862211E-1
1.335800000E1,3.773261793E-3,-5.372224808E0,8.469536304E-1
1.337800156E1,9.168260694E-1,-5.275048733E0,1.893267751E0
1.339800156E1,5.162473917E-1,-5.242938042E0,2.589961290E0
1.342000000E1,-7.543459535E-1,-4.818933964E0,2.095817089E0
1.344000781E1,-1.402360559E0,-4.470970631E0,1.661202550E0
1.346200156E1,-1.530708909E0,-4.333016396E0,1.168255448E0
1.348400156E1,-1.686073542E0,-4.117050171E0,5.739476085E-1
1.350400156E1,-1.795909762E0,-3.689953089E0,-3.651732206E-1
1.352400156E1,-1.822236419E0,-4.743038177E0,-3.483170986E0
1.354400156E1,-1.720990419E0,-9.583395958E0,-9.593393326E0
1.356401250E1,5.355829597E-1,-1.772314453E1,-1.810968399E1
1.358600000E1,1.328274369E0,-2.000699425E1,-1.901929855E1
1.360600000E1,5.613828301E-1,-1.450540543E1,-8.308483124E0
1.362600156E1,-1.202272326E-1,-1.026442146E1,-6.266842365E0
1.364600156E1,-5.444893837E-1,-8.117693901E0,-5.172730446E0
1.366600156E1,-4.385363102E0,-9.540616035E0,-4.212080479E0
1.368800000E1,-6.263586044E0,-1.142495823E1,6.659261227E0
1.370800000E1,-8.215664864E0,-1.393893623E1,-1.625911951E0
1.372802031E1,-7.184702873E0,-6.539598942E0,1.717629075E0
1.375000156E1,-3.515061617E0,-4.703074455E0,6.161841869E0
1.377200000E1,-4.109723568E0,-9.295516968E0,3.141997099E0
1.379200156E1,-3.968217134E0,-1.329145908E1,5.611146688E-1
1.381400938E1,-3.083176374E0,-1.339404488E1,3.111312985E-1
1.383600156E1,-5.562879443E-1,-1.109194374E1,-1.089313865E0
1.385600156E1,5.142553449E-1,-8.806755066E0,5.238034725E-1
1.387800156E1,3.316227913E0,-8.066563606E0,-1.910534620E0
1.390000156E1,1.264310956E0,-1.029851437E1,-6.917806268E-1
1.392000469E1,-2.802556753E-1,-9.579297066E0,9.299366474E-1
1.394200000E1,-1.046754479E0,-7.135219097E0,1.268246889E0
1.396200000E1,-1.288023114E0,-7.535682678E0,9.291034937E-1
1.398200000E1,-1.940289736E0,-7.874769211E0,-2.462005466E-1
1.400200313E1,-2.089429379E0,-7.901957512E0,-5.889927745E-1
1.402400156E1,-1.735499382E0,-7.884948730E0,4.363097548E-1
1.404401094E1,-1.389211535E0,-8.123439789E0,1.071003079E0
1.406600156E1,-1.508797288E0,-9.588059425E0,1.442458630E0
1.408600156E1,-1.946313620E0,-1.063441181E1,1.240962625E0
1.410600156E1,-2.184201479E0,-9.630302429E0,-8.681088090E-1
1.412600156E1,-7.670639157E-1,-9.603123665E0,-5.176781178E0
1.414800156E1,2.462838650E0,-1.276262665E1,-4.966943741E0
1.417000000E1,2.490343332E0,-1.268953705E1,9.996270537E-1
1.419000156E1,1.954434633E0,-1.123276043E1,7.978150845E-1
1.421200156E1,-2.153536528E-1,-1.283161926E1,-5.758725643E0
1.423400313E1,-2.787367821E0,-1.388757610E1,-6.477560520E0
1.425600156E1,-3.137227774E0,-1.408556747E1,-2.212261438E0
1.427600156E1,-2.610512972E0,-1.436580372E1,1.791025639E0
1.429800156E1,-2.370278835E0,-1.625327682E1,3.839772701E0
1.431800156E1,-4.029642582E0,-1.785954666E1,3.112213135E0
1.433800156E1,-5.404325962E0,-1.655469704E1,2.689943075E0
1.436000000E1,-6.126867771E0,-1.336639786E1,1.708253264E0
1.438000000E1,-7.037190914E0,-1.024676132E1,-4.021444798E0
1.440000000E1,-5.648860455E0,-8.545155525E0,-1.502620101E0
1.442000000E1,-4.970621109E0,-7.493468285E0,9.310571551E-1
1.444000000E1,-2.942100286E0,-7.328373432E0,1.706586927E-1
1.446000000E1,-1.254140258E0,-6.626384258E0,7.347325981E-2
1.448000156E1,-4.153365493E-1,-5.603332043E0,1.610138893E0
1.450200156E1,3.594079912E-1,-5.660792828E0,2.321082830E0
1.452400156E1,1.448109001E-1,-6.094402313E0,1.962642074E0
1.454400156E1,-4.700201154E-1,-5.754042625E0,2.104139328E0
1.456400156E1,-6.310924292E-1,-5.355264187E0,1.867094278E0
1.458400156E1,-8.891969323E-1,-4.814002514E0,1.312338591E0
1.460400156E1,-1.208784580E0,-3.881709814E0,2.406076938E-1
1.462400156E1,-1.778728962E0,-2.788459778E0,-6.852013469E-1
1.464400156E1,-1.824065685E0,-2.880904436E0,-1.732913613E0
1.466400156E1,-1.696416378E0,-5.812930107E0,-3.937781811E0
1.468400781E1,-1.357684731E0,-1.391751385E1,-1.306029415E1
1.470600156E1,1.788123846E0,-2.531312943E1,-2.685458183E1
1.472802031E1,1.705926180E0,-1.754949760E1,-9.670640945E0
1.475000156E1,-1.026250646E-1,-8.474267960E0,-6.448351383E0
1.477200000E1,-2.338464499E0,-8.725975037E0,-5.910259247E0
1.479200156E1,-5.208480358E0,-1.356345940E1,-5.450610638E0
1.481400156E1,-6.568645477E0,-1.356367016E1,7.415561199E0
1.483400781E1,-7.000942707E0,-9.275653839E0,2.922582865E0
1.485600156E1,-4.216485977E0,-3.459065914E0,4.439079762E0
1.487600156E1,-3.395112038E0,-4.969740391E0,5.756963253E0
1.489800156E1,-4.994371414E0,-1.304674244E1,1.210958481E0
1.492000000E1,-2.123857975E0,-1.645127678E1,-3.954052687E0
1.494000000E1,-2.740460634E0,-1.229932976E1,-2.416994333E0
1.496000000E1,9.528731108E-1,-9.268261909E0,3.139143229E0
1.498000000E1,1.839991927E0,-9.337472916E0,-2.680040836E0
1.500000000E1,5.171380043E-1,-8.826138496E0,-7.488201261E-1
1.502000156E1,-1.077773795E-1,-8.471672058E0,1.061407089E0
1.504000156E1,-6.875860095E-1,-6.832745075E0,1.358431816E0
1.506200000E1,-9.016180634E-1,-6.854656696E0,1.052605987E0
1.508200156E1,-1.562015533E0,-7.305274487E0,4.810430110E-1
1.510401719E1,-2.277393341E0,-8.028083801E0,-8.673905730E-1
1.512600156E1,-2.364762783E0,-7.781184196E0,-8.007742763E-1
1.514600156E1,-1.893449545E0,-7.728559494E0,5.592855215E-1
1.516600156E1,-1.747192621E0,-8.804073334E0,1.516468287E0
1.518600156E1,-1.773078680E0,-1.044911003E1,1.907316923E0
1.520600156E1,-1.680538058E0,-1.039673424E1,8.158098459E-1
1.522802031E1,-9.929615855E-1,-9.569958687E0,-6.760459542E-1
1.525000156E1,7.887457609E-1,-1.158527374E1,-3.930522680E0
1.527000156E1,2.464112282E0,-1.329633331E1,-3.474848747E0
1.529200156E1,1.998679519E0,-1.243587589E1,3.529340625E-1
1.531400156E1,4.005020857E-1,-1.216813755E1,-1.234584451E0
1.533400156E1,-1.149571180E0,-1.222122192E1,-7.984404087E0
1.535400312E1,-1.671526194E0,-1.239484024E1,-8.282510757E0
1.537600000E1,-1.810437918E0,-1.232625103E1,-2.706405401E0
1.539600156E1,-2.071271658E0,-1.303864098E1,1.636714578E0
1.541600156E1,-2.092704535E0,-1.622340775E1,3.558051825E0
1.543800156E1,-3.472224712E0,-1.872846985E1,3.785606384E0
1.545800156E1,-5.295437813E0,-1.821158218E1,3.030149698E0
1.548000000E1,-5.921981335E0,-1.418584538E1,3.619554043E-1
1.550000000E1,-6.036845684E0,-1.118992424E1,-4.814615250E0
1.552000000E1,-4.878846645E0,-8.742686272E0,-5.279214382E-1
1.554000156E1,-4.527799129E0,-7.178152084E0,1.237926722E0
1.556200000E1,-2.893948317E0,-7.437262058E0,-4.674535096E-1
1.558200000E1,-1.952385306E0,-7.161488056E0,-1.867199540E0
1.560200000E1,-1.782502294E0,-5.865372658E0,8.558217883E-1
1.562200000E1,-1.169682503E0,-4.963764191E0,2.481120825E0
1.564200156E1,-7.603122592E-1,-4.751044273E0,2.053363085E0
1.566400156E1,-8.582638502E-1,-4.503598690E0,2.025906563E0
1.568400156E1,-1.500005603E0,-4.373928547E0,1.968752027E0
1.570600156E1,-1.920973420E0,-4.260683060E0,1.417827129E0
1.572802031E1,-1.558510423E0,-3.814384699E0,1.845929623E-1
1.575000156E1,-1.592900753E0,-3.201919079E0,-1.500034451E0
1.577000156E1,-4.129997790E-1,-5.595565319E0,-5.273248672E0
1.579000156E1,-9.769204855E-1,-1.114053631E1,-1.587820244E1
1.581000156E1,5.609710217E-1,-1.998777390E1,-2.682877350E1
1.583000156E1,-1.136336088E0,-1.933894348E1,-1.147433567E1
1.585000156E1,-4.118084431E0,-1.199604225E1,-8.669500351E0
1.587000156E1,-2.550782442E0,-4.302332401E0,-8.402087212E0
1.589200156E1,-3.452697515E0,-2.786946535E0,-6.528662682E0
1.591400469E1,-5.467657566E0,-9.219581604E0,6.939928532E0
1.593600156E1,-7.201356411E0,-1.889516449E1,-1.214873505E1
1.595600156E1,-5.448848724E0,-1.484962368E1,4.588027954E0
1.597800000E1,-1.835002303E0,-7.188494682E0,7.272598267E0
1.599800156E1,-1.207051158E0,-7.910020828E0,3.523469925E0
1.601800156E1,-2.108391285E0,-1.040678024E1,2.518125534E0
1.603800156E1,-2.353960037E0,-1.272430038E1,1.986019015E0
1.605800156E1,-1.591483235E0,-1.376439953E1,1.595055461E0
1.607800156E1,3.385018110E-1,-1.256516266E1,-1.370919943E0
1.609800156E1,-1.881267875E-1,-9.472917557E0,-2.290169001E0
1.612000156E1,-1.361984730E0,-7.106976986E0,-2.031164169E0
1.614200156E1,-1.731094003E0,-9.150322914E0,-3.272011757E0
1.616200156E1,-9.922912717E-1,-9.063575745E0,-2.806770504E-1
1.618200156E1,-1.231711388E0,-7.210062027E0,-2.670971453E-1
1.620200156E1,-1.716901302E0,-6.063114643E0,-8.779346347E-1
1.622200156E1,-1.681821346E0,-6.627245903E0,-5.730761290E-1
1.624200156E1,-1.452140689E0,-6.853306770E0,4.963850379E-1
1.626200156E1,-1.406411529E0,-7.057340145E0,1.386577964E0
1.628200156E1,-1.506527424E0,-8.224638939E0,1.974804521E0
1.630200156E1,-1.796235442E0,-1.001644897E1,1.742930889E0
1.632200156E1,-1.598435998E0,-1.044292355E1,7.490499020E-1
1.634200156E1,-7.705594301E-1,-1.066557503E1,-1.981230617E0
1.636200156E1,7.314094901E-1,-1.305114746E1,-8.860711098E0
1.638200156E1,1.433571458E0,-1.384675121E1,-5.890569210E0
1.640200156E1,1.231414557E0,-1.270283031E1,6.968659163E-1
1.642200156E1,6.006573439E-1,-1.186010933E1,1.967190981E0
1.644400000E1,-1.262050748E0,-1.276958942E1,-4.518347263E0
1.646400156E1,-1.422136545E0,-1.362403202E1,-9.097411156E0
1.648600156E1,-1.854290009E0,-1.297068405E1,-2.981432438E0
1.650600156E1,-2.290436983E0,-1.322879791E1,7.139126658E-1
1.652600156E1,-1.166311383E0,-1.566029072E1,4.392345428E0
1.654800000E1,-1.682003260E0,-1.717837906E1,4.565292358E0
1.656800000E1,-2.769392252E0,-1.657848549E1,3.667802095E0
1.658800156E1,-3.243530273E0,-1.383238602E1,2.731075525E0
1.660800156E1,-4.225517273E0,-1.174924850E1,-9.345909953E-1
1.662802031E1,-5.049917698E0,-1.106124020E1,-3.515971422E0
1.665000000E1,-4.772122860E0,-9.014341354E0,-4.877084792E-1
1.667000000E1,-3.428525686E0,-7.341091633E0,6.580320001E-1
1.669000156E1,-2.211121798E0,-6.180947781E0,7.236234844E-2
1.671200000E1,-9.553055763E-1,-5.042438030E0,2.087475777E0
1.673200000E1,-4.075984657E-1,-4.905307770E0,3.240446806E0
1.675200000E1,-8.870325685E-1,-4.903794289E0,2.429559231E0
1.677200000E1,-1.313449502E0,-4.846266747E0,2.258354664E0
1.679200000E1,-1.791849256E0,-5.093204498E0,2.084075928E0
1.681200000E1,-2.354582548E0,-4.948555946E0,1.841734886E0
1.683200000E1,-2.669534922E0,-3.917929173E0,1.368822575E0
1.685200156E1,-3.393206358E0,-3.624112844E0,-1.142225713E-1
1.687401094E1,-2.745594025E0,-6.510054588E0,-4.131271362E0
1.689600469E1,1.758943319E0,-1.270821190E1,-1.765665436E1
1.691800156E1,6.423863411E0,-1.719528198E1,-1.222745609E1
1.693800156E1,-1.943967342E0,-1.580067730E1,-1.699591255E1
1.696000000E1,-5.330977440E0,-1.426835060E1,-8.398486137E0
1.698000000E1,-4.384032249E0,-6.296309948E0,-8.031924248E0
1.700000000E1,-6.976301670E0,-6.487012863E0,-9.419469833E0
1.702000000E1,-8.404222488E0,-9.808824539E0,-2.340466261E0
1.704000156E1,-4.208384514E0,-1.271929169E1,5.397842884E0
1.706200000E1,-1.619409323E0,-8.575771332E0,1.428696752E0
1.708200156E1,-1.735010982E0,-6.086453438E0,4.999562263E0
1.710400938E1,-5.213900805E-1,-1.045116901E1,3.361037731E0
1.712600156E1,-2.284326792E0,-1.463575459E1,2.452380896E0
1.714600156E1,-2.216475248E0,-1.489421368E1,2.350129128E0
1.716600156E1,3.462111652E-1,-1.340871716E1,-2.942665577E0
1.718800000E1,3.487394154E-1,-9.734603882E0,-3.816549182E-1
1.720800625E1,-1.282621741E0,-9.075949669E0,-6.111918092E-1
1.722802031E1,-2.010985613E0,-8.842514992E0,-1.108908057E0
1.725000156E1,-1.786907554E0,-8.543938637E0,3.633344769E-1
1.727000156E1,-1.838134050E0,-7.473079205E0,3.092829883E-1
1.729200156E1,-1.944053411E0,-6.793269634E0,-1.899751127E-1
1.731400469E1,-2.044188499E0,-6.756063461E0,-7.513100505E-1
1.733600156E1,-2.060995817E0,-7.249920368E0,-1.462234735E0
1.735600156E1,-1.532566786E0,-7.904619694E0,-5.382261276E-1
1.737600156E1,-1.155029893E0,-8.012856483E0,9.821973443E-1
1.739800156E1,-1.122985959E0,-8.464020729E0,2.244717360E0
1.741800156E1,-1.174777389E0,-9.461923599E0,2.414715290E0
1.743800156E1,-1.053199649E0,-1.050853443E1,9.672095776E-1
1.745800156E1,-2.471294999E-1,-1.106771469E1,-3.039898634E0
1.747800156E1,2.478142262E0,-1.330438805E1,-1.359989834E1
1.749800156E1,2.365241528E0,-1.326344585E1,-4.542078018E0
1.751800156E1,1.600475907E0,-1.196376896E1,7.146883607E-1
1.753800156E1,9.881157875E-1,-1.117033005E1,-4.196652472E-1
1.756000000E1,-3.735816777E-1,-1.357634926E1,-6.586908817E0
1.758000156E1,-5.310818553E-1,-1.462790203E1,-5.321218967E0
1.760200000E1,-2.689550519E-1,-1.543144417E1,3.114913702E0
1.762200000E1,-1.075101972E0,-1.707913208E1,4.339643955E0
1.764200156E1,-3.305645466E0,-1.933345795E1,3.433783293E0
1.766400156E1,-5.120335579E0,-1.817718124E1,2.758436203E0
1.768400156E1,-5.194977283E0,-1.472659111E1,2.131136417E0
1.770400156E1,-7.745855331E0,-1.110194206E1,-1.517416239E0
1.772400156E1,-6.983436108E0,-9.045351982E0,-1.683430314E0
1.774400156E1,-5.321735859E0,-7.813438892E0,1.537652165E-1
1.776401563E1,-4.418058395E0,-6.648209572E0,3.778241873E-1
1.778600156E1,-2.235724688E0,-5.899964333E0,1.658415645E-1
1.780600156E1,-9.967827797E-1,-5.168745995E0,1.191536784E0
1.782802031E1,-1.146056429E-1,-5.107061863E0,2.844464779E0
1.785000000E1,-2.069739550E-1,-5.407812119E0,2.698495150E0
1.787000000E1,-6.966456175E-1,-5.506127357E0,2.287353277E0
1.789000000E1,-1.322480321E0,-5.132823944E0,2.415328026E0
1.791000156E1,-1.408460975E0,-4.570492744E0,2.067670822E0
1.793200156E1,-1.552409887E0,-3.217701674E0,1.299390793E0
1.795400156E1,-1.451700330E0,-2.267270803E0,6.123889089E-1
1.797400156E1,-1.181615114E0,-4.458616734E0,-2.084372759E0
1.799400313E1,-1.989782691E0,-1.148969746E1,-1.351383209E1
1.801600156E1,-1.796829224E0,-1.977366447E1,-2.968488312E1
1.803600156E1,-1.920312643E0,-2.047627449E1,-1.432520771E1
1.805600156E1,-2.156783104E0,-1.232565689E1,-7.607671738E0
1.807600156E1,-9.150543213E-1,-7.749629021E0,-7.144594669E0
1.809600469E1,-3.156189919E0,-9.733158112E0,-6.734535217E0
1.811600469E1,-4.156018257E0,-1.338667107E1,-1.830405474E0
1.813800156E1,-5.348426342E0,-1.175153732E1,3.029211044E0
1.815800156E1,-5.853928566E0,-5.820304394E0,5.063679218E0
1.817800156E1,-3.042877197E0,-4.245101452E0,3.783863544E0
1.819800156E1,-3.495592117E0,-7.836777687E0,3.597824574E0
1.822000000E1,-4.254094124E0,-1.459757233E1,2.003228426E0
1.824000625E1,-3.829219341E0,-1.493427372E1,1.367204070E0
1.826200000E1,-2.107146502E0,-1.276384354E1,1.449066639E0
1.828200156E1,1.125792027E0,-1.032756138E1,-3.476658583E0
1.830400000E1,2.117230892E0,-7.109208584E0,1.129201293E0
1.832400781E1,8.431803584E-1,-8.810384750E0,-2.916501760E0
1.834600156E1,-3.165517449E-1,-1.028464699E1,4.172806442E-1
1.836600625E1,-8.476623297E-1,-8.722382545E0,8.452298045E-1
1.838800156E1,-1.733622313E0,-6.572629452E0,-1.159521461E0
1.840800156E1,-1.799683094E0,-6.933828831E0,-2.354668617E0
1.842802031E1,-1.578573823E0,-7.132039547E0,-1.262395501E0
1.845000156E1,-1.275946617E0,-7.604616642E0,7.545949221E-1
1.847000156E1,-1.085808873E0,-7.435490131E0,2.036077023E0
1.849000469E1,-1.228292465E0,-7.926282406E0,2.526083946E0
1.851200156E1,-1.345905304E0,-9.708765984E0,2.057481289E0
1.853200313E1,-1.368994951E0,-1.078541851E1,9.374353290E-1
1.855400781E1,-1.855056167E0,-1.092033672E1,-3.086901665E0
1.857600000E1,7.850012779E-1,-1.253964996E1,-9.525033951E0
1.859600156E1,1.899243593E0,-1.337846375E1,-8.149574995E-1
1.861600156E1,1.758253813E0,-1.240542221E1,3.584129572E0
1.863600156E1,1.324319124E0,-1.164664173E1,2.771269321E0
1.865800156E1,7.116045952E-1,-1.362386036E1,-5.712479115E0
1.867800156E1,-1.202463806E-1,-1.377806568E1,-9.517909050E0
1.869800156E1,-1.205624223E0,-1.330582428E1,-2.322682142E0
1.871800156E1,-2.551290035E0,-1.247577381E1,-7.772153616E-1
1.873800156E1,-2.345608950E0,-1.367104530E1,2.243051052E0
1.876000156E1,-2.472310066E0,-1.553890514E1,3.128570318E0
1.878200156E1,-3.616843939E0,-1.515595818E1,2.876116276E0
1.880200156E1,-4.464975357E0,-1.353685474E1,2.189775229E0
1.882400000E1,-5.730531216E0,-1.222183514E1,-1.872236967E0
1.884400000E1,-5.473873138E0,-1.102165890E1,-2.298107862E0
1.886400156E1,-5.091001987E0,-9.419986725E0,-9.485157132E-1
1.888400312E1,-4.410406590E0,-8.214716911E0,-4.815122783E-1
1.890600000E1,-2.403127193E0,-7.415790558E0,-6.993942261E-1
1.892600156E1,-1.610943317E0,-6.151786327E0,4.230937362E-1
1.894800156E1,-5.311776400E-1,-5.678931713E0,3.081155539E0
1.897000156E1,-6.494990736E-2,-6.144919872E0,2.445293903E0
1.899200000E1,-7.785369158E-1,-5.721193790E0,1.278810143E0
1.901200156E1,-1.570069551E0,-4.908506393E0,1.827436686E0
1.903400156E1,-1.854701877E0,-4.278917313E0,1.637174368E0
1.905600156E1,-1.876728535E0,-3.286673784E0,9.671042562E-1
1.907600156E1,-1.826919556E0,-2.704614639E0,4.528584480E-1
1.909600156E1,-1.271627545E0,-3.972765923E0,-1.122803926E0
1.911800000E1,-1.340226173E0,-1.033320236E1,-1.057979488E1
1.913800000E1,8.892927170E-1,-1.809572029E1,-2.462506485E1
1.915800000E1,-8.440135717E-1,-2.197597504E1,-1.848875427E1
1.917800156E1,-2.538122177E0,-1.430163956E1,-8.396330833E0
1.919800156E1,-1.824094355E-1,-7.097199440E0,-8.188571930E0
1.921800156E1,-2.199715853E0,-6.014751911E0,-6.749838829E0
1.923800156E1,-7.461922169E0,-9.613494873E0,-3.773510933E0
1.926000156E1,-5.004025459E0,-1.551070118E1,5.689389229E0
1.928200156E1,-5.713781834E0,-1.114476013E1,3.334088564E0
1.930400000E1,-2.996439219E0,-4.397229195E0,3.679773092E0
1.932400000E1,-1.761519551E0,-6.538478374E0,4.261382103E0
1.934400000E1,-4.734686852E0,-1.289257526E1,1.910716534E0
1.936400000E1,-3.550706625E0,-1.527290058E1,-4.298549891E-1
1.938400156E1,-1.350186110E0,-1.317819309E1,-2.901006460E0
1.940600156E1,-7.845320106E-1,-1.007270336E1,1.063293695E0
1.942600156E1,1.717945099E0,-7.974779129E0,3.012556791E0
1.944600156E1,1.097913861E0,-8.330587387E0,-3.861406803E0
1.946800000E1,-6.380259991E-1,-8.811026573E0,-5.549759269E-1
1.948800000E1,-9.430090189E-1,-8.677238464E0,5.614307523E-1
1.950800156E1,-1.315843582E0,-7.398313046E0,2.524446249E-1
1.952802031E1,-1.440438032E0,-7.211421967E0,1.027399823E-1
1.955000156E1,-1.264243841E0,-7.068842411E0,3.456940055E-1
1.957200156E1,-1.243615389E0,-7.000397205E0,7.727812529E-1
1.959401406E1,-1.296642184E0,-7.273057938E0,1.013733745E0
1.961600000E1,-1.653665543E0,-8.786969185E0,1.122765660E0
1.963600156E1,-1.908178687E0,-1.080811596E1,4.337910414E-1
1.965600156E1,-1.983548164E0,-1.092618847E1,-9.533232450E-1
1.967600156E1,-1.425814152E0,-1.032616329E1,-3.935751438E0
1.969600156E1,1.137513876E0,-1.233335686E1,-5.951372623E0
1.971600156E1,2.769497633E0,-1.341250038E1,-1.740958095E0
1.973600156E1,2.365040302E0,-1.203695393E1,1.504142880E0
1.975600156E1,1.111886501E0,-1.071540356E1,-6.779708862E-1
1.977600156E1,-4.579246044E-1,-1.224457932E1,-7.822670937E0
1.979600156E1,-5.597164631E-1,-1.386733150E1,-4.869796753E0
1.981600156E1,-1.450972438E0,-1.345557594E1,-1.356238604E0
1.983800000E1,-1.376982093E0,-1.414969349E1,2.559794188E0
1.985800156E1,-1.266887069E0,-1.575486183E1,3.938499928E0
1.987800156E1,-2.851743221E0,-1.772617149E1,3.259284258E0
1.989800156E1,-4.290754318E0,-1.651745224E1,2.750382423E0
1.991800156E1,-4.577301979E0,-1.380969810E1,2.339757681E0
1.993800156E1,-6.228372097E0,-1.197387218E1,-1.148211360E0
1.995800156E1,-6.324216843E0,-1.016185379E1,-2.615933657E0
1.998000156E1,-5.043251991E0,-8.544072151E0,-1.018493414E0
2.000000156E1,-3.686151028E0,-7.894583225E0,2.781008780E-1
2.002200000E1,-2.193423748E0,-6.783003330E0,2.103737146E-1
2.004200000E1,-1.530134320E0,-5.114311695E0,1.135177255E0
2.006200000E1,-8.142775893E-1,-4.456854343E0,3.207052231E0
2.008200000E1,-5.209878683E-1,-4.689618587E0,3.357264757E0
2.010200000E1,-1.424550056E0,-4.687798977E0,2.575787544E0
2.012200000E1,-1.802632809E0,-4.731488228E0,1.908580899E0
2.014200000E1,-1.943431020E0,-5.055596352E0,1.755859613E0
2.016200000E1,-2.187744856E0,-4.769335747E0,1.157912612E0
2.018200000E1,-2.038480759E0,-3.813599348E0,-1.286165137E-2
2.020200000E1,-1.950766802E0,-5.693851948E0,-3.846447706E0
2.022200000E1,-1.391519666E0,-1.193025017E1,-1.335883141E1
2.024200000E1,7.421355247E-1,-1.835407448E1,-2.694839668E1
2.026200000E1,1.236672282E0,-1.718554115E1,-1.449358654E1
2.028200000E1,2.155270100E0,-1.107842064E1,-7.848710537E0
2.030200000E1,2.327499151E0,-8.569154739E0,-5.097427845E0
2.032200000E1,3.638707995E-1,-9.824060440E0,-5.407160759E0
2.034200000E1,-3.153259516E0,-1.356735611E1,1.073368564E-1
2.036200156E1,-8.140611649E0,-1.458799553E1,8.492204666E0
2.038400156E1,-8.309172630E0,-9.121553421E0,-2.385812521E0
2.040400156E1,-4.540143967E0,-4.718847275E0,2.601577997E0
2.042400625E1,-3.393072367E0,-5.693737507E0,6.183466434E0
2.044600000E1,-5.046364307E0,-1.141378212E1,2.749740839E0
2.046600000E1,-4.278399944E0,-1.405843639E1,7.792456150E-1
2.048600156E1,-2.159416676E0,-1.386537838E1,-1.144035816E0
2.050800156E1,-3.365098238E-1,-1.106858635E1,-2.263976336E0
2.052802031E1,1.410711527E0,-7.976953030E0,2.764364481E0
2.055000156E1,8.458235264E-1,-8.376823425E0,-2.558099031E0
2.057200156E1,-6.831806898E-1,-8.633481026E0,-4.518050253E-1
2.059401562E1,-1.020983458E0,-8.330979347E0,2.773443162E-1
2.061600000E1,-1.674006701E0,-7.276707172E0,-5.219838023E-1
2.063600156E1,-1.441060424E0,-7.193312168E0,-6.745615005E-1
2.065800156E1,-1.346355319E0,-7.354259968E0,-1.195951626E-1
2.067800156E1,-1.184641480E0,-7.255178452E0,9.265560508E-1
2.069800156E1,-9.425876737E-1,-7.408751965E0,1.728776455E0
2.072000000E1,-7.125335932E-1,-9.272234917E0,1.838861823E0
2.074000000E1,-5.903430581E-1,-1.090840435E1,1.326722860E0
2.076000156E1,-1.056168556E0,-1.077310371E1,3.618021905E-1
2.078200156E1,-1.812113762E0,-1.108523083E1,-5.373009682E0
2.080400156E1,9.094423056E-1,-1.249301147E1,-6.728204727E0
2.082400156E1,2.153287649E0,-1.311167240E1,9.347251058E-1
2.084400156E1,2.237371922E0,-1.266357422E1,3.142217398E0
2.086600000E1,2.248193502E0,-1.365780926E1,3.243664652E-2
2.088600156E1,2.251641273E0,-1.504630280E1,-5.461145401E0
2.090800000E1,-5.337728858E-1,-1.443767738E1,-3.590689659E0
2.092802031E1,-3.057970285E0,-1.268843555E1,-2.837885380E0
2.095000000E1,-3.852442980E0,-1.341091061E1,7.800883651E-1
2.097000156E1,-3.457936049E0,-1.445815372E1,3.070161343E0
2.099200000E1,-4.796955585E0,-1.467451286E1,2.416141987E0
2.101200156E1,-5.792789936E0,-1.346693420E1,2.527367115E0
2.103400625E1,-7.845262527E0,-1.215022850E1,1.375325173E-1
2.105600156E1,-6.505228043E0,-1.150838184E1,-8.176007271E-1
2.107600156E1,-5.203241825E0,-9.674451828E0,-4.511633515E-1
2.109600156E1,-3.484138250E0,-8.322637558E0,2.123082280E-1
2.111600156E1,-1.837502003E0,-6.649914742E0,-1.306218982E0
2.113600156E1,-1.202214837E0,-5.491188049E0,3.563338220E-1
2.115800156E1,-5.087582469E-1,-5.189145088E0,1.337468147E0
2.118000156E1,1.123167872E-1,-5.656013966E0,2.343626499E0
2.120000156E1,-1.086201370E-1,-6.072528839E0,2.411507130E0
2.122200156E1,-1.155269384E0,-5.493486404E0,1.904328823E0
2.124400156E1,-1.460233212E0,-4.376428127E0,1.587001324E0
2.126401719E1,-1.493187070E0,-3.625434399E0,1.356966376E0
2.128600156E1,-1.461775064E0,-3.255625963E0,9.390537739E-1
2.130600156E1,-1.322212338E0,-4.256354332E0,-9.410074353E-1
2.132802031E1,-1.937684894E0,-9.136608124E0,-1.128662109E1
2.135000000E1,3.308116496E-1,-1.867923546E1,-3.052528763E1
2.137000000E1,1.511114717E0,-2.218306351E1,-1.763874435E1
2.139000000E1,-9.131485224E-2,-1.477225304E1,-5.152293682E0
2.141000156E1,1.316245794E0,-7.849850178E0,-5.888433456E0
2.143000156E1,-3.772591650E-1,-3.745067835E0,-6.569957733E0
2.145200000E1,-4.102617741E0,-7.236120224E0,-1.523516774E0
2.147200000E1,-7.072730541E0,-1.205133915E1,1.017433167E1
2.149200000E1,-9.850176811E0,-1.776137543E1,-1.545681286E1
2.151200156E1,-6.989613056E0,-8.655384064E0,5.392125607E0
2.153400156E1,-2.654288530E0,-5.479686260E0,9.983572006E0
2.155401562E1,-3.651435375E0,-9.810059547E0,3.138061047E0
2.157600000E1,-3.548455715E0,-1.323797131E1,1.195329070E0
2.159600000E1,-3.004062176E0,-1.358416367E1,2.633717656E-1
2.161600000E1,-1.584204912E0,-1.185719681E1,7.213729620E-1
2.163600156E1,-4.900643528E-1,-9.915356636E0,1.313478112E0
2.165800156E1,5.340123177E-1,-8.504759789E0,-5.077431202E-1
2.168000156E1,1.846810579E0,-7.789860725E0,-3.061714649E0
2.170000156E1,1.793927401E-1,-9.519173622E0,-1.755581856E0
2.172200156E1,-3.015545011E-1,-9.585004807E0,-2.901389599E-1
2.174400156E1,-1.233741641E0,-7.480826855E0,-6.664308310E-1
2.176400156E1,-1.623939037E0,-7.001421452E0,-9.284618497E-1
2.178400156E1,-1.349841356E0,-6.860766888E0,-9.655337036E-2
2.180400156E1,-1.243941069E0,-6.950195312E0,9.482284188E-1
2.182400156E1,-1.332468987E0,-7.534207821E0,1.617043853E0
2.184600156E1,-1.615138054E0,-9.869014740E0,1.733785152E0
2.186600156E1,-1.504612088E0,-1.122337627E1,7.322617769E-1
2.188600156E1,-1.240359306E0,-1.079522514E1,-1.258239150E0
2.190800156E1,3.698083758E-1,-1.154691887E1,-7.407621384E0
2.192802031E1,2.414811134E0,-1.332066822E1,-5.506701946E0
2.195000000E1,2.347754240E0,-1.273703766E1,1.071165919E0
2.197000156E1,1.896293998E0,-1.165075111E1,1.218428373E0
2.199200000E1,9.371767640E-1,-1.375080109E1,-5.749771118E0
2.201200000E1,-1.503750086E-1,-1.387162113E1,-4.774737358E0
2.203200000E1,-1.191996455E0,-1.305068874E1,-7.272339463E-1
2.205200000E1,-1.866701603E0,-1.385197926E1,2.181089163E0
2.207200156E1,-1.692978263E0,-1.641996384E1,3.669506788E0
2.209400625E1,-3.650190353E0,-1.801857948E1,2.809605122E0
2.211400938E1,-4.983004093E0,-1.599442577E1,2.525701046E0
2.213600156E1,-5.286005020E0,-1.353556156E1,2.228197336E0
2.215600156E1,-8.587283134E0,-1.106303120E1,-1.835596204E0
2.217600156E1,-6.252046108E0,-9.347969055E0,-1.545610428E0
2.219600156E1,-4.498589993E0,-7.879394531E0,-8.532168865E-1
2.221600156E1,-2.695123911E0,-6.526115417E0,1.299476922E-1
2.223800156E1,-9.877901673E-1,-5.268785477E0,6.121878028E-1
2.225800156E1,-3.952252567E-1,-4.510264397E0,1.681467056E0
2.227800156E1,3.582779169E-1,-5.016839027E0,2.668912411E0
2.229800156E1,-6.482827663E-1,-5.528135300E0,2.609220266E0
2.231800156E1,-1.567234874E0,-5.593238354E0,2.035952568E0
2.234000156E1,-2.221072197E0,-5.255339622E0,1.733880877E0
2.236200156E1,-2.172536850E0,-4.506423950E0,1.620165944E0
2.238400625E1,-1.846149802E0,-3.438246012E0,8.860844970E-1
2.240600000E1,-1.813847184E0,-3.777207613E0,2.396500111E-1
2.242600156E1,-1.793601751E0,-7.565390110E0,-3.186337709E0
2.244800156E1,-1.874573708E0,-1.409037495E1,-1.783574104E1
2.247000156E1,3.924958408E-1,-2.405638313E1,-3.197615433E1
2.249200000E1,-1.358230591E0,-1.659359932E1,-7.827919006E0
2.251200156E1,-1.706424236E0,-8.180269241E0,-8.215635300E0
2.253200156E1,-3.451787710E0,-7.268815517E0,-1.005847263E1
2.255400000E1,-5.853899956E0,-1.361084461E1,-2.206141949E0
2.257400156E1,-7.091979980E0,-1.115488243E1,1.495767975E1
2.259400156E1,-4.979135036E0,-5.865047455E0,6.871722698E0
2.261400156E1,-2.272470951E0,-3.815294504E0,2.930752039E0
2.263400938E1,-2.143289328E0,-8.568540573E0,1.635287642E0
2.265600000E1,-4.872095108E0,-1.601723862E1,2.193634510E0
2.267600156E1,-4.833643913E0,-1.656544304E1,3.092685938E0
2.269600156E1,-2.358537674E0,-1.428249550E1,3.961407661E0
2.271600312E1,-6.880648136E-1,-1.075661278E1,5.471325874E0
2.273800156E1,6.899897456E-1,-8.579985619E0,-1.776267767E0
2.276000156E1,3.535565436E-1,-6.392662048E0,-9.261672974E0
2.278200156E1,-1.081125736E-1,-1.025064087E1,1.184354067E0
2.280200156E1,-6.202418804E-1,-9.493497849E0,1.148230314E0
2.282400156E1,-1.042895198E0,-6.966236115E0,6.494224072E-1
2.284400156E1,-1.115640521E0,-6.517696857E0,1.839417219E-1
2.286400156E1,-1.361726165E0,-6.548265934E0,1.872265898E-2
2.288400156E1,-1.774601460E0,-6.435709953E0,1.883566380E-1
2.290600000E1,-1.608338475E0,-7.431716919E0,4.185543656E-1
2.292600156E1,-1.408135414E0,-9.432215691E0,4.970554113E-1
2.294600156E1,-1.145951152E0,-1.064984989E1,7.441753745E-1
2.296600781E1,-9.848787785E-1,-1.071602535E1,3.047627211E-1
2.298800000E1,-2.687443495E-1,-1.156807423E1,-3.072211027E0
2.300800000E1,1.788133383E0,-1.308231068E1,-5.815554142E0
2.302802031E1,2.768568516E0,-1.341908932E1,-9.005837440E-1
2.305000156E1,2.422319174E0,-1.195200825E1,2.234930038E0
2.307200156E1,9.292758703E-1,-1.187188911E1,-9.188659191E-1
2.309400156E1,-7.613944411E-1,-1.317978287E1,-7.271746159E0
2.311400156E1,-1.504248142E0,-1.305459595E1,-4.194449902E0
2.313600156E1,-2.135254383E0,-1.247284317E1,-8.980842233E-1
2.315600156E1,-2.427117109E0,-1.273029613E1,7.908527255E-1
2.317600156E1,-1.578133345E0,-1.409340096E1,3.342344046E0
2.319601719E1,-2.766385317E0,-1.595443344E1,3.119807720E0
2.321800000E1,-4.428229332E0,-1.565918064E1,2.532193899E0
2.323800156E1,-5.183619022E0,-1.442495060E1,1.890212655E0
2.325800156E1,-6.747636318E0,-1.267455864E1,-1.778815269E0
2.328000000E1,-5.573241711E0,-1.026039982E1,-7.069789767E-1
2.330000000E1,-4.743526459E0,-8.402728081E0,-6.821559370E-2
2.332000000E1,-3.295408010E0,-7.550881386E0,-3.235141039E-1
2.334000156E1,-2.065276623E0,-6.484905720E0,-8.033408523E-1
2.336200156E1,-1.614122868E0,-5.050712109E0,4.956955463E-2
2.338400156E1,-1.168935418E0,-4.597451687E0,2.350742102E0
2.340600156E1,-3.899675608E-1,-4.954082012E0,3.978205681E0
2.342600156E1,-6.852492690E-1,-5.165030479E0,2.722973347E0
2.344800156E1,-1.302972436E0,-5.312263966E0,1.509304762E0
2.346800156E1,-1.613251448E0,-5.343283653E0,1.802010298E0
2.349000000E1,-1.832292080E0,-4.397324562E0,1.402178645E0
2.351000000E1,-1.952624798E0,-4.047972679E0,6.551781297E-1
2.353000000E1,-1.446394682E0,-6.709424973E0,-3.334892988E0
2.355000156E1,2.054799646E-1,-1.344426632E1,-1.611827278E1
2.357000156E1,9.654666185E-1,-2.029842567E1,-2.989148521E1
2.359200000E1,-2.124901861E-1,-1.883528137E1,-1.148816490E1
2.361200156E1,-2.044073641E-1,-1.041813850E1,-7.642741680E0
2.363200938E1,-8.668925613E-2,-6.978724480E0,-5.941517830E0
2.365400156E1,-2.903812170E0,-8.754848480E0,-3.650171041E0
2.367400469E1,-5.623280525E0,-1.169136620E1,7.594695091E0
2.369600312E1,-7.795588017E0,-1.564536095E1,-6.740300179E0
2.371600312E1,-7.156039238E0,-6.430404186E0,2.036718607E0
2.373800156E1,-2.829046249E0,-2.938825130E0,7.891547203E0
2.376000156E1,-3.624265909E0,-8.104994774E0,2.558941841E0
2.378000156E1,-3.770666599E0,-1.458895302E1,3.943058848E-1
2.380000156E1,-3.286587715E0,-1.532509422E1,2.821327187E-2
2.382200000E1,-4.800278544E-1,-1.228717709E1,-1.138912201E0
2.384200000E1,3.922372758E-1,-9.366519928E0,2.750076056E-1
2.386200156E1,2.776632309E0,-6.602346420E0,2.310404539E0
2.388200469E1,2.154628515E0,-8.898845673E0,-4.135073662E0
2.390400000E1,3.863666952E-1,-1.094605064E1,1.403452277E0
2.392400781E1,-6.426037289E-3,-8.764003754E0,2.007834911E0
2.394600000E1,-4.839639366E-1,-7.087382793E0,4.012586474E-1
2.396601562E1,-1.080876708E0,-6.957847118E0,-1.251439691E0
2.398800000E1,-1.322997570E0,-6.920104980E0,-1.167537212E0
2.400800000E1,-1.063083053E0,-7.468415737E0,1.895920336E-1
2.402802031E1,-1.064605713E0,-7.668378830E0,1.212184310E0
2.405000156E1,-1.658607125E0,-9.046835899E0,1.672407389E0
2.407200156E1,-2.119701624E0,-1.022478294E1,1.930875927E-1
2.409200156E1,-1.927839994E0,-9.865691185E0,-2.141364574E0
2.411200156E1,-1.183980629E-1,-1.154465866E1,-4.676450729E0
2.413400156E1,2.475403547E0,-1.313865089E1,-5.504623890E0
2.415400156E1,2.749424458E0,-1.286324120E1,-6.448734403E-1
2.417400156E1,1.449430585E0,-1.187984657E1,8.088954091E-1
2.419400156E1,-6.228563786E-1,-1.325561237E1,-4.936307430E0
2.421400156E1,-1.081106544E0,-1.445828724E1,-6.645374775E0
2.423400156E1,-7.800021768E-1,-1.404883099E1,-2.520663261E0
2.425400156E1,-5.797511339E-1,-1.427460480E1,2.125217915E0
2.427400156E1,-8.082250357E-1,-1.530016518E1,4.339184284E0
2.429400156E1,-2.158861399E0,-1.706546593E1,3.688717842E0
2.431401094E1,-3.885674238E0,-1.685481644E1,2.590554953E0
2.433600000E1,-4.940176964E0,-1.472701263E1,1.720128536E0
2.435600312E1,-7.926723003E0,-1.334267616E1,-2.303681612E0
2.437800156E1,-7.014254570E0,-1.127670860E1,-9.088485837E-1
2.439800156E1,-5.611166000E0,-9.055751801E0,-1.029458880E0
2.441800156E1,-3.287966728E0,-8.327053070E0,-7.519038320E-1
2.444000000E1,-1.888364434E0,-6.289405346E0,-9.661082178E-2
2.446000156E1,-7.233649492E-1,-5.097159863E0,2.368468761E0
2.448200000E1,5.087678432E-1,-5.153682232E0,3.980226278E0
2.450200156E1,-1.088308319E-1,-5.241529942E0,2.501423597E0
2.452400156E1,-1.275707245E0,-4.665054321E0,2.290283680E0
2.454400156E1,-1.586886525E0,-4.135035038E0,2.509496927E0
2.456400156E1,-1.725577712E0,-3.350168228E0,2.068542480E0
2.458600000E1,-1.548856974E0,-2.222930193E0,1.275036812E0
2.460600156E1,-1.587853789E0,-1.941563487E0,9.942927957E-1
2.462600156E1,-1.344124079E0,-4.871348381E0,-1.762429357E0
2.464600156E1,-1.441347837E0,-1.331691360E1,-1.402203560E1
2.466800156E1,1.274404764E0,-2.306310463E1,-3.461394882E1
2.469000156E1,3.334989071E0,-1.793687057E1,-9.234608650E0
2.471200156E1,1.902049541E0,-9.173336029E0,-6.129309654E0
2.473200156E1,-1.317931414E0,-7.270683289E0,-7.607633114E0
2.475401250E1,-6.476238728E0,-1.053684330E1,-2.405818462E0
2.477600156E1,-9.386228561E0,-1.448428822E1,7.503313065E0
2.479600781E1,-1.063951683E1,-1.294038296E1,1.889638066E0
2.481800156E1,-4.749052048E0,-5.786842823E0,4.531505585E0
2.484000156E1,-2.965372086E0,-8.190899849E0,2.979957581E0
2.486200156E1,-3.337708712E0,-1.256294155E1,2.452265978E0
2.488400156E1,-3.930369377E0,-1.347537231E1,2.934458017E0
2.490400625E1,-2.325258255E0,-1.328620148E1,2.943517923E0
2.492600156E1,-4.989037514E-1,-1.159444809E1,2.477826357E0
2.494800156E1,1.792203665E0,-8.679201126E0,-5.265778542E0
2.497000156E1,2.088366508E0,-6.560572147E0,-5.052713871E0
2.499000156E1,3.727771938E-1,-9.035305977E0,-1.911453962E0
2.501200156E1,1.758876294E-1,-9.545873642E0,-4.266180098E-1
2.503200156E1,-5.675120354E-1,-7.200494766E0,-1.241460562E0
2.505400156E1,-1.093326569E0,-6.389453888E0,-1.451489568E0
2.507400156E1,-6.394242644E-1,-6.761503220E0,4.745212197E-1
2.509600156E1,-4.754692912E-1,-6.853929043E0,1.676812649E0
2.511800000E1,-8.205312490E-1,-8.175920486E0,1.521783352E0
2.513800000E1,-1.564371347E0,-9.956632614E0,6.783826947E-1
2.515800156E1,-2.047435045E0,-1.060081673E1,-4.420941472E-1
2.518000000E1,-1.723844409E0,-1.024444389E1,-2.232085466E0
2.520000156E1,-9.251195192E-2,-1.171918678E1,-6.406328201E0
2.522200000E1,2.693859816E0,-1.381507015E1,-2.562265158E0
2.524200000E1,2.671048164E0,-1.330142784E1,2.255797625E0
2.526200000E1,1.904127836E0,-1.251138973E1,1.601816714E-1
2.528200156E1,1.095088720E0,-1.460802078E1,-5.781441212E0
2.530200156E1,3.212252557E-1,-1.454970741E1,-3.912614107E0
2.532400938E1,-8.663562536E-1,-1.367448330E1,-2.114080042E-1
2.534600156E1,-2.682750940E0,-1.357366753E1,1.098996043E0
2.536600156E1,-3.364590883E0,-1.570841503E1,2.373209238E0
2.538600156E1,-4.524294376E0,-1.664664459E1,2.366496086E0
2.540800000E1,-5.674602985E0,-1.477090359E1,2.214128971E0
2.542802031E1,-8.334235191E0,-1.224889851E1,1.414973140E-1
2.545000000E1,-7.221611500E0,-1.019098663E1,-1.055009723E0
2.547000156E1,-4.896420479E0,-8.795587540E0,-9.581116438E-1
2.549200000E1,-3.051735640E0,-7.872633457E0,-1.336893559E0
2.551200156E1,-1.192255020E0,-7.181331635E0,-2.156313807E-1
2.553400312E1,-7.569029331E-1,-5.611568451E0,8.742188215E-1
2.555600156E1,-1.772188097E-1,-5.363835335E0,2.454267263E0
2.557600156E1,1.332421154E-1,-5.951305866E0,2.512733936E0
2.559800156E1,-1.022621036E0,-6.042026520E0,1.595543981E0
2.562000156E1,-1.970188618E0,-5.230440140E0,1.991286278E0
2.564200156E1,-1.946706295E0,-4.470338345E0,1.669141650E0
2.566400625E1,-1.388876438E0,-3.748141766E0,7.615764141E-1
2.568600156E1,-1.400560021E0,-3.044284821E0,-2.289335579E-1
2.570600156E1,-1.114500880E0,-4.252657890E0,-2.085780621E0
2.572802031E1,-1.472424388E0,-9.841509819E0,-1.046910667E1
2.575000000E1,2.220957279E-1,-1.790055466E1,-2.859422874E1
2.577000156E1,1.546998978E0,-2.310704231E1,-1.796552467E1
2.579200156E1,-1.580364704E-1,-1.432017994E1,-5.271179676E0
2.581200156E1,-5.395381451E-1,-8.984807014E0,-5.887743950E0
2.583200156E1,-6.364276409E0,-8.986818314E0,-7.581775665E0
2.585400000E1,-9.791796684E0,-1.195074368E1,3.361947536E0
2.587400469E1,-9.822671890E0,-1.037908459E1,4.823971748E0
2.589600156E1,-4.573011398E0,-3.629858971E0,6.088789940E0
2.591600156E1,-2.383475542E0,-5.203433514E0,3.960584164E0
2.593800000E1,-2.979497910E0,-1.302147865E1,2.037513494E0
2.595800156E1,-3.562983990E0,-1.633574295E1,1.855334044E0
2.598000156E1,-2.233464718E0,-1.426248932E1,2.295656204E0
2.600200156E1,-1.600475907E-1,-1.120254612E1,2.675118208E0
2.602401250E1,1.644854903E0,-8.092602730E0,-3.418680668E0
2.604600000E1,2.813665867E0,-5.908324718E0,-2.941698313E0
2.606600156E1,3.009607196E-1,-8.900655746E0,-1.005478501E0
2.608800156E1,-3.168677986E-1,-1.029155254E1,6.492883563E-1
2.611000156E1,-1.178224921E0,-8.083217621E0,2.728815377E-1
2.613200000E1,-1.329787493E0,-7.184242725E0,6.219848394E-1
2.615200156E1,-1.297322154E0,-7.111851692E0,1.094188452E0
2.617400156E1,-1.673250079E0,-7.171812057E0,9.740857482E-1
2.619400469E1,-2.036929369E0,-7.646352768E0,3.419111669E-1
2.621600312E1,-1.694261551E0,-9.020902634E0,-4.016129673E-1
2.623800156E1,-9.624020457E-1,-1.066224194E1,1.406641454E-1
2.626000156E1,-2.943144143E-1,-1.057178879E1,1.317002475E-1
2.628200000E1,7.454299331E-1,-1.111894035E1,-2.482413530E0
2.630200156E1,2.088806868E0,-1.263130093E1,-5.658226490E0
2.632400156E1,2.805142641E0,-1.296306992E1,-1.446748972E0
2.634400781E1,2.230170250E0,-1.208326721E1,1.315910816E0
2.636600000E1,1.181021333E0,-1.264951515E1,-3.455369473E0
2.638600156E1,5.535681844E-1,-1.478876400E1,-7.388429642E0
2.640600156E1,8.390336037E-1,-1.357845592E1,-2.391989470E0
2.642600156E1,-1.627674103E-1,-1.300233459E1,-2.107950896E-1
2.644600156E1,-1.326636672E0,-1.375578976E1,1.773672462E0
2.646800000E1,-1.545868993E0,-1.648730659E1,3.557544231E0
2.648800000E1,-3.576353312E0,-1.736769104E1,2.943105936E0
2.650800156E1,-4.848095894E0,-1.540017605E1,2.312865973E0
2.652802031E1,-5.451989651E0,-1.349335670E1,1.867075086E0
2.655000156E1,-8.369985580E0,-1.189010334E1,-2.207482576E0
2.657200156E1,-7.292681217E0,-9.936914444E0,-1.407464981E0
2.659401094E1,-4.921013832E0,-8.542406082E0,-1.582500219E0
2.661600000E1,-2.458184242E0,-7.192363739E0,-3.765121400E-1
2.663600156E1,-1.398606420E0,-5.367359638E0,1.457685679E-1
2.665600156E1,-6.249344945E-1,-4.729391098E0,2.864308119E0
2.667600156E1,2.545036376E-1,-5.476181030E0,2.883528471E0
2.669600156E1,-6.497862935E-1,-5.695077896E0,1.996113062E0
2.671600312E1,-1.624887228E0,-5.160376072E0,1.978587389E0
2.673800313E1,-1.945623994E0,-4.320203304E0,2.044064045E0
2.676000156E1,-1.719716787E0,-3.157214642E0,1.802652001E0
2.678200000E1,-1.650648832E0,-1.850114584E0,1.245751023E0
2.680200156E1,-1.383005857E0,-2.211361408E0,9.667882323E-1
2.682400156E1,-5.821836591E-1,-8.627400398E0,-7.075086594E0
2.684400156E1,1.954731584E0,-1.797545433E1,-2.477258492E1
2.686400156E1,1.749644279E0,-2.366773605E1,-2.508527756E1
2.688400156E1,1.626563191E0,-1.592948532E1,-6.296252251E0
2.690400156E1,-3.548685610E-1,-9.385011673E0,-6.183312893E0
2.692400156E1,-2.606931448E0,-9.539735794E0,-7.809071541E0
2.694400156E1,-5.900404930E0,-1.238567448E1,-5.554088593E0
2.696400156E1,-6.811858177E0,-1.160732937E1,9.463589668E0
2.698600156E1,-7.079654217E0,-6.625483990E0,1.416687489E0
2.700600156E1,-4.201038361E0,-3.141499043E0,2.155116796E0
2.702802031E1,-3.491924047E0,-8.323374748E0,4.123495102E0
2.705000156E1,-4.347018242E0,-1.552966404E1,1.939466238E0
2.707200156E1,-3.269397497E0,-1.489138889E1,1.519925356E0
2.709400000E1,-1.617848277E0,-1.245104599E1,1.235465527E0
2.711400469E1,1.363277555E0,-1.034733772E1,-3.086585760E0
2.713600156E1,1.832598686E0,-7.132010937E0,2.514620304E0
2.715600156E1,7.798776627E-1,-8.067817688E0,-2.198355913E0
2.717600156E1,-1.907316893E-1,-1.006055069E1,-4.531074464E-1
2.719800156E1,-4.969979525E-1,-9.114926338E0,8.803766966E-1
2.722000000E1,-1.105450749E0,-6.804081917E0,-3.975619674E-1
2.724000000E1,-1.224825740E0,-6.685463428E0,-1.538159609E0
2.726000156E1,-9.498851299E-1,-7.200494766E0,-1.100078225E0
2.728200000E1,-9.201874733E-1,-7.453743458E0,1.526447237E-1
2.730200156E1,-9.449339509E-1,-7.686699867E0,1.315297842E0
2.732400156E1,-1.272709727E0,-8.605057716E0,2.116081476E0
2.734600156E1,-1.594423413E0,-9.970145226E0,1.015610814E0
2.736600156E1,-1.768874526E0,-1.102356529E1,-2.483265996E-1
2.738600156E1,-1.907661676E0,-1.142852020E1,-3.514304876E0
2.740600156E1,2.966799140E-1,-1.195457458E1,-7.659549236E0
2.742600156E1,2.416247606E0,-1.285977459E1,-1.802584887E0
2.744800156E1,2.304744720E0,-1.207942772E1,2.843267918E0
2.747000156E1,1.782885432E0,-1.179582882E1,2.105844170E-1
2.749000156E1,1.997501612E0,-1.451819038E1,-7.816513062E0
2.751200156E1,1.100758195E0,-1.441896439E1,-3.051850557E0
2.753400156E1,-1.009634852E0,-1.288318920E1,-5.326619744E-1
2.755401094E1,-2.703302622E0,-1.253003502E1,-2.627875805E-1
2.757600156E1,-2.505014896E0,-1.446849632E1,2.708464622E0
2.759600156E1,-3.797040939E0,-1.567984772E1,2.676075935E0
2.761600156E1,-4.789830685E0,-1.479346561E1,2.059454203E0
2.763600156E1,-5.385478973E0,-1.348981380E1,1.311409712E0
2.765600156E1,-5.966753006E0,-1.280342484E1,-1.762132406E0
2.767600156E1,-5.136127472E0,-1.089818573E1,-9.353092909E-1
2.769600156E1,-4.644550323E0,-8.837285995E0,-1.318534762E-1
2.771600156E1,-3.009779692E0,-8.091692924E0,-6.599760652E-1
2.773800156E1,-2.038241386E0,-6.654587746E0,-7.139413357E-1
2.776000156E1,-1.096937060E0,-5.356844425E0,1.320756555E0
2.778200000E1,-4.107205272E-1,-5.151872158E0,3.336013556E0
2.780200000E1,-1.552975029E-1,-5.697769165E0,2.188635588E0
2.782200000E1,-1.211044669E0,-5.651561260E0,1.316877961E0
2.784200000E1,-1.726343870E0,-5.413060188E0,1.801646352E0
2.786200156E1,-1.925445676E0,-4.900059700E0,1.913877010E0
2.788400156E1,-1.739473701E0,-3.630462170E0,1.329682112E0
2.790400156E1,-1.571084738E0,-2.395781994E0,9.849458337E-1
2.792400625E1,-7.919253111E-1,-3.192706347E0,-4.083837569E-1
2.794600000E1,-2.484702468E-1,-1.070213890E1,-1.060951138E1
2.796600156E1,2.335103273E0,-2.028692436E1,-3.044547272E1
2.798600313E1,1.297848821E0,-2.275566292E1,-1.589466476E1
2.800800000E1,-1.492286801E0,-1.300023746E1,-6.398408413E0
2.802802188E1,-2.322059631E0,-9.006363869E0,-9.025106430E0
2.805000156E1,-6.021378994E0,-1.422524548E1,-1.122203541E1
2.807200156E1,-7.041164875E0,-1.345533657E1,8.619538307E0
2.809402188E1,-6.209189892E0,-6.366737843E0,8.138906479E0
2.811600156E1,-3.760361910E0,-1.076567173E0,2.401920557E0
2.813600469E1,-2.115200758E0,-1.684703946E0,3.886249065E0
2.815800156E1,-4.800949097E0,-1.116365528E1,2.755802631E0
2.818000000E1,-4.145799637E0,-2.170738411E1,1.928261399E0
2.820000156E1,-3.235141039E0,-1.673250961E1,2.341328144E0
2.822000625E1,-1.486904502E0,-1.229608440E1,2.270718336E0
2.824200156E1,2.622742653E0,-8.257285118E0,-5.075075626E0
2.826200469E1,2.611192942E0,-6.273852348E0,-4.767372608E0
2.828400156E1,1.588600725E-1,-9.077777863E0,-4.208432138E-1
2.830400156E1,1.579407007E-1,-9.979252815E0,1.139850736E0
2.832400156E1,-6.034441590E-1,-7.316766739E0,1.672014743E-1
2.834400156E1,-6.853641868E-1,-6.533690453E0,-7.170921564E-1
2.836400156E1,-5.831413865E-1,-6.864013672E0,-1.318630576E-1
2.838400156E1,-7.136827707E-1,-6.574822903E0,3.212060928E-1
2.840400625E1,-1.064327955E0,-6.264447689E0,7.959667444E-1
2.842600156E1,-1.625184059E0,-8.090744972E0,8.136933446E-1
2.844600156E1,-1.853485584E0,-1.058059978E1,1.532289025E-4
2.846600156E1,-1.617264032E0,-1.097245407E1,-7.072376013E-1
2.848600469E1,-9.800137877E-1,-1.027993584E1,-1.874468327E0
2.850800000E1,6.666797996E-1,-1.269458389E1,-3.825139523E0
2.852802031E1,2.554795265E0,-1.385142422E1,-2.476868629E0
2.855000156E1,2.889006615E0,-1.313626671E1,5.771941543E-1
2.857200156E1,1.822523832E0,-1.277503872E1,-2.301498175E0
2.859400781E1,9.615688324E-1,-1.501794624E1,-3.934228659E0
2.861600000E1,1.346116066E-1,-1.420901299E1,-1.974814177E0
2.863600156E1,-1.070409298E0,-1.325618744E1,-1.147071600E0
2.865800156E1,-3.132918119E0,-1.318042469E1,-1.230313182E0
2.867800156E1,-3.242496014E0,-1.503613281E1,2.143116951E0
2.870000156E1,-4.068888664E0,-1.533320522E1,2.515434504E0
2.872200156E1,-4.916004658E0,-1.355440903E1,2.014960289E0
2.874400156E1,-6.889755726E0,-1.228918839E1,-2.647795379E-1
2.876401094E1,-5.677140713E0,-1.163387585E1,-1.090338588E0
2.878600156E1,-4.135868549E0,-9.094738960E0,-1.024191618E0
2.880800156E1,-2.700314760E0,-8.077337265E0,4.759960473E-1
2.882802031E1,-1.175428629E0,-7.113882065E0,-9.270253181E-1
2.885000000E1,-2.155356109E-1,-6.095273495E0,1.097837329E0
2.887000000E1,7.083868384E-1,-6.270883083E0,2.491626501E0
2.889000000E1,4.788403213E-1,-6.518644810E0,1.868166924E0
2.891000313E1,-1.162327528E0,-5.966207027E0,2.004655600E0
2.893200156E1,-2.110172749E0,-4.962136269E0,2.056542635E0
2.895400156E1,-2.446433544E0,-4.459555149E0,1.539797306E0
2.897400156E1,-2.486886024E0,-3.557697535E0,9.801095724E-1
2.899401406E1,-2.422242641E0,-2.332383394E0,4.218775034E-1
2.901600000E1,-1.803121209E0,-2.335409641E0,-1.096611500E0
2.903600156E1,-1.453749776E0,-6.344155788E0,-4.896975517E0
2.905600156E1,8.365148902E-1,-1.540274239E1,-1.693859291E1
2.907600156E1,3.417272806E0,-2.448774147E1,-2.847836876E1
2.909600313E1,2.443771124E0,-1.886874199E1,-9.690330505E0
2.911800156E1,2.317012697E-1,-1.032673836E1,-7.243800640E0
2.914000000E1,-2.843401909E0,-9.290163040E0,-8.758765221E0
2.916000156E1,-5.498370647E0,-1.251335239E1,2.330429792E0
2.918200000E1,-8.238305092E0,-1.309448242E1,9.344779968E0
2.920200000E1,-7.158988953E0,-7.333449364E0,4.370663166E0
2.922200156E1,-4.546483994E0,-3.859366894E0,2.284288645E0
2.924400781E1,-3.388791561E0,-8.520484924E0,2.789302588E0
2.926600000E1,-4.328611374E0,-1.548818684E1,3.419542551E0
2.928600156E1,-3.819144249E0,-1.575835705E1,2.993374586E0
2.930800156E1,-1.820512652E0,-1.252144527E1,3.081711292E0
2.932802031E1,-3.710054606E-2,-9.813727379E0,1.886161566E0
2.935000000E1,2.642920971E0,-6.452651501E0,-8.272781372E0
2.937000000E1,2.240206599E-1,-8.347632408E0,-1.534922719E0
2.939000000E1,-1.946773231E-1,-9.513465881E0,7.216794491E-1
2.941000156E1,-7.632332444E-1,-7.363214016E0,3.499652445E-1
2.943200156E1,-8.538489342E-1,-6.054141045E0,8.694112301E-1
2.945400000E1,-9.313061237E-1,-6.273699284E0,1.103372693E0
2.947400156E1,-1.495150328E0,-6.656110287E0,1.375468850E0
2.949600156E1,-1.782195807E0,-8.114610672E0,-3.820284009E-1
2.951600156E1,-1.441702008E0,-9.656313896E0,-1.713338614E0
2.953600156E1,-1.607045650E0,-9.891663551E0,-6.760268211E-1
2.955600156E1,-1.449401855E0,-1.027388382E1,6.587215066E-1
2.957600156E1,-1.010975599E0,-1.023899555E1,-1.633515954E-1
2.959800156E1,7.285746932E-1,-1.177987480E1,-1.780941248E0
2.962000156E1,2.748706341E0,-1.354486179E1,-2.365595818E0
2.964200156E1,2.955402613E0,-1.284335041E1,-1.105584860E0
2.966200156E1,1.108534575E0,-1.234795094E1,-1.658578515E0
2.968400156E1,-5.628672242E-1,-1.368645382E1,-3.859912872E0
2.970400625E1,-4.843949080E-1,-1.395542812E1,-3.565330267E0
2.972600000E1,-5.473623872E-1,-1.318335533E1,-1.884581566E0
2.974600156E1,-1.944302440E0,-1.258376217E1,-1.964768052E0
2.976600156E1,-2.086403131E0,-1.411179829E1,1.994963765E0
2.978600156E1,-2.374243736E0,-1.567239666E1,3.193185091E0
2.980800156E1,-3.314178467E0,-1.520545006E1,2.490477324E0
2.982802031E1,-4.306201458E0,-1.347008514E1,2.003266811E0
2.985000000E1,-6.240333557E0,-1.268959427E1,-1.485506296E0
2.987000000E1,-6.021254539E0,-1.208394814E1,-1.318304896E0
2.989000000E1,-5.307466507E0,-9.932977676E0,-5.354967117E-1
2.991000156E1,-3.514678478E0,-8.736786842E0,-7.696400881E-1
2.993000156E1,-2.345264196E0,-6.924691677E0,-1.207328916E0
2.995200000E1,-1.201707244E0,-5.285660267E0,1.193863869E0
2.997200000E1,-4.190044701E-1,-4.790998459E0,3.560178041E0
2.999200000E1,3.073867857E-1,-5.119607925E0,2.567005634E0
3.001200156E1,-3.760811985E-1,-5.348522186E0,1.957633376E0
3.003401563E1,-8.365915418E-1,-5.432147026E0,1.888689995E0
3.005600156E1,-1.225371599E0,-4.893049240E0,1.677042484E0
3.007600156E1,-1.644280314E0,-3.496137857E0,1.855946898E0
3.009600156E1,-1.949904919E0,-2.617887259E0,1.492593288E0
3.011600156E1,-2.388168097E0,-3.016205788E0,-6.115461588E-1
3.013600156E1,-3.099638939E0,-7.990724564E0,-9.186485291E0
3.015600156E1,3.575021923E-1,-1.866774368E1,-3.149265862E1
3.017600156E1,2.090118885E0,-2.505843353E1,-1.991409683E1
3.019800156E1,8.696697950E-1,-1.367495251E1,-5.993376255E0
3.022000156E1,-2.039955556E-1,-4.999658108E0,-6.686325073E0
3.024000156E1,-4.794628620E0,-6.437500954E0,-6.170777321E0
3.026000156E1,-5.639436722E0,-1.299808311E1,5.541896820E0
3.028000156E1,-7.925449371E0,-1.645912170E1,7.026445866E0
3.030200156E1,-5.732006550E0,-8.699188232E0,3.697547674E0
3.032400156E1,-2.624198198E0,-6.059935093E0,3.444145203E0
3.034400156E1,-2.481446266E0,-1.011550236E1,2.582366705E0
3.036400625E1,-3.340696812E0,-1.353319645E1,3.194190741E0
3.038600000E1,-2.836276531E0,-1.427506351E1,3.422942400E0
3.040600156E1,4.747127295E-1,-1.296933270E1,5.218401924E-2
3.042600156E1,2.143078566E0,-9.230834961E0,-5.946756363E0
3.044800156E1,2.105748355E-1,-7.001229763E0,1.641560495E-1
3.047000156E1,-1.204561114E0,-7.947609901E0,-1.270420909E0
3.049000156E1,-1.818683505E0,-8.283775330E0,-1.182601571E0
3.051000156E1,-1.754365563E0,-6.846095085E0,-9.790369123E-2
3.053000156E1,-1.299371600E0,-6.198319912E0,1.474732399E0
3.055000156E1,-1.326196194E0,-6.026359081E0,2.248289585E0
3.057200156E1,-1.620615959E0,-6.544147968E0,2.181433916E0
3.059400625E1,-1.181385279E0,-8.495326996E0,-2.039859891E-1
3.061401406E1,-5.886671543E-1,-1.004816818E1,-1.596214175E0
3.063600156E1,-7.279809713E-1,-1.102935982E1,-1.292370915E0
3.065600156E1,-9.243438244E-1,-1.072635841E1,-9.606782198E-1
3.067600156E1,-5.972288251E-1,-1.120891476E1,-1.687481165E0
3.069600625E1,6.527934670E-1,-1.245647526E1,-2.847701788E0
3.071800000E1,2.060871363E0,-1.277563286E1,-1.596367598E0
3.073800156E1,2.023924112E0,-1.199292946E1,5.696954727E-1
3.075800156E1,1.356334448E0,-1.172805500E1,-9.980182052E-1
3.078000000E1,1.633132815E0,-1.383248138E1,-5.810871124E0
3.080000000E1,1.857785702E0,-1.407275391E1,-2.838421822E0
3.082000000E1,8.142105341E-1,-1.384892464E1,4.028579295E-1
3.084000156E1,-1.780941248E0,-1.405933666E1,-6.030610800E-1
3.086200156E1,-2.901418209E0,-1.537472057E1,1.387008905E0
3.088400156E1,-3.039611340E0,-1.618207359E1,3.035560608E0
3.090400156E1,-4.971014023E0,-1.456963634E1,2.479885578E0
3.092400781E1,-5.684811592E0,-1.295545578E1,1.713271618E0
3.094600000E1,-6.795204163E0,-1.248591518E1,-2.836362839E0
3.096600781E1,-5.084336281E0,-1.090118313E1,-1.187811375E0
3.098800000E1,-3.963849783E0,-8.922759056E0,-5.116025805E-1
3.100800156E1,-1.702650905E0,-7.709597588E0,-1.045586228E0
3.102802031E1,-8.449904323E-1,-6.019856453E0,-2.662065029E-1
3.105000156E1,-5.757672191E-1,-5.020324707E0,2.852212429E0
3.107200156E1,4.688229859E-1,-5.332193851E0,3.432375431E0
3.109400156E1,-4.497747123E-1,-5.544741154E0,1.677052140E0
3.111400156E1,-1.256975055E0,-5.235333920E0,2.064395428E0
3.113600156E1,-1.483820915E0,-4.833222866E0,2.054991245E0
3.115600156E1,-1.754719973E0,-3.834266186E0,1.453385711E0
3.117600156E1,-1.804931164E0,-2.786161184E0,2.537662089E-1
3.119600156E1,-2.476159811E0,-2.206869841E0,-1.643303514E0
3.121600156E1,-2.842817545E0,-3.476304293E0,-4.183570862E0
3.123600156E1,-1.785068870E0,-1.106617260E1,-9.533461571E0
3.125600156E1,-7.482933998E-1,-2.140322495E1,-3.195718193E1
3.127600156E1,4.213507771E-1,-2.330028534E1,-1.510467339E1
3.129600156E1,1.488053799E0,-1.134859276E1,-8.644849777E0
3.131600156E1,2.217787266E0,-4.222864151E0,-6.739591599E0
3.133800000E1,-4.427549541E-1,-4.255904198E0,-4.303520203E0
3.135800000E1,-4.556548595E0,-9.275932312E0,9.648824692E0
3.137800156E1,-8.219524384E0,-1.823081207E1,-7.347316265E0
3.139800156E1,-9.088246346E0,-1.415948105E1,5.032956600E0
3.141800156E1,-4.501549244E0,-8.298590660E0,6.782064915E0
3.144000000E1,-3.248998880E0,-9.268013000E0,5.287815094E0
3.146000000E1,-3.477070332E0,-1.278022003E1,2.821241140E0
3.148000156E1,-3.894025326E0,-1.440298176E1,2.004224539E0
3.150200156E1,-2.527970552E0,-1.415101528E1,1.585909724E0
3.152400000E1,-6.078398824E-1,-1.145964527E1,2.010047197E0
3.154400156E1,2.120209187E-1,-8.892304420E0,2.645305395E-1
3.156400156E1,8.415236473E-1,-5.038204670E0,-5.181272984E0
3.158400156E1,-4.724430144E-1,-7.650700092E0,-3.540354013E0
3.160400625E1,-8.272445947E-2,-9.581940651E0,-1.025120616E0
3.162600000E1,-6.332759261E-1,-7.242785454E0,-1.130618691E0
3.164600781E1,-8.341973424E-1,-5.907855511E0,-2.668864429E-1
3.166800156E1,-6.061161160E-1,-5.555294991E0,8.229541779E-1
3.168800781E1,-4.676354527E-1,-5.420213699E0,1.772255182E0
3.171000000E1,-4.826231599E-1,-8.723320961E0,1.570692182E0
3.173000156E1,-1.459217966E-1,-1.142232418E1,-2.914605439E-1
3.175200000E1,-8.233180642E-2,-1.152246857E1,-2.176023006E0
3.177200000E1,-3.124241531E-1,-1.042081070E1,-5.045760632E0
3.179200156E1,1.259896040E0,-1.201974487E1,-3.783058882E0
3.181200469E1,2.517120123E0,-1.300784206E1,1.115899086E0
3.183400313E1,2.778356314E0,-1.260433197E1,1.238597155E0
3.185600156E1,8.585128188E-1,-1.380236244E1,-6.837523937E0
3.187600156E1,-1.356430173E0,-1.446237659E1,-8.006487846E0
3.189600156E1,-2.372941256E0,-1.345475292E1,-3.937801123E0
3.191600156E1,-2.562427998E0,-1.247766972E1,-1.663338184E0
3.193600156E1,-4.844714999E-1,-1.379249763E1,4.791927814E0
3.195600156E1,-8.023065925E-1,-1.631080627E1,4.588774681E0
3.197600156E1,-2.123197317E0,-1.858205032E1,3.750334978E0
3.199600156E1,-3.604547262E0,-1.805485725E1,2.816127300E0
3.201600156E1,-5.457870007E0,-1.570732307E1,-3.117154837E-1
3.203600156E1,-5.135457516E0,-1.331474018E1,-2.956187963E0
3.205600156E1,-3.958084822E0,-1.024847698E1,-3.923809230E-1
3.207600781E1,-3.740317583E0,-7.964599133E0,9.255887866E-1
3.209800156E1,-2.799549580E0,-7.136789322E0,2.964883745E-1
3.211800156E1,-1.679168582E0,-6.171131134E0,-4.574936628E-1
3.214000000E1,-2.635824680E-1,-4.953766346E0,1.263171315E0
3.216000781E1,1.073531389E0,-4.926309586E0,3.160327196E0
3.218200000E1,6.906793118E-1,-4.991393566E0,2.982342005E0
3.220200000E1,-6.343102455E-1,-4.649788380E0,2.743659496E0
3.222200156E1,-1.514581561E0,-4.438572407E0,2.711308956E0
3.224200469E1,-2.307541370E0,-3.943374872E0,2.634368896E0
3.226400156E1,-2.894829273E0,-2.545228004E0,1.399037361E0
3.228401562E1,-3.174548626E0,-1.382517457E0,2.158420682E-1
3.230600000E1,-3.307063103E0,-2.336127996E0,-2.245837927E0
3.232600156E1,-3.838374615E0,-8.448055267E0,-7.309440613E0
3.234600156E1,-8.455650210E-1,-2.074987411E1,-2.956276894E1
3.236800000E1,-2.383590460E0,-2.445850372E1,-1.600902176E1
3.238800156E1,7.556771040E-1,-1.420066071E1,-1.081478119E1
3.240800938E1,2.643447638E0,-6.548218250E0,-8.077768326E0
3.242802031E1,1.017315388E0,-6.343121529E0,-7.555564404E0
3.245000625E1,-9.433825016E-1,-1.353251648E1,-4.264360666E-1
3.247200000E1,-6.482148170E0,-1.447718239E1,8.060606956E0
3.249200156E1,-6.889794350E0,-1.068559933E1,3.910535812E0
3.251200156E1,-6.753679276E0,-4.287986279E0,-1.743974805E0
3.253200156E1,-4.793651581E0,-6.027230263E0,6.632015228E0
3.255401094E1,-6.089383602E0,-1.281522369E1,3.106160641E0
3.257600156E1,-4.568012238E0,-1.535982895E1,7.918007970E-1
3.259600156E1,-7.086454034E-1,-1.318603706E1,-3.772485971E0
3.261600781E1,-4.973235726E-2,-1.044679260E1,-8.306347728E-1
3.263800000E1,1.518843293E0,-8.239338875E0,5.879450798E0
3.265800312E1,3.198174477E0,-9.299720764E0,-4.862087250E0
3.268000000E1,8.991855383E-1,-9.848587036E0,-1.055747151E0
3.270000781E1,2.221531868E-1,-9.604550362E0,8.883829117E-1
3.272200000E1,-9.380290508E-1,-6.457200050E0,-1.427020907E0
3.274200156E1,-1.355051160E0,-6.081674099E0,-2.773644209E0
3.276200156E1,-1.531216383E0,-6.447087288E0,-2.135560751E0
3.278200625E1,-1.348883629E0,-7.142478466E0,6.344634295E-2
3.280400781E1,-9.862770438E-1,-7.794955730E0,1.663491368E0
3.282401250E1,-1.164357781E0,-8.820938110E0,2.633171797E0
3.284600156E1,-1.301794529E0,-1.032816505E1,1.668729901E0
3.286600156E1,-1.159665108E0,-1.043045521E1,-5.992016792E-1
3.288600156E1,-1.954626292E-2,-1.067697144E1,-4.426764011E0
3.290600313E1,2.416400671E0,-1.262157059E1,-7.751342773E0
3.292802031E1,2.986450672E0,-1.331920242E1,-9.348495603E-1
3.295000000E1,2.015553951E0,-1.162700939E1,1.238223672E0
3.297000000E1,2.191077620E-1,-1.126765919E1,-4.120248318E0
3.299000156E1,-8.515409827E-1,-1.334820080E1,-9.324802399E0
3.301200000E1,-6.424696445E-1,-1.429421806E1,-2.841495991E0
3.303200000E1,-4.359937012E-1,-1.417489052E1,1.737242341E0
3.305200000E1,5.797703266E-1,-1.560297489E1,5.476066113E0
3.307200156E1,-4.837628305E-1,-1.737336159E1,4.569468498E0
3.309200156E1,-2.347706318E0,-1.813829803E1,3.110297918E0
3.311200156E1,-3.967259169E0,-1.639738846E1,2.305644989E0
3.313400156E1,-8.175068855E0,-1.413438129E1,-3.078330517E0
3.315401562E1,-7.969607830E0,-1.193317127E1,-2.178311825E0
3.317600156E1,-5.631124020E0,-9.381430626E0,-8.287385106E-1
3.319600156E1,-4.017470360E0,-7.964177608E0,-2.297380269E-1
3.321600156E1,-1.914825082E0,-6.626451015E0,-3.190417588E-1
3.323800156E1,-1.164951563E0,-4.957232952E0,1.482010841E0
3.326000156E1,-2.185427248E-1,-4.222874165E0,4.243952274E0
3.328200000E1,-6.828933954E-1,-4.520281792E0,3.356622696E0
3.330200156E1,-1.319051862E0,-4.532501698E0,2.256238222E0
3.332400156E1,-1.621056557E0,-4.381130219E0,2.898267269E0
3.334400156E1,-1.641282678E0,-4.085915565E0,2.389882565E0
3.336400156E1,-1.547382116E0,-3.106869459E0,1.364465117E0
3.338400156E1,-1.407244802E0,-2.083300352E0,6.572753787E-1
3.340400156E1,-1.361199498E0,-2.792932034E0,-7.816685438E-1
3.342400156E1,-1.918722749E0,-8.967674255E0,-9.510937691E0
3.344400469E1,-6.475166678E-1,-1.877830887E1,-3.659424210E1
3.346600000E1,6.806332469E-1,-2.303430939E1,-1.301435375E1
3.348600156E1,-1.167297840E0,-1.424907207E1,-6.014512062E0
3.350600156E1,-2.025389194E0,-5.281082153E0,-8.686556816E0
3.352802031E1,-7.424601555E0,-4.667869568E0,-1.142707443E1
3.355000156E1,-7.150551796E0,-1.012909222E1,1.248127079E1
3.357200156E1,-9.780370712E0,-1.470938206E1,9.605537355E-2
3.359200156E1,-4.917068005E0,-1.080953312E1,3.785347939E0
3.361400156E1,-2.457676649E0,-1.226474762E1,2.829984665E0
3.363600156E1,-2.146612644E0,-1.240318108E1,2.871816158E0
3.365600156E1,-1.524522305E0,-1.224952126E1,3.579590082E0
3.367600156E1,-5.829880834E-1,-1.233513737E1,3.166858435E0
3.369600156E1,4.710927010E-1,-1.210904884E1,3.080427647E0
3.371600156E1,9.125547409E-1,-1.083305359E1,2.407973051E0
3.373600156E1,1.402350903E0,-7.511750698E0,-7.196635246E0
3.375600156E1,-5.709500909E-1,-6.362226963E0,-4.493246078E0
3.377600156E1,-1.185129881E0,-7.999937534E0,-3.281847239E0
3.379600156E1,-3.947942853E-1,-9.619289398E0,-8.908824325E-1
3.381600156E1,-7.727621198E-1,-7.514183044E0,-1.135818839E0
3.383600156E1,-1.001571178E0,-6.482665062E0,-1.102118015E0
3.385600156E1,-3.847865164E-1,-6.636707783E0,5.776538253E-1
3.387600156E1,-3.747021556E-1,-6.656790733E0,1.455933213E0
3.389600156E1,-8.146989942E-1,-7.794342995E0,2.457609653E0
3.391600156E1,-1.334710002E0,-9.805616379E0,9.463800788E-1
3.393600156E1,-1.734608769E0,-1.044031811E1,-8.928456903E-1
3.395600156E1,-1.415567040E0,-1.092740440E1,-2.229087830E0
3.397800000E1,2.980876863E-1,-1.303777790E1,-4.608158112E0
3.399800156E1,2.036220789E0,-1.379811001E1,-3.421237469E0
3.401800156E1,1.868779778E0,-1.238739872E1,-3.974374849E-3
3.403800156E1,8.591544628E-1,-1.128311634E1,-4.217146933E-1
3.406000156E1,6.082421541E-1,-1.317200661E1,-6.059111595E0
3.408200156E1,1.467118859E0,-1.463559151E1,-3.356038809E0
3.410400156E1,7.833636403E-1,-1.351857185E1,-9.496936202E-1
3.412400156E1,1.235886887E-1,-1.384633923E1,2.890634537E0
3.414401250E1,-8.375204802E-1,-1.478033638E1,2.805247784E0
3.416601094E1,-1.860610723E0,-1.564879036E1,2.225372076E0
3.418800000E1,-3.051055670E0,-1.510236645E1,2.041535854E0
3.420800000E1,-3.657497644E0,-1.394648361E1,1.527548552E0
3.422802031E1,-4.630529881E0,-1.331992054E1,3.745106161E-1
3.425000000E1,-5.080869675E0,-1.188297844E1,-3.738497794E-1
3.427000156E1,-3.805009127E0,-8.647933960E0,-8.443583250E-1
3.429200156E1,-3.013821125E0,-6.113996029E0,-7.358434796E-1
3.431200156E1,-1.770665407E0,-5.291319847E0,8.338908553E-1
3.433400000E1,-6.653390527E-1,-4.667209148E0,1.311610699E0
3.435400156E1,-7.316297889E-1,-4.427702427E0,2.697240591E0
3.437600156E1,-1.148374081E0,-5.138933659E0,3.280190468E0
3.439600156E1,-1.652008772E0,-5.751188278E0,2.372462511E0
3.441600156E1,-1.997568727E0,-6.045866489E0,2.021548986E0
3.443600156E1,-2.517617941E0,-5.510312557E0,1.993757129E0
3.445600156E1,-3.008515596E0,-3.548590183E0,1.210403085E0
3.447800000E1,-3.093097925E0,-3.120075703E0,-1.412100196E-1
3.449800156E1,-2.141642094E0,-7.288362026E0,-4.180630207E0
3.451800156E1,3.658244312E-1,-1.451920509E1,-1.936672592E1
3.453800156E1,3.027343512E0,-2.128420448E1,-2.931554413E1
3.456000156E1,7.067874670E-1,-1.669143486E1,-1.031012249E1
3.458200156E1,-1.581092477E0,-9.738913536E0,-9.094575882E0
3.460400156E1,-5.225584507E-1,-7.968305588E0,-9.414939880E0
3.462400156E1,-2.632348061E0,-1.012301922E1,7.366077423E0
3.464600156E1,-7.413990021E0,-1.156072807E1,1.011577988E1
3.466800156E1,-7.267599106E0,-1.123321056E1,-8.290019989E0
3.469000156E1,-4.276140213E0,-7.355849743E0,2.907135487E0
3.471200000E1,-4.042686462E0,-9.434198380E0,9.434954643E0
3.473200156E1,-3.391559124E0,-1.422630882E1,2.342496634E0
3.475400625E1,-1.659727693E0,-1.517235374E1,1.496720791E0
3.477600156E1,-3.905900717E-1,-1.287606430E1,1.507331967E0
3.479600156E1,2.885108888E-1,-1.025755501E1,1.175677538E0
3.481800156E1,6.977278590E-1,-6.316545963E0,-6.659558296E0
3.484000156E1,-4.595239162E-1,-7.076685429E0,-1.616067052E0
3.486200156E1,-3.056629300E-1,-1.014383984E1,-2.262999490E-2
3.488400000E1,-3.773453236E-1,-7.968276978E0,-1.016194969E-1
3.490400312E1,-1.326828241E0,-5.946986198E0,-1.807105064E0
3.492600156E1,-1.321781278E0,-7.075249195E0,-1.453807116E0
3.494600469E1,-9.228211045E-1,-7.287863731E0,4.158345461E-1
3.496800000E1,-1.123962760E0,-7.380193710E0,1.479923129E0
3.498800625E1,-1.820321202E0,-8.353025436E0,1.529464006E0
3.501000000E1,-1.322920918E0,-9.780773163E0,-4.969309270E-1
3.503000469E1,-7.211718559E-1,-1.008598614E1,-1.280256271E0
3.505200000E1,-3.343263268E-1,-1.123416901E1,-1.319061518E0
3.507200000E1,1.138394997E-1,-1.214721203E1,-4.239020348E0
3.509200000E1,1.677751184E0,-1.207824039E1,-4.986901760E0
3.511200000E1,1.810303807E0,-1.196655560E1,-9.305687547E-1
3.513200000E1,5.793489218E-1,-1.220673275E1,-4.850461185E-1
3.515200156E1,-3.524265066E-2,-1.358536148E1,-2.163965464E0
3.517400156E1,-5.379197001E-1,-1.358290958E1,-6.736526966E0
3.519400781E1,-4.471794069E-1,-1.483496189E1,-5.290898681E-1
3.521600156E1,-2.049532533E-1,-1.564448071E1,4.059981823E0
3.523600156E1,-7.813333869E-1,-1.683879471E1,3.698658466E0
3.525800156E1,-2.292247057E0,-1.669096756E1,2.805812836E0
3.527800156E1,-3.126405954E0,-1.537443352E1,1.997061133E0
3.530000000E1,-3.762430429E0,-1.421407795E1,1.903361559E0
3.532000000E1,-4.796083927E0,-1.274372292E1,1.377853513E0
3.534000156E1,-6.460149765E0,-1.089535999E1,-9.510439634E-1
3.536200156E1,-4.016330719E0,-7.835686207E0,-1.311265945E0
3.538400156E1,-2.166149139E0,-5.719929695E0,-5.087870359E-1
3.540400156E1,-1.061311245E0,-4.235955715E0,6.183265448E-1
3.542400156E1,2.479243726E-1,-3.950011492E0,3.033319473E0
3.544400156E1,4.170795083E-1,-4.326188564E0,2.653148890E0
3.546400156E1,-1.085521460E0,-4.340247154E0,2.153028965E0
3.548400156E1,-2.020639181E0,-4.536725044E0,2.566133976E0
3.550400781E1,-2.636983395E0,-4.560935020E0,2.507217646E0
3.552600000E1,-3.154121399E0,-4.160356522E0,1.913072467E0
3.554600156E1,-3.387804985E0,-3.012020826E0,5.474007130E-1
3.556600156E1,-3.342449188E0,-3.476754427E0,-2.121578932E0
3.558600156E1,-1.935549259E0,-8.942774773E0,-7.126331329E0
3.560600156E1,5.230660439E-1,-1.543169308E1,-2.060695076E1
3.562802031E1,1.808053255E0,-2.045091629E1,-2.389632607E1
3.565000000E1,3.160202742E0,-1.564063931E1,-1.017166042E1
3.567000000E1,3.723768950E0,-1.019084263E1,-7.030793667E0
3.569000156E1,7.606570721E-1,-9.363664627E0,-6.845856190E0
3.571200156E1,-3.391204834E0,-1.480783081E1,-3.285342693E0
3.573200156E1,-7.543028355E0,-1.380441093E1,9.762271881E0
3.575400469E1,-6.389013290E0,-7.235602856E0,6.051948071E0
3.577600156E1,-4.087572575E0,-3.299765348E0,2.540525675E0
3.579600156E1,-4.363883018E0,-7.757596493E0,2.858533144E0
3.581800156E1,-6.252237320E0,-1.594206047E1,2.737970591E0
3.584000156E1,-4.679754257E0,-1.630434990E1,2.846839905E0
3.586200156E1,-2.533448458E0,-1.257274818E1,3.381340504E0
3.588400000E1,-6.162195802E-1,-9.823294640E0,2.560914755E0
3.590400781E1,2.658962250E0,-5.699004173E0,-6.509029865E0
3.592600156E1,-2.537279129E-1,-6.337519169E0,-4.728653908E0
3.594800156E1,8.417055756E-2,-9.857675552E0,-2.347754240E-1
3.597000000E1,-4.243770540E-1,-8.349558830E0,-9.477782845E-1
3.599000156E1,-1.104722977E0,-6.577561378E0,-2.587174416E0
3.601200156E1,-5.569774508E-1,-6.398102283E0,-1.342476845E0
3.603400625E1,-7.962157577E-2,-6.396674633E0,1.118197560E0
3.605600000E1,-1.408652514E-1,-6.879691124E0,2.208497763E0
3.607600156E1,-5.328822732E-1,-9.774893761E0,3.100002766E0
3.609800156E1,-6.684611440E-1,-1.186958981E1,1.067909673E-1
3.612000156E1,-1.215229750E0,-1.094179916E1,-4.546052933E0
3.614200000E1,-1.442027688E0,-1.185234261E1,-6.394050598E0
3.616200156E1,3.104321957E-1,-1.264097404E1,-3.053565025E0
3.618400156E1,1.785145521E0,-1.271420670E1,9.700539112E-1
3.620400156E1,1.792510152E0,-1.267024899E1,8.474994898E-1
3.622600000E1,2.178206205E0,-1.441139984E1,-5.596005917E0
3.624600000E1,2.801627636E0,-1.475528336E1,-3.894245625E0
3.626600000E1,1.077122569E0,-1.460841274E1,-2.239909649E0
3.628600000E1,-1.359954476E0,-1.471629620E1,-6.227031350E-1
3.630600000E1,-1.410663724E0,-1.533174896E1,3.133080959E0
3.632600000E1,-2.223361015E0,-1.520844841E1,3.259475946E0
3.634600000E1,-3.160729170E0,-1.437194252E1,2.382479668E0
3.636602031E1,-3.449412584E0,-1.315511322E1,2.306267500E0
3.638800000E1,-3.651751518E0,-1.275270653E1,2.224701881E0
3.640800781E1,-6.423997402E0,-1.337249851E1,-3.503004313E-1
3.642802031E1,-5.467380047E0,-1.165476322E1,-1.908753395E0
3.645000000E1,-3.017728567E0,-9.065769196E0,-2.149332285E0
3.647000000E1,-1.846322179E0,-6.507650852E0,-1.542900205E0
3.649000156E1,-5.016139746E-1,-4.937399387E0,1.201946616E0
3.651000156E1,4.530978799E-1,-4.629361153E0,2.644204378E0
3.653000156E1,3.716758788E-1,-4.650133133E0,2.842923164E0
3.655200000E1,-1.219280720E0,-4.215816021E0,2.795029402E0
3.657200000E1,-2.100404501E0,-3.719095469E0,2.579953432E0
3.659200000E1,-2.723538637E0,-3.438964367E0,2.411966801E0
3.661200000E1,-3.070295334E0,-3.005269051E0,2.057146072E0
3.663200000E1,-3.507428885E0,-2.570932150E0,1.415413737E0
3.665200156E1,-3.881518126E0,-3.283254862E0,-6.580415368E-1
3.667400156E1,-2.679485083E0,-9.967539787E0,-1.006509018E1
3.669400156E1,-5.767057538E-1,-1.739349174E1,-2.819079781E1
3.671400313E1,-1.411324501E0,-2.368048477E1,-2.311666870E1
3.673400312E1,1.365557015E-1,-1.630251122E1,-9.294588089E0
3.675600156E1,3.722609997E0,-7.392988205E0,-7.097409725E0
3.677600156E1,3.026242256E0,-5.318719387E0,-6.177835464E0
3.679600156E1,8.995686173E-1,-1.199677944E1,-2.564764738E0
3.681600156E1,-6.255407333E0,-1.474857903E1,9.619232178E0
3.683800156E1,-8.649934769E0,-1.325457859E1,9.139146656E-2
3.686000000E1,-6.030649185E0,-5.163890839E0,2.662601233E0
3.688000000E1,-3.943288565E0,-4.475164890E0,7.054008007E0
3.690000000E1,-5.162444592E0,-1.060387135E1,3.154513836E0
3.692000312E1,-3.229260921E0,-1.544239902E1,7.378833890E-1
3.694200156E1,-1.850871086E0,-1.396228504E1,9.214037657E-1
3.696200469E1,-3.350541592E-1,-1.120339870E1,1.824075222E0
3.698400000E1,1.711729765E0,-8.841691017E0,-2.454976082E0
3.700401562E1,2.530307293E0,-6.386743546E0,-4.900988102E0
3.702600000E1,-8.378748596E-2,-9.331228256E0,-7.914847732E-1
3.704600156E1,-1.921298951E-1,-9.843913078E0,5.528977513E-1
3.706600156E1,-1.331530571E0,-7.068717957E0,-4.574936628E-1
3.708600156E1,-1.689281702E0,-6.455476761E0,-1.158621192E0
3.710600156E1,-1.252742052E0,-7.456799030E0,-1.015237272E-1
3.712802344E1,-9.430952072E-1,-7.521269321E0,1.112422705E0
3.715000000E1,-1.028980017E0,-7.841154099E0,1.737568021E0
3.717000000E1,-1.317155600E0,-9.292892456E0,1.549766779E0
3.719000156E1,-1.270899773E0,-1.093070889E1,1.499153227E-1
3.721000938E1,-1.426925063E0,-1.053217030E1,-2.410731316E0
3.723200156E1,-3.157473207E-1,-1.057202816E1,-8.357746124E0
3.725200625E1,1.929171085E0,-1.247001743E1,-5.016618729E0
3.727400000E1,2.608654976E0,-1.284932613E1,1.280170083E0
3.729401250E1,2.626266956E0,-1.189639568E1,2.287803411E0
3.731401719E1,1.451815128E0,-1.298527813E1,-3.495754719E0
3.733600469E1,9.061574191E-2,-1.431602383E1,-7.187671185E0
3.735800000E1,-1.508921683E-1,-1.411082172E1,-9.207620621E-1
3.737800156E1,-9.810097814E-1,-1.435319138E1,1.393722296E0
3.739800156E1,-6.653869748E-1,-1.576865292E1,3.946247816E0
3.741800625E1,-1.449708223E0,-1.775234604E1,3.422549486E0
3.744000000E1,-3.151401520E0,-1.683503914E1,2.259465694E0
3.746000156E1,-3.727063417E0,-1.452350521E1,1.832330465E0
3.748000156E1,-4.528488636E0,-1.261039448E1,1.151946187E0
3.750200156E1,-6.803631783E0,-1.064366341E1,-1.277364016E0
3.752200156E1,-5.125133514E0,-8.551006317E0,-2.678824365E-1
3.754400156E1,-2.821269751E0,-6.924921989E0,2.544749081E-1
3.756600156E1,-8.860844970E-1,-5.484311581E0,-7.133380175E-1
3.758600156E1,1.633707434E-1,-4.527464390E0,1.323112369E0
3.760600156E1,8.337568045E-1,-4.609135151E0,2.820149422E0
3.762802031E1,-7.151001692E-2,-5.210711956E0,3.052530527E0
3.765000000E1,-1.566382527E0,-5.549692154E0,2.766768217E0
3.767000000E1,-2.239814043E0,-5.709472179E0,2.688583136E0
3.769000156E1,-2.588639736E0,-5.335066795E0,2.868751764E0
3.771000156E1,-3.002319336E0,-3.714919806E0,1.974431157E0
3.773200156E1,-2.943833828E0,-2.315442085E0,-4.802577198E-1
3.775400313E1,-2.198997498E0,-4.521746635E0,-3.838202238E0
3.777600156E1,-1.661671758E0,-1.220210648E1,-1.260472488E1
3.779600156E1,2.627780139E-1,-2.031120110E1,-3.481352234E1
3.781600156E1,2.280534744E0,-2.193916130E1,-1.293352509E1
3.783800000E1,-1.228282928E0,-1.291329002E1,-8.308454514E0
3.785800000E1,-1.317548394E0,-9.110933304E0,-8.035343170E0
3.787800156E1,-5.474236965E0,-1.203846741E1,-8.737792015E0
3.789800156E1,-4.637760162E0,-1.338182545E1,3.954321146E0
3.792000156E1,-6.528662682E0,-7.829853535E0,9.694668770E0
3.794200156E1,-3.527425289E0,-2.997875690E0,4.876060009E0
3.796400156E1,-1.932111263E0,-3.743027925E0,2.854127884E0
3.798600000E1,-3.294210911E0,-1.256425285E1,3.024959087E0
3.800600156E1,-3.633363724E0,-1.911446381E1,2.784906626E0
3.802802031E1,-2.175046206E0,-1.686525345E1,2.754021406E0
3.805000156E1,-2.712630630E-1,-1.221809959E1,2.019595385E0
3.807200000E1,2.622819424E0,-6.557823658E0,-4.956686974E0
3.809200000E1,-1.978280991E-1,-6.792445660E0,-1.906598687E0
3.811200156E1,-9.269391298E-1,-9.094442368E0,-3.582683578E-2
3.813200156E1,-8.448467255E-1,-9.179110527E0,2.675185204E-1
3.815200156E1,-1.685374379E0,-7.242641926E0,-5.940205455E-1
3.817400156E1,-2.399564743E0,-5.877841949E0,-2.273897886E0
3.819403125E1,-1.701080322E0,-6.421612740E0,-1.574168444E0
3.821600156E1,-8.313722014E-1,-6.908717632E0,5.480998158E-1
3.823600156E1,-5.585480928E-1,-6.583001614E0,1.838306427E0
3.825600625E1,-5.306221247E-1,-7.902531624E0,2.818980932E0
3.827800156E1,-7.749073505E-1,-1.072332287E1,1.679407954E0
3.829800781E1,-9.827144742E-1,-1.105297565E1,-5.256900787E-1
3.832000000E1,-9.223518968E-1,-1.134351635E1,-6.467715740E0
3.834000312E1,7.786231041E-1,-1.258128166E1,-8.369612694E0
3.836200156E1,1.715723276E0,-1.313040543E1,7.822719216E-1
3.838400000E1,2.196095943E0,-1.315573597E1,4.688517094E0
3.840400000E1,2.561575413E0,-1.393751907E1,2.090952158E0
3.842400000E1,2.788440466E0,-1.419839191E1,-7.901325226E0
3.844400469E1,2.092762232E0,-1.329029942E1,-6.964531898E0
3.846400469E1,-2.582577467E-1,-1.307565498E1,-1.099819660E0
3.848600000E1,-3.312272787E0,-1.276154518E1,-1.473535419E0
3.850600156E1,-2.086048841E0,-1.529167938E1,2.691944599E0
3.852802031E1,-2.678489208E0,-1.635840225E1,3.071119070E0
3.855000000E1,-3.833097696E0,-1.527574444E1,2.596492767E0
3.857000000E1,-3.967757225E0,-1.322806931E1,2.130360603E0
3.859000000E1,-5.009119987E0,-1.262475967E1,-5.108460188E-1
3.861000156E1,-4.358213425E0,-1.142702675E1,-1.105872154E0
3.863000156E1,-3.798362732E0,-9.226620674E0,-1.338157535E0
3.865200156E1,-2.220918894E0,-7.665525436E0,-1.769075632E0
3.867200156E1,-9.386036992E-1,-6.071245670E0,-6.399030685E-1
3.869200156E1,1.336060315E-1,-5.038386822E0,1.731457829E0
3.871400000E1,8.819856048E-1,-5.415195942E0,3.641168833E0
3.873400156E1,-1.848706752E-1,-5.442001343E0,2.841342688E0
3.875401094E1,-1.494537354E0,-5.164178371E0,2.663415194E0
3.877600156E1,-2.104694843E0,-4.710544109E0,2.248002291E0
3.879600156E1,-2.548819304E0,-4.331062794E0,2.086173296E0
3.881600156E1,-3.052913666E0,-3.538390636E0,1.961377978E0
3.883800000E1,-3.281396866E0,-2.938039780E0,-1.529415995E-1
3.885800000E1,-3.252829313E0,-5.074826717E0,-4.650526047E0
3.887800156E1,-9.714329839E-1,-1.349606705E1,-1.687020493E1
3.889800156E1,1.571994543E0,-2.131586456E1,-3.334120941E1
3.892000156E1,5.955433249E-1,-1.748561096E1,-9.925930023E0
3.894200000E1,4.771356881E-1,-8.444416046E0,-9.799908638E0
3.896200000E1,7.280480266E-1,-6.615390301E0,-8.951259613E0
3.898200000E1,-2.255079269E0,-1.226048660E1,-6.653027058E0
3.900200000E1,-6.728061199E0,-1.316247845E1,1.338018703E1
3.902200000E1,-8.668581009E0,-1.322188282E1,2.520290136E0
3.904200000E1,-4.702978611E0,-6.405887604E0,3.823185682E0
3.906200000E1,-2.618088484E0,-6.904044628E0,3.407935619E0
3.908200156E1,-3.186376095E0,-1.213701248E1,4.822257519E0
3.910400156E1,-3.015487432E0,-1.552970219E1,3.556127071E0
3.912400156E1,-2.133128405E0,-1.472282696E1,2.259810209E0
3.914400156E1,-5.121197701E-1,-1.214128399E1,1.777359605E0
3.916400156E1,1.934170127E0,-8.051892281E0,-8.523406029E0
3.918400156E1,3.877649084E-2,-6.317177773E0,-9.874070883E-1
3.920400156E1,-8.782027364E-1,-8.969129562E0,-1.506556153E0
3.922400156E1,-6.331130862E-1,-9.572545052E0,2.634579539E-1
3.924400156E1,-1.106427670E0,-7.053997993E0,-3.144544363E-1
3.926400156E1,-1.426398277E0,-5.328075886E0,-1.553434730E0
3.928600156E1,-1.059817433E0,-6.654865742E0,-1.252924085E0
3.930800156E1,-9.413234591E-1,-7.417945385E0,6.271946430E-1
3.932802031E1,-7.816590071E-1,-7.443075180E0,1.641560435E0
3.935000156E1,-1.015409708E0,-8.422236443E0,2.146966696E0
3.937200156E1,-1.204360127E0,-1.002193642E1,8.055243492E-1
3.939400156E1,-1.106034994E0,-1.071080589E1,-1.966874957E0
3.941400156E1,2.827360630E-1,-1.243611526E1,-7.417973995E0
3.943400156E1,2.549173594E0,-1.388156223E1,-5.960068226E0
3.945600000E1,2.629953861E0,-1.346787262E1,1.034390926E0
3.947600000E1,2.167183638E0,-1.206624985E1,1.692039847E0
3.949600156E1,1.447199225E0,-1.314376450E1,-4.026022434E0
3.951600156E1,1.576399922E0,-1.475372124E1,-5.405436993E0
3.953600156E1,3.623384833E-1,-1.409562302E1,-2.065669537E0
3.955600156E1,-1.749586821E0,-1.340540314E1,-1.073186517E0
3.957600156E1,-1.946524262E0,-1.474946976E1,2.806186199E0
3.959800156E1,-2.040855885E0,-1.608548164E1,3.495017290E0
3.962000000E1,-3.277499199E0,-1.605605316E1,2.323065281E0
3.964000000E1,-3.837617874E0,-1.418084621E1,1.697508216E0
3.966000000E1,-4.668444157E0,-1.230262470E1,-3.708618581E-1
3.968000000E1,-4.179308891E0,-1.118049145E1,-1.140090108E0
3.970000156E1,-3.579934835E0,-9.324822426E0,-1.286548227E-1
3.972200156E1,-2.869699717E0,-7.644474983E0,1.817199141E-1
3.974400000E1,-1.580910563E0,-6.490747929E0,-1.832139045E-1
3.976400156E1,-1.049187064E0,-5.250129700E0,1.060468554E0
3.978400156E1,-3.437499106E-1,-4.956428528E0,3.830224514E0
3.980400156E1,1.114836037E-1,-5.583039284E0,3.155883551E0
3.982400156E1,-1.014653087E0,-5.865957260E0,2.177717924E0
3.984400156E1,-1.609420657E0,-5.917001247E0,2.196986675E0
3.986400156E1,-1.902595401E0,-6.005969524E0,2.430478811E0
3.988400469E1,-2.590497494E0,-4.909272671E0,1.972630620E0
3.990600000E1,-2.985138655E0,-3.319905519E0,1.244601831E-1
3.992600156E1,-2.852394581E0,-3.854377508E0,-1.223685980E0
3.994600156E1,-3.111475945E0,-8.354854584E0,-6.155626297E0
3.996600156E1,-6.048232317E-1,-1.467898464E1,-2.125866127E1
3.998600938E1,1.190866351E0,-2.104152679E1,-2.521615410E1
4.000800000E1,2.216647714E-1,-1.473130226E1,-1.006458187E1
4.002802031E1,-2.132754773E-1,-8.508072853E0,-8.886807442E0
4.005000156E1,-1.904817224E0,-9.953433990E0,-8.260982513E0
4.007200000E1,-2.882666826E0,-1.479759407E1,3.433285281E-2
4.009200000E1,-6.372234821E0,-1.187148666E1,1.142450809E1
4.011200156E1,-5.646801472E0,-7.976848125E0,5.493246555E0
4.013200156E1,-3.861531258E0,-4.746121407E0,2.792615891E0
4.015200156E1,-3.614660501E0,-8.437396049E0,2.211418629E0
4.017400000E1,-4.168056011E0,-1.407164288E1,2.978080511E0
4.019400469E1,-3.336071014E0,-1.470126915E1,3.500294209E0
4.021400781E1,-1.934361696E0,-1.293410969E1,3.549882889E0
4.023600156E1,-3.794139326E-1,-1.046631908E1,3.558473110E0
4.025800000E1,3.537509441E0,-6.830781937E0,-1.138925552E1
4.027800156E1,7.170634270E-1,-7.579477310E0,-7.537914276E0
4.030000000E1,4.064013660E-1,-1.060457993E1,2.612457275E-1
4.032000000E1,-1.308000386E-1,-8.905702591E0,9.136369824E-1
4.034000156E1,-6.894343495E-1,-6.653582573E0,1.114596725E0
4.036200156E1,-1.299093843E0,-6.106239319E0,3.787818551E-1
4.038400000E1,-1.548895240E0,-6.217828274E0,-4.640920460E-2
4.040400000E1,-1.690775633E0,-6.608849049E0,6.594589353E-2
4.042400156E1,-1.551232100E0,-8.119791031E0,4.160835147E-1
4.044400781E1,-1.092148662E0,-9.724748611E0,4.594472945E-1
4.046600156E1,-6.620542407E-1,-1.048954391E1,6.027450562E-1
4.048800156E1,-4.312053025E-1,-1.105313873E1,-4.090349972E-1
4.051000000E1,4.596579969E-1,-1.255314445E1,-4.393944263E0
4.053000156E1,2.586934805E0,-1.340748119E1,-6.041260242E0
4.055000156E1,2.858427763E0,-1.307874775E1,-6.870784163E-1
4.057200000E1,2.008208513E0,-1.259895039E1,9.583510756E-1
4.059200156E1,5.137765408E-1,-1.410529613E1,-3.759088039E0
4.061400156E1,-1.428093463E-1,-1.322858715E1,-6.687838554E0
4.063400625E1,-3.705266416E-1,-1.233154678E1,-3.354879856E0
4.065600156E1,-1.550370097E0,-1.229692650E1,-6.951133609E-1
4.067600156E1,-1.321723819E0,-1.432413578E1,2.938614607E0
4.069600625E1,-1.543446064E0,-1.632180977E1,3.518423080E0
4.071800156E1,-2.962843657E0,-1.676559830E1,3.496836901E0
4.073800156E1,-3.722552776E0,-1.514577770E1,2.765120983E0
4.076000156E1,-4.558215141E0,-1.316042900E1,3.293847144E-1
4.078000156E1,-3.890194654E0,-1.131016159E1,-3.685519218E0
4.080200156E1,-3.413058996E0,-8.857043266E0,-1.067861795E0
4.082400156E1,-2.531686306E0,-7.490709782E0,-2.173552066E-1
4.084400156E1,-1.402858496E0,-6.841125011E0,4.438466728E-1
4.086401250E1,4.066311941E-2,-6.194556236E0,1.229432106E0
4.088600000E1,1.145175457E0,-6.049831390E0,2.437517643E0
4.090600000E1,3.849014342E-1,-6.117769718E0,2.048536301E0
4.092600156E1,-1.559142470E0,-5.572820187E0,2.539721251E0
4.094800156E1,-2.687682867E0,-5.152848721E0,2.704605341E0
4.096800156E1,-2.892616987E0,-5.096374512E0,2.289986849E0
4.099000156E1,-3.392727613E0,-4.030313015E0,1.542450070E0
4.101000156E1,-3.468058586E0,-2.278849125E0,-4.927075505E-1
4.103200000E1,-2.430622339E0,-2.627933264E0,-2.591282606E0
4.105200000E1,-2.075341702E0,-6.980869770E0,-6.944841862E0
4.107200000E1,-2.420537919E-1,-1.513306904E1,-1.872489929E1
4.109200156E1,2.775368214E0,-2.410117340E1,-2.677166557E1
4.111400781E1,1.152645230E0,-1.669512367E1,-8.813382149E0
4.113600156E1,3.453587890E-1,-8.574670792E0,-8.561914444E0
4.115600156E1,-1.637193441E0,-9.130096436E0,-8.476547241E0
4.117800156E1,-3.129777193E0,-1.432139683E1,-2.194372177E0
4.120000156E1,-5.428670406E0,-1.197483921E1,1.012575912E1
4.122200156E1,-5.058680058E0,-5.658341408E0,5.414305210E0
4.124400156E1,-3.233532190E0,-3.610331535E0,1.671172023E0
4.126400156E1,-3.180687428E0,-8.231169701E0,1.696310997E0
4.128600156E1,-4.519189835E0,-1.590387726E1,2.985847235E0
4.130800156E1,-3.421400309E0,-1.683726120E1,3.524236202E0
4.132802031E1,-1.677923560E0,-1.394891644E1,2.149705887E0
4.135000000E1,1.858321905E0,-8.526987076E0,-5.568357944E0
4.137000000E1,2.725559175E-1,-7.664088726E0,-1.818108916E0
4.139000000E1,-4.599836171E-1,-8.349222183E0,-1.604172587E0
4.141000156E1,-1.567435861E-1,-8.701783180E0,3.327940404E-2
4.143200000E1,-4.528584480E-1,-7.401626587E0,2.736093700E-1
4.145200156E1,-7.892150879E-1,-6.306461334E0,-8.425004482E-1
4.147400781E1,-7.224264145E-1,-6.633585930E0,-2.224270821E0
4.149600156E1,-5.353339314E-1,-7.456109047E0,-9.239032865E-1
4.151600156E1,-7.456310391E-1,-7.080219269E0,6.931405663E-1
4.153600156E1,-1.020954609E0,-7.309172153E0,1.793831706E0
4.155600156E1,-1.275506258E0,-9.506331444E0,1.256007791E0
4.157600156E1,-1.207453370E0,-1.081010818E1,5.357265472E-1
4.159600156E1,-4.325460494E-1,-1.042971706E1,-1.412914157E0
4.161800000E1,7.254527211E-1,-1.192914867E1,-5.596494198E0
4.163800156E1,2.214808941E0,-1.312781048E1,-4.159082413E0
4.166000000E1,2.568451643E0,-1.277484798E1,8.829432726E-1
4.168000000E1,2.044878006E0,-1.250305748E1,1.374741077E0
4.170000156E1,1.045758486E0,-1.435154438E1,-3.909712076E0
4.172000156E1,1.491233230E0,-1.472019291E1,-6.488822937E0
4.174000156E1,7.026407719E-1,-1.428916073E1,-1.965486288E0
4.176000156E1,-1.662878394E0,-1.367355347E1,-7.073717117E-1
4.178000156E1,-1.460874915E0,-1.481235123E1,2.585431337E0
4.180200156E1,-1.996630073E0,-1.666699600E1,3.104341030E0
4.182400156E1,-3.971224070E0,-1.617107964E1,2.464983940E0
4.184600156E1,-4.498935223E0,-1.389532375E1,2.356698990E0
4.186600156E1,-5.046009541E0,-1.222539711E1,8.362467587E-2
4.188800156E1,-5.031970024E0,-1.120322609E1,-1.243874073E0
4.190800156E1,-4.451797962E0,-9.209727287E0,-7.436294556E-1
4.192802031E1,-3.248012543E0,-7.754378796E0,-4.592653513E-1
4.195000000E1,-1.549268842E0,-6.399385452E0,-3.360214233E-1
4.197000000E1,-5.321352482E-1,-5.716979980E0,1.542335153E0
4.199000156E1,2.757067084E-1,-5.546416759E0,2.369187117E0
4.201200156E1,-2.667427957E-1,-5.317215443E0,2.120496511E0
4.203400938E1,-1.172555566E0,-4.905757904E0,2.417521238E0
4.205600156E1,-1.478199363E0,-4.408711910E0,2.262290716E0
4.207600156E1,-1.615674257E0,-3.895720482E0,2.573891401E0
4.209600156E1,-1.801349521E0,-3.125438690E0,2.173149824E0
4.211600156E1,-2.049293041E0,-2.457188368E0,2.723452449E-1
4.213600156E1,-1.767361283E0,-3.772083998E0,-1.709498286E0
4.215600156E1,-2.179662228E0,-9.433547020E0,-7.604224205E0
4.217800156E1,5.712853074E-1,-1.882223701E1,-3.307745743E1
4.219800156E1,2.079814196E0,-2.508857918E1,-1.725607491E1
4.222000000E1,-1.031671166E0,-1.448026562E1,-7.480137348E0
4.224000000E1,4.550803006E-1,-6.428709507E0,-8.413176537E0
4.226000000E1,-4.016349792E0,-6.860719204E0,-8.475934029E0
4.228000000E1,-5.709893703E0,-1.248001575E1,2.620597363E0
4.230000000E1,-8.386322975E0,-1.239187145E1,7.576757908E0
4.232000000E1,-7.930879593E0,-6.863582611E0,3.128972769E0
4.234000156E1,-3.317405701E0,-5.297228336E0,3.643476963E0
4.236000156E1,-2.950135231E0,-9.955148697E0,3.236261368E0
4.238200156E1,-3.188023090E0,-1.532073593E1,3.418766737E0
4.240401562E1,-2.121147633E0,-1.512140465E1,3.172863007E0
4.242600156E1,-1.260403544E-1,-1.313891888E1,2.767141581E0
4.244800156E1,2.389097214E0,-1.061488438E1,-4.435680389E0
4.246800156E1,2.376187801E0,-6.557718277E0,-2.705103159E0
4.249000156E1,3.488639295E-1,-8.133170128E0,-2.440524578E0
4.251000625E1,-9.825804085E-2,-1.018391895E1,-3.690997064E-1
