"Time (s)","Gyroscope x (rad/s)","Gyroscope y (rad/s)","Gyroscope z (rad/s)"
1.528510000E-1,-1.233598739E-1,-1.784040689E0,1.077880383E0
1.728556870E-1,2.602460384E-1,-6.637138128E-1,1.223231435E0
1.948510000E-1,4.429296553E-1,2.419549972E-1,1.478381157E0
2.148510000E-1,3.745127618E-1,4.830896854E-1,1.663962007E0
2.348525620E-1,5.852089077E-2,2.849075496E-1,1.671205163E0
2.548525620E-1,-4.588296115E-1,-1.911310107E-1,1.427539706E0
2.768525620E-1,-7.662344575E-1,-7.782074213E-1,1.052189231E0
2.968541250E-1,-8.369202614E-1,-9.756565094E-1,7.965333462E-1
3.188510000E-1,-8.736943603E-1,-1.292782784E0,6.960896850E-1
3.388556870E-1,-8.946732283E-1,-1.160102844E0,7.110645771E-1
3.608510000E-1,-7.348010540E-1,-9.995849729E-1,5.813866258E-1
3.808541250E-1,-5.484871864E-1,-9.393885732E-1,3.460289836E-1
4.028510000E-1,-4.441863000E-1,-5.729916096E-1,1.573239714E-1
4.228525620E-1,-5.020614266E-1,-1.524370611E-1,1.188918278E-1
4.448525620E-1,-4.739616215E-1,3.092548847E-1,2.391101122E-1
4.668510000E-1,-3.196395934E-1,2.273989469E-1,1.254018992E-1
4.868525620E-1,-2.380629070E-2,2.882411182E-1,-9.293878078E-2
5.068525620E-1,4.087561071E-1,4.384092391E-1,-1.325054020E-1
5.288713120E-1,6.229254603E-1,6.247929931E-1,3.380702808E-2
5.508510000E-1,3.885277510E-1,7.632150054E-1,3.613355160E-1
5.708510000E-1,-1.840449721E-1,7.618187666E-1,3.591887653E-1
5.908510000E-1,-6.527357101E-1,4.282514453E-1,1.471138000E-1
6.108525620E-1,-7.247479558E-1,1.975712739E-2,-1.319119781E-1
6.328525620E-1,-3.908664882E-1,1.522625238E-1,-7.485716790E-2
6.548525620E-1,-1.665567756E-1,2.743657529E-1,3.961897269E-2
6.748588120E-1,-5.277875811E-2,4.671548307E-1,1.246165112E-1
6.968541250E-1,2.256361693E-1,3.258180618E-1,3.424685001E-1
7.188525620E-1,2.898992002E-1,5.358858705E-1,4.860567451E-1
7.388525620E-1,2.811550796E-1,5.851565599E-1,4.497713447E-1
7.588525620E-1,2.899515331E-1,7.013081908E-1,5.059185624E-1
7.788525620E-1,2.512052357E-1,6.080901623E-1,5.959077477E-1
7.988525620E-1,3.073350191E-1,3.109827638E-1,8.735896349E-1
8.208525620E-1,2.471037209E-1,5.004033446E-1,1.017422199E0
8.428525620E-1,6.438519806E-2,7.654839754E-1,8.402014971E-1
8.628525620E-1,-1.542172879E-1,1.183106303E0,1.612684131E-2
8.848525620E-1,-2.858500183E-1,6.546729803E-1,3.790855110E-1
9.048525620E-1,1.726479679E-1,-4.640830308E-2,7.386233211E-1
9.248525620E-1,5.622054338E-1,1.019272301E-2,5.002637506E-1
9.448525620E-1,6.236584783E-1,-9.728465229E-2,4.566479325E-1
9.648650620E-1,6.729291677E-1,-2.260724902E-1,7.915766239E-1
9.868525620E-1,5.856277943E-1,-2.665292323E-1,7.071027160E-1
1.008852562E0,4.926191866E-1,-9.117600322E-2,3.442836404E-1
1.028871312E0,5.168268681E-1,-2.862339914E-1,3.542843759E-1
1.050852562E0,6.079156399E-1,-1.666440368E-1,3.771132827E-1
1.072852562E0,5.308244228E-1,8.133234084E-2,2.198242247E-1
1.094852562E0,4.799830019E-1,3.400774002E-1,8.477064222E-2
1.114861937E0,4.488463104E-1,2.808758318E-1,8.970992267E-2
1.136851000E0,4.069933295E-1,2.921681106E-2,-3.447025269E-2
1.156851000E0,4.494920969E-1,-2.480287403E-1,-2.069087774E-1
1.176851000E0,5.612629652E-1,-4.373446107E-1,-2.614503205E-1
1.196857250E0,6.933146119E-1,-4.886747301E-1,-1.913753450E-1
1.218852562E0,7.433880568E-1,-5.190783739E-1,-2.421469837E-1
1.240851000E0,7.962192297E-1,-5.782799125E-1,-3.970798552E-1
1.260851000E0,8.094139099E-1,-5.770233274E-1,-4.015479088E-1
1.280851000E0,5.992587805E-1,-6.731211543E-1,-4.420569837E-1
1.300851000E0,4.099254906E-1,-7.594451308E-1,-6.430316567E-1
1.320852562E0,4.062951803E-1,-7.614347935E-1,-7.039785385E-1
1.342852562E0,4.739790559E-1,-5.939355493E-1,-5.393940210E-1
1.362852562E0,4.599466026E-1,-2.864783406E-1,-3.982666731E-1
1.384861937E0,4.106061459E-1,7.513642311E-2,-3.983539343E-1
1.406852562E0,3.188716471E-1,1.943075061E-1,-4.314628541E-1
1.426852562E0,2.899340987E-1,2.485348843E-2,-4.798433781E-1
1.448852562E0,3.856654167E-1,-1.456302702E-1,-4.794419408E-1
1.470852562E0,3.950378299E-1,-1.321737766E-1,-3.469714522E-1
1.492852562E0,2.463183105E-1,-2.125811018E-2,-2.655518353E-1
1.514852562E0,1.099731922E-1,4.979424179E-2,-2.539628446E-1
1.536852562E0,4.019493237E-2,1.753706783E-1,-1.440769285E-1
1.556852562E0,-4.974188283E-2,2.327745557E-1,-4.892157763E-2
1.576852562E0,-9.243264049E-2,3.211405873E-2,-2.363175713E-2
1.596863500E0,-2.869321220E-2,-2.986432910E-1,-4.989896342E-2
1.618851000E0,8.845328540E-2,-5.316447616E-1,-1.147204936E-1
1.638851000E0,1.443736404E-1,-4.937536418E-1,-1.160120368E-1
1.658852562E0,1.215621829E-1,-3.276681006E-1,-1.712168008E-2
1.680851000E0,5.485569686E-2,-1.719847471E-1,9.866346419E-2
1.700852562E0,1.237438433E-2,-1.319643408E-1,8.131489158E-2
1.722851000E0,5.277875811E-2,-1.765575111E-1,-3.982841223E-2
1.742851000E0,8.384561539E-2,-2.152514607E-1,-4.502949491E-2
1.762851000E0,1.609193534E-2,-2.244493365E-1,-6.981316954E-3
1.782852562E0,-2.104867063E-2,-2.101550996E-1,-2.659881860E-2
1.804852562E0,4.532619938E-2,-1.975712776E-1,-1.047197543E-2
1.824852562E0,1.051560864E-1,-2.029468864E-1,6.620033830E-2
1.844852562E0,1.354026496E-1,-1.737475246E-1,1.187871099E-1
1.866851000E0,3.745476529E-2,-8.759807795E-2,1.650732458E-1
1.886851000E0,-1.272519529E-1,-5.328490213E-2,1.748994440E-1
1.906852562E0,-1.684591770E-1,-3.954916075E-2,1.616349369E-1
1.928872875E0,-9.285151958E-2,-8.084364980E-2,1.441991031E-1
1.950851000E0,2.141519077E-2,-1.712866127E-1,2.023360133E-1
1.970851000E0,1.367290914E-1,-2.476971298E-1,2.954318821E-1
1.990851000E0,2.496693432E-1,-2.987480164E-1,3.635869920E-1
2.010851000E0,2.510656118E-1,-2.295980603E-1,3.775670826E-1
2.030852562E0,1.376192123E-1,-9.663888067E-2,2.431941777E-1
2.052851000E0,-3.731513768E-2,2.439970337E-2,1.461189687E-1
2.072852562E0,-1.578650326E-1,1.887573600E-1,2.269975245E-1
2.094852562E0,-1.526639462E-1,4.259825051E-1,3.828030527E-1
2.116852562E0,-1.464505792E-1,6.178989410E-1,4.266806543E-1
2.138851000E0,-1.409702450E-1,5.958902836E-1,4.061730206E-1
2.158852562E0,-9.801769257E-2,3.484026194E-1,2.898293734E-1
2.180852562E0,9.635962546E-2,7.696902007E-2,1.703441292E-1
2.200852562E0,2.088286430E-1,5.225515738E-2,1.597325355E-1
2.222851000E0,1.161167547E-1,3.627317846E-1,1.479864717E-1
2.242851000E0,-8.677776903E-2,5.912652016E-1,1.227141023E-1
2.262851000E0,-2.415186614E-1,4.649906158E-1,1.424188633E-2
2.282852562E0,-2.003463507E-1,2.347816974E-1,-1.458746195E-1
2.304852562E0,-1.154011711E-1,2.408205271E-1,-6.426302344E-2
2.324852562E0,-1.099382862E-1,2.294758856E-1,1.402197480E-1
2.346852562E0,-7.367035002E-2,8.161159605E-2,1.624377966E-1
2.366852562E0,-5.764822662E-2,-1.314756572E-1,-1.520181727E-2
2.386852562E0,-2.490584925E-2,-3.633251786E-1,-1.760164499E-1
2.406852562E0,3.047344834E-2,-3.530102968E-1,-1.248259470E-1
2.426852562E0,3.652974218E-2,-1.964542568E-1,-1.815142459E-3
2.446852562E0,-1.741838641E-2,-4.365068302E-2,1.685987972E-2
2.468851000E0,-1.110902056E-1,-2.940879762E-2,3.460988030E-2
2.488851000E0,-1.560498923E-1,-2.590941191E-1,1.463807672E-1
2.508851000E0,-1.613906026E-1,-7.433182597E-1,3.316998184E-1
2.528871312E0,-1.104793418E-2,-1.143033624E0,5.499183536E-1
2.550851000E0,1.804495901E-1,-9.088453054E-1,9.059655070E-1
2.570851000E0,-6.789330859E-3,-9.546601772E-1,9.992359281E-1
2.590851000E0,-1.015781611E-2,-8.442681432E-1,1.132683754E0
2.610852562E0,-1.218763441E-1,2.765125036E-1,1.910315275E0
2.632852562E0,-2.006081492E-1,1.156874061E0,2.959537268E0
2.654852562E0,-3.274935782E-1,-2.094220519E-1,2.964546442E0
2.674865062E0,-2.187072039E-1,-1.988505960E0,3.036768198E0
2.696852562E0,-1.976934373E-1,-2.593786240E0,3.569547415E0
2.718852562E0,-3.234618604E-1,-2.273797512E0,4.182786465E0
2.740852562E0,-4.510628879E-1,-2.314882517E0,4.759198666E0
2.762851000E0,-8.695753813E-1,-4.080893993E0,4.599186897E0
2.782852562E0,-1.186789036E0,-4.137913704E0,4.567753315E0
2.802852562E0,-1.342454910E0,-2.619337797E0,4.824246883E0
2.824852562E0,-1.934906960E0,-1.214295387E0,4.820250511E0
2.844852562E0,-2.602879286E0,-2.439882994E0,4.823025227E0
2.864852562E0,-2.798129320E0,-3.893707275E0,4.261395931E0
2.884852562E0,-1.999606252E0,-3.729402065E0,3.566388369E0
2.906851000E0,-6.156299710E-1,-3.264830351E0,3.912068129E0
2.926851000E0,2.886774577E-2,-2.781566143E0,4.403360844E0
2.946852562E0,-5.019566789E-2,-3.100786924E0,3.889047384E0
2.968852562E0,5.299866796E-1,-3.536351204E0,3.167091846E0
2.990851000E0,1.880295515E0,-4.187149525E0,2.791305065E0
3.010852562E0,9.520247579E-1,-5.535259247E0,2.109614372E0
3.030852562E0,1.189092875E0,-3.383739710E0,2.248472691E0
3.052851000E0,8.942717910E-1,-1.473389506E0,1.083849430E0
3.072852562E0,1.447488785E0,-1.279850006E-1,1.397310644E-1
3.094852562E0,1.397834182E0,5.681221485E-1,8.712683618E-2
3.116852562E0,1.444033027E0,7.560766488E-2,-5.449092388E-1
3.136852562E0,1.549468398E0,-7.208384275E-1,-1.437714934E0
3.158852562E0,1.044178128E0,-4.778711498E-1,-1.296535254E0
3.180852562E0,1.042013884E0,-1.111757278E0,-9.430013895E-1
3.202852562E0,1.340919018E0,-2.512069941E0,-4.964239895E-1
3.224852562E0,1.733443499E0,-3.671125650E0,-2.588497698E-1
3.244852562E0,1.868532062E0,-4.163378239E0,-2.231927067E-1
3.264852562E0,1.784424663E0,-3.357751608E0,-4.530351162E-1
3.284852562E0,1.031053305E0,-1.027772069E0,-8.500800729E-1
3.304852562E0,1.798038185E-1,6.646912098E-1,-8.731881976E-1
3.324852562E0,2.688854337E-1,5.379802585E-1,-9.133133292E-1
3.346852562E0,6.531370878E-1,-2.351447105E0,-8.426623940E-1
3.366852562E0,1.203526735E0,-2.825653076E0,-4.633150995E-1
3.386852562E0,1.411098719E0,-2.139738798E0,-1.564024448E0
3.406852562E0,1.527669191E0,-9.087405801E-1,-1.254664779E0
3.428871312E0,8.103039861E-1,-1.267789721E0,-8.198509812E-1
3.450851000E0,6.021037102E-1,-1.476496220E0,-1.110395908E0
3.470852562E0,8.293629885E-1,-1.035311818E0,-1.053079247E0
3.492852562E0,1.781614661E0,-3.235316873E-1,-1.198151112E0
3.514871312E0,2.187281609E0,-1.030459881E0,-2.237512022E-1
3.536852562E0,2.379686594E0,-2.804953575E0,4.939281642E-1
3.556855687E0,1.872127414E0,-2.810137272E0,6.172531247E-1
3.578852562E0,7.520972490E-1,-8.806931376E-1,8.450186253E-1
3.598852562E0,1.613382399E-1,9.388998747E-1,5.437398553E-1
3.620851000E0,7.834783196E-2,1.892617583E0,5.490107536E-1
3.640851000E0,-1.713040620E-1,1.246845722E0,8.067260981E-1
3.660851000E0,5.703212619E-1,1.749483109E0,1.164291739E0
3.680852562E0,-5.208411813E-1,1.219426632E0,6.765768528E-1
3.702852562E0,1.014437675E0,1.886212230E0,-1.595929116E-1
3.724851000E0,1.434381366E0,1.916092277E0,-9.565451741E-1
3.744852562E0,2.275019169E0,5.047492385E-1,-1.599768758E0
3.764855687E0,2.268753529E0,-1.177346706E0,-1.446598649E0
3.784858812E0,1.362596035E0,-2.919080734E0,-6.791425347E-1
3.806852562E0,8.962614536E-1,-4.763788700E0,9.571385384E-1
3.828871312E0,9.482373595E-1,-5.944678783E0,2.122303009E0
3.850851000E0,6.755296588E-1,-3.008388996E0,2.347485304E0
3.870851000E0,-5.084667802E-1,1.940230131E0,2.087658167E0
3.890852562E0,-1.942027807E0,6.771702766E0,2.039155483E0
3.910852562E0,-3.248720884E0,4.440274715E0,1.755993247E0
3.932852562E0,-2.465818644E0,2.202396154E0,1.880941272E0
3.954852562E0,-1.489219666E0,-9.158964157E-1,4.004622936E0
3.974854125E0,-6.273062229E-1,-1.856995463E0,5.206072807E0
3.994860375E0,2.178170830E-1,-1.642494440E0,6.589211464E0
4.016851000E0,8.849866390E-1,-8.713730574E-1,7.773225307E0
4.036851000E0,1.618932486E0,-3.983888626E-1,7.160475254E0
4.056852562E0,2.230024576E0,-1.348930120E0,3.797277927E0
4.076852562E0,2.585251570E0,-1.890017033E0,1.333431602E0
4.096852562E0,2.413929939E0,-1.444574118E0,5.557826161E-1
4.116852562E0,1.093937516E0,1.546885252E0,1.624220848E0
4.136852562E0,7.918559015E-2,3.048461914E0,2.338741302E0
4.156852562E0,-1.453684688E0,3.654562473E0,2.745106220E0
4.178851000E0,-4.290595055E0,1.879161119E0,4.592554569E0
4.198852562E0,-5.389524460E0,8.873254061E-2,7.703708649E0
4.220851000E0,-4.939997196E0,-2.139372110E0,5.641672134E0
4.240852562E0,-3.347855568E0,-3.194755316E0,-3.358606815E0
4.260852562E0,-2.631834269E0,-2.926899672E0,-3.975214243E0
4.282852562E0,-2.331986666E0,-1.164693117E0,-1.504229426E0
4.304852562E0,-2.093295574E0,8.730311394E-1,2.409601510E-1
4.326852562E0,-2.000025034E0,2.038265228E0,4.839448929E-1
4.346852562E0,-1.576381326E0,1.507877231E0,1.251401100E-2
4.368852562E0,-9.263858795E-1,1.115317702E0,9.581857920E-2
4.390852562E0,-6.133261323E-1,1.091214776E0,-1.350884791E-2
4.410852562E0,-5.018694401E-1,1.016095757E0,-1.191885322E-1
4.432852562E0,-4.665265083E-1,4.146029651E-1,-1.596103609E-1
4.454852562E0,-4.439419508E-1,-1.643576622E-1,-9.651671164E-3
4.474857250E0,-2.576978505E-1,-4.601735175E-1,1.578301191E-1
4.496852562E0,2.374694943E-1,-7.926063538E-1,2.543991804E-1
4.518852562E0,8.744972348E-1,-1.305523753E0,1.396961510E-1
4.540852562E0,1.366104126E0,-1.505695581E0,-1.832770258E-1
4.560857250E0,1.423752308E0,-1.332715988E0,-5.210855007E-1
4.582851000E0,4.129623473E-1,-8.008443117E-1,-6.204121709E-1
4.602854125E0,-7.655537724E-1,-9.475218058E-1,-4.168020785E-1
4.624852562E0,-6.464699507E-1,-1.314651847E0,-4.126132727E-1
4.644855687E0,-8.203047328E-4,-1.118843317E0,-6.122964025E-1
4.666852562E0,3.729768470E-2,-4.991990626E-1,-8.718094230E-1
4.686855687E0,-3.399726748E-1,9.492845535E-1,-7.715926170E-1
4.708851000E0,6.069033146E-1,1.625163317E0,-2.684141994E-1
4.728871312E0,6.801024675E-1,1.596784234E0,-8.307766914E-2
4.750852562E0,9.002408385E-1,8.541292548E-1,5.352924764E-2
4.772852562E0,1.086938739E0,1.630486548E-1,3.205646276E-1
4.794857250E0,2.083940506E0,3.423114121E-1,8.608138561E-1
4.816852562E0,2.535439730E0,2.488769770E0,7.943516970E-1
4.836852562E0,2.507566929E0,3.617683649E0,5.781403184E-1
4.858852562E0,3.331065655E0,1.862510681E0,1.017649174E0
4.878852562E0,3.301534653E0,1.531892896E0,7.267550826E-1
4.900851000E0,2.806489468E0,1.905951858E0,4.711690843E-1
4.920851000E0,2.429201603E0,1.488730907E0,3.960850239E-1
4.940852562E0,1.926267505E0,5.759237409E-1,5.001240969E-1
4.960852562E0,1.447768092E0,-4.337492287E-1,6.650053263E-1
4.982851000E0,9.629330635E-1,-9.149539471E-1,6.619335413E-1
5.002851000E0,6.496813297E-1,-7.086560130E-1,3.138101995E-1
5.022851000E0,5.998347402E-1,-3.536560535E-1,1.892635077E-1
5.042851000E0,8.111591935E-1,-2.693392038E-1,3.409500718E-1
5.062852562E0,9.998642206E-1,-2.602285892E-2,4.401720464E-1
5.084851000E0,1.264875054E0,3.652101457E-1,3.591713011E-1
5.104852562E0,1.631970167E0,2.870717645E-1,2.513274252E-1
5.124858812E0,1.889842510E0,1.998402029E-1,2.369808108E-1
5.146851000E0,1.449583173E0,1.048977733E0,3.656639159E-1
5.166855687E0,6.707125902E-1,2.023464918E0,2.914350629E-1
5.188851000E0,3.364994824E-1,1.569469929E0,-3.801327199E-2
5.208851000E0,8.979719132E-2,5.559746027E-1,-3.657337427E-1
5.228871312E0,-4.182681441E-1,4.080579877E-1,-6.258750558E-1
5.250852562E0,-1.698781371E0,1.382824421E0,-7.576474547E-1
5.272852562E0,-2.510586262E0,1.614063025E0,-8.134979606E-1
5.294851000E0,-2.862968206E0,2.005278587E0,-9.371021986E-1
5.314855687E0,-2.337728977E0,2.864346981E0,-1.256287932E0
5.336852562E0,-1.683143139E0,2.115949869E0,-1.734246373E0
5.356852562E0,-1.859019995E0,1.997127891E0,-1.403366923E0
5.376852562E0,-2.248368025E0,2.039713860E0,-8.862432837E-1
5.398851000E0,-2.268631220E0,1.400469661E0,-6.591061354E-1
5.418851000E0,-2.124589205E0,1.001958609E0,-4.519006610E-1
5.438852562E0,-1.930002570E0,1.251994491E0,-2.224771231E-1
5.460852562E0,-1.724559784E0,1.634797573E0,-2.076418251E-1
5.480852562E0,-1.485170484E0,1.571756244E0,-3.374768496E-1
5.502852562E0,-1.307775259E0,1.073185444E0,-3.947062194E-1
5.524858812E0,-1.303202391E0,6.585127115E-1,-3.104940653E-1
5.544858812E0,-1.216721416E0,4.075169265E-1,-1.965764314E-1
5.566851000E0,-8.523489833E-1,-9.751154482E-2,-6.623524427E-2
5.586851000E0,-4.962843657E-1,-4.587772489E-1,2.944370359E-2
5.606851000E0,-1.158200502E-1,-6.982887983E-1,1.454906464E-1
5.626852562E0,3.690498769E-1,-1.094949722E0,3.865729868E-1
5.648852562E0,1.060427189E0,-1.662722826E0,7.254635692E-1
5.668852562E0,1.602945328E0,-2.163719654E0,8.105309010E-1
5.690852562E0,1.664695024E0,-2.729851961E0,7.221997976E-1
5.710852562E0,2.568950057E-1,-2.099788189E0,4.394739121E-2
5.732851000E0,-1.509430528E0,-8.106356263E-1,-6.072698832E-1
5.752851000E0,-6.474822164E-1,-4.609763622E-1,-4.624249935E-1
5.772851000E0,2.571568191E-1,2.516066730E-1,-5.811597109E-1
5.792852562E0,2.567204833E-1,1.024490833E0,-5.157796741E-1
5.814852562E0,-4.676260650E-1,1.816276908E0,1.316501796E-1
5.834857250E0,-3.140370846E-1,1.696285486E0,2.116037160E-1
5.856851000E0,-2.729694918E-2,3.909537494E-1,6.466444582E-2
5.876852562E0,4.913101792E-1,-6.341130137E-1,5.617167354E-1
5.896852562E0,1.615529060E0,-5.859245062E-1,8.426449895E-1
5.916852562E0,2.165185690E0,-4.695808291E-1,4.888318181E-1
5.936852562E0,1.798265100E0,-4.315152168E-1,2.209412307E-1
5.956852562E0,1.242744207E0,-9.605244994E-1,4.469090104E-1
5.976852562E0,1.547618389E0,-2.914926767E0,4.664217830E-1
5.996861937E0,1.501332164E0,-3.184004068E0,6.958627701E-2
6.018852562E0,1.636124015E0,-2.923862934E0,-1.197819486E-1
6.038858812E0,1.680123687E0,-2.122058630E0,-2.118480653E-1
6.060851000E0,1.775942326E0,-8.115955591E-1,-1.610415280E-1
6.080851000E0,1.841095448E0,6.904522777E-1,-8.587019518E-3
6.100851000E0,1.800010443E0,1.894869089E0,1.019097716E-1
6.120852562E0,1.604324102E0,2.456079721E0,1.194677874E-1
6.142852562E0,1.445219874E0,2.230809927E0,2.112546563E-1
6.162855687E0,1.576032281E0,1.136698008E0,4.254065454E-1
6.184851000E0,1.619665504E0,-2.743657529E-1,6.140068173E-1
6.204868187E0,1.467769504E0,-9.778905511E-1,6.210230589E-1
6.226851000E0,1.469951153E0,-1.065348983E0,6.003409028E-1
6.246851000E0,1.474366903E0,-3.496417999E-1,6.210055947E-1
6.266852562E0,1.125632644E0,1.045242786E0,4.844510257E-1
6.286855687E0,4.885525703E-1,1.920193791E0,1.269727051E-1
6.308851000E0,1.184380427E-1,1.307757735E0,-1.963495463E-1
6.328869750E0,-5.262167752E-2,1.951452643E-1,-2.044304162E-1
6.350851000E0,-1.297442913E0,4.499284327E-1,-3.826983571E-1
6.370854125E0,-2.329892397E0,6.463826895E-1,-7.804588675E-1
6.392851000E0,-2.980114698E0,5.979148746E-1,-1.015170813E0
6.412851000E0,-3.474793434E0,5.196892619E-1,-1.100273013E0
6.432851000E0,-3.237917423E0,-9.000662714E-2,-1.379176617E0
6.452855687E0,-2.759260893E0,-3.161140382E-1,-1.387205124E0
6.474855687E0,-2.293624401E0,2.303834539E-3,-1.026288509E0
6.494874437E0,-1.925796270E0,8.153131008E-1,-6.936636567E-1
6.516851000E0,-2.735873461E0,1.826120496E0,-5.130744576E-1
6.536854125E0,-3.053296328E0,1.547478676E0,-5.542641878E-1
6.558851000E0,-2.221664429E0,4.801226258E-1,-4.605923891E-1
6.578851000E0,-1.625041127E0,7.547501922E-1,-3.473728895E-1
6.598851000E0,-1.406979680E0,1.319434047E0,-3.994185925E-1
6.618855687E0,-1.212026477E0,1.368355632E0,-4.559672773E-1
6.640851000E0,-1.120396614E0,4.879591465E-1,-5.317320228E-1
6.660855687E0,-1.136104584E0,-3.848276436E-1,-4.177794755E-1
6.682851000E0,-1.053358555E0,-1.288262367E0,-1.116487086E-1
6.702855687E0,-7.748738527E-1,-1.734735131E0,1.148426626E-2
6.724851000E0,-1.767145842E-1,-1.917680502E0,-1.099557383E-3
6.744851000E0,5.613676906E-1,-1.986132264E0,8.511970937E-2
6.764860375E0,1.385285258E0,-2.293397427E0,3.400076032E-1
6.784868187E0,2.052437305E0,-2.708576441E0,4.192630053E-1
6.806851000E0,1.994876385E0,-2.597224474E0,2.427054793E-1
6.826855687E0,-4.525638744E-2,-2.067167908E-1,-4.617443085E-1
6.848851000E0,-1.124131680E0,6.632251199E-3,-4.169940650E-1
6.868851000E0,1.720720083E-1,4.276929200E-1,-3.998374641E-1
6.888851000E0,8.540768623E-1,5.323079824E-1,-7.275404930E-1
6.908855687E0,1.270076036E-1,2.388832122E-1,-6.891083717E-1
6.928869750E0,-5.041558146E-1,9.736668468E-1,-3.163060248E-1
6.950852562E0,6.389650702E-2,4.392295480E-1,2.762681544E-1
6.972851000E0,-3.816511333E-1,3.621209264E-1,3.217339814E-1
6.992857250E0,-2.684316412E-2,-8.609709144E-2,2.400525808E-1
7.014851000E0,1.022972345E0,-2.894802988E-1,2.470513582E-1
7.034854125E0,2.090066671E0,-1.231329814E-1,3.319965303E-1
7.056851000E0,2.625847816E0,3.252421021E-1,4.452160299E-1
7.076851000E0,2.477878809E0,6.457892656E-1,6.506063938E-1
7.096852562E0,2.013760805E0,3.480710089E-1,6.612354517E-1
7.116855687E0,2.382339478E0,-1.153016806E0,5.118003488E-1
7.138851000E0,2.209778786E0,-6.943792701E-1,2.379232794E-1
7.158858812E0,2.015576124E0,-2.147278637E-1,9.316567332E-2
7.180851000E0,1.999536395E0,2.849250138E-1,1.248259470E-1
7.200852562E0,1.946478486E0,1.110797286E0,2.264390141E-1
7.222851000E0,1.715047836E0,1.952656865E0,2.497217059E-1
7.242851000E0,1.417451739E0,2.077936649E0,2.206619829E-1
7.262851000E0,1.223859787E0,1.498260379E0,3.259227872E-1
7.282854125E0,1.254961491E0,3.371452391E-1,5.793969631E-1
7.304851000E0,1.334478736E0,-8.630653024E-1,6.561740041E-1
7.324855687E0,1.490127206E0,-1.281542897E0,4.620584548E-1
7.346851000E0,1.512257934E0,-7.250795960E-1,3.442487419E-1
7.366851000E0,1.022256851E0,9.456542730E-1,5.389053226E-1
7.386851000E0,4.329289198E-1,2.046189070E0,6.220178604E-1
7.406857250E0,2.990796268E-1,1.269744515E0,1.910088360E-1
7.428871312E0,4.948008358E-1,-2.729694843E-1,-2.098933011E-1
7.450851000E0,6.642723083E-2,-1.117010694E-2,-3.618591130E-1
7.470852562E0,-1.223947048E0,1.251505733E0,-4.811872840E-1
7.492852562E0,-2.083748579E0,1.003232718E0,-6.904522777E-1
7.514857250E0,-2.854067087E0,3.630284965E-1,-8.311257958E-1
7.536851000E0,-3.365745306E0,7.482226193E-2,-1.044125795E0
7.556852562E0,-3.060033321E0,-3.999072909E-1,-1.354864240E0
7.578852562E0,-2.662255526E0,-3.644770980E-1,-1.314599395E0
7.600851000E0,-2.378080845E0,2.105390728E-1,-7.433182597E-1
7.620852562E0,-2.466202497E0,1.240702152E0,-3.171786964E-1
7.642852562E0,-2.566087723E0,1.958207011E0,-4.133637846E-1
7.664852562E0,-2.146807432E0,1.527669191E0,-3.665715158E-1
7.684857250E0,-1.791981936E0,1.254106283E0,-2.418502718E-1
7.706852562E0,-1.499796271E0,1.493111730E0,-2.826211751E-1
7.728871312E0,-1.279518366E0,1.405967474E0,-4.978551567E-1
7.750852562E0,-1.066780090E0,1.118686199E0,-5.939180851E-1
7.772851000E0,-1.002639294E0,2.301914692E-1,-5.734977126E-1
7.792852562E0,-9.448165298E-1,-7.895694971E-1,-3.338291347E-1
7.814852562E0,-8.220674992E-1,-1.657033086E0,-4.827580601E-2
7.836852562E0,-4.369955361E-1,-1.957578778E0,9.222319722E-2
7.858852562E0,2.025105506E-1,-1.884013057E0,2.070309520E-1
7.878852562E0,9.615891576E-1,-2.119510412E0,4.900535345E-1
7.900851000E0,1.803884983E0,-2.636564255E0,6.399424076E-1
7.920851000E0,1.770915747E0,-2.597102165E0,3.767118752E-1
7.940851000E0,2.021614909E-1,-7.315198183E-1,-4.271518886E-1
7.960852562E0,-1.667173386E0,9.604547173E-2,-6.593504548E-1
7.980852562E0,-7.542440295E-1,-5.714557171E-1,-4.205719829E-1
8.002852562E0,5.381548405E-1,-5.791002512E-2,-6.227160096E-1
8.024852562E0,5.910732150E-1,-5.607742816E-2,-7.174524665E-1
8.044852562E0,-2.870194018E-1,-1.396787018E-1,-5.467593074E-1
8.064852562E0,1.872738265E-2,-3.898018301E-1,-2.971772254E-1
8.084852562E0,-7.721511126E-1,1.303761005E0,4.223696887E-3
8.104852562E0,-8.472352028E-1,1.129280329E0,1.771683693E-1
8.126852562E0,6.687577963E-1,-3.005997896E0,-8.272860199E-3
8.146852562E0,2.346472979E0,-2.856004477E0,4.674689770E-1
8.166852562E0,2.573086500E0,-8.848819137E-2,1.756324768E-1
8.188851000E0,2.000670910E0,2.606806278E0,7.283259183E-2
8.208851000E0,2.062385798E0,2.764584064E0,6.843087077E-1
8.228871312E0,2.512750626E0,5.996951461E-1,8.134456277E-1
8.250851000E0,2.219814539E0,-1.482901573E0,4.941550791E-1
8.270851000E0,1.543010712E0,-1.060427189E0,4.891983271E-1
8.290851000E0,1.504508734E0,-1.230718970E0,2.973517478E-1
8.310851000E0,1.686721087E0,-1.350832462E0,1.831199378E-1
8.330852562E0,1.889598131E0,-6.386334300E-1,1.417207420E-1
8.352852562E0,1.620590568E0,8.744797707E-1,9.248499572E-2
8.374858812E0,1.267632604E0,1.796449900E0,5.194099993E-2
8.396852562E0,1.175531626E0,1.616680980E0,1.415462047E-1
8.416852562E0,1.265939713E0,8.502196670E-1,3.480710089E-1
8.436852562E0,1.427016139E0,-4.094542563E-2,4.807509482E-1
8.456852562E0,1.625390172E0,-6.022607684E-1,4.807683825E-1
8.476852562E0,1.831216931E0,-6.238155961E-1,4.278674722E-1
8.496858812E0,1.842352152E0,1.629264802E-1,5.457295775E-1
8.518852562E0,9.252688289E-1,2.276467800E0,5.900260210E-1
8.540852562E0,1.345648915E-1,2.332248449E0,1.260302216E-1
8.562852562E0,1.431519091E-1,4.231376350E-1,-1.736427993E-1
8.584851000E0,-1.976585388E-1,-4.989023507E-1,-1.509884298E-1
8.604858812E0,-1.514771223E0,5.297248960E-1,-3.648785353E-1
8.626852562E0,-2.415780067E0,5.377359390E-1,-7.580139637E-1
8.646852562E0,-3.179152012E0,7.752752304E-2,-9.290910959E-1
8.666852562E0,-3.559668779E0,-2.406983525E-1,-1.012535334E0
8.688851000E0,-3.228789330E0,-5.339136720E-1,-1.347498894E0
8.708852562E0,-2.711857557E0,6.986553222E-2,-1.293795109E0
8.728871312E0,-2.140140057E0,1.280321121E0,-9.117949009E-1
8.750852562E0,-1.860608220E0,2.306016207E0,-7.481004596E-1
8.772851000E0,-2.439760923E0,1.588912845E0,-8.553335071E-1
8.792851000E0,-2.295125484E0,5.019915700E-1,-5.899038315E-1
8.812851000E0,-1.905096650E0,4.631056488E-1,-2.167175263E-1
8.832851000E0,-1.569435000E0,1.064546108E0,-3.480710089E-1
8.852852562E0,-1.293707848E0,1.080934763E0,-7.143632770E-1
8.874860375E0,-9.873502254E-1,6.632774472E-1,-9.066287279E-1
8.896852562E0,-9.660048485E-1,-1.296256036E-1,-9.323374033E-1
8.916852562E0,-1.029307961E0,-1.052084446E0,-7.271914482E-1
8.938852562E0,-9.727243781E-1,-2.095180511E0,-3.246486783E-1
8.960851000E0,-7.089178562E-1,-2.632113695E0,-8.972737938E-2
8.980852562E0,-1.784424633E-1,-2.640560865E0,-5.831145123E-2
9.002852562E0,7.120769024E-1,-2.671889544E0,1.544965506E-1
9.024852562E0,1.753567219E0,-2.731806755E0,4.839448929E-1
9.046852562E0,2.222118378E0,-2.397454023E0,5.438969731E-1
9.066852562E0,1.275137544E0,-1.129245520E0,4.173082113E-2
9.086852562E0,-1.029482484E0,1.705186628E-2,-5.263214707E-1
9.108852562E0,-7.811919451E-1,-4.179016352E-1,-5.858895779E-1
9.128871312E0,3.540400267E-1,6.135705113E-1,-8.530645967E-1
9.150851000E0,3.813544512E-1,1.316327304E-1,-7.544360161E-1
9.170851000E0,-2.176250964E-1,7.438593358E-2,-1.868200451E-1
9.190852562E0,-6.396806240E-1,6.930004358E-1,-1.239009202E-1
9.212852562E0,-7.390771508E-1,7.782248855E-1,-1.144586951E-1
9.234866625E0,-2.981371284E-1,-6.946585178E-1,-4.085990191E-1
9.256851000E0,1.232586384E0,-4.246735096E0,-2.525491454E-2
9.276852562E0,2.628972054E0,-2.451768637E0,7.371921539E-1
9.298852562E0,2.233131409E0,1.039710045E0,-2.562143281E-2
9.320852562E0,1.501820922E0,3.532232285E0,9.592329711E-2
9.342851000E0,2.495681286E0,1.058245540E0,9.306968451E-1
9.362852562E0,2.779244900E0,-1.568370342E0,4.828976989E-1
9.384852562E0,1.436388493E0,-9.368229508E-1,1.820727438E-1
9.406855687E0,9.734050035E-1,-9.289340377E-1,1.449496001E-1
9.428871312E0,1.269465208E0,-1.102873564E0,9.070476145E-2
9.450851000E0,1.666702151E0,-5.144357681E-1,4.749041051E-2
9.470852562E0,1.558055401E0,5.651724935E-1,9.339256585E-2
9.492852562E0,1.307914853E0,1.434468627E0,1.609368026E-1
9.514852562E0,1.324669957E0,1.422513127E0,2.772979140E-1
9.534852562E0,1.622632623E0,7.525685430E-1,4.248829484E-1
9.554852562E0,1.775540948E0,-1.224348471E-1,5.320636034E-1
9.574858812E0,1.793378115E0,-7.669151425E-1,5.244016051E-1
9.596852562E0,2.020462990E0,-1.026096463E0,3.679328561E-1
9.618852562E0,1.758890510E0,3.996105790E-1,3.933273852E-1
9.638852562E0,3.867300451E-1,2.967461109E0,3.456624448E-1
9.658852562E0,-6.398376822E-2,2.659131289E0,8.709193021E-2
9.680852562E0,-2.652900526E-3,4.841194153E-1,-1.689129621E-1
9.702851000E0,-9.623745829E-2,-8.433954716E-1,-1.847081929E-1
9.722852562E0,-1.565682530E0,5.907765031E-1,-5.905321240E-1
9.744852562E0,-2.759086370E0,8.313177824E-1,-1.063673496E0
9.766852562E0,-3.445140362E0,3.659257293E-1,-1.169824362E0
9.786852562E0,-3.498023748E0,-4.258603454E-1,-1.328160644E0
9.806852562E0,-3.129008770E0,-6.466619372E-1,-1.459234834E0
9.828871312E0,-2.422290087E0,-1.473057922E-2,-1.220002651E0
9.850851000E0,-1.729237318E0,7.964635491E-1,-7.846476436E-1
9.870851000E0,-2.251544476E0,9.823585749E-1,-3.451563120E-1
9.890852562E0,-2.984355927E0,8.898561001E-1,-1.422792375E-1
9.910857250E0,-2.591115713E0,8.661196232E-1,-2.488839440E-2
9.932852562E0,-1.770025611E0,1.147187471E0,1.943947673E-1
9.954858812E0,-1.324530363E0,1.699095488E0,7.970918715E-2
9.976852562E0,-1.109854817E0,1.706390977E0,-1.180017069E-1
9.996852562E0,-9.833185077E-1,1.307164311E0,-1.742362231E-1
1.001885256E1,-9.471029043E-1,3.189763725E-1,-1.359960586E-1
1.004085256E1,-8.905193210E-1,-8.677079082E-1,-2.741912194E-2
1.006285256E1,-6.854431629E-1,-1.309223771E0,5.288347602E-2
1.008285256E1,-2.982942164E-1,-1.192461252E0,2.747148275E-2
1.010485256E1,3.761882782E-1,-1.238066792E0,8.009316027E-2
1.012485256E1,1.156193376E0,-1.691363692E0,2.671575546E-1
1.014485256E1,1.696355343E0,-2.064672232E0,2.913129032E-1
1.016486194E1,1.755103111E0,-1.994858980E0,-1.665218621E-1
1.018685100E1,5.656088591E-1,-2.527760267E-1,-8.857545853E-1
1.020685256E1,-1.105770826E0,-6.550395489E-1,-5.474573970E-1
1.022887131E1,-6.890036464E-1,-1.255694628E0,-2.998999357E-1
1.025085256E1,5.998696759E-2,-5.253964663E-1,-5.690296888E-1
1.027285100E1,3.566754758E-1,-5.104389787E-1,-7.500552535E-1
1.029285256E1,-6.002187356E-2,1.374097764E-1,-2.945592105E-1
1.031485881E1,2.559874356E-1,7.223568559E-1,-1.924574524E-1
1.033685256E1,-2.129301727E-1,1.503339291E0,-4.520402849E-2
1.035685256E1,5.679301545E-2,8.151735067E-1,3.224844933E-1
1.037885256E1,1.403855562E0,-1.129420042E0,5.082747936E-1
1.039885256E1,2.452327251E0,-7.783470154E-1,6.382843852E-1
1.042085256E1,2.356456280E0,2.169042826E0,3.606024683E-1
1.044085256E1,2.298581123E0,3.496540308E0,3.216118217E-1
1.046085881E1,2.300815105E0,3.601172686E0,6.541668773E-1
1.048285100E1,2.777778864E0,9.470156431E-1,7.508406639E-1
1.050285256E1,2.179200649E0,-9.904743731E-2,3.537607789E-1
1.052485256E1,1.572454333E0,-4.221951365E-1,3.935368359E-1
1.054485256E1,1.424380660E0,-1.077793121E0,3.222226799E-1
1.056485256E1,1.563989520E0,-1.391114712E0,2.441366613E-1
1.058487912E1,1.464505792E0,-4.768064916E-1,2.211855799E-1
1.060685100E1,1.395617604E0,1.089574099E0,1.574286968E-1
1.062685256E1,1.327497482E0,1.729202390E0,5.963790044E-2
1.064885256E1,1.174466968E0,1.768070936E0,1.062381938E-1
1.067085100E1,1.156228304E0,1.354916573E0,3.327644765E-1
1.069085256E1,1.354829311E0,4.525638819E-1,4.963367283E-1
1.071085256E1,1.686843276E0,-5.387831330E-1,5.645442009E-1
1.073085256E1,1.727108002E0,-7.333350182E-1,5.721364021E-1
1.075086038E1,1.590919971E0,3.094468825E-2,5.997474790E-1
1.077285100E1,9.143081903E-1,1.589401484E0,4.883082211E-1
1.079285256E1,4.653047621E-1,1.619508505E0,8.063421398E-2
1.081485256E1,3.814766109E-1,5.138074756E-1,-2.594082952E-1
1.083486662E1,-3.902556375E-2,3.727325201E-1,-4.742059708E-1
1.085685256E1,-1.539275646E0,1.330412149E0,-6.806260347E-1
1.087885256E1,-2.773275852E0,1.361496449E0,-9.069777727E-1
1.089885256E1,-3.196588039E0,8.851436973E-1,-1.115736604E0
1.091885256E1,-2.998493195E0,2.232625186E-1,-1.301055670E0
1.093885256E1,-2.585373640E0,2.446253449E-1,-1.354951501E0
1.095885256E1,-2.284531355E0,6.997897625E-1,-1.203195095E0
1.098085256E1,-2.179741621E0,1.447052479E0,-7.027218938E-1
1.100285256E1,-2.613281488E0,2.018612862E0,-4.010417461E-1
1.102485256E1,-2.594728708E0,1.559120059E0,-3.211405873E-1
1.104485569E1,-2.091515303E0,1.039779902E0,-1.075995490E-1
1.106685256E1,-1.713913321E0,1.108807683E0,8.656833321E-3
1.108885256E1,-1.442043424E0,1.780497670E0,-1.481784582E-1
1.111085256E1,-9.625141621E-1,1.988837600E0,-3.974463642E-1
1.113285256E1,-6.911852956E-1,1.328247905E0,-5.856103301E-1
1.115285256E1,-6.933669448E-1,2.638763189E-1,-6.064670086E-1
1.117485256E1,-8.370947838E-1,-1.026515365E0,-3.030066192E-1
1.119485412E1,-8.646884561E-1,-1.646054864E0,1.141794398E-1
1.121685256E1,-5.076813698E-1,-1.643210053E0,3.819827735E-1
1.123685256E1,1.132020578E-1,-1.569626927E0,5.089729428E-1
1.125885100E1,1.066221595E0,-1.996883512E0,7.259871364E-1
1.127885100E1,1.991542816E0,-2.654122114E0,7.172604799E-1
1.129885256E1,2.134869337E0,-2.370645761E0,2.016553432E-1
1.131885256E1,4.035724699E-1,8.101818711E-2,-6.523517370E-1
1.134085100E1,-1.582734346E0,3.927165270E-1,-6.014230251E-1
1.136085100E1,-8.713905215E-1,-5.728519559E-1,-2.608568966E-1
1.138085100E1,9.677850455E-2,-3.192207217E-1,-4.455825686E-1
1.140085256E1,4.782376587E-1,-1.569050923E-2,-6.791250706E-1
1.142085256E1,-6.442010403E-2,7.488509417E-1,-4.749040902E-1
1.144085256E1,4.281292558E-1,1.454033852E-1,-1.913404465E-1
1.146285100E1,-1.142771721E0,1.786431789E0,7.913322747E-2
1.148285100E1,-6.723706126E-1,5.876349211E-1,2.612932324E-1
1.150285256E1,8.439015746E-1,-1.460491538E0,3.295530677E-1
1.152485256E1,2.266589165E0,-1.665515304E0,3.659780920E-1
1.154485256E1,2.701036692E0,-3.260973096E-1,1.892285943E-1
1.156485256E1,1.989745140E0,1.710981131E0,-3.141592816E-2
1.158686350E1,1.532416582E0,2.735000849E0,5.893453360E-1
1.160885256E1,2.627313852E0,-3.316125600E-3,7.931474447E-1
1.162887131E1,2.491579771E0,-9.468236566E-1,3.617369533E-1
1.165085100E1,1.783220291E0,-2.911383808E-1,2.432290763E-1
1.167085100E1,1.618373990E0,-4.517435730E-1,1.210036799E-1
1.169085256E1,1.605353832E0,-4.611858130E-1,9.916960448E-2
1.171285256E1,1.614988089E0,1.585631669E-1,1.188569218E-1
1.173285256E1,1.557828546E0,9.465269446E-1,8.990190923E-2
1.175485256E1,1.427749157E0,1.649528146E0,1.589645892E-1
1.177685256E1,1.295907021E0,1.570796371E0,3.081204295E-1
1.179885256E1,1.295243740E0,8.170060515E-1,4.964065552E-1
1.182085256E1,1.500983119E0,-1.033234894E-1,5.692216754E-1
1.184085256E1,1.615476727E0,-5.259374976E-1,4.810650945E-1
1.186285256E1,1.560778141E0,-7.239625603E-2,5.215741992E-1
1.188485256E1,1.130013466E0,1.362020016E0,6.096085906E-1
1.190685256E1,5.764473677E-1,2.037828922E0,1.878148764E-1
1.192685256E1,4.338888526E-1,1.257754087E0,-2.788861692E-1
1.194885256E1,3.532546461E-1,2.490235716E-1,-5.012585521E-1
1.197085256E1,-5.962044597E-1,7.809999585E-1,-8.208632469E-1
1.199285256E1,-2.036432743E0,1.472970605E0,-9.680468440E-1
1.201485100E1,-2.968805075E0,1.277389050E0,-1.051019788E0
1.203486038E1,-3.220952749E0,1.037109494E0,-1.073656797E0
1.205685256E1,-3.000081301E0,7.104362845E-1,-1.283584952E0
1.207685256E1,-2.583523512E0,1.045295119E0,-1.320236802E0
1.209685256E1,-2.193512440E0,1.652530074E0,-9.176068306E-1
1.211685256E1,-2.137207985E0,1.982292652E0,-4.741536081E-1
1.213685256E1,-2.541757822E0,1.752502561E0,-2.548704445E-1
1.215685256E1,-2.660300732E0,1.225884318E0,-5.976007506E-2
1.217685256E1,-2.193075895E0,8.308465481E-1,2.254092693E-1
1.219685256E1,-1.757214904E0,1.131566763E0,2.606823742E-1
1.221685256E1,-1.474838138E0,1.906929255E0,8.983209729E-2
1.223685256E1,-1.102297544E0,2.229012251E0,-8.344419301E-2
1.225885100E1,-8.114210367E-1,1.603870273E0,-2.651329637E-1
1.227885256E1,-7.873703837E-1,4.767017663E-1,-2.589021325E-1
1.229885256E1,-8.818275928E-1,-7.266678214E-1,-5.867796764E-2
1.231885256E1,-7.709642649E-1,-1.374534011E0,1.431868076E-1
1.233885256E1,-3.517187536E-1,-1.486147881E0,2.289697379E-1
1.236085100E1,3.147177696E-1,-1.373120308E0,3.483328223E-1
1.238085100E1,1.082837224E0,-1.566659927E0,5.865178704E-1
1.240085256E1,1.959149480E0,-2.010549545E0,6.730164289E-1
1.242285256E1,2.523868322E0,-2.006255865E0,1.084373072E-1
1.244485100E1,1.752153516E0,-4.684463739E-1,-6.608863473E-1
1.246485256E1,-8.760854602E-1,9.594249129E-1,-8.223642111E-1
1.248485256E1,-1.327270508E0,-4.200658500E-1,-3.576005101E-1
1.250485256E1,-4.313406646E-1,-6.651624441E-1,-2.775073647E-1
1.252485256E1,2.548355162E-1,-1.360658705E-1,-4.652698636E-1
1.254485256E1,-1.760862619E-1,1.490650773E0,-8.541641384E-2
1.256685256E1,-5.025501251E-1,1.600379705E0,9.676105529E-2
1.258685256E1,-9.791296721E-2,6.009517908E-1,2.001892589E-2
1.260885256E1,5.127602816E-1,-3.764675185E-2,4.968254268E-1
1.262887131E1,9.274679422E-1,-1.557531804E-1,6.122266054E-1
1.265085256E1,1.489917755E0,2.703689635E-1,3.211580217E-1
1.267285100E1,2.016850233E0,7.800225616E-1,2.349038571E-1
1.269285100E1,2.067639112E0,1.085298061E0,4.815886915E-1
1.271285256E1,2.187002182E0,1.012517810E0,5.233544111E-1
1.273485256E1,2.655308962E0,4.827231765E-1,3.909188509E-1
1.275486506E1,2.660684586E0,5.316098332E-1,1.779014170E-1
1.277685256E1,2.249118567E0,5.428148508E-1,5.153957382E-2
1.279685256E1,1.796729207E0,4.384790659E-1,3.218387067E-2
1.281685256E1,1.444643974E0,5.065818429E-1,9.417796880E-2
1.283685412E1,1.356923699E0,7.402116060E-1,1.557706296E-1
1.285885100E1,1.419511199E0,1.112787008E0,1.419127136E-1
1.287885256E1,1.370484829E0,1.424520254E0,9.368927032E-2
1.289885881E1,1.253024220E0,1.282066464E0,1.570272744E-1
1.292085100E1,1.191833019E0,6.713932753E-1,3.549999595E-1
1.294085100E1,1.212934017E0,1.813396998E-2,4.386186898E-1
1.296085100E1,1.387362242E0,-4.880638719E-1,3.553664982E-1
1.298085256E1,1.439879179E0,-3.902032673E-1,3.347192407E-1
1.300085256E1,1.534528375E0,4.553913176E-1,5.473178029E-1
1.302285100E1,1.102454662E0,1.963076472E0,6.270967722E-1
1.304285100E1,6.801897287E-1,2.122931242E0,8.384561539E-2
1.306285256E1,4.821122885E-1,1.408184052E0,-4.114788175E-1
1.308285256E1,2.727949619E-2,1.053742528E0,-7.512944341E-1
1.310485256E1,-1.387431979E0,1.408655286E0,-8.880758882E-1
1.312485256E1,-2.639042616E0,1.779206038E0,-8.005127311E-1
1.314485725E1,-3.194057226E0,1.723757029E0,-9.280613661E-1
1.316685256E1,-3.125204086E0,8.724202514E-1,-1.227350473E0
1.318685256E1,-2.877000809E0,8.254185319E-1,-1.408445835E0
1.320685256E1,-2.510237217E0,1.258120537E0,-1.369524956E0
1.322887131E1,-2.025611639E0,1.611759186E0,-8.851436973E-1
1.325085256E1,-2.377993584E0,1.132491827E0,-4.509756267E-1
1.327085256E1,-2.885238647E0,8.010188341E-1,-2.574709654E-1
1.329285256E1,-2.555127144E0,9.166120291E-1,-3.577924892E-2
1.331486506E1,-1.812873483E0,1.356836438E0,2.311514020E-1
1.333685412E1,-1.271036029E0,1.850747108E0,1.029744279E-3
1.335885100E1,-9.237504005E-1,2.125077963E0,-2.044827789E-1
1.337885256E1,-7.860439420E-1,1.720912099E0,-4.253018200E-1
1.339885256E1,-8.430114985E-1,6.535909176E-1,-5.577374101E-1
1.342085100E1,-9.767560363E-1,-5.638460517E-1,-3.141069114E-1
1.344085881E1,-9.232093692E-1,-1.270268083E0,9.042550623E-2
1.346285256E1,-5.579119325E-1,-1.599821091E0,3.191334605E-1
1.348485256E1,1.096764877E-1,-1.658865690E0,4.874879122E-1
1.350485256E1,9.527054429E-1,-2.019485474E0,7.012558579E-1
1.352485256E1,1.802925110E0,-2.504599810E0,8.409694433E-1
1.354485256E1,2.121150970E0,-2.163964033E0,5.910732150E-1
1.356486350E1,1.372422218E0,-3.177895546E-1,-2.898293734E-1
1.358685100E1,-6.366088390E-1,7.624470592E-1,-6.933320165E-1
1.360685100E1,-6.869615912E-1,-3.300592005E-1,-3.017325103E-1
1.362685256E1,2.527236752E-2,-1.243023500E-1,-4.068362415E-1
1.364685256E1,2.689203322E-1,-3.392570913E-1,-7.157245874E-1
1.366685256E1,4.745550081E-2,1.077915356E-1,-3.934670389E-1
1.368885100E1,1.371305138E-1,4.616744816E-1,3.118903376E-2
1.370885100E1,8.850564808E-2,1.063027740E0,-9.880308807E-2
1.372887131E1,-5.391321778E-1,1.563378692E0,7.005751878E-2
1.375085256E1,5.438271165E-1,-5.801997781E-1,3.165503740E-1
1.377285100E1,2.038649321E0,-2.070728540E0,4.417602718E-1
1.379285256E1,2.477686882E0,-8.605346084E-1,4.448495209E-1
1.381486038E1,2.243795395E0,5.050982833E-1,4.055795968E-1
1.383685256E1,1.910507202E0,1.840973258E0,5.410520434E-1
1.385685256E1,1.695273161E0,2.558129072E0,6.265208125E-1
1.387885256E1,2.911226749E0,6.329960227E-1,5.499532223E-1
1.390085256E1,2.468523979E0,8.059930205E-1,9.635962546E-2
1.392085569E1,1.640871286E0,8.453676701E-1,-6.007423252E-2
1.394285100E1,1.134847999E0,5.641078949E-1,1.310742199E-1
1.396285100E1,1.207453728E0,3.077015467E-2,1.245816052E-1
1.398285100E1,1.244262695E0,2.347467840E-2,1.170592308E-1
1.400285412E1,1.128494978E0,4.574333429E-1,2.226691097E-1
1.402485256E1,1.104496717E0,6.816208959E-1,3.167248964E-1
1.404486194E1,1.169161201E0,5.940053463E-1,3.894876838E-1
1.406685256E1,1.332017779E0,4.292462766E-1,4.516563118E-1
1.408685256E1,1.703755498E0,1.238660142E-1,3.958057761E-1
1.410685256E1,1.979884028E0,1.074773744E-1,3.964515328E-1
1.412685256E1,1.673770785E0,1.020843029E0,6.088057756E-1
1.414885256E1,6.984633207E-1,2.485348940E0,4.541521370E-1
1.417085100E1,1.287878454E-1,1.778071642E0,-7.035422325E-2
1.419085256E1,1.446354389E-1,3.356442750E-1,-3.008947670E-1
1.421285256E1,-4.224743843E-1,-5.906194076E-2,-6.258052588E-1
1.423485412E1,-2.042070150E0,1.175583959E0,-9.574003816E-1
1.425685256E1,-3.136653423E0,1.633314013E0,-1.053812385E0
1.427685256E1,-3.452296257E0,1.526255488E0,-1.167468190E0
1.429885256E1,-3.041777372E0,8.862782121E-1,-1.489498854E0
1.431885256E1,-2.623020411E0,1.021698236E0,-1.414432287E0
1.433885256E1,-2.250619411E0,1.519780397E0,-1.020092607E0
1.436085100E1,-1.862615347E0,1.666824341E0,-7.858344913E-1
1.438085100E1,-2.452170134E0,8.640776277E-1,-5.750685334E-1
1.440085100E1,-2.975960970E0,2.904402316E-1,-2.563888729E-1
1.442085100E1,-2.585408688E0,2.510307133E-1,1.856157631E-1
1.444085100E1,-1.955379605E0,8.083317876E-1,2.938610911E-1
1.446085100E1,-1.529362202E0,1.708136320E0,-5.115560070E-2
1.448085256E1,-1.124044418E0,2.059924841E0,-3.305304646E-1
1.450285256E1,-8.037765026E-1,1.325978994E0,-4.848001003E-1
1.452485256E1,-9.655161500E-1,1.970302165E-1,-5.362175107E-1
1.454485256E1,-1.099365473E0,-9.377130270E-1,-2.616772056E-1
1.456485256E1,-9.420938492E-1,-1.805054426E0,3.141592606E-4
1.458485256E1,-4.904724360E-1,-2.153125525E0,1.197470427E-1
1.460485256E1,2.348165959E-1,-2.138883591E0,1.965764314E-1
1.462485256E1,1.149421453E0,-2.066173077E0,3.391174674E-1
1.464485256E1,2.109038353E0,-1.972239494E0,4.195946157E-1
1.466485256E1,2.844781876E0,-1.774720550E0,2.737025321E-1
1.468485881E1,2.537796021E0,-8.776737452E-1,-6.023131311E-2
1.470685256E1,-3.323979676E-1,8.254359961E-1,-7.357609868E-1
1.472887131E1,-1.080882430E0,-1.068490595E-1,-6.850766540E-1
1.475085256E1,-8.627162129E-2,-2.541373968E-1,-6.664714217E-1
1.477285100E1,3.211929500E-1,-2.054601610E-1,-5.302484632E-1
1.479285256E1,-3.822794557E-1,8.197462559E-1,5.536184460E-2
1.481485256E1,-3.984412253E-1,1.185619593E0,1.881464869E-1
1.483485881E1,-4.815363288E-1,7.963238955E-1,-2.028247118E-1
1.485685256E1,-2.102598101E-1,-2.904227935E-2,1.317723561E-2
1.487685256E1,1.097340822E0,-2.078530073E0,3.323106766E-1
1.489885256E1,2.437387228E0,-1.758681059E0,6.501526237E-1
1.492085100E1,2.240182400E0,4.685336351E-1,7.010987401E-2
1.494085100E1,1.473738551E0,2.450616837E0,3.483677208E-1
1.496085100E1,2.540483713E0,5.110149384E-1,1.000684500E0
1.498085100E1,2.819038391E0,-4.692666829E-1,5.386435390E-1
1.500085100E1,2.352581739E0,-1.956339478E-1,8.747590333E-2
1.502085256E1,1.782330275E0,-1.976061761E-1,-1.085420251E-1
1.504085256E1,1.389002800E0,-1.284387857E-1,1.064650831E-3
1.506285100E1,1.240108848E0,-3.771656379E-2,1.010196581E-1
1.508285256E1,1.460997701E0,-7.974409312E-2,4.075343907E-2
1.510486819E1,1.554931283E0,2.188119292E-1,1.445132587E-2
1.512685256E1,1.289868116E0,9.474694133E-1,1.576032341E-1
1.514685256E1,1.131584167E0,1.136575818E0,3.034603894E-1
1.516685256E1,1.141689658E0,7.787309885E-1,4.198563993E-1
1.518685256E1,1.396769524E0,1.406560838E-1,5.055345893E-1
1.520685256E1,1.566101432E0,-1.653524935E-1,5.079606175E-1
1.522887131E1,1.589837909E0,1.075995490E-1,5.429893732E-1
1.525085256E1,1.314896107E0,9.678374529E-1,5.316621661E-1
1.527085256E1,5.916840434E-1,1.892949224E0,2.142391652E-1
1.529285256E1,1.717229486E-1,1.408253789E0,-2.182534188E-1
1.531485256E1,9.674359858E-2,3.113842010E-1,-4.042007923E-1
1.533485256E1,-6.739763618E-1,6.128200293E-1,-5.594303608E-1
1.535485413E1,-2.148866892E0,1.825282812E0,-6.337115765E-1
1.537685100E1,-3.331833601E0,1.974107027E0,-8.895070553E-1
1.539685256E1,-3.708842039E0,1.573082685E0,-1.150154471E0
1.541685256E1,-3.309283972E0,8.270766139E-1,-1.645653486E0
1.543885256E1,-2.698418617E0,6.987949014E-1,-1.733740211E0
1.545885256E1,-2.241892815E0,1.048628688E0,-1.187487125E0
1.548085100E1,-1.974421144E0,1.370659471E0,-5.731312037E-1
1.550085100E1,-2.923862934E0,7.950323820E-1,-3.596948981E-1
1.552085100E1,-3.152867556E0,-1.359087825E-1,-2.233497798E-1
1.554085256E1,-2.487164021E0,-1.746550947E-1,1.438674927E-1
1.556285100E1,-1.745084882E0,7.548723817E-1,2.869495749E-1
1.558285100E1,-1.567148566E0,2.141274691E0,-5.836381018E-2
1.560285100E1,-1.379019499E0,2.368411779E0,-2.968106866E-1
1.562285100E1,-1.096363425E0,1.132561564E0,-2.883807421E-1
1.564285256E1,-1.105334520E0,-1.793849468E-1,-1.649510711E-1
1.566485256E1,-1.179266572E0,-1.270704389E0,7.105235010E-2
1.568485256E1,-9.086882472E-1,-1.821861982E0,2.884680033E-1
1.570685256E1,-2.093871534E-1,-1.831967354E0,4.119675159E-1
1.572887131E1,5.735501051E-1,-1.847588062E0,4.856553078E-1
1.575085256E1,1.438936710E0,-2.334046364E0,6.179687381E-1
1.577085256E1,2.300972223E0,-2.845130920E0,3.352428377E-1
1.579085256E1,2.173545837E0,-1.995155692E0,-2.231752574E-1
1.581085256E1,-8.197811246E-2,-2.088984549E-1,-5.845806003E-1
1.583085256E1,-1.578964472E0,-1.089766145E0,-3.484200835E-1
1.585085256E1,-7.441385984E-1,-1.612317681E0,-2.015855312E-1
1.587085256E1,4.962145686E-1,-1.458746195E-1,-3.701843321E-1
1.589285256E1,3.669903874E-1,1.618286729E0,-3.426081240E-1
1.591485569E1,4.370304346E-1,1.406159401E0,2.318146378E-1
1.593685256E1,-5.551717877E-1,1.253512859E0,3.923674822E-1
1.595685256E1,-1.584689140E0,1.461748123E0,3.558551669E-1
1.597885100E1,9.928305149E-1,-1.296954155E-1,3.196570575E-1
1.599885256E1,1.975712657E0,-6.856351495E-1,-9.660397470E-2
1.601885256E1,2.369877815E0,-8.151211143E-1,-1.948311031E-1
1.603885256E1,2.383107424E0,-8.553684354E-1,1.526464969E-1
1.605885256E1,2.055334568E0,-7.915068269E-1,4.216541052E-1
1.607885256E1,1.589139700E0,-2.791305184E-1,2.681349218E-1
1.609885256E1,8.923344612E-1,8.952841163E-1,9.861110151E-2
1.612085256E1,2.393736601E0,-1.522660136E0,6.525786221E-2
1.614285256E1,2.330293894E0,-1.228781581E0,5.806710571E-2
1.616285256E1,1.956618786E0,-5.610535145E-1,-1.074599251E-1
1.618285256E1,1.694627404E0,-3.269001842E-2,-9.779080003E-2
1.620285256E1,1.700072885E0,5.295503736E-1,3.796090931E-2
1.622285256E1,1.630853057E0,1.218170047E0,1.321563274E-1
1.624285256E1,1.489586115E0,1.417835712E0,2.055823356E-1
1.626285256E1,1.437243700E0,9.923942089E-1,3.341607451E-1
1.628285256E1,1.562104583E0,1.704314053E-1,4.548677206E-1
1.630285256E1,1.702010155E0,-5.533217192E-1,5.217661858E-1
1.632285256E1,1.872808099E0,-9.697747231E-1,5.131093264E-1
1.634285256E1,1.991891861E0,-8.606044054E-1,5.303531885E-1
1.636285256E1,1.448134542E0,5.392369032E-1,3.923500180E-1
1.638285256E1,2.097711265E-1,2.238995552E0,1.168672442E-1
1.640285256E1,-2.427927554E-1,1.728626490E0,-7.771950960E-2
1.642285256E1,-1.977807134E-1,-9.941395372E-2,-2.729345858E-1
1.644485100E1,-5.586100817E-1,-1.192513704E0,-3.625223339E-1
1.646485256E1,-2.145934582E0,3.049439192E-1,-3.998374641E-1
1.648685256E1,-3.202015877E0,1.514299989E0,-6.783221960E-1
1.650685256E1,-3.412467718E0,1.743252277E0,-8.231670856E-1
1.652685256E1,-3.084886789E0,1.014507532E0,-1.110169053E0
1.654885100E1,-2.831395388E0,1.789136976E-1,-1.182216167E0
1.656885100E1,-2.563417435E0,-5.927138031E-2,-1.044439912E0
1.658885256E1,-2.254895687E0,9.508553892E-2,-7.762002945E-1
1.660885256E1,-2.130470991E0,4.572588205E-1,-5.656437278E-1
1.662887131E1,-2.846038580E0,5.802172422E-1,-4.516039491E-1
1.665085100E1,-2.700198889E0,1.277406514E-1,-4.876275361E-1
1.667085100E1,-1.972571135E0,4.233645201E-1,-3.484200835E-1
1.669085256E1,-1.406717896E0,1.438535213E0,-3.497290611E-1
1.671285100E1,-1.027004123E0,1.598372579E0,-5.583831668E-1
1.673285100E1,-9.358978868E-1,5.377184749E-1,-7.424630523E-1
1.675285100E1,-1.197627425E0,-7.473499775E-1,-5.917713046E-1
1.677285100E1,-1.294091821E0,-1.710998654E0,-2.195973247E-1
1.679285100E1,-9.963212013E-1,-2.049958944E0,-2.190388180E-2
1.681285100E1,-4.187917411E-1,-1.947979450E0,1.680752076E-2
1.683285100E1,3.415609300E-1,-1.941958070E0,5.405284837E-2
1.685285256E1,1.334443808E0,-2.584745407E0,2.583436370E-1
1.687486194E1,2.664053202E0,-4.129099846E0,2.739992440E-1
1.689685569E1,2.187246561E0,-1.920525432E0,-9.625490755E-2
1.691885256E1,6.025574803E-1,-5.939180851E-1,-1.718904972E0
1.693885256E1,-9.056687951E-1,8.640426993E-1,-1.329504609E0
1.696085100E1,-1.596976280E0,9.026842564E-2,-5.459215641E-1
1.698085100E1,-1.728225052E-1,-2.043570995E0,-8.048585653E-1
1.700085100E1,8.717046976E-1,2.819579542E-1,-7.747516781E-2
1.702085100E1,9.957103431E-2,2.469099760E0,7.042927146E-1
1.704085256E1,-6.850417256E-1,4.968603253E-1,3.902207017E-1
1.706285100E1,-8.648106456E-2,-1.706233919E-1,3.259227872E-1
1.708285256E1,7.122688890E-1,6.823015809E-1,8.908334970E-1
1.710486038E1,1.330447078E0,3.087661862E-1,4.429471195E-1
1.712685256E1,1.665812016E0,-7.571238279E-2,-1.067268848E-1
1.714685256E1,1.794687152E0,-4.391073883E-1,1.018399596E-1
1.716685256E1,1.514177799E0,-1.458397061E-1,1.483529806E-1
1.718885100E1,1.586835861E0,-2.343453616E-1,1.635548025E-1
1.720885725E1,2.227494001E0,-1.180889726E0,6.853908300E-2
1.722887131E1,2.197631359E0,-1.073534608E0,-3.001966281E-3
1.725085256E1,1.947508216E0,-7.868991494E-1,-1.041787043E-1
1.727085256E1,1.807480454E0,-3.923674822E-1,-6.005677953E-2
1.729285256E1,1.726689100E0,8.203047514E-2,3.302162886E-2
1.731485569E1,1.891360998E0,4.812047184E-1,4.441862926E-2
1.733685256E1,1.908761859E0,1.193613172E0,1.322785020E-1
1.735685256E1,1.608547807E0,1.780741930E0,2.430021912E-1
1.737685256E1,1.404536247E0,1.781143427E0,3.265685439E-1
1.739885256E1,1.504753113E0,1.125074148E0,4.609414637E-1
1.741885256E1,1.850764632E0,1.434311569E-1,5.858197808E-1
1.743885256E1,2.063485384E0,-6.617241502E-1,5.918760300E-1
1.745885256E1,2.071496487E0,-7.626390457E-1,5.958030224E-1
1.747885256E1,1.110378504E0,1.266794920E0,4.358959794E-1
1.749885256E1,9.665632993E-2,2.861187935E0,-4.033455998E-2
1.751885256E1,-1.520181745E-1,1.985469103E0,-3.405486345E-1
1.753885256E1,-3.926118016E-1,2.617121339E-1,-4.736998081E-1
1.756085100E1,-1.688623548E0,-2.544515431E-1,-5.127777457E-1
1.758085256E1,-3.340717316E0,5.540373325E-1,-7.013431191E-1
1.760285100E1,-3.509857178E0,7.363544106E-1,-1.177626014E0
1.762285100E1,-3.113300800E0,2.134014070E-1,-1.551492929E0
1.764285256E1,-2.798094511E0,1.287529320E-1,-1.539589882E0
1.766485256E1,-2.448522329E0,5.053949952E-1,-1.132352114E0
1.768485256E1,-2.185937643E0,8.740085363E-1,-9.744521976E-1
1.770485256E1,-2.250898838E0,7.275928855E-1,-8.179834485E-1
1.772485256E1,-3.094363928E0,-3.172484934E-1,-3.994884193E-1
1.774485256E1,-3.068637848E0,-4.193502665E-1,-1.348266900E-1
1.776486662E1,-2.475243330E0,4.129623473E-1,1.337969452E-1
1.778685256E1,-1.844376683E0,1.337096691E0,1.574985087E-1
1.780685256E1,-1.410278440E0,1.650243759E0,-2.576106042E-2
1.782887131E1,-1.088334918E0,9.317789078E-1,-2.631607354E-1
1.785085100E1,-1.005571485E0,-8.019787818E-2,-3.801152706E-1
1.787085100E1,-1.027108788E0,-6.668030620E-1,-1.766622216E-1
1.789085100E1,-8.681791425E-1,-1.188900828E0,5.119050667E-2
1.791085256E1,-4.758989215E-1,-1.470370054E0,7.757988572E-2
1.793285256E1,1.828930527E-1,-1.716548800E0,1.208291426E-1
1.795485256E1,1.187940955E0,-2.414523363E0,3.723834455E-1
1.797485256E1,2.454246998E0,-3.447670937E0,3.513871431E-1
1.799485412E1,2.768476248E0,-2.972540140E0,-1.527337581E-1
1.801685256E1,3.208962381E-1,2.708750963E-2,-6.780778766E-1
1.803685256E1,-1.510669708E0,7.960446924E-2,-4.662821591E-1
1.805685256E1,-6.254038215E-1,-7.182030082E-1,-2.507340014E-1
1.807685256E1,4.087735713E-1,5.860466361E-1,-4.708723724E-1
1.809685569E1,3.414038420E-1,9.992882609E-1,-4.062428474E-1
1.811685569E1,-3.524518013E-1,1.475798011E0,-1.450717598E-1
1.813885256E1,-3.584033549E-1,1.439285755E0,-7.637561113E-2
1.815885256E1,-2.907544076E-1,6.102194786E-1,2.530029416E-1
1.817885256E1,1.964368075E-1,-2.855882347E-1,4.205545485E-1
1.819885256E1,1.135197043E0,-8.340055943E-1,3.620510995E-1
1.822085100E1,2.161258698E0,-6.320011616E-1,1.996307522E-1
1.824085725E1,2.525735855E0,1.455255598E-1,1.422617882E-1
1.826285100E1,2.532228470E0,6.112666726E-1,4.067664444E-1
1.828285256E1,1.797287703E0,1.668814063E0,3.588047922E-1
1.830485100E1,2.244929790E0,2.445380837E-1,4.480434656E-1
1.832485881E1,2.459221363E0,-6.294530034E-1,3.886499107E-1
1.834685256E1,2.043658257E0,-3.127630055E-1,1.697856337E-1
1.836685725E1,1.695185900E0,-2.849948108E-1,-7.330382941E-4
1.838885256E1,1.611724257E0,-3.477742970E-1,3.010693006E-2
1.840885256E1,1.435620546E0,1.772730947E-1,9.091419727E-2
1.842887131E1,1.245397091E0,9.796882272E-1,1.423141509E-1
1.845085256E1,1.093658209E0,1.323902011E0,2.490235716E-1
1.847085256E1,1.216162920E0,1.100115895E0,3.327819407E-1
1.849085569E1,1.511489987E0,4.773475528E-1,4.516563118E-1
1.851285256E1,1.784319878E0,-3.538131416E-1,5.822418332E-1
1.853285412E1,1.894362926E0,-8.911127448E-1,5.112243891E-1
1.855485881E1,1.935901761E0,-8.279492855E-1,4.247084260E-1
1.857685100E1,7.700916529E-1,1.498714209E0,5.333726406E-1
1.859685256E1,-1.739918739E-1,2.359562874E0,2.328618318E-1
1.861685256E1,-1.479690075E-1,1.034648657E0,-1.196423173E-1
1.863685256E1,1.710422635E-1,-7.745072842E-1,-2.024756521E-1
1.865885256E1,-5.307546258E-2,-1.127657175E0,-3.081029654E-1
1.867885256E1,-1.486845970E0,8.177565932E-1,-6.096609831E-1
1.869885256E1,-2.544585228E0,1.207261682E0,-9.115679860E-1
1.871885256E1,-3.220463991E0,9.973160625E-1,-9.427570701E-1
1.873885256E1,-3.255649805E0,6.289992332E-1,-1.013407946E0
1.876085256E1,-2.864696264E0,3.266558349E-1,-1.299921274E0
1.878285256E1,-2.580957890E0,5.140169263E-1,-1.181186438E0
1.880285256E1,-2.378761530E0,7.616093159E-1,-7.903897762E-1
1.882485100E1,-2.480549097E0,7.317118049E-1,-4.658807218E-1
1.884485100E1,-2.880351782E0,4.601735175E-1,-3.948458433E-1
1.886485256E1,-2.775387764E0,3.163932860E-1,-2.482556254E-1
1.888485412E1,-2.271004915E0,9.333148003E-1,1.122246683E-2
1.890685100E1,-1.645269513E0,1.827132821E0,-5.152212083E-2
1.892685256E1,-1.201292634E0,2.382356882E0,-1.788089871E-1
1.894885256E1,-8.174947500E-1,1.494822145E0,-2.916096151E-1
1.897085256E1,-8.799775243E-1,-9.674359858E-2,-3.772529066E-1
1.899285100E1,-1.056884170E0,-9.325293899E-1,-1.540951133E-1
1.901285256E1,-8.520348072E-1,-1.456529617E0,6.346017122E-2
1.903485256E1,-3.184178770E-1,-1.712656736E0,1.664694995E-1
1.905685256E1,3.764849603E-1,-1.746166945E0,2.852391601E-1
1.907685256E1,1.216616631E0,-2.085755825E0,5.030736923E-1
1.909685256E1,2.186949968E0,-2.742348671E0,5.352925062E-1
1.911885100E1,2.512052298E0,-2.485104561E0,8.126252890E-2
1.913885100E1,6.011437774E-1,-1.911833584E-1,-6.878517270E-1
1.915885100E1,-1.771526694E0,2.477494925E-1,-6.661223769E-1
1.917885256E1,-9.471203685E-1,-7.522892356E-1,-1.421570629E-1
1.919885256E1,4.297698736E-1,1.079660654E-1,-3.455402851E-1
1.921885256E1,8.312305212E-1,8.441110253E-1,-7.172256112E-1
1.923885256E1,4.066617228E-3,1.434695601E0,-2.762507200E-1
1.926085256E1,-4.185473919E-1,9.467538595E-1,2.008524835E-1
1.928285256E1,-4.693190455E-1,9.789900780E-1,1.904154271E-1
1.930485100E1,3.329041004E-1,2.875778973E-1,5.862910151E-1
1.932485100E1,1.066465974E0,-1.030180573E0,2.092300653E-1
1.934485100E1,2.214700699E0,-1.659790635E0,9.208357334E-2
1.936485100E1,2.494302273E0,-3.951250911E-1,1.713913381E-1
1.938485256E1,1.976498127E0,1.251645446E0,1.530130208E-1
1.940685256E1,1.743863225E0,2.270463943E0,4.889190793E-1
1.942685256E1,2.936830521E0,-7.508406043E-2,6.913423538E-1
1.944685256E1,2.771722555E0,-6.454750896E-1,3.287327588E-1
1.946885100E1,2.030463696E0,-2.377836555E-1,2.071007639E-1
1.948885100E1,1.608757257E0,-2.051110864E-1,1.499761492E-1
1.950885256E1,1.432182312E0,-1.537286043E-1,1.532224566E-1
1.952887131E1,1.480388284E0,1.190314535E-2,1.835911870E-1
1.955085256E1,1.430419445E0,2.613106966E-1,2.283414304E-1
1.957285256E1,1.399073362E0,4.608716369E-1,3.117332458E-1
1.959486506E1,1.486357331E0,3.899763525E-1,3.579146564E-1
1.961685100E1,1.647032261E0,7.000515610E-2,4.499633312E-1
1.963685256E1,1.779485345E0,-8.368853480E-2,5.156051517E-1
1.965685256E1,1.899686217E0,5.686282739E-2,4.757592976E-1
1.967685256E1,1.646159649E0,7.658853531E-1,5.514367819E-1
1.969685256E1,8.991237879E-1,2.053728819E0,5.985082984E-1
1.971685256E1,2.845061123E-1,2.409130335E0,1.942376941E-1
1.973685256E1,2.017600648E-2,1.309171438E0,-2.666339576E-1
1.975685256E1,3.385938704E-3,-8.997172117E-2,-3.226939142E-1
1.977685256E1,-7.305424809E-1,-1.893682219E-2,-3.932575881E-1
1.979685256E1,-2.231787443E0,8.773770332E-1,-6.266779304E-1
1.981685256E1,-3.165102243E0,9.434202909E-1,-8.758934736E-1
1.983885100E1,-3.377822876E0,7.184473276E-1,-1.130048275E0
1.985885256E1,-3.021810770E0,3.190810978E-1,-1.442724109E0
1.987885256E1,-2.747601986E0,4.036597610E-1,-1.474244714E0
1.989885256E1,-2.408955812E0,7.131589651E-1,-1.157886386E0
1.991885256E1,-2.072718143E0,1.024857283E0,-8.183150887E-1
1.993885256E1,-1.931189299E0,3.176324666E-1,-7.787833810E-1
1.995885256E1,-2.599999428E0,-8.540593982E-1,-4.311835766E-1
1.998085256E1,-2.627401114E0,-5.274035931E-1,-6.853908300E-2
2.000085256E1,-2.065771580E0,6.127327681E-1,9.173450619E-2
2.002285100E1,-1.343030810E0,1.724402785E0,-1.285260469E-1
2.004285100E1,-8.725249767E-1,2.096995592E0,-2.323033214E-1
2.006285100E1,-5.521523356E-1,1.383330464E0,-2.600366175E-1
2.008285100E1,-5.296376348E-1,6.246533245E-2,-3.426430523E-1
2.010285100E1,-7.254111767E-1,-8.702735305E-1,-1.491383910E-1
2.012285100E1,-7.830419540E-1,-1.171011209E0,1.793151200E-1
2.014285100E1,-5.303357244E-1,-1.316624045E0,3.114365637E-1
2.016285100E1,5.857324973E-2,-1.674224496E0,3.517536521E-1
2.018285100E1,9.276250601E-1,-2.445869446E0,4.827580750E-1
2.020285100E1,1.803221822E0,-3.217043161E0,4.812047184E-1
2.022285100E1,1.835772157E0,-2.521930933E0,2.769837528E-2
2.024285100E1,-4.536110535E-2,1.707106531E-1,-6.458939910E-1
2.026285100E1,-1.286499619E0,7.295475900E-2,-5.089380145E-1
2.028285100E1,-3.737448156E-1,2.423564196E-1,-3.785444498E-1
2.030285100E1,4.810476601E-1,6.858446002E-1,-6.067462564E-1
2.032285100E1,2.378360182E-1,-3.257482648E-1,-6.772924662E-1
2.034285100E1,-4.629311264E-1,-2.862340072E-3,-4.787787199E-1
2.036285256E1,4.356865287E-1,-9.763371944E-2,-5.529202893E-2
2.038485256E1,-1.030616909E-1,8.241968155E-1,-4.230678082E-2
2.040485256E1,-6.246358752E-1,7.840018868E-1,-1.778490469E-2
2.042485725E1,2.135235816E-1,-5.271418095E-1,-7.169812173E-2
2.044685100E1,1.986812949E0,-2.093784332E0,5.546656251E-2
2.046685100E1,2.451611519E0,-1.093588352E0,1.791929603E-1
2.048685256E1,2.341184616E0,-5.098106712E-2,2.708925605E-1
2.050885256E1,1.434817672E0,1.649842262E0,3.479488492E-1
2.052887131E1,2.302124262E0,-5.461135134E-2,7.012383938E-1
2.055085256E1,2.479344845E0,-8.556302190E-1,3.684040904E-1
2.057285256E1,1.965432763E0,-4.307472706E-1,1.732937396E-1
2.059486662E1,1.585108042E0,-1.573937982E-1,3.045599535E-2
2.061685100E1,1.470980883E0,1.764527857E-1,6.974335760E-2
2.063685256E1,1.541003585E0,7.829197645E-1,1.544616371E-1
2.065885256E1,1.520810127E0,1.427400112E0,2.231403440E-1
2.067885256E1,1.402424455E0,1.445481658E0,3.647389114E-1
2.069885256E1,1.465500593E0,8.233765364E-1,5.312781930E-1
2.072085100E1,1.676528335E0,-7.115707546E-2,6.974161267E-1
2.074085100E1,1.642005801E0,-6.269746423E-1,6.811496615E-1
2.076085256E1,1.781475067E0,-9.007818699E-1,4.680972993E-1
2.078285256E1,1.788753033E0,-1.282293350E-1,3.532720804E-1
2.080485256E1,4.591612220E-1,2.321008682E0,5.209109783E-1
2.082485256E1,-6.077236310E-2,2.339125156E0,2.226167470E-1
2.084485256E1,1.216669008E-1,6.162583232E-1,-1.408131570E-1
2.086685100E1,-1.419825405E-1,-9.170483351E-1,-2.961474657E-1
2.088685256E1,-9.043598175E-1,-7.467390895E-1,-5.889613628E-1
2.090885100E1,-2.253900766E0,-6.387905218E-3,-1.031384826E0
2.092887131E1,-3.190112829E0,3.123615682E-1,-1.075716257E0
2.095085100E1,-3.553315878E0,6.809576750E-1,-1.036219478E0
2.097085256E1,-3.110002279E0,8.156796098E-1,-1.351338625E0
2.099285100E1,-2.685887098E0,1.313499928E0,-1.303516626E0
2.101285256E1,-2.310728550E0,1.724158406E0,-9.702285528E-1
2.103485725E1,-2.225067854E0,1.356557131E0,-6.121044159E-1
2.105685256E1,-2.933374882E0,-2.251125723E-1,-2.787116170E-1
2.107685256E1,-2.927772284E0,-2.540675700E-1,-5.906194076E-2
2.109685256E1,-2.508299828E0,4.643273950E-1,1.706408411E-1
2.111685256E1,-2.060640335E0,1.337271214E0,1.986533701E-1
2.113685256E1,-1.645967603E0,1.944279313E0,2.028945237E-1
2.115885256E1,-9.936683178E-1,1.733844995E0,1.557357311E-1
2.118085256E1,-4.756196737E-1,9.470854402E-1,-6.698573381E-2
2.120085256E1,-3.590142131E-1,-9.328784794E-2,-2.906322181E-1
2.122285256E1,-4.403291047E-1,-9.253037572E-1,-1.633628160E-1
2.124485256E1,-3.177720904E-1,-1.280600429E0,1.065523475E-1
2.126486819E1,1.465029418E-1,-1.487456799E0,3.435331583E-1
2.128685256E1,9.696874619E-1,-1.995975971E0,5.760633945E-1
2.130685256E1,1.884013057E0,-2.783939838E0,5.615422130E-1
2.132887131E1,2.144067049E0,-2.967583418E0,1.884955540E-2
2.135085100E1,1.879719645E-1,-2.985560298E-1,-7.155500650E-1
2.137085100E1,-2.063694715E0,4.621108174E-1,-5.638460517E-1
2.139085100E1,-1.093815327E0,-7.969347835E-1,-2.056172341E-1
2.141085256E1,-2.537883222E-1,-7.653792500E-1,-5.864131451E-1
2.143085256E1,1.629264802E-1,-1.046918273E0,-7.439640164E-1
2.145285100E1,5.625196174E-2,3.346668780E-1,-3.082425892E-1
2.147285100E1,1.164186954E0,5.681570172E-1,9.155996889E-2
2.149285100E1,-8.313526511E-1,2.294723988E0,3.599217832E-1
2.151285256E1,-1.485973358E0,2.680389404E0,6.036221385E-1
2.153485256E1,7.715576887E-1,-1.259324908E0,3.078760803E-1
2.155486663E1,2.631537676E0,-2.612879992E0,1.801703423E-1
2.157685100E1,3.255859375E0,-1.247404218E0,1.157153305E-2
2.159685100E1,3.048200130E0,2.562666833E-1,1.805368513E-1
2.161685100E1,2.507444620E0,1.555891156E0,4.521624446E-1
2.163685256E1,2.136248112E0,2.061111689E0,5.642998815E-1
2.165885256E1,1.699427128E0,1.954873443E0,5.446997881E-1
2.168085256E1,2.375689745E0,-1.095141768E0,4.775919020E-1
2.170085256E1,2.079821587E0,-9.900554419E-1,3.901160061E-1
2.172285256E1,1.645880342E0,-4.929507971E-1,1.506219208E-1
2.174485256E1,1.459967971E0,-1.026602685E-1,8.766788989E-2
2.176485256E1,1.378513455E0,3.862413764E-1,1.680403054E-1
2.178485256E1,1.281089067E0,9.282010198E-1,2.293362617E-1
2.180485256E1,1.244053245E0,1.005204916E0,2.766172290E-1
2.182485256E1,1.387885809E0,8.109846711E-1,3.929783404E-1
2.184685256E1,1.668412566E0,1.519483626E-1,5.623450875E-1
2.186685256E1,1.766552448E0,-3.537433445E-1,5.921378732E-1
2.188685256E1,1.764876962E0,-4.840845168E-1,5.129871964E-1
2.190885256E1,1.341215730E0,6.436425447E-1,5.510004163E-1
2.192887131E1,3.045948744E-1,2.238000870E0,3.700621724E-1
2.195085100E1,-2.307150662E-1,1.652215958E0,-5.532693863E-2
2.197085256E1,-1.121025011E-1,8.674286306E-2,-2.354623675E-1
2.199285100E1,-8.303403854E-1,-3.398330510E-1,-4.195946157E-1
2.201285100E1,-2.328199387E0,2.989749014E-1,-7.854330540E-1
2.203285100E1,-3.242821693E0,3.972194791E-1,-1.042083740E0
2.205285100E1,-3.449712992E0,3.657337427E-1,-1.207174420E0
2.207285256E1,-3.149481535E0,9.086184204E-2,-1.551894426E0
2.209485725E1,-2.844589949E0,3.072652221E-1,-1.618635774E0
2.211486038E1,-2.530919313E0,8.041255474E-1,-1.231870890E0
2.213685256E1,-2.101463795E0,1.034194827E0,-1.030040979E0
2.215685256E1,-2.385236740E0,-3.657512069E-1,-8.317192197E-1
2.217685256E1,-2.869041920E0,-1.097113967E0,-4.094891548E-1
2.219685256E1,-2.753204584E0,-4.084943235E-1,-1.346172392E-1
2.221685256E1,-2.218994141E0,7.009067535E-1,1.453859266E-2
2.223885256E1,-1.458693862E0,1.519832730E0,-5.309291556E-2
2.225885256E1,-9.963037372E-1,1.645094991E0,-1.551597714E-1
2.227885256E1,-7.834783196E-1,8.153654933E-1,-3.456799090E-1
2.229885256E1,-8.115257621E-1,-3.826110661E-1,-4.109203219E-1
2.231885256E1,-8.634667397E-1,-1.185724378E0,-2.163335532E-1
2.234085256E1,-6.264335513E-1,-1.418411613E0,-1.431170013E-2
2.236285256E1,-1.015258059E-1,-1.597674370E0,1.055575162E-1
2.238485725E1,5.797634721E-1,-1.861184239E0,2.907718420E-1
2.240685100E1,1.513584375E0,-2.589736938E0,4.233470559E-1
2.242685256E1,2.504372835E0,-3.339006901E0,3.141592816E-2
2.244885256E1,2.169252157E0,-2.605881214E0,-6.920055747E-1
2.247085256E1,-2.164888859E0,3.356442750E-1,-8.535009027E-1
2.249285100E1,-1.656683922E0,-1.171150804E0,-3.385938704E-1
2.251285256E1,-1.009672955E-1,-1.109505817E-1,-4.339237511E-1
2.253285256E1,4.845033884E-1,9.203644991E-1,-6.700842381E-1
2.255485100E1,-8.064642549E-1,2.505961180E0,-2.647838891E-1
2.257485256E1,1.806415766E-1,9.001710415E-1,1.309520602E-1
2.259485256E1,6.117029786E-1,-4.902629852E-1,3.264463842E-1
2.261485256E1,6.059957743E-1,-7.373666763E-1,4.849571884E-1
2.263486038E1,6.368182898E-1,-3.047693968E-1,1.865756959E-1
2.265685100E1,8.758411407E-1,6.507809162E-1,-4.855506122E-2
2.267685256E1,1.265677810E0,9.364738464E-1,3.830823302E-1
2.269685256E1,1.939985871E0,6.858096719E-1,5.884552002E-1
2.271685412E1,2.886111259E0,-4.271344244E-1,6.448467970E-1
2.273885256E1,3.814591646E0,-2.282087803E0,5.028991699E-1
2.276085256E1,2.027461767E0,-1.007054970E-1,1.210734919E-1
2.278285256E1,2.081200361E0,2.171887755E-1,3.818780556E-2
2.280285256E1,2.021824360E0,3.237062097E-1,-1.499761492E-1
2.282485256E1,1.789590836E0,7.302283049E-1,3.303908184E-2
2.284485256E1,1.735921979E0,1.010371089E0,1.362578571E-1
2.286485256E1,1.621690154E0,1.189913154E0,1.205324382E-1
2.288485256E1,1.549852371E0,1.033496737E0,2.408728898E-1
2.290685100E1,1.575369120E0,3.948283792E-1,4.002737999E-1
2.292685256E1,1.382597446E0,-9.316567332E-2,5.273163319E-1
2.294685256E1,1.247683525E0,-2.882236838E-1,5.710018873E-1
2.296685881E1,1.598337650E0,-3.634822667E-1,4.764574170E-1
2.298885100E1,1.628043175E0,3.188542128E-1,4.295080602E-1
2.300885100E1,9.195965528E-1,1.826574326E0,4.283038080E-1
2.302887131E1,1.622807086E-1,2.167053223E0,9.950122237E-2
2.305085256E1,1.380904466E-1,5.958379507E-1,-2.212204784E-1
2.307285256E1,1.057669520E-1,-9.198234081E-1,-2.669132054E-1
2.309485256E1,-7.810173631E-1,-3.703763187E-1,-4.729143977E-1
2.311485256E1,-1.917767763E0,6.535559893E-1,-7.624645233E-1
2.313685256E1,-2.763152838E0,1.033845782E0,-8.710938096E-1
2.315685256E1,-3.264690638E0,1.207732916E0,-8.937307596E-1
2.317685256E1,-3.109199286E0,9.221272469E-1,-1.225849390E0
2.319686819E1,-2.812877417E0,6.677106023E-1,-1.511018753E0
2.321885100E1,-2.470880032E0,7.038214803E-1,-1.155844331E0
2.323885256E1,-2.227755785E0,9.235060811E-1,-7.159515023E-1
2.325885256E1,-2.573418140E0,3.794869483E-1,-4.804891348E-1
2.328085100E1,-2.890265226E0,-2.026327252E-1,-3.586651683E-1
2.330085100E1,-2.599772692E0,8.981464058E-2,-1.201659217E-1
2.332085100E1,-2.122180700E0,8.746019602E-1,4.497713596E-2
2.334085256E1,-1.613225222E0,1.785506725E0,-3.192207217E-2
2.336285256E1,-1.190332055E0,2.233916759E0,-4.420918971E-2
2.338485256E1,-8.644964695E-1,1.643070459E0,3.188716620E-2
2.340685256E1,-6.031683087E-1,6.628760695E-2,-2.994984947E-2
2.342685256E1,-5.628337860E-1,-9.635090232E-1,-9.407324344E-2
2.344885256E1,-5.130395293E-1,-1.043759227E0,9.211847931E-2
2.346885256E1,-1.968207806E-1,-1.143679380E0,2.438573986E-1
2.349085100E1,4.302760065E-1,-1.504648328E0,3.582288325E-1
2.351085100E1,1.257841349E0,-2.107991219E0,4.837878048E-1
2.353085100E1,2.089979410E0,-2.843926668E0,2.342406362E-1
2.355085256E1,1.825160623E0,-2.199376583E0,-6.321058869E-1
2.357085256E1,-4.547978938E-1,2.065422684E-1,-8.890881538E-1
2.359285100E1,-1.470404983E0,-3.161314726E-1,-3.371976018E-1
2.361285256E1,-6.607816368E-2,-2.254965454E-1,-5.349608660E-1
2.363286038E1,5.837253928E-1,4.272042513E-1,-7.397403717E-1
2.365485256E1,-9.854128957E-2,4.446749985E-1,-5.302659273E-1
2.367485569E1,-2.364921197E-2,8.550542593E-1,2.460914291E-2
2.369685412E1,-3.440044075E-2,1.787688375E0,1.180191636E-1
2.371685412E1,-1.348860264E0,2.051233053E0,2.612932324E-1
2.373885256E1,5.932897925E-1,-1.418429136E0,3.520678282E-1
2.376085256E1,2.449621916E0,-2.294584274E0,5.804616213E-1
2.378085256E1,2.983657837E0,-6.840992570E-1,4.471707940E-1
2.380085256E1,2.775911331E0,1.020686030E0,4.005705118E-1
2.382285100E1,2.137818813E0,2.471438646E0,5.504593849E-1
2.384285100E1,1.598808885E0,3.349094868E0,5.394288898E-1
2.386285256E1,2.592442274E0,5.594652891E-1,6.012659073E-1
2.388285569E1,2.530936956E0,-3.506191969E-1,4.503822029E-1
2.390485100E1,1.872493982E0,1.841322333E-2,3.398505151E-1
2.392485881E1,1.570342541E0,-2.740166783E-1,2.834589183E-1
2.394685100E1,1.783831239E0,-7.213969231E-1,3.099181056E-1
2.396686662E1,1.729272246E0,-3.256959021E-1,2.095093280E-1
2.398885100E1,1.443998098E0,4.992688894E-1,2.991319895E-1
2.400885100E1,1.208500862E0,9.008691311E-1,3.527834117E-1
2.402887131E1,1.226844311E0,8.186990619E-1,3.513522446E-1
2.405085256E1,1.601007938E0,3.316823840E-1,3.799232841E-1
2.407285256E1,1.895916224E0,1.210211292E-1,4.289670289E-1
2.409285256E1,1.734647870E0,5.086936355E-1,4.889365435E-1
2.411285256E1,1.336084485E0,1.228886366E0,5.389576554E-1
2.413485256E1,7.486589551E-1,2.135392904E0,3.399901390E-1
2.415485256E1,3.249803185E-2,1.758366823E0,-7.049384713E-2
2.417485256E1,-1.334129721E-1,3.089232743E-1,-3.122045100E-1
2.419485256E1,-5.429021120E-1,-3.949505687E-1,-4.368733764E-1
2.421485256E1,-2.143770456E0,3.677234054E-1,-5.825908780E-1
2.423485256E1,-3.326510191E0,8.161159754E-1,-7.809475660E-1
2.425485256E1,-3.534902573E0,8.595397472E-1,-1.114287972E0
2.427485256E1,-3.129096031E0,2.685363591E-1,-1.465675116E0
2.429485256E1,-2.905973196E0,-2.094395086E-2,-1.529257536E0
2.431486194E1,-2.807589054E0,3.119426966E-1,-1.194730282E0
2.433685100E1,-2.594012976E0,8.271115422E-1,-8.739038110E-1
2.435685412E1,-2.980359077E0,3.247708678E-1,-6.509903669E-1
2.437885256E1,-3.148940563E0,-6.204296350E-1,-4.809429348E-1
2.439885256E1,-2.864486694E0,-2.387784868E-1,-1.001819000E-1
2.441885256E1,-2.336419821E0,1.095822453E0,7.738789916E-2
2.444085100E1,-1.703092337E0,2.427752972E0,-2.303834632E-2
2.446085256E1,-1.109436035E0,2.459936857E0,-1.426108479E-1
2.448285100E1,-7.264409661E-1,1.006409168E0,-3.733433783E-1
2.450285256E1,-9.665982723E-1,-3.188018501E-1,-4.850619137E-1
2.452485256E1,-1.085577369E0,-1.243267894E0,-1.302888244E-1
2.454485256E1,-7.079927921E-1,-1.632004976E0,4.633849114E-2
2.456485256E1,-1.081056967E-1,-1.698903441E0,1.144586951E-1
2.458685100E1,5.962044597E-1,-1.685796022E0,3.126931787E-1
2.460685256E1,1.498400092E0,-2.223270178E0,5.555732250E-1
2.462685256E1,2.700129032E0,-3.270851612E0,4.828976989E-1
2.464685256E1,3.009750366E0,-2.696917772E0,-3.834313750E-1
2.466885256E1,-4.324576855E-1,1.169702172E0,-8.832762241E-1
2.469085256E1,-1.457751393E0,-4.364544749E-1,-6.010564566E-1
2.471285256E1,5.845107511E-2,-1.257684231E-1,-4.343949854E-1
2.473285256E1,1.934348345E-1,5.011712909E-1,-5.401445031E-1
2.475486350E1,-5.771105886E-1,1.875059605E0,-1.174257547E-1
2.477685256E1,4.967207089E-2,1.445952892E0,1.243372560E-1
2.479685881E1,-8.580911160E-1,5.856277943E-1,1.633104533E-1
2.481885256E1,8.880235255E-2,-1.239358261E-1,3.254515529E-1
2.484085256E1,1.194032073E0,-3.574434221E-1,4.041658938E-1
2.486285256E1,2.034547806E0,2.656740248E-1,1.172861233E-1
2.488485256E1,2.641643047E0,7.440338731E-1,4.532620013E-1
2.490485725E1,2.931350231E0,8.460134268E-1,9.034696817E-1
2.492685256E1,2.868239164E0,5.699023604E-1,9.741904140E-1
2.494885256E1,2.140402079E0,4.435405135E-1,7.651697993E-1
2.497085256E1,1.922183514E0,-9.969494939E-1,4.440990388E-1
2.499085256E1,2.027304649E0,-7.324972153E-1,4.904200733E-1
2.501285256E1,2.031982183E0,-1.141619831E-1,1.543918252E-1
2.503285256E1,1.796868801E0,5.343849063E-1,6.380923837E-2
2.505485256E1,1.412442565E0,1.332541466E0,1.980425119E-1
2.507485256E1,1.155739546E0,1.586713672E0,2.557780147E-1
2.509685256E1,1.243459821E0,9.149888754E-1,3.016801476E-1
2.511885100E1,1.539467692E0,-8.189085126E-2,4.164006412E-1
2.513885100E1,1.634710312E0,-6.831916571E-1,4.513247013E-1
2.515885256E1,1.642023206E0,-7.427597642E-1,5.156226158E-1
2.518085100E1,1.537827015E0,-2.155830711E-1,5.013109446E-1
2.520085256E1,1.199582219E0,1.072976112E0,5.824687481E-1
2.522285100E1,3.225193918E-1,2.353681326E0,4.134685099E-1
2.524285100E1,-4.670501128E-2,1.332209826E0,-1.016305238E-1
2.526285100E1,6.431538612E-2,-2.324429452E-1,-3.146305084E-1
2.528285256E1,-8.448091745E-1,-2.604205906E-1,-5.414884090E-1
2.530285256E1,-2.202430964E0,3.164281845E-1,-8.733976483E-1
2.532486038E1,-3.176987886E0,7.569492608E-2,-1.107533574E0
2.534685256E1,-3.504219770E0,8.925613761E-2,-1.227141023E0
2.536685256E1,-3.165503740E0,3.091850877E-1,-1.459496617E0
2.538685256E1,-2.807658911E0,9.526705146E-1,-1.521717668E0
2.540885100E1,-2.420475006E0,1.784616590E0,-1.271297812E0
2.542887131E1,-2.241142273E0,1.387379646E0,-9.607688189E-1
2.545085100E1,-2.792544365E0,-5.335994959E-1,-3.552617729E-1
2.547085256E1,-2.894454002E0,-7.827976346E-1,4.337143153E-2
2.549285100E1,-2.602408171E0,4.162261188E-1,3.250675797E-1
2.551285256E1,-2.104675055E0,1.396437883E0,2.140646279E-1
2.553485413E1,-1.563518286E0,1.818685412E0,9.349729121E-2
2.555685256E1,-1.115282893E0,1.192391515E0,-3.874630854E-2
2.557685256E1,-9.739111662E-1,2.309419662E-1,-2.798461020E-1
2.559885256E1,-1.008503556E0,-5.770233274E-1,-3.538829684E-1
2.562085256E1,-7.871958613E-1,-1.281647682E0,-2.509783506E-1
2.564285256E1,-2.996381223E-1,-1.660698175E0,-4.827580601E-2
2.566485725E1,4.433659911E-1,-1.711923599E0,1.581442803E-1
2.568685256E1,1.331773520E0,-1.898028135E0,4.046196938E-1
2.570685256E1,2.274076700E0,-2.360941887E0,3.782477677E-1
2.572887131E1,2.966832876E0,-2.202692747E0,-2.576978505E-1
2.575085100E1,1.342751622E0,3.548777997E-1,-8.246680498E-1
2.577085256E1,-1.362753034E0,6.172007918E-1,-6.452133060E-1
2.579285256E1,-7.853108644E-1,-7.456046343E-1,-2.999871969E-1
2.581285256E1,-2.106088847E-1,-5.229879022E-1,-5.364444256E-1
2.583285256E1,-2.082177848E-1,5.206317306E-1,-4.073598385E-1
2.585485100E1,-6.013706326E-1,2.503395557E0,9.297368675E-2
2.587485569E1,-4.510977864E-1,1.710614681E0,5.520476401E-2
2.589685256E1,1.092227027E-1,-1.404640973E-1,3.287502229E-1
2.591685256E1,1.148880482E0,-9.580984712E-1,7.368256450E-1
2.593885100E1,2.106420517E0,-2.929185927E-1,4.851491749E-1
2.595885256E1,2.526102304E0,5.921902061E-1,1.862964481E-1
2.598085256E1,2.692659140E0,1.316048026E0,4.838052690E-1
2.600285256E1,2.808426857E0,1.588424206E0,7.255682945E-1
2.602486350E1,2.426269531E0,1.701643705E0,6.965085268E-1
2.604685100E1,2.246361017E0,7.391120195E-1,3.779684901E-1
2.606685256E1,2.243568420E0,7.063347101E-2,2.946464717E-1
2.608885256E1,1.742484331E0,-4.623377323E-2,4.921828583E-2
2.611085256E1,1.206720591E0,1.474454105E-1,6.140068173E-2
2.613285100E1,1.016898632E0,3.085916638E-1,2.130174339E-1
2.615285256E1,1.102978230E0,4.084943235E-1,2.621484399E-1
2.617485256E1,1.413035989E0,3.950378299E-1,2.675240636E-1
2.619485569E1,1.631551266E0,3.214023709E-1,3.828379810E-1
2.621685412E1,1.615756035E0,4.900709987E-1,5.944591165E-1
2.623885256E1,1.546536207E0,6.964212656E-1,7.394785285E-1
2.626085256E1,1.713843465E0,4.492652118E-1,7.135953307E-1
2.628285100E1,1.510530114E0,4.850444496E-1,6.003409028E-1
2.630285256E1,9.015498161E-1,1.357063293E0,4.178143740E-1
2.632485256E1,1.095368639E-1,1.798439622E0,8.061675727E-2
2.634485881E1,4.361577705E-2,7.460060716E-1,-1.555088311E-1
2.636685100E1,-1.338667516E-2,-1.932603121E-1,-3.078237176E-1
2.638685256E1,-1.346416831E0,4.176921844E-1,-5.059709549E-1
2.640685256E1,-2.544515610E0,5.026024580E-1,-8.001112938E-1
2.642685256E1,-3.200096130E0,-4.623377323E-2,-1.155547619E0
2.644685256E1,-3.504551411E0,-3.032684028E-1,-1.349767804E0
2.646885100E1,-3.230063438E0,-5.123239756E-1,-1.797689080E0
2.648885100E1,-2.920738697E0,-7.278022822E-3,-1.785227418E0
2.650885256E1,-2.599388599E0,8.204792738E-1,-1.261471629E0
2.652887131E1,-2.263325453E0,1.297564983E0,-9.932494164E-1
2.655085256E1,-2.639531136E0,2.076941775E-3,-9.655336142E-1
2.657285256E1,-3.009471178E0,-8.666257858E-1,-5.822767615E-1
2.659486194E1,-2.673809528E0,1.390852928E-1,-1.831374019E-1
2.661685100E1,-2.062333345E0,1.536203861E0,-9.037315100E-2
2.663685256E1,-1.480964184E0,2.122826576E0,-1.449844986E-1
2.665685256E1,-8.902924657E-1,1.769694090E0,-9.258971363E-2
2.667685256E1,-5.708273649E-1,7.433182597E-1,-1.745678335E-1
2.669685256E1,-7.564780712E-1,-2.339788377E-1,-1.714960486E-1
2.671685412E1,-8.791572452E-1,-9.899333119E-1,1.303411871E-1
2.673885413E1,-6.147224307E-1,-1.467036486E0,3.200933933E-1
2.676085256E1,-3.373721614E-2,-1.564774990E0,4.329987466E-1
2.678285100E1,7.090225816E-1,-1.823310614E0,6.496813297E-1
2.680285256E1,1.821774721E0,-2.724999905E0,8.319635391E-1
2.682485256E1,2.879409313E0,-3.562216997E0,3.890338838E-1
2.684485256E1,1.756185174E0,-1.261523962E0,-7.000166774E-1
2.686485256E1,-1.014874101E0,1.426579714E0,-8.406203985E-1
2.688485256E1,-1.000143528E0,-2.972121239E-1,-2.177647352E-1
2.690485256E1,1.192408949E-1,-8.044920564E-1,-3.253293633E-1
2.692485256E1,3.617369533E-1,8.265879005E-2,-4.303807318E-1
2.694485256E1,-4.597546160E-1,2.128777981E0,-1.966462433E-1
2.696485256E1,-1.283689588E-1,1.945483565E0,-1.371305138E-1
2.698685256E1,-1.155931577E-1,5.993809700E-1,1.236216724E-1
2.700685256E1,-4.251621962E-1,-2.235766798E-1,5.275432467E-1
2.702887131E1,7.624819875E-1,-1.354340553E0,6.430316567E-1
2.705085256E1,2.028526306E0,-6.756169796E-1,4.347615242E-1
2.707285256E1,2.525735855E0,2.380105555E-1,3.060434759E-1
2.709485100E1,2.564569235E0,7.756417990E-1,5.778610706E-1
2.711485569E1,1.947927117E0,1.921293378E0,4.999495745E-1
2.713685256E1,2.189899445E0,9.937730432E-1,5.223072171E-1
2.715685256E1,2.561549902E0,-7.543662190E-1,4.493699074E-1
2.717685256E1,2.047794819E0,-6.684436202E-1,3.064100146E-1
2.719885256E1,1.660488844E0,-5.718571544E-1,1.156280637E-1
2.722085100E1,1.668098450E0,-4.258079827E-1,1.643576622E-1
2.724085100E1,1.665375710E0,1.066396162E-1,2.287777513E-1
2.726085256E1,1.523044109E0,7.879812717E-1,2.448696941E-1
2.728285100E1,1.268260956E0,1.137012243E0,2.953271568E-1
2.730285256E1,1.198395371E0,8.920377493E-1,3.679852188E-1
2.732485256E1,1.498330235E0,1.590344012E-1,4.267504513E-1
2.734685256E1,1.687541366E0,-3.326946497E-1,5.117828846E-1
2.736685256E1,1.759902716E0,-4.141491652E-1,4.610810876E-1
2.738685256E1,1.656631589E0,1.186823845E-2,4.214097559E-1
2.740685256E1,8.173202276E-1,1.618531108E0,5.206665993E-1
2.742685256E1,9.808750823E-3,2.422778845E0,2.907893062E-1
2.744885256E1,-4.607669078E-3,1.092279434E0,-1.653001308E-1
2.747085256E1,2.579596639E-1,-4.130147099E-1,-1.421570629E-1
2.749085256E1,-4.676609635E-1,8.143706620E-2,-1.749168932E-1
2.751285256E1,-1.992450356E0,6.473949552E-1,-7.375063300E-1
2.753485256E1,-2.786470413E0,-1.111774705E-2,-1.082261205E0
2.755486194E1,-3.395346165E0,2.003637888E-2,-1.114637017E0
2.757685256E1,-3.184876919E0,3.724532574E-2,-1.415095448E0
2.759685256E1,-2.695608616E0,3.062529266E-1,-1.556414843E0
2.761685256E1,-2.398379087E0,9.562833309E-1,-1.163157225E0
2.763685256E1,-2.212623596E0,1.563273907E0,-7.216238379E-1
2.765685256E1,-2.427857637E0,1.137849927E0,-6.831218600E-1
2.767685256E1,-2.686271191E0,1.933301240E-1,-6.717248559E-1
2.769685256E1,-2.500672817E0,-5.562364310E-2,-3.307049870E-1
2.771685256E1,-2.040778637E0,3.661875427E-1,-7.309439033E-2
2.773885256E1,-1.695238352E0,1.609944105E0,-1.029744223E-1
2.776085256E1,-1.215551972E0,1.824008703E0,-1.943249553E-1
2.778285100E1,-7.357784510E-1,9.404532313E-1,-2.653249502E-1
2.780285100E1,-7.301235795E-1,-2.685014606E-1,-3.737622499E-1
2.782285100E1,-9.365436435E-1,-9.481500983E-1,-1.749867052E-1
2.784285100E1,-7.812792063E-1,-1.320358992E0,4.483750835E-2
2.786285256E1,-3.427477479E-1,-1.549642920E0,1.290147305E-1
2.788485256E1,3.131818771E-1,-1.663560629E0,2.796191871E-1
2.790485256E1,1.124131680E0,-2.096297503E0,5.325348377E-1
2.792485725E1,2.146912098E0,-3.039735317E0,6.016324162E-1
2.794685100E1,2.602600098E0,-3.235351801E0,2.783800103E-2
2.796685256E1,5.211727619E-1,-1.747423708E-1,-7.690793276E-1
2.798685412E1,-1.613347411E0,5.664116740E-1,-7.022157907E-1
2.800885100E1,-4.494571984E-1,-1.072225571E0,-3.177197278E-1
2.802887288E1,4.820424914E-1,-5.412266254E-1,-4.256508946E-1
2.805085256E1,-4.560545459E-2,1.980948687E0,-4.600862563E-1
2.807285256E1,-6.930527687E-1,3.473117828E0,-4.671548307E-1
2.809487288E1,1.092576142E-2,1.604359031E0,-3.403392136E-1
2.811685256E1,-9.084438533E-2,4.863708913E-1,3.942698613E-2
2.813685569E1,1.740791351E-1,-5.842664242E-1,5.850692987E-1
2.815885256E1,1.345788479E0,-1.171779156E0,1.271803975E0
2.818085100E1,2.019904375E0,-4.229805470E-1,7.719241977E-1
2.820085256E1,2.317762375E0,5.956808850E-2,4.432089031E-1
2.822085725E1,2.471979618E0,4.057890549E-2,8.780577183E-1
2.824285256E1,2.257967234E0,2.375567704E-1,8.273733258E-1
2.826285569E1,2.350242853E0,-1.321563274E-1,3.270921409E-1
2.828485256E1,2.304410458E0,-3.766420484E-2,3.164456487E-1
2.830485256E1,1.996202826E0,-4.101523664E-3,1.215447262E-1
2.832485256E1,1.736096501E0,1.594881862E-1,9.161233157E-2
2.834485256E1,1.743095279E0,4.838576317E-1,2.209237814E-1
2.836485256E1,1.585404754E0,9.359677434E-1,2.783974707E-1
2.838485256E1,1.367343307E0,1.080114484E0,3.442836404E-1
2.840485725E1,1.371357560E0,7.913846374E-1,4.209385216E-1
2.842685256E1,1.633156896E0,3.897320107E-2,5.116956234E-1
2.844685256E1,1.545646071E0,-3.791727722E-1,6.504144073E-1
2.846685256E1,1.397973776E0,-2.843141258E-1,6.850591898E-1
2.848685569E1,1.383068681E0,1.391900033E-1,6.597344279E-1
2.850885100E1,9.627236128E-1,1.051002383E0,6.295751929E-1
2.852887131E1,3.857177496E-1,1.702970147E0,4.278500080E-1
2.855085256E1,1.346347034E-1,1.059449792E0,-1.117010694E-2
2.857285256E1,-1.022762898E-2,1.258905977E-1,-2.306627184E-1
2.859485881E1,-1.279134393E0,-1.834340952E-2,-5.616644025E-1
2.861685100E1,-2.319717169E0,-2.251474708E-1,-8.556825519E-1
2.863685256E1,-3.004112959E0,-3.361329734E-1,-1.053218961E0
2.865885256E1,-3.513906240E0,1.713389754E-1,-1.125562787E0
2.867885256E1,-3.220463991E0,4.448320568E-1,-1.366139054E0
2.870085256E1,-2.657263756E0,1.002412438E0,-1.391149640E0
2.872285256E1,-2.328408957E0,1.935639977E0,-1.016671777E0
2.874485256E1,-2.245104313E0,1.688099861E0,-7.678052187E-1
2.876486194E1,-2.576297998E0,6.576400250E-2,-6.617066860E-1
2.878685256E1,-2.615306139E0,-5.554335713E-1,-3.504272103E-1
2.880885256E1,-2.285334110E0,1.468694508E-1,5.864306353E-3
2.882887131E1,-1.913544059E0,9.959721565E-1,-7.119198143E-2
2.885085100E1,-1.390381694E0,1.359751105E0,-2.340660989E-1
2.887085100E1,-8.415977359E-1,9.901776314E-1,-5.178391933E-1
2.889085100E1,-6.621953845E-1,1.653175801E-1,-8.454549313E-1
2.891085412E1,-8.183499575E-1,-8.440586925E-1,-7.278546691E-1
2.893285256E1,-8.303578496E-1,-1.855337381E0,-4.607145488E-1
2.895485256E1,-4.517784715E-1,-2.174837351E0,-2.500707805E-1
2.897485256E1,1.762084365E-1,-2.072369099E0,-5.260422453E-2
2.899486506E1,1.086519837E0,-2.157855272E0,2.737374306E-1
2.901685100E1,2.190161228E0,-2.612583399E0,5.608091950E-1
2.903685256E1,2.879705906E0,-2.800642490E0,5.140692592E-1
2.905685256E1,2.194193125E0,-1.518139720E0,-2.344849855E-1
2.907685256E1,-1.241155982E0,3.469714522E-1,-9.184446335E-1
2.909685412E1,-1.612788916E0,-1.248381615E0,-6.225938201E-1
2.911885256E1,-2.756223977E-1,-4.892506897E-1,-6.150540113E-1
2.914085100E1,2.906671464E-1,4.539775848E-1,-7.031931281E-1
2.916085256E1,-2.979800701E-1,1.972588539E0,-4.737870693E-1
2.918285100E1,2.587974072E-1,1.056046367E0,-4.699648023E-1
2.920285100E1,2.936167419E-1,5.857848525E-1,-2.634050846E-1
2.922285256E1,1.666265875E-1,2.177472711E-1,3.946712911E-1
2.924485881E1,6.274633408E-1,-1.186649352E-1,6.531720161E-1
2.926685100E1,1.319067478E0,-7.705454230E-1,6.047565937E-1
2.928685256E1,1.889336348E0,-1.104601383E0,5.552590489E-1
2.930885256E1,2.510778189E0,-1.187888503E0,6.757740378E-1
2.932887131E1,3.088848829E0,-1.521403551E0,7.481877208E-1
2.935085100E1,2.404452801E0,-2.073625624E-1,2.814343274E-1
2.937085100E1,2.327239513E0,4.195596874E-1,1.774301678E-1
2.939085100E1,2.307552099E0,4.745550156E-1,-1.026777178E-1
2.941085256E1,1.884344697E0,6.078458428E-1,-1.281944364E-1
2.943285256E1,1.396228433E0,7.870562077E-1,1.069886833E-1
2.945485100E1,1.136750340E0,7.993608117E-1,1.509360671E-1
2.947485256E1,1.443928361E0,2.871241271E-1,9.560913593E-2
2.949685256E1,1.718503594E0,-3.108955026E-1,3.106860518E-1
2.951685256E1,1.337882161E0,-1.772905439E-1,4.110774100E-1
2.953685256E1,9.137322307E-1,2.547307909E-1,4.842067063E-1
2.955685256E1,1.163157225E0,3.301639259E-1,4.853935242E-1
2.957685256E1,1.480929375E0,3.643374741E-1,4.740663171E-1
2.959885256E1,1.264683008E0,8.269370198E-1,5.625894070E-1
2.962085256E1,7.949974537E-1,1.290793180E0,3.593632877E-1
2.964285256E1,3.144908845E-1,9.847496748E-1,-1.390852928E-1
2.966285256E1,4.813618213E-2,2.758492827E-1,-3.453134000E-1
2.968485256E1,-7.417649031E-1,-7.808603346E-2,-4.919036031E-1
2.970485725E1,-1.788630843E0,2.724109888E-1,-6.184749007E-1
2.972685100E1,-2.642253876E0,6.212325096E-1,-7.936884761E-1
2.974685256E1,-3.367892027E0,8.607789278E-1,-8.597666621E-1
2.976685256E1,-3.401088238E0,6.206216216E-1,-9.825330973E-1
2.978685256E1,-2.943532705E0,1.953372508E-1,-1.299484849E0
2.980885256E1,-2.711595774E0,4.553563893E-1,-1.270460010E0
2.982887131E1,-2.539384127E0,1.100552320E0,-9.096132517E-1
2.985085100E1,-2.662586927E0,1.367256045E0,-5.891708136E-1
2.987085100E1,-2.980411530E0,6.406230927E-1,-5.007523894E-1
2.989085100E1,-2.749312401E0,5.794493109E-2,-3.860319257E-1
2.991085256E1,-2.243062258E0,5.290092826E-1,-1.551772207E-1
2.993085256E1,-1.834149003E0,1.724472523E0,-1.015607119E-1
2.995285100E1,-1.293428540E0,2.105547667E0,-1.086991057E-1
2.997285100E1,-8.099374771E-1,1.377152085E0,-1.645845473E-1
2.999285100E1,-7.481004596E-1,1.274090409E-1,-2.603856623E-1
3.001285256E1,-1.016706705E0,-9.291783571E-1,-1.520705372E-1
3.003486663E1,-9.050055742E-1,-1.785977960E0,9.204866737E-2
3.005685256E1,-3.168645203E-1,-1.979744434E0,1.332384348E-1
3.007685256E1,4.333128929E-1,-2.058092356E0,1.800656170E-1
3.009685256E1,1.392825127E0,-2.470600843E0,2.546784580E-1
3.011685256E1,2.506153107E0,-3.239348650E0,2.161066681E-1
3.013685256E1,3.016941309E0,-3.230901241E0,2.291617356E-2
3.015685256E1,1.129873753E0,-3.755424917E-1,-5.977927446E-1
3.017685256E1,-1.958486319E0,6.657558680E-1,-6.927386522E-1
3.019885256E1,-7.896742225E-1,-1.029185772E0,-3.954392374E-1
3.022085256E1,5.574406981E-1,4.805065989E-1,-5.558350086E-1
3.024085256E1,3.920707703E-1,1.187713981E0,-3.328517377E-1
3.026085256E1,-2.009397596E-1,1.680734634E0,6.277949363E-2
3.028085256E1,3.046821356E-1,9.763546586E-1,-9.370672703E-2
3.030285256E1,3.226764798E-1,7.768111229E-1,-3.728023171E-2
3.032485256E1,6.178290844E-1,2.680825815E-2,2.180963457E-1
3.034485256E1,9.826203585E-1,-3.530626595E-1,1.870818436E-1
3.036485725E1,1.543097973E0,-6.559994221E-1,3.525914252E-1
3.038685100E1,2.191836834E0,-1.153959394E0,7.576648593E-1
3.040685256E1,2.820329905E0,-1.638480186E0,7.497236133E-1
3.042685256E1,2.021562576E0,3.375466764E-1,1.379857361E-1
3.044885256E1,2.640334129E0,-8.977973461E-2,2.015855350E-2
3.047085256E1,2.765788317E0,-3.381401002E-1,-1.536936909E-1
3.049085256E1,2.040761232E0,2.412219495E-1,-1.465727538E-1
3.051085256E1,1.327898860E0,1.200036049E0,8.562584966E-2
3.053085256E1,1.079678178E0,1.531910419E0,2.569997311E-1
3.055085256E1,1.312365413E0,1.229479790E0,2.382374406E-1
3.057285256E1,1.964944005E0,2.703340352E-1,3.129724264E-1
3.059485725E1,1.948834658E0,-2.203652710E-1,5.409822464E-1
3.061486506E1,1.568492532E0,-8.101818711E-2,6.232396364E-1
3.063685256E1,1.337742448E0,2.311863154E-1,5.685409904E-1
3.065685256E1,1.370153308E0,3.966260850E-1,4.868421257E-1
3.067685256E1,1.071876526E0,7.788008451E-1,4.467868209E-1
3.069685725E1,7.140316367E-1,1.320952415E0,4.575380683E-1
3.071885100E1,2.686410844E-1,1.730947733E0,2.869321406E-1
3.073885256E1,1.949532703E-2,1.149875283E0,-1.972221956E-2
3.075885256E1,4.827580601E-2,2.067517042E-1,-1.220159680E-1
3.078085100E1,-8.078430891E-1,2.897944748E-1,-2.534741759E-1
3.080085100E1,-2.137836456E0,7.353421450E-1,-6.432411075E-1
3.082085100E1,-2.763885975E0,4.381649196E-1,-9.575051069E-1
3.084085256E1,-3.234461546E0,-2.286381321E-3,-1.159439683E0
3.086285256E1,-3.399011135E0,-9.737192094E-2,-1.339260936E0
3.088485256E1,-3.017691612E0,2.473131567E-2,-1.630294561E0
3.090485256E1,-2.622130394E0,6.213546395E-1,-1.291980028E0
3.092485881E1,-2.256867886E0,1.206057429E0,-8.018915057E-1
3.094685100E1,-2.879950285E0,5.411044359E-1,-4.880464077E-1
3.096685881E1,-3.142901659E0,-2.123891115E-1,-4.030139744E-1
3.098885100E1,-2.699483395E0,1.825614460E-2,-4.904375225E-2
3.100885256E1,-2.185920238E0,7.750134468E-1,9.826203808E-3
3.102887131E1,-1.790480971E0,1.455796599E0,-1.052782610E-1
3.105085256E1,-1.271699190E0,1.311737061E0,-2.051983625E-1
3.107285256E1,-9.512916803E-1,-9.965830296E-2,-5.077511668E-1
3.109485256E1,-1.267754793E0,-1.045260191E0,-5.964313745E-1
3.111485256E1,-1.313971162E0,-1.659249663E0,-3.249279559E-1
3.113685256E1,-7.700217962E-1,-2.228645802E0,-2.604729235E-1
3.115685256E1,2.628465928E-2,-2.419515133E0,-2.295107991E-1
3.117685256E1,9.415352941E-1,-2.354414225E0,-8.335692436E-2
3.119685256E1,1.856157660E0,-2.236168146E0,1.336573064E-1
3.121685256E1,2.726902485E0,-2.302350998E0,2.710321844E-1
3.123685256E1,3.176132679E0,-1.889249086E0,-7.981390506E-2
3.125685256E1,6.654765606E-1,5.997474790E-1,-6.010739207E-1
3.127685256E1,-2.126579046E0,-8.396255374E-1,-6.455972791E-1
3.129685256E1,-1.226948977E0,-1.134952664E0,-5.493598580E-1
3.131685256E1,-6.792821735E-2,5.918062329E-1,-7.203148603E-1
3.133885100E1,1.837831736E-1,1.211031556E0,-6.325596571E-1
3.135885100E1,1.054859519E0,1.471574306E0,-1.861917228E-1
3.137885256E1,3.619812727E-1,1.307827592E0,5.951572675E-3
3.139885256E1,-1.795193315E0,2.096175432E0,7.271041721E-2
3.141885256E1,-3.407929838E-1,9.167516232E-1,5.508258939E-2
3.144085100E1,1.637188673E0,-1.299711823E0,4.698426276E-2
3.146085100E1,2.592093229E0,-1.309520483E0,7.916813344E-2
3.148085256E1,2.938575983E0,-9.749408960E-1,4.036248326E-1
3.150285256E1,2.743256092E0,-5.153608322E-1,7.961843014E-1
3.152485100E1,2.534235477E0,-2.624277174E-1,7.960446477E-1
3.154485256E1,2.251544476E0,-3.131120801E-1,6.224192977E-1
3.156485256E1,2.098060369E0,-7.213271260E-1,3.583509922E-1
3.158485256E1,2.560188532E0,-6.506238580E-1,3.286454976E-1
3.160485725E1,2.483254433E0,3.212278485E-1,6.279694289E-2
3.162685100E1,1.967457294E0,1.489725828E0,-1.909390278E-2
3.164685881E1,1.607029319E0,2.133333445E0,1.816015095E-1
3.166885256E1,1.368268371E0,2.274199009E0,3.526437879E-1
3.168885881E1,1.441292882E0,1.656125426E0,4.159992337E-1
3.171085100E1,1.913509130E0,2.632654607E-1,5.798158050E-1
3.173085256E1,1.743601322E0,-4.193502665E-1,6.286501288E-1
3.175285100E1,1.416736126E0,-3.658908308E-1,5.176646709E-1
3.177285100E1,1.168218732E0,3.101624548E-1,4.166275561E-1
3.179285256E1,3.602534235E-1,1.449949741E0,4.190535545E-1
3.181285569E1,-4.626867920E-2,1.308909655E0,1.868724078E-1
3.183485413E1,3.823318183E-1,5.585053470E-3,-1.783552021E-1
3.185685256E1,8.054694533E-2,7.068583276E-3,-5.016949177E-1
3.187685256E1,-1.347621083E0,1.178725600E0,-6.910980344E-1
3.189685256E1,-2.580643892E0,1.379333735E0,-8.158715963E-1
3.191685256E1,-3.670549631E0,1.336416006E0,-7.921875119E-1
3.193685256E1,-3.588501692E0,5.708622932E-1,-1.140555263E0
3.195685256E1,-3.191683531E0,-4.384266958E-2,-1.406909943E0
3.197685256E1,-2.790729046E0,-1.410400569E-1,-1.419615865E0
3.199685256E1,-2.477547169E0,-2.446951531E-2,-1.184450269E0
3.201685256E1,-2.417525291E0,1.858426630E-1,-6.881484389E-1
3.203685256E1,-3.098535299E0,1.832595766E-1,-3.633077443E-1
3.205685256E1,-3.322757721E0,6.209881604E-2,-3.675663471E-1
3.207685881E1,-2.891644001E0,2.137853801E-1,-2.967408895E-1
3.209885256E1,-2.056364298E0,8.710240126E-1,-1.919164062E-1
3.211885256E1,-1.533289194E0,1.492675424E0,-3.134785891E-1
3.214085100E1,-1.054859519E0,1.307775259E0,-4.619362950E-1
3.216085881E1,-7.644018531E-1,2.434385270E-1,-6.808878183E-1
3.218285100E1,-8.306720257E-1,-1.156385303E0,-9.216210842E-1
3.220285100E1,-9.504190683E-1,-1.896980882E0,-7.127749920E-1
3.222285256E1,-7.883477807E-1,-1.989029527E0,-4.139397442E-1
3.224285569E1,-3.139672875E-1,-1.983549237E0,-2.898992002E-1
3.226485256E1,4.665439725E-1,-2.310833454E0,-3.054849803E-1
3.228486662E1,1.460020304E0,-2.788861513E0,-3.724532574E-2
3.230685100E1,2.653162241E0,-3.210480690E0,1.983741224E-1
3.232685256E1,3.169256210E0,-2.791968346E0,2.180090696E-1
3.234685256E1,9.039409161E-1,-4.252843857E-1,-7.305075526E-1
3.236885100E1,-2.448417664E0,-2.736676335E-1,-5.381722450E-1
3.238885256E1,-1.060845971E0,-1.009533286E0,-1.193805225E-2
3.240886038E1,5.230576992E-1,1.042624831E0,-3.303559124E-1
3.242887131E1,9.943140745E-1,1.253460526E0,-4.488812387E-1
3.245085725E1,-1.164483652E-1,1.974752784E0,-2.893581390E-1
3.247285100E1,3.646341860E-1,1.296465516E0,1.266934574E-1
3.249285256E1,3.097261190E-1,1.610921383E0,-1.296954155E-1
3.251285256E1,-5.570043921E-1,1.111966729E0,-2.762332559E-1
3.253285256E1,-8.346164227E-2,-7.188487649E-1,-6.450736523E-2
3.255486194E1,2.381536722E0,-1.548909903E0,5.591511130E-1
3.257685256E1,3.046716452E0,8.176867664E-2,6.763674617E-1
3.259685256E1,2.503814459E0,1.277266860E0,7.624819875E-1
3.261685881E1,1.552994013E0,2.424855709E0,8.247204423E-1
3.263885100E1,2.576734304E0,1.330638975E-1,1.082051754E0
3.265885413E1,2.699640274E0,-1.089783549E0,5.517858267E-1
3.268085100E1,2.161433220E0,-5.975832939E-1,2.837207317E-1
3.270085881E1,2.014965057E0,-7.721511126E-1,1.985311955E-1
3.272285100E1,1.890209079E0,-7.446796298E-1,2.405238301E-1
3.274285256E1,1.587359548E0,-5.618214980E-2,2.553242147E-1
3.276285256E1,1.293637991E0,7.748738527E-1,2.064200938E-1
3.278285725E1,1.082016826E0,1.217140198E0,2.353925556E-1
3.280485881E1,9.732654095E-1,9.835802913E-1,3.909188509E-1
3.282486350E1,1.335613251E0,4.220031500E-1,5.236162543E-1
3.284685256E1,1.944977403E0,-3.536386192E-1,5.778436065E-1
3.286685256E1,2.078477621E0,-4.908389449E-1,6.113713980E-1
3.288685256E1,1.795228243E0,1.273043156E-1,6.477440596E-1
3.290685412E1,9.590060711E-1,1.696233153E0,4.942597747E-1
3.292887131E1,3.413863853E-2,1.897487044E0,1.659808122E-2
3.295085100E1,-2.932153083E-2,3.713886142E-1,-2.753955126E-1
3.297085100E1,-1.921956539E-1,-3.272841275E-1,-3.395887017E-1
3.299085256E1,-1.542609215E0,6.207438111E-1,-4.506614506E-1
3.301285100E1,-2.908294439E0,1.282380700E0,-7.252541184E-1
3.303285100E1,-3.321920156E0,1.142230749E0,-9.578192234E-1
3.305285100E1,-3.173375130E0,2.508038096E-2,-1.394570470E0
3.307285256E1,-3.070854425E0,-8.834158778E-1,-1.683527112E0
3.309285256E1,-2.910336494E0,-7.953988910E-1,-1.633314013E0
3.311285256E1,-2.572702646E0,-2.076767236E-1,-1.294196486E0
3.313485256E1,-2.727705240E0,-2.708576322E-1,-8.243539333E-1
3.315486663E1,-3.197338343E0,-6.687577963E-1,-4.480958283E-1
3.317685256E1,-3.019664049E0,-2.738945186E-1,-2.749766111E-1
3.319685256E1,-2.439342022E0,9.374337792E-1,-6.042329967E-2
3.321685256E1,-1.785227418E0,1.937926292E0,-1.281944364E-1
3.323885256E1,-1.249795318E0,2.395272493E0,-2.419549972E-1
3.326085256E1,-9.159662127E-1,1.043165803E0,-4.625296891E-1
3.328285100E1,-1.028505087E0,-6.831742525E-1,-5.389053226E-1
3.330285256E1,-1.251191616E0,-1.434992194E0,-2.709274590E-1
3.332485256E1,-1.100744247E0,-1.753270507E0,1.598721556E-2
3.334485256E1,-5.203350186E-1,-2.057830334E0,7.288494706E-2
3.336485256E1,2.312386781E-1,-2.057219505E0,1.158374995E-1
3.338485256E1,1.127639771E0,-2.422953367E0,2.586054206E-1
3.340485256E1,2.273867369E0,-3.300138235E0,2.669830024E-1
3.342485256E1,3.082233906E0,-3.419187307E0,-3.004758954E-1
3.344485569E1,8.034971952E-1,-4.958131313E-1,-9.512742758E-1
3.346685100E1,-2.526573420E0,-3.271619678E-1,-6.364517808E-1
3.348685256E1,-8.431510925E-1,-1.705535769E0,5.886995420E-2
3.350685256E1,4.045498669E-1,-9.353219718E-2,-1.325228512E-1
3.352887131E1,-1.951278150E-1,2.402969360E0,-1.757022887E-1
3.355085256E1,2.298598588E-1,3.230691671E0,3.650530577E-1
3.357285256E1,7.189010829E-2,5.205793381E-1,6.314252019E-1
3.359285256E1,2.422516979E-2,1.172686741E-1,9.212895036E-1
3.361485256E1,9.058433175E-1,5.220279694E-1,4.225965738E-1
3.363685256E1,1.585841060E0,6.558947563E-1,2.254965343E-2
3.365685256E1,2.183965445E0,5.737595558E-1,2.618342936E-1
3.367685256E1,2.569927454E0,3.425906897E-1,6.263812184E-1
3.369685256E1,2.724982500E0,-1.473755985E-1,7.352722883E-1
3.371685256E1,2.709798098E0,-7.415031195E-1,6.260845065E-1
3.373685256E1,1.819296241E0,-3.354522884E-1,5.535835028E-1
3.375685256E1,2.140558958E0,-8.402189612E-1,3.370230794E-1
3.377685256E1,2.400892258E0,-7.207511663E-1,3.116808832E-1
3.379685256E1,2.083940506E0,-3.765024245E-1,4.787437990E-2
3.381685256E1,1.741960764E0,9.419541806E-2,-5.085889250E-2
3.383685256E1,1.588511467E0,8.411439657E-1,1.407433450E-1
3.385685256E1,1.337917089E0,1.283270836E0,2.509608865E-1
3.387685256E1,1.180837393E0,1.215953469E0,3.068812490E-1
3.389685256E1,1.611096025E0,3.593109250E-1,3.756821156E-1
3.391685256E1,2.095843792E0,-6.414085031E-1,4.480783641E-1
3.393685256E1,1.675987363E0,-8.998394012E-1,5.366887450E-1
3.395685256E1,1.333047628E0,-5.626068711E-1,6.516535878E-1
3.397885100E1,9.902125597E-1,4.923050106E-1,6.764721870E-1
3.399885256E1,2.854660451E-1,1.414275169E0,4.637688994E-1
3.401885256E1,-1.096590385E-1,1.044352651E0,1.426457614E-1
3.403885256E1,-6.237806752E-2,-4.131194204E-2,1.378810126E-2
3.406085256E1,-7.125481367E-1,-2.958856523E-1,-1.640609466E-3
3.408285256E1,-2.478123188E0,7.134906203E-2,-2.633701861E-1
3.410485256E1,-3.253154039E0,2.303834632E-2,-6.303431392E-1
3.412485256E1,-3.182852268E0,-2.825513482E-1,-1.148880482E0
3.414486350E1,-2.939256668E0,-6.604500413E-1,-1.540829062E0
3.416686194E1,-2.824029922E0,-5.673018098E-1,-1.618810296E0
3.418885100E1,-2.721230030E0,-6.077236310E-2,-1.279029608E0
3.420885100E1,-2.550798655E0,7.008544207E-1,-8.765566945E-1
3.422887131E1,-2.392357588E0,1.057547331E0,-7.395309210E-1
3.425085100E1,-2.584204197E0,-3.815115094E-1,-7.483971715E-1
3.427085256E1,-2.399862528E0,-9.418320060E-1,-6.696828604E-1
3.429285256E1,-2.076575279E0,-2.125811018E-2,-3.079808056E-1
3.431285256E1,-1.631655931E0,7.154977322E-1,-2.260026783E-1
3.433485100E1,-1.152179122E0,7.297919989E-1,-4.346742630E-1
3.435485256E1,-8.885121942E-1,6.127851084E-2,-5.039812922E-1
3.437685256E1,-7.590960264E-1,-1.158357620E0,-3.863286376E-1
3.439685256E1,-7.362496853E-1,-1.811843753E0,-2.193006128E-1
3.441685256E1,-5.987875462E-1,-1.800150037E0,-1.010720134E-1
3.443685256E1,-2.460914254E-1,-1.815281987E0,-2.673844434E-2
3.445685256E1,3.960501254E-1,-2.210040569E0,1.406909972E-1
3.447885100E1,1.401237607E0,-2.909481287E0,3.918787837E-1
3.449885256E1,2.310903072E0,-3.459120274E0,2.454282045E-1
3.451885256E1,1.823886514E0,-2.439464092E0,-4.928984344E-1
3.453885256E1,-1.379176617E0,-2.315179259E-1,-9.419891238E-1
3.456085256E1,-1.220595956E0,-1.126295924E0,-4.219158888E-1
3.458285256E1,2.271371484E-1,7.948927283E-1,-5.771454573E-1
3.460485256E1,-5.120097995E-1,7.958003283E-1,-1.181430817E0
3.462485256E1,-6.381796598E-1,1.039605379E0,-8.270766139E-1
3.464685256E1,8.770104647E-1,-5.227609873E-1,6.084043384E-1
3.466885256E1,-5.377359390E-1,5.635842681E-1,5.642824173E-1
3.469085256E1,-1.438971639E0,7.146250606E-1,4.821472168E-1
3.471285100E1,1.088160396E0,-2.674594879E0,2.456201911E-1
3.473285256E1,2.697249174E0,-2.252295017E0,3.886673748E-1
3.475485725E1,3.008039951E0,-1.165478468E0,1.462934911E-1
3.477685256E1,2.766678572E0,-2.915397882E-1,1.067617908E-1
3.479685256E1,2.585827351E0,1.430297345E-1,2.210634053E-1
3.481885256E1,1.506411076E0,1.473895669E0,3.951599896E-1
3.484085256E1,2.778337240E0,-5.057265759E-1,4.383394420E-1
3.486285256E1,2.513029814E0,-1.044736624E0,2.544864714E-1
3.488485100E1,1.740616798E0,-1.027230978E0,-1.242674422E-2
3.490485412E1,1.494124055E0,-5.806186795E-1,1.790707745E-2
3.492685256E1,1.279675364E0,2.392148226E-1,7.182029635E-2
3.494685569E1,1.046743751E0,8.169187903E-1,6.707300246E-2
3.496885100E1,1.109837413E0,7.725350857E-1,7.166321576E-2
3.498885725E1,1.649405956E0,1.522799730E-1,2.533345520E-1
3.501085100E1,1.779066443E0,-2.057219595E-1,4.983787537E-1
3.503085569E1,1.413821459E0,-1.918814927E-1,5.836206675E-1
3.505285100E1,1.112717152E0,-2.348165959E-1,4.952720702E-1
3.507285100E1,9.765989780E-1,1.536936909E-1,3.926467299E-1
3.509285100E1,1.853365153E-1,1.161673665E0,3.249628544E-1
3.511285100E1,-2.733010948E-1,9.999864101E-1,5.230751634E-2
3.513285100E1,-4.767890573E-1,-1.003215238E-1,-2.393893600E-1
3.515285256E1,-1.456686735E0,-6.234839559E-1,-4.061730206E-1
3.517485256E1,-2.856667757E0,-5.951572582E-2,-5.178391933E-1
3.519485881E1,-3.557574511E0,7.187091112E-1,-8.799775243E-1
3.521685256E1,-3.124313831E0,1.072679386E-1,-1.328823924E0
3.523685256E1,-2.875604391E0,-3.572863638E-1,-1.415270090E0
3.525885256E1,-2.753169537E0,-3.340036571E-1,-1.244838595E0
3.527885256E1,-2.668625832E0,9.466665983E-2,-1.019010425E0
3.530085100E1,-2.454997540E0,7.431088090E-1,-9.772447348E-1
3.532085100E1,-2.183930397E0,1.001138330E0,-1.026602626E0
3.534085256E1,-2.472956896E0,-5.844409466E-1,-8.106356263E-1
3.536285256E1,-2.415134192E0,-8.831714988E-1,-5.134758353E-1
3.538485256E1,-1.967108250E0,-8.676031977E-2,-3.113667369E-1
3.540485256E1,-1.537477970E0,6.769782901E-1,-2.223723978E-1
3.542485256E1,-1.068455696E0,2.744355798E-1,-3.963119090E-1
3.544485256E1,-7.882081270E-1,-6.993185282E-1,-6.526135206E-1
3.546485256E1,-7.548549175E-1,-1.142056227E0,-5.807757378E-1
3.548485256E1,-6.954613328E-1,-1.387135267E0,-3.374419510E-1
3.550485881E1,-5.098106861E-1,-1.547548532E0,-1.843242198E-1
3.552685100E1,-5.876523629E-2,-1.918884754E0,-3.038618155E-2
3.554685256E1,7.564431429E-1,-2.633562088E0,2.894977629E-1
3.556685256E1,1.707647562E0,-3.268425703E0,6.125058532E-1
3.558685256E1,2.267811060E0,-3.065531254E0,3.324677646E-1
3.560685256E1,1.460945249E0,-1.287738800E0,-6.750758886E-1
3.562887131E1,-1.274805903E0,2.499311417E-1,-8.069529533E-1
3.565085100E1,-1.013093829E0,-6.500129700E-1,-3.619987369E-1
3.567085100E1,3.850196302E-2,3.024131954E-1,-6.439915895E-1
3.569085256E1,1.736602634E-1,2.396337129E-2,-8.717221618E-1
3.571285256E1,-8.116653562E-1,1.477054715E0,-6.226985455E-1
3.573285256E1,-3.597472608E-1,1.379071951E0,-3.694862127E-1
3.575485569E1,1.136558428E-1,2.238384783E-1,-2.980847955E-1
3.577685256E1,2.876826227E-1,-3.031636775E-1,-1.355248094E-1
3.579685256E1,8.905019164E-1,-2.522873282E-1,9.944885969E-2
3.581885256E1,1.795804143E0,1.934348345E-1,4.797910154E-1
3.584085256E1,2.311461687E0,2.809456587E-1,4.871912003E-1
3.586285256E1,2.651486635E0,-4.970697686E-2,7.257602811E-1
3.588485100E1,2.758440495E0,-6.525437236E-1,8.674111962E-1
3.590485881E1,2.211890697E0,-1.898324847E0,5.681919456E-1
3.592685256E1,1.557060599E0,-2.127154827E0,5.138598084E-1
3.594885256E1,1.802453876E0,-1.298716903E0,4.007275999E-1
3.597085100E1,1.941574097E0,-5.749288797E-1,2.967059799E-2
3.599085256E1,1.963076472E0,3.037571013E-1,1.161516607E-1
3.601285256E1,1.642215252E0,1.387676358E0,2.787814438E-1
3.603485725E1,1.352891922E0,1.646473765E0,2.825688124E-1
3.605685100E1,1.312313080E0,1.220595956E0,3.705334067E-1
3.607685256E1,1.913561583E0,-1.139525473E-1,4.873482883E-1
3.609885256E1,2.306644678E0,-1.218833208E0,4.193502665E-1
3.612085256E1,1.768367648E0,-7.930427194E-1,3.273888528E-1
3.614285100E1,7.392516732E-1,6.652845740E-1,3.803945184E-1
3.616285256E1,1.787042618E-1,1.438762188E0,3.841295242E-1
3.618485256E1,-1.840449721E-1,1.096206427E0,1.747598201E-1
3.620485256E1,1.085594762E-2,8.878489584E-2,-7.888888009E-3
3.622685100E1,-7.505090237E-1,-1.435009688E-1,-1.975014508E-1
3.624685100E1,-2.301618099E0,3.015754521E-1,-6.158568859E-1
3.626685100E1,-3.110473394E0,1.635373533E-1,-9.985377789E-1
3.628685100E1,-3.662765503E0,-6.836454570E-2,-1.215831280E0
3.630685100E1,-3.457113266E0,-4.694237411E-1,-1.458414555E0
3.632685100E1,-3.172031164E0,-4.796688259E-1,-1.405234337E0
3.634685100E1,-3.064920425E0,1.511455141E-2,-1.023740292E0
3.636687131E1,-2.890422344E0,6.866474152E-1,-7.767063975E-1
3.638885100E1,-2.557099342E0,1.161376953E0,-8.414057493E-1
3.640885881E1,-2.638780832E0,-9.576621652E-2,-8.469733596E-1
3.642887131E1,-2.934422016E0,-1.652687192E0,-5.514193177E-1
3.645085100E1,-2.808897972E0,-7.802145481E-1,-2.631083727E-1
3.647085100E1,-2.365078211E0,6.953217387E-1,-1.707281023E-1
3.649085256E1,-1.503653526E0,1.374167562E0,-2.109404951E-1
3.651085256E1,-7.195817828E-1,1.094984651E0,-4.781503975E-1
3.653085256E1,-4.088433683E-1,3.537782282E-2,-7.154977322E-1
3.655285100E1,-4.995481372E-1,-1.126173735E0,-4.835609198E-1
3.657285100E1,-5.123413801E-1,-1.741506934E0,-1.684242785E-1
3.659285100E1,-2.565110326E-1,-1.821285963E0,-3.726277873E-2
3.661285100E1,2.780658603E-1,-1.882005930E0,7.955210656E-2
3.663285100E1,1.119140029E0,-2.391240597E0,2.693741024E-1
3.665285256E1,2.256501198E0,-3.173200607E0,4.577824175E-1
3.667485256E1,2.912587881E0,-3.177843094E0,1.065872535E-1
3.669485256E1,1.219671011E0,-6.828426123E-1,-6.477091312E-1
3.671485412E1,-2.106682301E0,8.261864781E-1,-3.948458433E-1
3.673485413E1,-1.286621809E0,-1.014699459E0,-1.819156706E-1
3.675685256E1,3.247185051E-1,7.193025351E-1,-6.733829379E-1
3.677685256E1,4.806462228E-1,4.563337862E-1,-8.222246170E-1
3.679685256E1,-1.359611452E-1,7.636862397E-1,-5.874254704E-1
3.681685256E1,7.634942532E-1,8.842536211E-1,2.132792398E-2
3.683885256E1,1.320341527E-1,1.863138914E0,-1.154360771E-1
3.686085100E1,-4.140095413E-1,9.686577320E-1,-3.434807807E-2
3.688085100E1,2.469466329E-1,-1.391725540E0,1.186649352E-1
3.690085100E1,2.247669935E0,-2.685258865E0,6.245835423E-1
3.692085413E1,2.769994497E0,-1.004820943E0,5.965360999E-1
3.694285256E1,2.516398191E0,2.038195431E-1,4.597895443E-1
3.696285569E1,2.380471945E0,6.315124631E-1,5.986130238E-1
3.698485100E1,2.043065071E0,7.134731412E-1,5.975832939E-1
3.700486663E1,2.441750526E0,-1.600466967E-1,4.107632339E-1
3.702685100E1,2.345478058E0,-5.037543774E-1,3.504621089E-1
3.704685256E1,1.866332889E0,-5.305277109E-1,2.981022373E-2
3.706685256E1,1.526273012E0,-1.793325841E-1,-1.123992074E-2
3.708685256E1,1.505119562E0,3.059736788E-1,1.254368126E-1
3.710685256E1,1.318735838E0,8.220674992E-1,2.121447772E-1
3.712887444E1,1.240440369E0,9.152855873E-1,2.829004228E-1
3.715085100E1,1.455761671E0,4.766668677E-1,3.391523659E-1
3.717085100E1,1.846087098E0,-1.624552459E-1,4.753578603E-1
3.719085256E1,2.003149271E0,-6.098005772E-1,5.099677444E-1
3.721086038E1,1.909198165E0,-5.302484632E-1,4.450764060E-1
3.723285256E1,1.301265121E0,7.841590047E-1,5.158669949E-1
3.725285725E1,3.364471197E-1,2.104483128E0,4.788834453E-1
3.727485100E1,-1.444259882E-1,1.491366386E0,2.471735328E-1
3.729486350E1,-4.682718217E-2,-1.310742199E-1,3.574434295E-2
3.731486819E1,-2.865307033E-1,-1.060619116E0,-2.314132005E-1
3.733685569E1,-2.047934532E0,-1.730668545E-1,-5.840046406E-1
3.735885100E1,-3.294204235E0,1.719498336E-1,-9.057909846E-1
3.737885256E1,-3.591782808E0,1.601339579E-1,-1.109697819E0
3.739885256E1,-3.224827290E0,-1.579697430E-1,-1.269796848E0
3.741885725E1,-2.887943983E0,-2.739643455E-1,-1.400190353E0
3.744085100E1,-2.693112850E0,4.532619938E-2,-1.203474283E0
3.746085256E1,-2.511738300E0,5.910382867E-1,-9.501746893E-1
3.748085256E1,-2.296329737E0,1.034700990E0,-9.108000398E-1
3.750285256E1,-2.932921171E0,-1.337620318E-1,-6.249151230E-1
3.752285256E1,-2.926672697E0,-1.110640287E0,-4.635245502E-1
3.754485256E1,-2.400403738E0,-6.916390657E-1,-1.636944264E-1
3.756685256E1,-1.928885579E0,3.967831433E-1,-8.316493779E-2
3.758685256E1,-1.524353147E0,9.003978968E-1,-1.523672491E-1
3.760685256E1,-1.131182790E0,3.253817260E-1,-3.849847317E-1
3.762887131E1,-9.613273740E-1,-6.988996267E-1,-5.351005197E-1
3.765085100E1,-9.347110987E-1,-1.434433699E0,-3.724707067E-1
3.767085100E1,-7.969697118E-1,-1.604201913E0,-2.611187100E-1
3.769085256E1,-4.272042513E-1,-1.678570390E0,-3.404613733E-1
3.771085256E1,3.143337965E-1,-2.213723183E0,-2.921855748E-1
3.773285256E1,1.454889059E0,-2.677631855E0,6.819001585E-2
3.775485412E1,2.693549156E0,-2.929849386E0,9.227555990E-2
3.777685256E1,3.044831514E0,-2.028648615E0,-4.693364799E-1
3.779685256E1,3.159045801E-2,2.904925942E-1,-8.096233010E-1
3.781685256E1,-1.900297046E0,-1.042397857E0,-5.581911802E-1
3.783885100E1,-5.645092726E-1,-9.264556766E-1,-1.375668496E-1
3.785885100E1,4.097335041E-1,4.280768931E-1,-5.018519759E-1
3.787885256E1,-1.112123802E-1,1.309293628E0,-3.486818671E-1
3.789885256E1,-9.240471125E-1,2.357974768E0,-2.610838115E-1
3.792085256E1,-2.404889166E-1,1.438256025E0,-9.531243145E-2
3.794285256E1,1.558928043E-1,1.491383910E-1,9.929177910E-2
3.796485256E1,7.100523114E-1,-1.447925121E-1,4.028568864E-1
3.798685100E1,1.569888711E0,-1.569225490E-1,4.985184073E-1
3.800685256E1,2.157069921E0,-1.871691048E-1,3.846007586E-1
3.802887131E1,2.480252504E0,-3.948807418E-1,4.482180178E-1
3.805085256E1,2.564115524E0,-7.375412583E-1,5.726425052E-1
3.807285100E1,1.901361704E0,-4.506091177E-1,2.647140920E-1
3.809285100E1,2.204961777E0,-1.299240589E0,1.487718672E-1
3.811285256E1,2.150839090E0,-1.286970854E0,2.570869960E-2
3.813285256E1,1.821408153E0,-8.640776277E-1,-1.819854826E-1
3.815285256E1,1.663665295E0,-9.646435082E-2,-2.073800266E-1
3.817485256E1,1.865390420E0,9.269967079E-1,-1.073377505E-1
3.819488225E1,1.770235062E0,1.848390937E0,1.238660142E-1
3.821685256E1,1.514858484E0,2.109858751E0,2.586228848E-1
3.823685256E1,1.425166011E0,1.624011397E0,3.954043388E-1
3.825685725E1,1.683754086E0,4.775395393E-1,6.041631699E-1
3.827885256E1,1.912374735E0,-8.620006442E-1,5.993809700E-1
3.829885881E1,1.944017529E0,-1.237962008E0,4.991816282E-1
3.832085100E1,1.756202698E0,-3.408104479E-1,4.152836502E-1
3.834085412E1,5.247681737E-1,1.795594692E0,4.322831333E-1
3.836285256E1,-4.541695714E-1,2.180509567E0,3.322059810E-1
3.838485100E1,-1.659459025E-1,4.056145251E-1,1.543918252E-1
3.840485100E1,2.169444263E-1,-1.314931035E0,-1.466076588E-3
3.842485100E1,-4.647113681E-1,-1.006932855E0,-3.251897395E-1
3.844485569E1,-2.268387079E0,6.448467970E-1,-7.368081808E-1
3.846485569E1,-3.082600594E0,5.196368694E-1,-1.086868882E0
3.848685100E1,-3.603720903E0,3.061133027E-1,-1.022553444E0
3.850685256E1,-3.437425852E0,8.609709144E-2,-1.213527441E0
3.852887131E1,-2.931699276E0,2.640159428E-1,-1.404065013E0
3.855085100E1,-2.575233221E0,9.012880325E-1,-1.034753323E0
3.857085100E1,-2.347083807E0,1.387920737E0,-7.471929193E-1
3.859085100E1,-2.419305563E0,6.726149917E-1,-6.384763718E-1
3.861085256E1,-2.790886164E0,-1.056639791E0,-5.391147733E-1
3.863085256E1,-2.740533352E0,-1.140625000E0,-3.044377863E-1
3.865285256E1,-2.257269144E0,3.360806108E-1,-1.987930015E-2
3.867285256E1,-1.745713234E0,1.525819182E0,-7.202973962E-2
3.869285256E1,-1.051491022E0,1.587935448E0,-2.594606578E-1
3.871485100E1,-4.172907770E-1,5.185722113E-1,-5.760284662E-1
3.873485256E1,-3.946014941E-1,-6.482327580E-1,-7.018143535E-1
3.875486194E1,-5.971469283E-1,-1.577568173E0,-4.296477139E-1
3.877685256E1,-6.314601302E-1,-2.026885748E0,-1.303062886E-1
3.879685256E1,-3.486120701E-1,-2.029503822E0,-1.333431527E-2
3.881685256E1,3.417703807E-1,-2.486902237E0,4.867723212E-2
3.883885100E1,1.489097476E0,-3.119828463E0,2.744879425E-1
3.885885100E1,2.416565418E0,-3.492107153E0,2.540501356E-1
3.887885256E1,2.071077585E0,-2.447492599E0,-2.162288427E-1
3.889885256E1,-1.433369040E0,4.246560633E-1,-7.892902493E-1
3.892085256E1,-1.813484311E0,-1.518488765E0,-4.744328558E-1
3.894285100E1,-7.065092772E-2,2.295107953E-2,-3.129200935E-1
3.896285100E1,5.825734735E-1,9.402612448E-1,-6.749711633E-1
3.898285100E1,-3.782477677E-1,1.623714685E0,-5.402492285E-1
3.900285100E1,2.729345858E-1,1.568248153E0,-7.897614688E-2
3.902285100E1,2.902482450E-2,8.507782221E-1,3.103370070E-1
3.904285100E1,-6.198711395E-1,3.006853163E-1,2.382199913E-1
3.906285100E1,-3.604104742E-2,-8.761553094E-3,1.908692122E-1
3.908285256E1,1.312539935E0,-6.849719286E-1,2.128778100E-1
3.910485256E1,2.504565001E0,-8.697499037E-1,2.225643843E-1
3.912485256E1,2.917230606E0,-8.600284457E-1,3.962595463E-1
3.914485256E1,3.006381989E0,-6.503620148E-1,4.944692254E-1
3.916485256E1,1.575404048E0,1.215639234E0,2.684839964E-1
3.918485256E1,2.384608507E0,-6.013706326E-1,2.708750963E-1
3.920485256E1,2.595252275E0,-1.112176180E0,2.790606916E-1
3.922485256E1,2.222257853E0,-7.573332787E-1,9.248499572E-2
3.924485256E1,1.785192609E0,-1.255764365E-1,9.349729121E-2
3.926485256E1,1.669459820E0,4.144982398E-1,2.190737277E-1
3.928685256E1,1.473040462E0,1.041752100E0,2.526713014E-1
3.930885256E1,1.351286292E0,1.186300278E0,2.959554791E-1
3.932887131E1,1.352438211E0,8.620530367E-1,3.759439290E-1
3.935085256E1,1.712778807E0,9.162978828E-2,4.872784615E-1
3.937285256E1,2.116857529E0,-6.333101988E-1,5.078384280E-1
3.939485256E1,2.027531624E0,-4.496840835E-1,4.897044897E-1
3.941485256E1,1.542312503E0,8.649851680E-1,5.441063643E-1
3.943485256E1,4.267853498E-1,2.483446360E0,3.625223339E-1
3.945685100E1,-1.191187203E-1,1.833939552E0,-1.492256485E-2
3.947685100E1,1.375319436E-2,-3.693116829E-2,-1.486845911E-1
3.949685256E1,-5.011712909E-1,-9.674185514E-1,-1.414065808E-1
3.951685256E1,-1.854464650E0,-3.880041540E-1,-4.034154117E-1
3.953685256E1,-2.849965572E0,1.387536824E-1,-8.142484426E-1
3.955685256E1,-3.537049294E0,3.422939777E-1,-1.081528187E0
3.957685256E1,-3.416604280E0,5.932373926E-2,-1.292608261E0
3.959885256E1,-2.815547705E0,-2.319542617E-1,-1.475257039E0
3.962085100E1,-2.525229692E0,1.163261905E-1,-1.181867123E0
3.964085100E1,-2.392270327E0,6.400122046E-1,-8.425925970E-1
3.966085100E1,-2.385184288E0,7.482051849E-1,-6.591235995E-1
3.968085100E1,-2.728822231E0,-2.797762863E-2,-5.753827095E-1
3.970085256E1,-2.638606310E0,-6.761754751E-1,-4.368210137E-1
3.972285256E1,-2.154190063E0,-3.230604529E-1,-1.898569167E-1
3.974485100E1,-1.708275914E0,7.055493593E-1,-1.525243223E-1
3.976485256E1,-1.333640933E0,1.292294145E0,-3.110525906E-1
3.978485256E1,-8.703607917E-1,7.099999189E-1,-4.365940988E-1
3.980485256E1,-7.547152638E-1,-6.342177391E-1,-6.447944641E-1
3.982485256E1,-9.385856986E-1,-1.531473994E0,-5.207189918E-1
3.984485256E1,-1.012744784E0,-1.954838514E0,-2.188293785E-1
3.986485256E1,-7.231422663E-1,-2.057271957E0,-9.285151958E-2
3.988485569E1,-3.490658492E-5,-2.382112503E0,-1.638515145E-1
3.990685100E1,9.971414804E-1,-2.493220329E0,-5.445427261E-3
3.992685256E1,2.094046116E0,-2.816018820E0,7.918559015E-2
3.994685256E1,2.975384951E0,-2.813819885E0,-1.428377479E-1
3.996685256E1,1.723163605E0,-1.479358554E0,-5.129871964E-1
3.998686038E1,-2.076296091E0,-5.433209985E-2,-7.787833810E-1
4.000885100E1,-1.626664281E0,-1.560917735E0,-3.674616218E-1
4.002887131E1,1.668011099E-1,3.962246478E-1,-2.718873918E-1
4.005085256E1,8.440586925E-1,1.212951422E0,-4.666486681E-1
4.007285100E1,-4.237659276E-1,1.855302453E0,-3.580892086E-1
4.009285100E1,3.378433883E-1,9.952565432E-1,-1.680577546E-1
4.011285256E1,5.264436603E-1,5.180835128E-1,-6.110397726E-2
4.013285256E1,4.359832406E-1,4.173605740E-1,7.986626774E-2
4.015285256E1,6.132563353E-1,5.571963787E-1,2.457772642E-1
4.017485100E1,1.019185066E0,6.231349111E-1,4.292113781E-1
4.019485569E1,1.422565460E0,1.233075112E-1,5.640904307E-1
4.021485881E1,1.960598111E0,-3.968355060E-1,6.786887050E-1
4.023685256E1,2.581289530E0,-1.180191636E0,7.037167549E-1
4.025885100E1,2.766137362E0,-2.516380787E0,3.193428814E-1
4.027885256E1,1.843748331E0,-1.046691418E0,1.287005842E-1
4.030085100E1,1.740442276E0,-5.419247225E-2,7.400196046E-3
4.032085100E1,1.623871803E0,4.580790997E-1,-2.504896522E-1
4.034085256E1,1.633697987E0,8.266403079E-1,-1.547583491E-1
4.036285256E1,1.768437386E0,1.138827324E0,2.141519077E-2
4.038485100E1,1.748313785E0,1.312522531E0,8.449138701E-2
4.040485100E1,1.662565708E0,1.181064248E0,2.201907337E-1
4.042485256E1,1.565298557E0,6.210753918E-1,4.215319157E-1
4.044485881E1,1.442270279E0,-5.178391933E-2,6.311983466E-1
4.046685256E1,1.404990077E0,-5.386784077E-1,7.347312570E-1
4.048885256E1,1.629544139E0,-6.069557071E-1,6.264859438E-1
4.051085100E1,1.489376664E0,1.378635615E-1,5.260771513E-1
4.053085256E1,5.808629990E-1,1.588546276E0,4.443259239E-1
4.055085256E1,-1.900663599E-2,1.629003048E0,1.210734919E-1
4.057285100E1,9.353219718E-2,5.688028038E-2,-9.419541806E-2
4.059285256E1,-2.904576957E-1,-9.705601335E-1,-1.533097178E-1
4.061485256E1,-1.846802711E0,-4.600687921E-1,-3.075793684E-1
4.063485725E1,-3.012525558E0,1.408655196E-1,-5.549448729E-1
4.065685256E1,-3.660915375E0,7.354468107E-1,-7.828848958E-1
4.067685256E1,-3.498582363E0,9.028413892E-1,-1.065977335E0
4.069685725E1,-3.116040945E0,1.068542957E0,-1.407084465E0
4.071885256E1,-2.668224335E0,1.133678555E0,-1.323116660E0
4.073885256E1,-2.290465355E0,1.199460030E0,-1.075070500E0
4.076085256E1,-1.934051752E0,4.630009532E-1,-8.922821283E-1
4.078085256E1,-2.596753120E0,-7.102442980E-1,-7.333873510E-1
4.080285256E1,-2.875778913E0,-8.753175139E-1,-3.186098635E-1
4.082485256E1,-2.430353403E0,-1.854237765E-1,5.323254038E-3
4.084485256E1,-1.820884585E0,6.818826795E-1,-4.604178667E-2
4.086486350E1,-1.274352193E0,1.190523982E0,-3.925071061E-1
4.088685100E1,-9.223716259E-1,5.929930806E-1,-7.980867028E-1
4.090685100E1,-9.947329760E-1,-3.914948106E-1,-9.360898733E-1
4.092685256E1,-1.128337860E0,-1.508924365E0,-5.723109245E-1
4.094885256E1,-1.057547331E0,-2.336961031E0,-6.379178166E-2
4.096885256E1,-7.736870050E-1,-2.366579294E0,3.178244457E-2
4.099085256E1,2.946115844E-2,-2.233323336E0,-1.145808622E-1
4.101085256E1,1.127988815E0,-2.236848831E0,1.125388294E-1
4.103285100E1,2.350993395E0,-2.381693840E0,3.827332556E-1
4.105285100E1,3.129323006E0,-2.191609859E0,1.840275228E-1
4.107285100E1,2.506711721E0,-9.463174939E-1,-3.887371719E-1
4.109285256E1,-1.459409356E0,6.622826457E-1,-8.016122580E-1
4.111485881E1,-1.525190830E0,-1.306728005E0,-3.842691481E-1
4.113685256E1,7.080800831E-2,5.845107511E-2,-3.419449031E-1
4.115685256E1,6.306049228E-1,3.917216957E-1,-5.465323925E-1
4.117885256E1,-2.576629519E-1,1.657050490E0,-4.127179980E-1
4.120085256E1,1.667836607E-1,8.881282210E-1,-3.788411617E-1
4.122285256E1,2.561794221E-1,8.028514567E-4,1.860520989E-2
4.124485256E1,9.353219718E-2,-1.269377917E-1,3.386985958E-1
4.126485256E1,3.622081876E-1,2.519208193E-1,3.881612122E-1
4.128685256E1,1.120274425E0,3.822445571E-1,4.018969536E-1
4.130885256E1,2.075911999E0,-5.130744576E-1,5.648757815E-1
4.132887131E1,2.518230915E0,-8.894721270E-1,5.808804631E-1
4.135085100E1,1.995138168E0,-5.504768491E-1,4.068886042E-1
4.137085100E1,2.214281797E0,-1.276690841E0,2.972295582E-1
4.139085100E1,2.365636826E0,-1.364550710E0,8.536405116E-2
4.141085256E1,2.220425367E0,-8.291186690E-1,-9.932668507E-2
4.143285100E1,1.994108438E0,-1.066745222E-1,-1.185602173E-1
4.145285256E1,2.002678156E0,3.980746865E-1,3.558726236E-2
4.147485881E1,2.006133795E0,1.185253143E0,1.317898184E-1
4.149685256E1,1.685499310E0,1.832107067E0,1.544267386E-1
4.151685256E1,1.402005553E0,1.753218174E0,1.843242198E-1
4.153685256E1,1.618269324E0,8.711287379E-1,3.053627908E-1
4.155685256E1,1.702725768E0,-2.060012072E-1,4.696680903E-1
4.157685256E1,1.540061116E0,-7.474547029E-1,5.991540551E-1
4.159685256E1,1.661221862E0,-8.383340240E-1,6.073396802E-1
4.161885100E1,1.206860304E0,2.002590746E-1,5.298470259E-1
4.163885256E1,2.663547099E-1,1.438744664E0,3.939208090E-1
4.166085100E1,-1.513200402E-1,1.064022541E0,1.061160192E-1
4.168085100E1,6.789330859E-3,-3.284186125E-1,-1.805543154E-1
4.170085256E1,-4.430343807E-1,-9.778381586E-1,-3.228684664E-1
4.172085256E1,-1.884205103E0,-2.559700012E-1,-5.258153677E-1
4.174085256E1,-3.017813921E0,8.232717961E-2,-8.847423196E-1
4.176085256E1,-3.632483959E0,-3.040363453E-2,-1.074895978E0
4.178085256E1,-3.530207634E0,-1.687209755E-1,-1.227542400E0
4.180285256E1,-3.075758934E0,-2.101376466E-2,-1.492762685E0
4.182485256E1,-2.725628376E0,5.504943132E-1,-1.192827821E0
4.184685256E1,-2.412324190E0,1.111216187E0,-7.995876670E-1
4.186685256E1,-2.281895876E0,1.176735878E0,-7.102966309E-1
4.188885256E1,-2.951404095E0,-3.225019276E-1,-5.692391396E-1
4.190885256E1,-2.963970423E0,-7.431437373E-1,-2.846806645E-1
4.192887131E1,-2.615218878E0,-4.262094200E-2,3.570943698E-2
4.195085100E1,-2.092894077E0,8.497135639E-1,2.336995862E-2
4.197085100E1,-1.524772048E0,1.120675921E0,-1.248957589E-1
4.199085256E1,-1.126470447E0,5.314353108E-1,-3.724532723E-1
4.201285256E1,-1.022431374E0,-2.498089820E-1,-4.220380783E-1
4.203486038E1,-9.808576107E-1,-1.121007562E0,-1.628915817E-1
4.205685256E1,-7.510675192E-1,-1.446110010E0,5.614724010E-2
4.207685256E1,-2.574884295E-1,-1.645147324E0,8.756317198E-2
4.209685256E1,5.866749883E-1,-2.105181217E0,1.149997413E-1
4.211685256E1,1.582839131E0,-2.550973177E0,2.620437443E-1
4.213685256E1,2.599406004E0,-2.890684128E0,2.686934471E-1
4.215685256E1,3.275040627E0,-2.612740517E0,-1.577952206E-1
4.217885256E1,9.914517403E-1,-1.415287554E-1,-8.338310719E-1
4.219885256E1,-2.801148653E0,-3.621383607E-1,-7.892727852E-1
4.222085100E1,-1.246199965E0,-2.086541176E0,-8.555603772E-2
