"Time (s)","Linear Acceleration x (m/s^2)","Linear Acceleration y (m/s^2)","Linear Acceleration z (m/s^2)"
1.200156200E-2,-7.372999787E-1,5.396000147E-1,2.499599934E0
3.200312500E-2,-1.609399915E0,2.009999938E-2,4.377699852E0
6.200156200E-2,-3.017099857E0,-7.843999863E-1,7.371099949E0
8.200156200E-2,3.833999932E-1,-1.279999971E0,4.541500092E0
1.020015620E-1,9.019999504E-1,-1.001299977E0,4.305299759E0
1.220015620E-1,2.169999838E0,-1.733899951E0,3.667599916E0
1.420015620E-1,2.644099951E0,-2.556299925E0,1.997899890E0
1.720046870E-1,1.268399954E0,-1.380499959E0,1.347999930E0
2.020015620E-1,7.845000029E-1,-6.983999610E-1,1.835899949E0
2.320000000E-1,4.517000020E-1,-1.310299993E0,2.092299938E0
2.520000000E-1,7.735999823E-1,-2.742199898E0,1.937399983E0
2.720046870E-1,1.599099994E0,-3.607499838E0,2.663599968E0
3.020000000E-1,1.291199923E0,-1.035699964E0,2.224699974E0
3.220093750E-1,7.044999599E-1,-7.819999754E-2,1.142499924E0
3.520015620E-1,9.998999834E-1,-7.231000066E-1,7.817999721E-1
3.720046870E-1,1.105999947E0,-7.833999991E-1,9.910999537E-1
4.020000000E-1,7.174999714E-1,3.819999993E-1,3.644999862E-1
4.220015620E-1,4.689999819E-1,4.793999791E-1,7.409999520E-2
4.520000000E-1,-1.439700007E0,2.811000049E-1,1.054799914E0
4.720000000E-1,-7.107999921E-1,-7.009999454E-2,1.862699986E0
4.920000000E-1,3.379999846E-2,-5.200000014E-3,2.325399876E0
5.120031250E-1,-4.166999757E-1,-4.438999891E-1,1.918099999E0
5.420000000E-1,-1.346899986E0,2.633000016E-1,4.933999777E-1
5.620000000E-1,-8.197999597E-1,1.739999950E-1,-7.853999734E-1
5.820000000E-1,2.278999984E-1,1.424999982E-1,6.499999668E-3
6.020000000E-1,9.669999480E-1,-3.029999882E-2,1.128399968E0
6.220000000E-1,-2.534999847E-1,-1.803999990E-1,4.889999926E-1
6.420015620E-1,-1.453000009E-1,1.004999951E-1,2.266999930E-1
6.720000000E-1,4.791999757E-1,-5.076000094E-1,-3.282999992E-1
6.920000000E-1,2.496999949E-1,-5.269999802E-2,-1.937000006E-1
7.120015620E-1,6.137999892E-1,-4.362999797E-1,-1.144199967E0
7.320015620E-1,7.175999880E-1,-9.281999469E-1,-1.621999890E-1
7.520015620E-1,6.372999549E-1,-9.679999948E-1,-1.247799993E0
7.720015620E-1,-1.042999998E-1,-1.047600031E0,-1.695099950E0
8.020000000E-1,-1.177199960E0,-3.614999950E-1,-1.304999948E0
8.220000000E-1,6.300000101E-2,4.820999801E-1,-3.023699999E0
8.420015620E-1,7.910999656E-1,2.910999954E-1,-4.842099667E0
8.620015620E-1,1.430599928E0,3.039999902E-1,-2.674700022E0
8.920000000E-1,6.230999827E-1,1.895999908E-1,-1.391199946E0
9.120000000E-1,3.750999868E-1,7.242000103E-1,-1.738999933E-1
9.320000000E-1,2.426999956E-1,-8.299999833E-1,-1.040899992E0
9.520000000E-1,-1.336300015E0,-1.516000032E-1,-1.511199951E0
9.720000000E-1,-8.991999626E-1,-1.384000033E-1,-2.218299866E0
9.920015620E-1,3.379999846E-2,-3.998999894E-1,-2.167599916E0
1.022000000E0,-9.769999981E-1,-1.766999960E-1,-1.417599916E0
1.042000000E0,-8.757999539E-1,-8.219999820E-2,-7.303000093E-1
1.062001562E0,-1.642999947E-1,-3.088999987E-1,-3.224000037E-1
1.092000000E0,1.322999895E-1,-2.585999966E-1,-3.726999760E-1
1.112000000E0,1.454999894E-1,-4.409999773E-2,-4.176999927E-1
1.132000000E0,2.615000010E-1,-5.869999900E-2,-4.075999856E-1
1.152000000E0,3.643999994E-1,-3.592999876E-1,-3.134000003E-1
1.172000000E0,4.506999850E-1,-8.034999967E-1,-3.190999925E-1
1.192000000E0,4.902999997E-1,-7.249999642E-1,-3.008999825E-1
1.212001562E0,8.490999937E-1,-9.039999843E-1,-5.036999583E-1
1.242000000E0,6.225999594E-1,-8.694999814E-1,-1.117499948E0
1.262000000E0,2.644000053E-1,-5.379999876E-1,-1.860700011E0
1.282000000E0,3.552999794E-1,-4.481999874E-1,-1.697600007E0
1.302000000E0,1.875000000E-1,-6.866999865E-1,-9.470999837E-1
1.322004687E0,2.049999870E-2,-7.849999666E-1,-6.818999648E-1
1.352001562E0,1.759999990E-2,-1.366000026E-1,-1.092199922E0
1.372001562E0,-6.179999933E-2,6.406999826E-1,-1.135200024E0
1.402000000E0,-6.338999867E-1,1.067600012E0,-1.243799925E0
1.422001562E0,-1.990999877E-1,7.680999637E-1,-7.182999849E-1
1.442001562E0,2.888999879E-1,3.947999775E-1,-3.928999901E-1
1.472000000E0,8.138999939E-1,1.744999886E-1,-9.551999569E-1
1.492001562E0,9.912999868E-1,1.537999958E-1,-1.153900027E0
1.522000000E0,8.082999587E-1,5.763999820E-1,-1.140900016E0
1.542000000E0,5.694000125E-1,8.024999499E-1,-1.319499969E0
1.562001562E0,3.845999837E-1,9.109999537E-1,-1.178200006E0
1.592000000E0,6.265000105E-1,8.423999548E-1,-3.385999799E-1
1.612000000E0,7.705999613E-1,6.789999604E-1,-1.108999997E-1
1.632001562E0,7.562999725E-1,4.963999987E-1,-2.868999839E-1
1.662000000E0,3.209999800E-1,4.450999796E-1,-6.273999810E-1
1.682003125E0,3.394999802E-1,6.563000083E-1,-5.771999955E-1
1.712001562E0,5.616999865E-1,6.369000077E-1,-1.752000004E-1
1.742000000E0,1.680999994E-1,5.525999665E-1,-3.000999987E-1
1.762000000E0,1.169999987E-1,5.805000067E-1,-2.502999902E-1
1.782001562E0,1.807999909E-1,5.036999583E-1,9.820000082E-2
1.812000000E0,2.939999998E-1,4.037999809E-1,3.317999840E-1
1.832000000E0,2.707000077E-1,5.099999905E-1,3.039999902E-1
1.852001562E0,-7.880000025E-2,8.731999993E-1,-6.309999526E-2
1.882000000E0,-3.024999797E-1,1.036599994E0,-4.226999879E-1
1.902001562E0,-2.689999901E-2,9.711999893E-1,-9.709999710E-2
1.922001562E0,-4.399999976E-3,7.139999866E-1,1.612000018E-1
1.952000000E0,-3.759000003E-1,3.164999783E-1,2.139999904E-2
1.972000000E0,-3.157999814E-1,1.463999897E-1,1.139999926E-2
1.992001562E0,-9.719999880E-2,1.660999954E-1,-2.188999951E-1
2.022000000E0,8.960999846E-1,2.628000081E-1,-6.035999656E-1
2.042000000E0,4.490999877E-1,4.481999874E-1,-7.421000004E-1
2.062001562E0,1.388999969E-1,1.021999940E-1,-7.193999887E-1
2.092000000E0,4.312999845E-1,-4.600000009E-2,-2.775000036E-1
2.112000000E0,3.865999877E-1,-1.129999943E-2,-2.102999985E-1
2.132001562E0,4.328999817E-1,6.999999750E-3,-1.507999897E-1
2.162000000E0,8.170999885E-1,-4.769999906E-2,2.232999951E-1
2.182000000E0,7.049999833E-1,1.999999949E-4,-1.445000023E-1
2.202001562E0,8.253999949E-1,-8.229999989E-2,-3.102000058E-1
2.232000000E0,7.078999877E-1,-7.989999652E-2,-1.067199945E0
2.252000000E0,7.146999836E-1,4.629999772E-2,-8.323999643E-1
2.272001562E0,1.022400022E0,2.549999952E-2,8.699999750E-2
2.302000000E0,1.202999949E-1,-5.539999902E-2,4.339999706E-2
2.322000000E0,-5.350000039E-2,-6.399999838E-3,3.599999938E-3
2.342001562E0,2.818999887E-1,1.902999878E-1,1.115999967E-1
2.372000000E0,7.809000015E-1,2.978999913E-1,-4.289999977E-2
2.392000000E0,3.937999904E-1,4.127999842E-1,-1.410999894E-1
2.412000000E0,6.700000167E-2,2.326999903E-1,-3.130999804E-1
2.432000000E0,3.461000025E-1,3.590000048E-2,-5.307999849E-1
2.452000000E0,2.852999866E-1,-7.490000129E-2,-6.261000037E-1
2.472000000E0,1.516000032E-1,-3.668999970E-1,-6.992999911E-1
2.492001562E0,2.039999962E-1,-7.459999919E-1,-7.167999744E-1
2.522000000E0,7.827000022E-1,-1.314000010E0,-1.241500020E0
2.542000000E0,-1.692799926E0,-1.669899940E0,-2.997699976E0
2.562001562E0,-1.854499936E0,-1.639699936E0,-3.138499975E0
2.592000000E0,-1.945099950E0,-2.501199961E0,-3.729499817E0
2.612000000E0,-3.321599960E0,-3.808699846E0,-4.178499699E0
2.632001562E0,-2.705199957E0,-5.032899857E0,-4.844199657E0
2.662000000E0,-2.697299957E0,-5.178400040E0,-3.426999807E0
2.682000000E0,-3.025699854E0,-5.578899860E0,-4.280699730E0
2.702001562E0,-2.625900030E0,-6.217000008E0,-4.423399925E0
2.732000000E0,-2.484999895E0,-6.514199734E0,-3.687500000E0
2.752000000E0,-1.605599999E0,-5.452600002E0,-3.093899965E0
2.772001562E0,1.013599992E0,-5.710299969E0,-3.206899881E0
2.792001562E0,2.851799965E0,-4.889899731E0,-2.013099909E0
2.822000000E0,4.215399742E0,-2.448199987E0,-1.832299948E0
2.842000000E0,3.815299988E0,-1.789499998E0,4.840999842E-1
2.862001562E0,7.537099838E0,-2.525499821E0,3.827399969E0
2.892000000E0,5.544399738E0,-2.107300043E0,7.342599869E0
2.912000000E0,2.895200014E0,-1.231899977E0,3.839299917E0
2.932001562E0,5.873899937E0,4.174000025E-1,3.311899900E0
2.962000000E0,7.336699963E0,-4.940999746E-1,7.625599861E0
2.982000000E0,4.316999912E0,-9.606999755E-1,8.273099899E0
3.002001562E0,6.200699806E0,7.799999714E-1,-3.382399797E0
3.032000000E0,1.112969971E1,-1.024999991E-1,-9.828800201E0
3.052000000E0,1.400119972E1,-2.126999944E-1,-1.485000014E0
3.072001562E0,1.102979946E1,-2.602699995E0,-6.447199821E0
3.102000000E0,7.478799820E0,-2.481999993E-1,-3.094899893E0
3.122000000E0,8.256899834E0,8.599999361E-3,1.625399947E0
3.142001562E0,4.107699871E0,3.039399862E0,-1.181999922E0
3.172000000E0,-1.431100011E0,5.065000057E0,-9.979999810E-2
3.192000000E0,-4.100599766E0,6.794600010E0,-9.621999860E-1
3.212001562E0,-5.028899670E0,6.756099701E0,-1.544799924E0
3.242000000E0,-2.255300045E0,4.429599762E0,-7.006999850E-1
3.262000000E0,1.719399929E0,3.177500010E0,-2.772099972E0
3.282001562E0,3.334800005E0,2.382299900E0,-6.385099888E0
3.312001562E0,-1.459800005E0,1.566100001E0,-1.661799908E0
3.342000000E0,-1.407499909E0,-3.094199896E0,5.436699867E0
3.362000000E0,2.818500042E0,-2.210000008E-1,3.976999998E0
3.382000000E0,1.276999950E1,2.502599955E0,2.789099932E0
3.402000000E0,3.975799799E0,-8.945999742E-1,2.643699884E0
3.422001562E0,-2.334399939E0,5.087000132E-1,-2.608199835E0
3.452000000E0,1.408299923E0,-7.407000065E-1,-4.060699940E0
3.472000000E0,9.104999900E-1,-1.982800007E0,-1.184999943E-1
3.492001562E0,1.680799961E0,-3.567499876E0,4.862499714E0
3.522000000E0,-4.681999981E-1,-3.592700005E0,3.090899944E0
3.542000000E0,2.696199894E0,-5.479899883E0,-1.159600019E0
3.562001562E0,-3.429999948E-1,-5.342799664E0,-5.594500065E0
3.592000000E0,2.428900003E0,-5.283499718E0,-2.657599926E0
3.612000000E0,1.700099945E0,-3.324299812E0,-1.636600018E0
3.632001562E0,-1.470899940E0,9.427999854E-1,1.157699943E0
3.662000000E0,-5.331999660E-1,3.280999959E-1,5.499499798E0
3.682000000E0,1.622900009E0,3.200500011E0,-7.258899689E0
3.702001562E0,3.022099972E0,5.741899967E0,4.770999849E-1
3.732000000E0,-4.664400101E0,9.873600006E0,3.128399849E0
3.752000000E0,-1.013560009E1,5.835899830E0,4.515699863E0
3.772001562E0,-9.324399948E0,7.564899921E0,1.924499989E0
3.792001562E0,-1.028489971E1,5.004999638E0,2.470700026E0
3.822000000E0,-5.854799747E0,-5.625000000E-1,2.299099922E0
3.842000000E0,9.314000010E-1,-7.563099861E0,-7.676999569E-1
3.862001562E0,5.957200050E0,-9.129599571E0,-1.676899910E0
3.892000000E0,1.967700005E0,-4.930599689E0,-6.417399883E0
3.912000000E0,1.679299951E0,-9.703999758E-1,-4.661699772E0
3.932001562E0,-1.971599936E0,3.060400009E0,2.257599831E0
3.962000000E0,-6.434799671E0,4.177099705E0,1.010800004E0
3.982000000E0,-5.533899784E0,3.555199862E0,3.213000000E-1
4.002000000E0,-2.357499838E0,2.307199955E0,-4.597999752E-1
4.022000000E0,5.654999614E-1,-3.721999824E-1,-6.256999969E-1
4.042000000E0,5.521100044E0,-3.562799931E0,7.612999678E-1
4.062001562E0,8.107699394E0,-3.425099850E0,2.891999781E-1
4.092000000E0,5.269000053E0,3.048199892E0,-2.776499987E0
4.112000000E0,2.067999840E0,6.859099865E0,-9.960899353E0
4.132001562E0,1.016499996E0,7.649099827E0,-6.481599808E0
4.162000000E0,6.099999696E-2,-3.154899836E0,-8.447500229E0
4.182000000E0,-4.198100090E0,-1.308209991E1,-1.833899975E0
4.202001562E0,-5.015500069E0,-2.124349976E1,4.569999695E0
4.232000000E0,5.672299862E0,-2.967669868E1,2.820499897E0
4.252000000E0,-7.188499928E0,-3.851799965E0,1.225299954E0
4.272001562E0,-8.547800064E0,4.073999882E0,5.669999719E-1
4.302000000E0,-6.106299877E0,4.837999821E0,8.822000027E-1
4.322000000E0,-3.694799900E0,3.459599972E0,1.759599924E0
4.342000000E0,-2.354099989E0,3.024199963E0,4.219399929E0
4.362001562E0,-1.672899961E0,3.389699936E0,3.918699980E0
4.392000000E0,3.382000029E-1,1.784799933E0,3.278599977E0
4.412000000E0,5.785999894E-1,1.509299994E0,3.767999887E0
4.432001562E0,2.460999936E-1,1.753399968E0,4.486099720E0
4.462000000E0,-1.330000013E-1,3.246199846E0,4.413399696E0
4.482000000E0,3.423999846E-1,3.764999866E0,3.996799946E0
4.502001562E0,6.521999836E-1,3.797999859E0,3.319799900E0
4.522004687E0,1.426299930E0,3.548599958E0,6.967999935E-1
4.552006250E0,2.373600006E0,1.015699983E0,-4.444399834E0
4.582000000E0,1.383999944E0,-5.996399879E0,-1.267409992E1
4.602003125E0,1.328999996E0,-7.751599789E0,-9.190099716E0
4.632001562E0,2.190999985E-1,-1.516199946E0,-3.781699896E0
4.652007812E0,-1.829800010E0,4.023999870E-1,-2.007900000E0
4.682000000E0,-4.739900112E0,-4.738599777E0,-3.730000019E0
4.702010937E0,-6.463399887E0,-2.930899858E0,7.500599861E0
4.732000000E0,-4.114099979E0,4.809799671E0,7.718899727E0
4.752000000E0,-2.580699921E0,6.611000061E0,7.551799774E0
4.772001562E0,-3.162499905E0,5.060400009E0,4.387099743E0
4.802006250E0,-4.557600021E0,-2.772799969E0,3.184299946E0
4.832000000E0,-2.020699978E0,-5.811500072E0,1.212999940E0
4.852003125E0,5.306000113E-1,-1.669399977E0,5.202399731E0
4.882000000E0,2.595499992E0,-5.665999651E-1,1.255999953E-1
4.902000000E0,2.473799944E0,2.049999982E-1,1.661000013E0
4.922001562E0,2.657999992E0,1.143499970E0,2.395999908E0
4.952000000E0,3.050199986E0,1.912799954E0,9.953999519E-1
4.972000000E0,3.022199869E0,1.935199976E0,-1.009199977E0
4.992001562E0,2.330999851E0,1.288800001E0,-2.361799955E0
5.022000000E0,4.569999874E-1,1.341799974E0,-1.269899964E0
5.042000000E0,3.188000023E-1,1.336799979E0,-2.831999958E-1
5.062001562E0,8.325999975E-1,8.524999619E-1,-3.183999956E-1
5.092000000E0,9.466999769E-1,-5.363000035E-1,-3.255999982E-1
5.112000000E0,1.393000036E-1,-1.594099998E0,-1.611999989E0
5.132001562E0,-2.239999920E-1,-1.408599973E0,-4.995299816E0
5.162000000E0,2.387300014E0,-2.045599937E0,-7.480499744E0
5.182000000E0,3.801399946E0,-3.472399950E0,-3.427299976E0
5.202001562E0,4.024499893E0,-2.992899895E0,-2.319900036E0
5.232000000E0,1.242699981E0,-3.424799919E0,-8.352799416E0
5.252000000E0,-1.200000010E-2,-4.743999958E0,-6.487400055E0
5.272001562E0,-2.177999914E-1,-4.378699780E0,-3.109099865E0
5.302000000E0,-7.461000085E-1,-4.297899723E0,-1.560000032E-1
5.322000000E0,-8.195999861E-1,-5.703599930E0,2.929499865E0
5.342000000E0,-3.759799957E0,-5.479300022E0,1.661999941E0
5.362001562E0,-5.848700047E0,-3.836499929E0,-4.142999947E-1
5.382001562E0,-5.530200005E0,-2.718299866E0,-2.320999950E-1
5.402001562E0,-4.292699814E0,-1.374599934E0,9.290999770E-1
5.422001562E0,-3.201799870E0,-9.489999712E-2,1.724099994E0
5.452000000E0,-2.698199987E0,1.037599921E0,2.255899906E0
5.472000000E0,-2.381299973E0,1.625999928E0,3.017799854E0
5.492001562E0,-2.033599854E0,2.566299915E0,4.033699989E0
5.522000000E0,-1.587199926E0,3.471999884E0,3.993399858E0
5.542000000E0,-1.349699974E0,3.671099901E0,4.200099945E0
5.562001562E0,-1.144599915E0,3.733999968E0,5.046700001E0
5.592000000E0,-5.213999748E-1,3.916799784E0,5.132999897E0
5.612000000E0,2.483999878E-1,4.296400070E0,4.970200062E0
5.632001562E0,6.556999683E-1,5.031899929E0,4.568099976E0
5.652001562E0,8.392999768E-1,5.335799694E0,3.110699892E0
5.672001562E0,1.016799927E0,4.457499981E0,1.823000014E-1
5.702001562E0,1.560999990E0,-5.123699665E0,-1.249069977E1
5.722001562E0,4.673599720E0,-1.358669949E1,-1.899309921E1
5.752000000E0,1.103699923E0,-4.600899696E0,-4.500899792E0
5.772000000E0,1.383000016E-1,2.689299822E0,-3.911799908E0
5.792001562E0,-4.252099991E0,5.256999731E-1,-4.355999947E0
5.822000000E0,-7.501099586E0,-4.871200085E0,8.321999550E0
5.842001562E0,-6.661999702E0,-1.236199975E0,9.540100098E0
5.862001562E0,-3.358099937E0,6.870599747E0,8.497799873E0
5.892000000E0,-1.685899973E0,-1.009999961E-2,7.515799999E0
5.912000000E0,-1.233099937E0,-8.156299591E0,6.305899620E0
5.932001562E0,4.388999939E-1,-8.818900108E0,2.613399982E0
5.962001562E0,2.967099905E0,-1.985699892E0,3.109699965E0
5.992001562E0,1.451499939E0,1.396999955E0,7.570999861E-1
6.012003125E0,-7.009999454E-2,3.421099901E0,6.175000072E-1
6.042000000E0,-1.137099981E0,2.894799948E0,-5.812000036E-1
6.062001562E0,-1.198599935E0,2.961099863E0,-1.174399972E0
6.082001562E0,-5.737999678E-1,3.078699827E0,-2.328500032E0
6.112004687E0,2.761999965E-1,1.934399962E0,-7.732999921E-1
6.142001562E0,4.503999949E-1,2.294199944E0,9.411999583E-1
6.162004687E0,7.633000016E-1,2.140499830E0,1.675599933E0
6.192000000E0,8.517999649E-1,-9.892999530E-1,-1.585000008E-1
6.212009375E0,6.268000007E-1,-1.910499930E0,-1.539099932E0
6.242000000E0,1.451099992E0,-2.211899996E0,-4.854000092E0
6.262006250E0,3.380199909E0,-3.507599831E0,-7.823699951E0
6.292000000E0,4.817800045E0,-4.892600060E0,-4.883500099E0
6.312003125E0,4.356999874E0,-3.539399862E0,-2.684299946E0
6.342000000E0,3.041299820E0,-3.678299904E0,-9.062999725E0
6.362006250E0,2.274899960E0,-4.358500004E0,-6.171899796E0
6.392000000E0,7.143999934E-1,-2.931200027E0,-2.042700052E0
6.412000000E0,3.449999988E-1,-3.804600000E0,2.699999837E-3
6.432000000E0,4.161999822E-1,-5.601799965E0,3.448400021E0
6.452004687E0,-1.061299920E0,-6.851599693E0,3.880499840E0
6.482000000E0,-3.283599854E0,-5.135499954E0,3.364899874E0
6.502001562E0,-4.155399799E0,-2.860399961E0,-2.272999883E-1
6.532000000E0,-5.220999718E0,-1.582199931E0,2.635999918E-1
6.552001562E0,-4.377599716E0,1.692999899E-1,4.138000011E0
6.582000000E0,-1.527999997E0,2.428299904E0,3.224499941E0
6.602007812E0,-3.139999881E-2,3.522399902E0,3.974999905E0
6.632000000E0,7.706999779E-1,3.857299805E0,6.455800056E0
6.652007812E0,2.782000005E-1,3.647300005E0,6.213099957E0
6.682000000E0,-1.464999914E0,3.638099909E0,6.173099995E0
6.702004687E0,-1.580099940E0,3.655099869E0,6.200500011E0
6.732000000E0,-1.609699965E0,4.208399773E0,5.618000031E0
6.752000000E0,-1.365599990E0,5.452600002E0,4.613999844E0
6.772000000E0,-5.608999729E-1,5.741699696E0,2.621099949E0
6.792000000E0,-7.490000129E-2,3.132799864E0,-1.756699920E0
6.812000000E0,1.176599979E0,-4.455399990E0,-1.191510010E1
6.832000000E0,2.330899954E0,-1.369969940E1,-2.326479912E1
6.852000000E0,2.073299885E0,-9.079199791E0,-8.274600029E0
6.872000000E0,1.344499946E0,-6.627999544E-1,-4.247200012E0
6.892001562E0,1.086099982E0,1.565400004E0,-3.071199894E0
6.922000000E0,-3.114499807E0,-3.218999863E0,2.107399940E0
6.942000000E0,-7.537899971E0,-4.770400047E0,1.251999950E1
6.962000000E0,-6.590099812E0,-9.289999604E-1,5.562500000E0
6.982000000E0,-2.491099834E0,4.619499683E0,7.519899845E0
7.002000000E0,-1.605899930E0,3.886499882E0,6.755499840E0
7.022000000E0,-3.376699924E0,-1.887499928E0,7.229199886E0
7.042000000E0,-3.870399952E0,-6.200999737E0,5.359999657E0
7.062000000E0,-2.712100029E0,-5.114399910E0,4.391900063E0
7.082003125E0,1.152699947E0,-2.016900063E0,-2.579599857E0
7.112000000E0,2.313599825E0,9.617999792E-1,1.155900002E0
7.132007812E0,1.670499921E0,5.992000103E-1,-7.909999788E-2
7.162000000E0,1.286999941E0,1.717000008E0,5.606999993E-1
7.182000000E0,8.345999718E-1,3.092399836E0,-1.259299994E0
7.202000000E0,7.067999840E-1,2.814100027E0,-2.706599951E0
7.222000000E0,9.724999666E-1,2.152600050E0,-2.029199839E0
7.242000000E0,1.053200006E0,1.791199923E0,-5.044000149E-1
7.262000000E0,1.099300027E0,2.468999863E0,7.077999711E-1
7.282003125E0,1.446499944E0,1.573899984E0,1.402999997E0
7.312000000E0,1.402099967E0,-1.903199911E0,-2.667999864E-1
7.332004687E0,2.639999986E-1,-2.008300066E0,-2.530799866E0
7.362000000E0,6.099999696E-2,-7.759999633E-1,-7.794199944E0
7.382004687E0,3.312999964E0,-3.062999964E0,-5.383999825E0
7.412000000E0,4.967899799E0,-3.997999907E0,-9.499999695E-3
7.432000000E0,4.364900112E0,-2.444399834E0,-2.705399990E0
7.452000000E0,2.455600023E0,-3.588099957E0,-1.042019939E1
7.472000000E0,1.635399938E0,-4.754699707E0,-7.899499893E0
7.492001562E0,1.697899938E0,-3.902299881E0,-2.919199944E0
7.522000000E0,5.417000055E-1,-3.301399946E0,-1.980599999E0
7.542000000E0,1.679999977E-1,-4.564599991E0,1.636899948E0
7.562001562E0,-5.809000134E-1,-5.449199677E0,3.378099918E0
7.592000000E0,-3.638799906E0,-5.279399872E0,2.709800005E0
7.612000000E0,-5.041500092E0,-3.658799887E0,-3.574000001E-1
7.632001562E0,-4.020499706E0,-2.579399824E0,-1.381099939E0
7.662000000E0,-3.607899904E0,-2.918999791E-1,2.785699844E0
7.682000000E0,-2.654799938E0,8.344999552E-1,3.282299995E0
7.702001562E0,-1.345899940E0,1.783499956E0,3.544999838E0
7.722001562E0,-1.902999878E-1,2.694099903E0,4.580199718E0
7.752000000E0,1.422999948E-1,3.274299860E0,5.438899994E0
7.772000000E0,-7.419999689E-2,3.444799900E0,6.029599667E0
7.792001562E0,-1.280399919E0,3.961599827E0,6.271800041E0
7.822000000E0,-1.578999996E0,4.301799774E0,6.106299877E0
7.842000000E0,-1.245899916E0,4.300499916E0,5.594699860E0
7.862001562E0,-8.863999844E-1,5.178099632E0,4.979199886E0
7.892000000E0,-2.450999916E-1,5.387300014E0,2.601500034E0
7.912000000E0,-2.956999838E-1,1.486299992E0,-2.958299875E0
7.932001562E0,1.525099993E0,-7.098299980E0,-1.460389996E1
7.962000000E0,2.204900026E0,-1.119729996E1,-1.183119965E1
7.982000000E0,1.293599963E0,-3.509500027E0,-3.792399883E0
8.002001562E0,2.789799929E0,1.990499973E0,-2.910699844E0
8.032000000E0,-7.123000026E-1,-2.254999876E-1,-1.387399912E0
8.052000000E0,-2.860699892E0,-3.574899912E0,8.619400024E0
8.072001562E0,-4.795899868E0,-5.407299995E0,4.082200050E0
8.102000000E0,-4.004899979E0,4.197199821E0,7.628899574E0
8.122000000E0,-3.220599890E0,6.142099857E0,1.072229958E1
8.142001562E0,-4.807699680E0,-1.655000001E-1,6.484399796E0
8.172000000E0,-9.783999920E-1,-7.271999836E0,-6.317999959E-1
8.192000000E0,-1.736999989E0,-3.373399973E0,2.868199825E0
8.212001562E0,-2.561999857E-1,-1.353799939E0,5.943599701E0
8.242000000E0,3.430199862E0,1.217199922E0,-6.701999903E-1
8.262000000E0,1.151499987E0,7.364999652E-1,-2.840399981E0
8.282001562E0,1.256699920E0,-5.360999703E-1,2.058500051E0
8.312000000E0,1.216199994E0,2.107399940E0,5.654999614E-1
8.332000000E0,1.092000008E0,2.728799820E0,-2.271299839E0
8.352001562E0,1.056800008E0,2.484899998E0,-3.252699852E0
8.382000000E0,6.766999960E-1,2.253000021E0,-4.527999759E-1
8.402001562E0,6.895999908E-1,2.411900043E0,1.031199932E0
8.422001562E0,7.394999862E-1,1.920599937E0,1.481199980E0
8.452000000E0,3.622999787E-1,-1.146199942E0,1.603000015E-1
8.472000000E0,-2.186999917E-1,-2.236799955E0,-1.687999964E0
8.492001562E0,1.068999991E-1,-1.697600007E0,-5.158299923E0
8.522000000E0,4.626199722E0,-3.884999990E0,-8.982399940E0
8.542000000E0,5.050299644E0,-4.472799778E0,-2.117199898E0
8.562001562E0,4.800899982E0,-3.172999859E0,-4.314999878E-1
8.592000000E0,3.917699814E0,-4.945499897E0,-1.031719971E1
8.612000000E0,3.440899849E0,-4.981599808E0,-6.825799942E0
8.632001562E0,2.271499872E0,-3.628599882E0,-2.277400017E0
8.662000000E0,-3.399999812E-2,-3.549099922E0,3.932999969E-1
8.682000000E0,2.379999869E-2,-5.683199883E0,3.443199873E0
8.702000000E0,-1.619499922E0,-6.800600052E0,3.744499922E0
8.722001562E0,-3.164299965E0,-5.848399639E0,3.400300026E0
8.752000000E0,-4.206399918E0,-2.797600031E0,-1.244599938E0
8.772000000E0,-4.365200043E0,-1.696499944E0,-8.784999847E-1
8.792000000E0,-3.833699942E0,2.102999985E-1,2.409899950E0
8.812000000E0,-2.483999968E0,1.324299932E0,3.680899858E0
8.832000000E0,-4.908999801E-1,1.632699966E0,3.789599895E0
8.852001562E0,5.625999570E-1,2.561899900E0,5.223799706E0
8.882000000E0,8.804000020E-1,3.308599949E0,6.030399799E0
8.902000000E0,3.795000017E-1,3.616799831E0,6.107299805E0
8.922001562E0,-8.544999957E-1,4.239900112E0,6.759799957E0
8.952000000E0,-2.013000011E0,4.089900017E0,6.538099766E0
8.972001562E0,-2.159600019E0,3.941499949E0,5.888700008E0
8.992001562E0,-2.458600044E0,4.790400028E0,4.775199890E0
9.022000000E0,-1.305099964E0,5.422499657E0,1.558300018E0
9.042000000E0,-3.998999894E-1,1.936800003E0,-3.457399845E0
9.062000000E0,1.041999936E0,-6.307999611E0,-1.210789967E1
9.082000000E0,5.200999975E-1,-1.295489979E1,-2.036979866E1
9.102000000E0,1.989499927E0,-7.785099983E0,-8.722199440E0
9.122000000E0,3.304199934E0,-1.583799958E0,-2.826599836E0
9.142001562E0,3.190999985E0,2.151999921E-1,-1.296100020E0
9.172000000E0,-1.804299951E0,-4.294499874E0,2.161000013E0
9.192000000E0,-3.939899921E0,-5.927099705E0,4.752699852E0
9.212001562E0,-6.379099846E0,1.463299990E0,9.061999321E0
9.242000000E0,-3.474200010E0,8.077799797E0,9.003899574E0
9.262000000E0,-4.441499710E0,3.998600006E0,7.022699833E0
9.282000000E0,-3.472199917E0,-4.929399967E0,2.642199993E0
9.302000000E0,1.911000013E-1,-8.154399872E0,-2.931999922E0
9.322000000E0,-1.802899957E0,-2.793699980E0,2.651299953E0
9.342000000E0,1.361299992E0,6.633999944E-1,1.015479946E1
9.362001562E0,3.693899870E0,4.151999950E-1,-2.210299969E0
9.392000000E0,8.427000046E-1,6.089000106E-1,8.423999548E-1
9.412000000E0,8.969999552E-1,1.254999995E0,2.492699862E0
9.432001562E0,3.078999817E-1,2.408200026E0,1.116599917E0
9.462001562E0,-4.299999680E-3,1.908199906E0,-1.636899948E0
9.492001562E0,4.544000030E-1,1.699800014E0,-1.112999991E-1
9.522001562E0,8.470999599E-1,2.710000038E0,1.225199938E0
9.552000000E0,1.086199999E0,7.653999925E-1,8.252999783E-1
9.572001562E0,6.997999549E-1,-1.545899987E0,-2.280999869E-1
9.602000000E0,-1.251000017E-1,-2.019000053E0,-4.004699707E0
9.622000000E0,1.673999906E0,-1.532699943E0,-1.374119949E1
9.642001562E0,4.186199665E0,-3.336999893E0,-7.961400032E0
9.672000000E0,4.431299686E0,-3.498399973E0,1.028299928E0
9.692000000E0,4.725299835E0,-2.675899982E0,-1.262599945E0
9.712001562E0,4.886899948E0,-4.184099674E0,-1.201389980E1
9.732001562E0,2.936899900E0,-4.167900085E0,-7.509399891E0
9.762001562E0,-6.719999760E-2,-2.327499866E0,-6.868000031E-1
9.782001562E0,1.583999991E-1,-4.349199772E0,3.142999887E0
9.812000000E0,-2.572999954E0,-8.805699348E0,3.907399893E0
9.832000000E0,-4.548999786E0,-8.047499657E0,3.837399960E0
9.852001562E0,-5.822299957E0,-4.318500042E0,2.867499828E0
9.882000000E0,-6.239399910E0,-3.940999806E-1,-2.171700001E0
9.902000000E0,-4.523099899E0,4.575999975E-1,2.257999897E0
9.922001562E0,-3.189299822E0,1.715799928E0,4.009900093E0
9.952000000E0,-4.949999973E-2,2.761799812E0,3.330499887E0
9.972000000E0,6.718999743E-1,3.543200016E0,4.238699913E0
9.992001562E0,6.854999661E-1,3.935299873E0,5.156199932E0
1.002200000E1,2.542999983E-1,3.781199932E0,6.594699860E0
1.004200000E1,-9.272999763E-1,3.733099937E0,6.748199940E0
1.006200156E1,-1.529199958E0,3.485299826E0,5.962800026E0
1.008200156E1,-1.740499973E0,3.278399944E0,5.520299911E0
1.011200000E1,-1.066599965E0,4.433700085E0,4.554500103E0
1.013200156E1,-2.570999861E-1,4.470999718E0,1.995799899E0
1.015200156E1,5.291999578E-1,1.365800023E0,-3.195099831E0
1.018200000E1,2.916499853E0,-7.814999580E0,-1.725799942E1
1.020200000E1,1.457599998E0,-9.516399384E0,-1.386329937E1
1.022200000E1,5.863999724E-1,-5.685199738E0,-4.902999878E0
1.024200000E1,-3.872999847E-1,-1.326900005E0,-3.596999884E0
1.026200000E1,-1.390100002E0,1.462000012E-1,-1.851699948E0
1.028200000E1,-4.834799767E0,-6.628999710E-1,-1.984799981E0
1.030200000E1,-3.787499905E0,-2.050600052E0,4.513700008E0
1.032200000E1,-4.117399693E0,-1.397300005E0,5.542900085E0
1.034200000E1,-5.526999950E0,3.299700022E0,4.232199669E0
1.036200156E1,-4.024899960E0,6.147999763E0,8.278200150E0
1.039200156E1,-2.510299921E0,1.118600011E0,4.763799667E0
1.042200156E1,-1.393899918E0,-5.934700012E0,1.156199932E0
1.044200781E1,-1.311599970E0,-4.171599865E0,3.730499983E0
1.047200000E1,1.708899975E0,1.023999974E-1,5.814199924E0
1.049200938E1,4.524899960E0,8.249999583E-2,-7.254999876E-1
1.052200000E1,1.172699928E0,-3.229999915E-2,1.962999940E0
1.054200469E1,1.075600028E0,3.829999864E-1,2.757999897E0
1.057200156E1,8.010999560E-1,2.088899851E0,-1.522599936E0
1.059200469E1,7.358999848E-1,1.862999916E0,-3.626799822E0
1.062200000E1,5.491999984E-1,1.010800004E0,-1.890299916E0
1.064200469E1,2.079999894E-1,1.230700016E0,-6.158999801E-1
1.067200000E1,3.009999990E-1,2.138099909E0,6.917999983E-1
1.069200625E1,3.782999814E-1,4.117999971E-1,1.042299986E0
1.072200156E1,5.412999988E-1,-1.086199999E0,-1.840799928E0
1.074200938E1,1.165300012E0,-2.223999947E-1,-4.980499744E0
1.077200000E1,3.769099951E0,-2.367399931E0,-7.539599895E0
1.079200156E1,4.520499706E0,-3.881199837E0,-2.866999865E0
1.082200000E1,3.382900000E0,-2.365799904E0,-4.647399902E0
1.084200000E1,1.317399979E0,-3.839099884E0,-1.050799942E1
1.086200156E1,2.604999840E-1,-5.050199986E0,-7.049399853E0
1.088200625E1,-7.109999657E-2,-3.859200001E0,-3.731199980E0
1.091200000E1,1.788999885E-1,-4.011899948E0,2.652400017E0
1.093200156E1,-1.215399981E0,-6.005099773E0,2.442800045E0
1.096200000E1,-3.772099972E0,-6.815199852E0,2.123199940E0
1.098200000E1,-5.869899750E0,-4.597199917E0,-3.410999775E-1
1.100200156E1,-6.515100002E0,-3.152699947E0,-1.443799973E0
1.103200156E1,-4.770800114E0,-4.962999821E-1,2.792500019E0
1.106200156E1,-2.747699976E0,1.049199939E0,3.356199980E0
1.109200000E1,-8.352999687E-1,2.217000008E0,3.706099987E0
1.111200000E1,4.036999941E-1,2.955699921E0,5.127199650E0
1.113200156E1,6.735999584E-1,3.383800030E0,5.748899937E0
1.115200156E1,1.259000003E-1,3.790399790E0,6.161900043E0
1.118200000E1,-1.482599974E0,5.335199833E0,5.818799973E0
1.120200000E1,-1.719699979E0,5.596999645E0,5.223099709E0
1.122200156E1,-1.454299927E0,5.520499706E0,4.885799885E0
1.125200000E1,-1.055400014E0,5.991499901E0,4.163499832E0
1.127200000E1,-4.441999793E-1,5.034100056E0,2.141399860E0
1.129200156E1,1.160999984E-1,1.752000004E-1,-3.927899837E0
1.132200000E1,2.473000050E0,-1.166659927E1,-2.427190018E1
1.134200000E1,2.048599958E0,-1.002299976E1,-9.405799866E0
1.136200156E1,8.848999739E-1,-3.600199938E0,-2.587299824E0
1.139200000E1,5.771999955E-1,2.938899994E0,-2.179100037E0
1.141200000E1,-2.255399942E0,1.783800006E0,-2.170500040E0
1.143200156E1,-3.979099989E0,-1.509699941E0,1.040110016E1
1.146200000E1,-7.689899921E0,-5.781699657E0,-5.382800102E0
1.148200000E1,-4.938199997E0,3.413800001E0,1.007479954E1
1.150200156E1,-2.729499817E0,3.668200016E0,9.340299606E0
1.153200000E1,-2.603999853E0,-2.978299856E0,4.602399826E0
1.155200000E1,-6.392999887E-1,-5.163300037E0,9.754999876E-1
1.157200156E1,-6.495000124E-1,-3.439499855E0,-3.273999989E-1
1.160200000E1,9.217000008E-1,-5.997999907E-1,9.090099335E0
1.162200000E1,2.945499897E0,7.630999684E-1,-2.402699947E0
1.164200156E1,1.011799932E0,7.317999601E-1,-2.270900011E0
1.167200000E1,6.419000030E-1,9.566999674E-1,1.829800010E0
1.169200000E1,1.108999997E-1,2.554499865E0,2.119999975E-1
1.171200156E1,-8.219999820E-2,3.061599970E0,-1.199499965E0
1.173200156E1,-1.277000010E-1,2.679399967E0,-2.019000053E0
1.176200000E1,-2.081999928E-1,2.339699984E0,-1.025499940E0
1.178200156E1,1.607999951E-1,1.819799900E0,-1.039999947E-1
1.181200000E1,5.388999581E-1,-9.999999747E-5,4.106999934E-1
1.183200000E1,5.468999743E-1,-9.264999628E-1,-7.920999527E-1
1.185200156E1,3.148999810E-1,-3.844999969E-1,-3.054499865E0
1.188200000E1,2.791999817E0,-1.569299936E0,-6.949299812E0
1.190200156E1,4.726099968E0,-3.697099924E0,-4.495999813E0
1.192200156E1,4.827699661E0,-3.620599985E0,-1.806199908E0
1.195200000E1,2.978299856E0,-3.201799870E0,-5.586899757E0
1.197200000E1,5.363000035E-1,-4.657000065E0,-1.018849945E1
1.199200156E1,-3.684999943E-1,-4.645199776E0,-6.486899853E0
1.202200000E1,-8.454999924E-1,-3.140300035E0,-1.474900007E0
1.204200000E1,-1.241999984E0,-3.549199820E0,8.528999686E-1
1.206200156E1,-2.102799892E0,-5.767999649E0,2.081099987E0
1.208200156E1,-4.250299931E0,-6.771599770E0,2.236299992E0
1.211200000E1,-6.899399757E0,-3.838699818E0,4.242999852E-1
1.213200000E1,-6.379499912E0,-1.726799965E0,-9.264999628E-1
1.215200000E1,-4.899199963E0,-2.413999885E-1,1.069999933E0
1.217200000E1,-4.203000069E0,8.578999639E-1,3.593199968E0
1.219200000E1,-2.417099953E0,1.324999928E0,3.010499954E0
1.221200156E1,-8.937999606E-1,2.152199984E0,2.559599876E0
1.224200000E1,5.457000136E-1,3.154399872E0,4.981599808E0
1.226200000E1,5.679999590E-1,3.178099871E0,5.397399902E0
1.228200156E1,6.679999828E-2,3.396600008E0,5.674399853E0
1.231200000E1,-9.027000070E-1,4.252200127E0,5.179699898E0
1.233200156E1,-9.083999991E-1,4.508199692E0,5.216099739E0
1.235200156E1,-6.586999893E-1,4.805900097E0,4.907199860E0
1.238200000E1,-4.413999915E-1,5.344299793E0,4.084199905E0
1.240200000E1,7.909999788E-2,4.252699852E0,1.998499990E0
1.242200156E1,3.644999862E-1,-4.609999806E-2,-3.308499813E0
1.245200000E1,1.916700006E0,-9.030699730E0,-2.118770027E1
1.247200000E1,2.446699858E0,-1.125899982E1,-1.390479946E1
1.249200156E1,2.559999824E-1,-3.706199884E0,-3.180399895E0
1.251200156E1,-8.756999969E-1,6.211000085E-1,-3.095099926E0
1.254200000E1,-7.415999889E0,-1.668499947E0,-4.342299938E0
1.256200156E1,-6.990699768E0,-3.958799839E0,9.005299568E0
1.258200156E1,-5.987999916E0,-7.092999816E-1,9.361999512E0
1.261200000E1,-1.537599921E0,6.443099976E0,7.035599709E0
1.263200000E1,-6.610999703E-1,3.940799952E0,4.984799862E0
1.265200156E1,-2.489899874E0,-3.188400030E0,4.737599850E0
1.268200000E1,-3.545300007E0,-7.526399612E0,4.038099766E0
1.270200000E1,1.122599959E0,-4.099299908E0,-1.541000009E-1
1.272200156E1,2.795599937E0,-9.308999777E-1,9.275999665E-1
1.275200000E1,1.710299969E0,1.132799983E0,6.110000014E-1
1.277200000E1,1.131899953E0,1.708799958E0,6.876999736E-1
1.279200156E1,6.492999792E-1,1.883599997E0,7.389999628E-1
1.282200156E1,2.841999829E-1,2.222599983E0,-7.229999900E-1
1.284200156E1,4.545999765E-1,2.163300037E0,-1.090499997E0
1.286200156E1,4.391999841E-1,1.700399995E0,-1.122300029E0
1.289200000E1,2.831999958E-1,1.990099907E0,-9.548999667E-1
1.291200000E1,2.707999945E-1,1.949299932E0,-7.256000042E-1
1.293200156E1,4.466999769E-1,8.204999566E-1,-6.466999650E-1
1.296200000E1,-5.489999801E-2,-9.987999797E-1,-1.660699964E0
1.298200000E1,-6.864999533E-1,-6.147999763E-1,-3.150399923E0
1.300200156E1,1.448999941E-1,-1.427000016E-1,-5.931499958E0
1.303200000E1,4.449299812E0,-3.488199949E0,-5.442399979E0
1.305200000E1,4.768099785E0,-3.605999947E0,-3.585999966E0
1.307200156E1,3.349200010E0,-2.819900036E0,-6.088799953E0
1.310200000E1,-6.213999987E-1,-4.207399845E0,-9.930999756E0
1.312200000E1,-1.182799935E0,-4.065199852E0,-5.967599869E0
1.314200000E1,-2.169999853E-2,-3.519899845E0,-1.037099957E0
1.316200000E1,8.520999551E-1,-4.215300083E0,3.095999956E0
1.318200000E1,-2.082999945E-1,-6.734899998E0,2.953099966E0
1.320200000E1,-2.257400036E0,-8.706299782E0,2.907799959E0
1.322200156E1,-4.505099773E0,-6.823699951E0,2.918200016E0
1.325200000E1,-7.511199951E0,-2.276399851E0,-2.601899862E0
1.327200000E1,-5.661799908E0,-5.194000006E-1,1.928000003E-1
1.329200156E1,-4.884799957E0,1.043900013E0,2.755199909E0
1.332200000E1,-2.135200024E0,1.902999997E0,3.667500019E0
1.334200000E1,-3.590999842E-1,3.099099874E0,3.836599827E0
1.336200156E1,6.940000057E-1,3.892599821E0,4.426199913E0
1.339200000E1,1.048799992E0,3.843099833E0,6.053499699E0
1.341200000E1,-2.025000006E-1,4.024899960E0,6.151799679E0
1.343200156E1,-1.222199917E0,4.454199791E0,5.743799686E0
1.346200156E1,-1.330899954E0,4.560800076E0,5.302000046E0
1.349200156E1,-1.177799940E0,4.912699699E0,4.496999741E0
1.351200156E1,-1.057199955E0,5.068900108E0,2.830799818E0
1.354200000E1,-4.952999949E-1,6.889999658E-2,-5.325200081E0
1.356200156E1,1.779999971E0,-7.916499615E0,-1.410219955E1
1.358200156E1,2.683799982E0,-1.110069942E1,-1.829520035E1
1.361200000E1,1.404699922E0,-3.849999905E0,-4.107299805E0
1.363200000E1,1.378700018E0,-3.429999948E-2,-2.739699841E0
1.365200156E1,-5.949000120E-1,1.019500017E0,-1.895499945E0
1.368200000E1,-4.807199955E0,-1.680400014E0,6.601699829E0
1.370200000E1,-6.885599613E0,-4.408199787E0,5.732399940E0
1.372200156E1,-7.527799606E0,1.692999899E-1,1.971899986E0
1.375200000E1,-2.600299835E0,4.303899765E0,9.376699448E0
1.377200000E1,-3.148099899E0,2.259999886E-2,6.070499897E0
1.379200156E1,-2.826099873E0,-3.857499838E0,3.025499821E0
1.382200000E1,-1.133999944E0,-3.070099831E0,2.363600016E0
1.384200000E1,1.320799947E0,-7.637999654E-1,-1.999999862E-3
1.386200156E1,3.041199923E0,2.174599886E0,3.548199892E0
1.389200000E1,3.710599899E0,4.829999804E-2,-1.665099978E0
1.391200000E1,1.732199907E0,-5.737000108E-1,6.923999786E-1
1.393200156E1,7.644000053E-1,1.637599945E0,7.468999624E-1
1.395200781E1,5.131999850E-1,2.536200047E0,7.835999727E-1
1.398200000E1,-3.330999911E-1,1.768799901E0,-1.131899953E0
1.400200313E1,-4.517000020E-1,1.710299969E0,-1.706499934E0
1.403200000E1,1.544999927E-1,1.652099967E0,-6.794999838E-1
1.405200469E1,4.731999934E-1,1.018599987E0,-4.332999885E-1
1.408200000E1,9.259999543E-2,-1.194599986E0,-5.637999773E-1
1.410200000E1,-1.495999992E-1,-5.967000127E-1,-2.484899998E0
1.412200000E1,7.745999694E-1,-9.279999882E-2,-6.673099995E0
1.414200156E1,4.140699863E0,-3.000699997E0,-9.429299355E0
1.417200000E1,5.053100109E0,-3.541599989E0,-1.598099947E0
1.419200000E1,4.486499786E0,-2.155799866E0,-2.333600044E0
1.421200156E1,2.357599974E0,-3.775799990E0,-8.548500061E0
1.424200000E1,-7.003999949E-1,-4.724699974E0,-6.779999733E0
1.426200000E1,-9.766999483E-1,-4.649699688E0,-3.408200026E0
1.428200156E1,-1.353999972E-1,-5.200599670E0,1.743799925E0
1.431200000E1,-1.724999905E0,-7.909799576E0,3.167099953E0
1.433200000E1,-3.696999788E0,-7.625999928E0,3.237499952E0
1.435200156E1,-4.357100010E0,-4.841399670E0,3.224099874E0
1.438200000E1,-5.924099922E0,-4.003999829E-1,-2.509299994E0
1.440200000E1,-4.744800091E0,1.181599975E0,8.848999739E-1
1.442200156E1,-4.048299789E0,1.974399924E0,3.613699913E0
1.445200000E1,-9.646999836E-1,2.193300009E0,3.035799980E0
1.447200000E1,-2.410000004E-2,3.303099871E0,4.118599892E0
1.449200156E1,5.877999663E-1,3.573099852E0,6.060400009E0
1.452200000E1,4.722999930E-1,2.853499889E0,5.941899776E0
1.454200000E1,-2.689999938E-1,3.070899963E0,6.244799614E0
1.456200000E1,-4.084999859E-1,3.419899940E0,6.247699738E0
1.458200000E1,-4.881999791E-1,3.850299835E0,5.865499973E0
1.460200000E1,-5.661999583E-1,4.692199707E0,4.891499996E0
1.462200000E1,-9.354999661E-1,5.865799904E0,3.864099979E0
1.464200156E1,-8.028999567E-1,6.035199642E0,2.588599920E0
1.467200000E1,-5.036999583E-1,8.460999727E-1,-2.596899986E0
1.469200000E1,1.276399970E0,-9.508199692E0,-1.649189949E1
1.471200156E1,3.343299866E0,-1.539379978E1,-1.949819946E1
1.474200000E1,1.457999945E0,-1.654999971E0,-3.940899849E0
1.476200000E1,4.900999963E-1,1.981199980E0,-3.170699835E0
1.478200156E1,-3.216099977E0,-1.863099933E0,-3.551399946E0
1.481200000E1,-5.605799675E0,-4.270199776E0,1.053609943E1
1.483200000E1,-6.199800014E0,-7.893999815E-1,6.236099720E0
1.485200156E1,-4.081299782E0,5.330100060E0,7.436599731E0
1.488200000E1,-3.272300005E0,2.270999908E0,8.014599800E0
1.490200000E1,-3.514699936E0,-4.979199886E0,3.490299940E0
1.492200156E1,-6.800999641E-1,-6.661599636E0,-2.102799892E0
1.495200000E1,3.877999783E-1,-1.837999970E-1,5.514499664E0
1.497200000E1,3.304099798E0,1.200000010E-2,8.305000067E-1
1.499200156E1,2.447499990E0,7.664999962E-1,-1.146899939E0
1.502200156E1,1.311100006E0,1.381899953E0,1.456300020E0
1.505200000E1,6.852999926E-1,3.075099945E0,1.005200028E0
1.507200156E1,2.647999823E-1,2.593299866E0,4.230999947E-1
1.510200000E1,-6.858999729E-1,1.632200003E0,-1.601699948E0
1.512200000E1,-9.302999973E-1,1.761500001E0,-2.064300060E0
1.514200156E1,-4.530999959E-1,1.891899943E0,-1.055699944E0
1.517200000E1,-4.669999704E-2,1.537999958E-1,1.326999962E-1
1.519200000E1,7.739999890E-2,-1.231199980E0,-1.061999947E-1
1.521200156E1,3.553999960E-1,-6.437999606E-1,-1.602899909E0
1.524200000E1,2.075299978E0,-1.248600006E0,-5.103799820E0
1.526200000E1,4.184400082E0,-3.797099829E0,-7.419499874E0
1.528200156E1,4.737999916E0,-3.911000013E0,-3.769099951E0
1.530200156E1,3.807999849E0,-2.887499809E0,-2.219300032E0
1.533200000E1,1.356699944E0,-3.141599894E0,-1.006729984E1
1.535200000E1,5.967000127E-1,-3.126099825E0,-1.133370018E1
1.537200000E1,6.996999979E-1,-3.098599911E0,-5.498399734E0
1.539200000E1,-7.869999856E-2,-3.128700018E0,-5.546000004E-1
1.541200000E1,6.899999920E-3,-6.064300060E0,2.786000013E0
1.543200000E1,-1.272099972E0,-8.492699623E0,4.001299858E0
1.545200000E1,-3.483199835E0,-9.219799995E0,3.986399889E0
1.547200000E1,-4.555299759E0,-5.869400024E0,3.435599804E0
1.549200156E1,-5.607899666E0,-2.591799974E0,-3.369999886E0
1.551200156E1,-4.340699673E0,-1.458999962E-1,-1.096000001E-1
1.553200156E1,-3.895699978E0,1.715499997E0,3.596899986E0
1.556200000E1,-2.092700005E0,1.762699962E0,2.888900042E0
1.558200000E1,-1.184199929E0,1.915099978E0,1.812199950E0
1.560200000E1,-1.212700009E0,3.093199968E0,4.817199707E0
1.562200000E1,-8.352999687E-1,3.889999866E0,6.698699951E0
1.564200156E1,-5.446999669E-1,4.003499985E0,6.462999821E0
1.567200156E1,-7.507999539E-1,4.149199963E0,6.727699757E0
1.570203438E1,-1.305899978E0,4.133199692E0,6.520400047E0
1.573200156E1,-5.546999574E-1,4.753799915E0,4.812999725E0
1.575200156E1,-2.583000064E-1,5.283599854E0,3.016899824E0
1.577200156E1,1.176999927E0,2.570199966E0,-1.934699893E0
1.579200156E1,1.055899978E0,-3.261799812E0,-1.298799992E1
1.581200156E1,2.413800001E0,-1.193750000E1,-2.257999992E1
1.584200156E1,-1.156099916E0,-6.519199848E0,-4.710999966E0
1.586200156E1,-1.415199995E0,2.383199930E0,-5.080299854E0
1.588200156E1,-5.618000031E-1,6.289499760E0,-3.842599869E0
1.590200156E1,-3.160699844E0,3.861099958E0,1.946599960E0
1.593200156E1,-5.434000015E0,-7.259999752E0,-3.507999778E-1
1.596200000E1,-2.872599840E0,-2.264999866E0,1.323579979E1
1.598200000E1,1.393000036E-1,1.737999916E0,1.022989941E1
1.600200156E1,2.167999893E-1,5.058999658E-1,6.896999836E0
1.603200000E1,-6.582999825E-1,-2.894299984E0,5.244999886E0
1.605200156E1,-3.069999814E-1,-4.382699966E0,4.305699825E0
1.607200156E1,1.426699996E0,-3.785399914E0,2.827600002E0
1.610200000E1,1.506199956E0,6.273999810E-1,1.231899977E0
1.612200000E1,3.879999816E-1,2.345399857E0,-1.062399983E0
1.614200156E1,2.316000015E-1,4.111000001E-1,-2.190599918E0
1.616200156E1,9.908999801E-1,5.385999680E-1,2.840999961E-1
1.618200156E1,7.281999588E-1,2.409299850E0,-3.529999778E-2
1.620200156E1,2.333000004E-1,3.551800013E0,-9.655999541E-1
1.622200156E1,2.903999984E-1,2.980099916E0,-9.893999696E-1
1.624200156E1,5.540999770E-1,2.733599901E0,-1.800999939E-1
1.626200156E1,6.679999828E-1,2.505399942E0,4.858999848E-1
1.628200156E1,6.455999613E-1,1.293799996E0,8.414999843E-1
1.630200156E1,4.505999982E-1,-5.619999766E-1,2.955999970E-1
1.632200156E1,7.233999968E-1,-1.072899938E0,-1.040799975E0
1.634200156E1,1.604999900E0,-1.388700008E0,-4.158199787E0
1.636200156E1,3.165799856E0,-3.911199808E0,-1.146879959E1
1.638200156E1,3.968899965E0,-4.771199703E0,-8.621199608E0
1.640200156E1,3.931199789E0,-3.631199837E0,-1.920099974E0
1.642200156E1,3.322499990E0,-2.771600008E0,-5.569999814E-1
1.645200000E1,1.016199946E0,-4.145400047E0,-1.089589977E1
1.647200000E1,1.143399954E0,-4.425600052E0,-8.639800072E0
1.649200156E1,1.758999974E-1,-3.289299965E0,-3.775199890E0
1.651200156E1,4.795999825E-1,-4.559099674E0,1.466599941E0
1.653200156E1,1.011500001E0,-6.536499977E0,4.353799820E0
1.656200000E1,-5.533999801E-1,-7.570099831E0,4.625299931E0
1.658200156E1,-1.580099940E0,-5.028100014E0,4.063399792E0
1.661200000E1,-3.246699810E0,-2.083799839E0,-9.603999853E-1
1.663200469E1,-3.637399912E0,-1.349699974E0,-6.037999988E-1
1.666200000E1,-3.216199875E0,1.555199981E0,3.390399933E0
1.668200000E1,-1.727199912E0,2.543400049E0,2.955799818E0
1.670200000E1,-6.758999825E-1,3.551800013E0,4.633599758E0
1.672200156E1,2.850999832E-1,4.159500122E0,6.872599602E0
1.675200000E1,-4.493999779E-1,3.926100016E0,6.668599606E0
1.677200000E1,-8.748999834E-1,3.890199900E0,6.682999611E0
1.679200000E1,-1.203400016E0,3.531999826E0,6.723999977E0
1.681200000E1,-1.590699911E0,3.607199907E0,6.595200062E0
1.683200000E1,-1.698300004E0,4.603499889E0,6.119999886E0
1.685200156E1,-2.216099977E0,4.949399948E0,4.527400017E0
1.688200000E1,-4.616999924E-1,8.572999835E-1,-3.407099962E0
1.690200000E1,6.720499992E0,-6.066799641E0,-1.566229916E1
1.692200156E1,6.843099594E0,-7.703099728E0,-9.517499924E0
1.695200000E1,-3.770399809E0,-6.621899605E0,-8.293000221E0
1.697200000E1,-3.091699839E0,-1.034999937E-1,-3.436499834E0
1.699200156E1,-4.530799866E0,3.785099983E0,-6.216899872E0
1.702200000E1,-6.979300022E0,-1.157199979E0,2.345799923E0
1.704200000E1,-2.651700020E0,-3.365999937E0,9.036499977E0
1.706200000E1,-3.434000015E-1,4.779999852E-1,4.979899883E0
1.708200156E1,-3.835999966E-1,2.962999821E0,8.539799690E0
1.711200156E1,5.006999969E-1,-3.263999939E0,6.185199738E0
1.713200156E1,-1.001299977E0,-5.784699917E0,5.409699917E0
1.715200156E1,-1.921999902E-1,-5.332599640E0,4.566100121E0
1.717200156E1,2.149800062E0,-2.877099991E0,-1.480299950E0
1.720200000E1,7.846999764E-1,2.458999902E-1,1.858899951E0
1.722200156E1,-3.145000041E-1,6.931999922E-1,1.952999979E-1
1.725200156E1,-6.849999726E-2,1.165199995E0,1.198199987E0
1.727200156E1,-1.779999882E-1,2.299099922E0,6.561999917E-1
1.729200156E1,-2.592999935E-1,2.876600027E0,-1.234999970E-1
1.732200000E1,-4.226000011E-1,2.796700001E0,-1.506799936E0
1.734200000E1,-1.779000014E-1,2.208600044E0,-2.123100042E0
1.736200156E1,4.206999838E-1,1.643499970E0,-1.074900031E0
1.739200000E1,8.118999600E-1,1.234899998E0,5.408999920E-1
1.741200000E1,9.125999808E-1,3.779000044E-1,9.049999714E-1
1.743200156E1,1.056299925E0,-8.994999528E-1,-3.876000047E-1
1.746200000E1,2.362299919E0,-2.185299873E0,-7.235199928E0
1.748200000E1,5.225599766E0,-4.451999664E0,-1.594179916E1
1.750200156E1,4.695499897E0,-4.046599865E0,-5.888000011E0
1.753200000E1,3.931799889E0,-2.049099922E0,-1.720699906E0
1.755200000E1,2.426599979E0,-3.331899881E0,-7.130699635E0
1.757200156E1,2.173899889E0,-5.477299690E0,-9.072199821E0
1.760200000E1,2.065799952E0,-6.003599644E0,1.708199978E0
1.762200000E1,1.034299970E0,-7.522199631E0,3.611699820E0
1.764200156E1,-1.492299914E0,-9.680399895E0,3.291999817E0
1.767200000E1,-3.729499817E0,-7.183399677E0,3.169899940E0
1.769200000E1,-4.134599686E0,-3.787099838E0,3.078899860E0
1.771200156E1,-7.587499619E0,-2.078999877E-1,-1.010999918E0
1.774200000E1,-4.535599709E0,1.559599996E0,2.429600000E0
1.776200000E1,-3.675400019E0,2.541499853E0,3.346899986E0
1.778200156E1,-1.701799989E0,3.089299917E0,3.562999964E0
1.781200000E1,8.299999870E-3,3.875799894E0,5.866699696E0
1.783200000E1,5.862999558E-1,3.691099882E0,7.086400032E0
1.785200156E1,2.111999989E-1,3.360899925E0,6.911099911E0
1.788200000E1,-5.875999928E-1,3.306599855E0,7.044499874E0
1.790200000E1,-7.364000082E-1,3.717899799E0,7.000899792E0
1.792200156E1,-7.379999757E-1,4.584199905E0,6.480799675E0
1.794200156E1,-6.620999575E-1,5.983999729E0,5.739799976E0
1.797200000E1,2.105999887E-1,4.713299751E0,2.976399899E0
1.799200000E1,-2.443999946E-1,-1.590799928E0,-7.836499691E0
1.801200156E1,9.829999506E-2,-8.904299736E0,-2.343429947E1
1.804200000E1,-3.677999973E-1,-9.234399796E0,-7.033699989E0
1.806200000E1,-5.389999747E-1,-1.268700004E0,-3.829099894E0
1.808200000E1,5.266000032E-1,1.358899951E0,-3.044799805E0
1.810200000E1,-2.361500025E0,-2.004999876E0,-3.094499826E0
1.812200000E1,-2.725600004E0,-4.218899727E0,5.054599762E0
1.814200313E1,-4.653500080E0,-1.906299949E0,6.729699612E0
1.817200000E1,-2.643699884E0,4.958799839E0,8.212100029E0
1.819200312E1,-1.847399950E0,2.560199976E0,7.261299610E0
1.822200156E1,-2.910899878E0,-5.783199787E0,5.226599693E0
1.825200000E1,-1.481299996E0,-4.551300049E0,4.290699959E0
1.827200000E1,1.401199937E0,-2.200000048E0,3.862999976E-1
1.829200156E1,2.583499908E0,6.161999702E-1,6.697999835E-1
1.832200000E1,2.518199921E0,1.013999939E0,-1.632900000E0
1.834200000E1,1.426599979E0,-5.964999795E-1,8.754000068E-1
1.836200000E1,9.836999774E-1,5.137999654E-1,1.392300010E0
1.838200469E1,1.731999964E-1,2.740000010E0,-2.222999930E-1
1.841200000E1,-7.069999725E-2,2.644700050E0,-2.646999836E0
1.843200469E1,2.136999965E-1,2.410799980E0,-1.489199996E0
1.846200000E1,6.844999790E-1,2.080199957E0,7.074999809E-1
1.848200000E1,7.202999592E-1,2.010099888E0,1.355499983E0
1.850200000E1,6.699999571E-1,7.823999524E-1,1.156299949E0
1.852200000E1,7.522000074E-1,-1.005200028E0,-6.499999762E-2
1.854200000E1,5.159000158E-1,-1.430899978E0,-2.125900030E0
1.856200000E1,7.046999931E-1,-2.004299879E0,-8.996600151E0
1.858200000E1,3.826699972E0,-3.925599813E0,-9.891699791E0
1.860200000E1,4.351399899E0,-4.093599796E0,-1.470999956E0
1.862200000E1,4.232899666E0,-2.809999943E0,1.453599930E0
1.864200000E1,3.773000002E0,-2.899799824E0,-1.006600022E0
1.866200000E1,2.985499859E0,-4.692100048E0,-1.083739948E1
1.868200000E1,2.095099926E0,-4.574800014E0,-1.016329956E1
1.870200000E1,7.507999539E-1,-3.754400015E0,-3.723999977E0
1.872200156E1,-5.248999596E-1,-3.024299860E0,-1.668599963E0
1.875200000E1,-4.193999767E-1,-5.510999680E0,2.635599852E0
1.877200000E1,-1.393199921E0,-5.865200043E0,3.073799849E0
1.879200156E1,-2.701499939E0,-4.640899658E0,3.283099890E0
1.882200000E1,-4.565799713E0,-2.679999828E0,4.719999805E-2
1.884200000E1,-4.440999985E0,-1.633399963E0,-6.469999552E-1
1.886200156E1,-4.237699986E0,-1.305000037E-1,1.360399961E0
1.889200000E1,-2.777099848E0,1.195699930E0,3.106099844E0
1.891200000E1,-1.512399912E0,2.238199949E0,2.737799883E0
1.893200156E1,-7.799999714E-1,3.089099884E0,5.127799988E0
1.896200000E1,2.090999931E-1,2.874500036E0,7.234099865E0
1.898200000E1,-1.149999946E-1,2.756700039E0,5.629600048E0
1.900200156E1,-1.013299942E0,3.491699934E0,5.984899998E0
1.903200000E1,-1.383199930E0,4.281300068E0,6.320699692E0
1.905200000E1,-1.202299953E0,5.114199638E0,5.727900028E0
1.907200156E1,-1.014799953E0,5.897099972E0,5.121999741E0
1.910200000E1,1.919999905E-2,3.681199789E0,1.616499901E0
1.912200000E1,4.943999946E-1,-2.785300016E0,-9.785499573E0
1.914200156E1,2.522399902E0,-1.066279984E1,-2.378229904E1
1.917200000E1,-7.926999927E-1,-7.412299633E0,-6.066400051E0
1.919200000E1,6.079999804E-1,1.551000029E-1,-4.685699940E0
1.921200000E1,4.603999853E-1,3.336499929E0,-3.648000002E0
1.923200000E1,-5.289000034E0,1.024299979E0,-1.843699932E0
1.925200000E1,-5.353300095E0,-3.998399973E0,9.002599716E0
1.927200000E1,-3.763399839E0,-6.791199684E0,4.266799927E0
1.929200156E1,-3.890299797E0,2.688199997E0,8.337299347E0
1.932200000E1,-6.509999633E-1,2.904700041E0,7.532599926E0
1.934200000E1,-3.408399820E0,-3.191499949E0,5.679499626E0
1.936200156E1,-2.593600035E0,-6.002299786E0,2.797099829E0
1.939200000E1,1.586000025E-1,-2.438099861E0,1.801999956E-1
1.941200000E1,1.025699973E0,4.202999771E-1,5.590499878E0
1.943200156E1,3.264299870E0,1.441999912E0,1.812500000E0
1.946200000E1,1.121799946E0,1.076900005E0,-9.960999489E-1
1.948200000E1,6.459000111E-1,8.294000030E-1,1.032799959E0
1.950200156E1,2.773999870E-1,1.997699976E0,3.752999902E-1
1.953200000E1,2.126999944E-1,2.414199829E0,-2.870000005E-1
1.955200000E1,3.752000034E-1,2.624599934E0,-2.915999889E-1
1.957200156E1,4.456999898E-1,2.635099888E0,-1.736999899E-1
1.960200000E1,3.883000016E-1,2.059700012E0,-2.172999978E-1
1.962200000E1,1.199999973E-1,6.629999727E-2,-5.888999701E-1
1.964200156E1,5.099999718E-3,-1.719799995E0,-1.807099938E0
1.967200000E1,4.403999746E-1,-1.031499982E0,-5.675999641E0
1.969200000E1,2.768800020E0,-2.658999920E0,-8.809800148E0
1.971200156E1,5.107199669E0,-4.320399761E0,-5.614099979E0
1.974200156E1,4.678199768E0,-2.290499926E0,-1.187199950E0
1.977200156E1,2.474599838E0,-2.744799852E0,-9.047499657E0
1.979200156E1,1.731999993E0,-4.378900051E0,-9.151999474E0
1.982200000E1,7.250999808E-1,-4.034599781E0,-2.597599983E0
1.984200000E1,9.639999866E-1,-4.908999920E0,2.112799883E0
1.986200156E1,5.446000099E-1,-6.581699848E0,3.407599926E0
1.989200000E1,-2.412499905E0,-7.606499672E0,3.374300003E0
1.991200000E1,-3.314999819E0,-4.857899666E0,3.327699900E0
1.993200156E1,-4.167200089E0,-2.884399891E0,2.734400034E0
1.996200000E1,-5.020599842E0,-2.938999832E-1,-3.448999822E-1
1.998200000E1,-4.038000107E0,1.046100020E0,1.504299998E0
2.000200156E1,-2.564999819E0,1.449000001E0,3.239899874E0
2.003200000E1,-1.009699941E0,3.235199928E0,3.748199940E0
2.005200000E1,-5.791999698E-1,4.436500072E0,5.853699684E0
2.007200000E1,1.509999949E-2,4.364399910E0,7.413599968E0
2.009200000E1,-5.886999965E-1,4.396500111E0,6.832900047E0
2.011200000E1,-1.276299953E0,4.295599937E0,6.126800060E0
2.013200000E1,-1.323699951E0,4.002599716E0,5.852200031E0
2.015200000E1,-1.436499953E0,3.706899881E0,5.673799992E0
2.017200000E1,-1.321599960E0,4.744999886E0,4.862699986E0
2.019200000E1,-7.834999561E-1,4.646599770E0,2.483700037E0
2.021200000E1,-6.144999862E-1,5.620999932E-1,-4.292500019E0
2.023200000E1,1.710399985E0,-6.324199677E0,-1.715769958E1
2.025200000E1,1.996899962E0,-9.939000130E0,-1.942070007E1
2.027200000E1,3.476499796E0,-4.610399723E0,-6.304899693E0
2.029200000E1,3.665499926E0,-4.943999946E-1,-3.063400030E0
2.031200156E1,3.004400015E0,7.426999807E-1,-1.216899991E0
2.034200000E1,-2.070899963E0,-4.406599998E0,3.468099833E0
2.036200156E1,-7.135799885E0,-5.448800087E0,1.190909958E1
2.039200000E1,-6.250400066E0,2.971299887E0,2.598399878E0
2.041200000E1,-2.812500000E0,4.638199806E0,6.477499962E0
2.043200156E1,-3.156800032E0,1.887499928E0,1.036520004E1
2.046200000E1,-3.376899958E0,-4.605999947E0,3.931199789E0
2.048200000E1,-1.849599957E0,-4.533199787E0,2.705799818E0
2.050200156E1,1.065199971E0,-2.549499989E0,-1.525799990E0
2.053200000E1,2.802000046E0,1.479599953E0,3.338299990E0
2.055200000E1,2.066699982E0,1.295199990E0,-1.434099913E0
2.057200156E1,7.863999605E-1,1.051599979E0,2.572000027E-1
2.060200000E1,1.934999973E-1,1.893899918E0,1.445000023E-1
2.062200000E1,-1.237999946E-1,2.481899977E0,-6.933999658E-1
2.064200156E1,1.955000013E-1,2.450799942E0,-1.009599924E0
2.067200000E1,3.544999957E-1,2.341699839E0,-2.134999931E-1
2.069200000E1,7.166999578E-1,2.352299929E0,5.433999896E-1
2.071200156E1,1.091599941E0,1.220999956E0,6.171999574E-1
2.074200000E1,1.425599933E0,-1.553599954E0,-4.986999929E-1
2.076200156E1,9.465000033E-1,-1.358299971E0,-2.017799854E0
2.078200156E1,3.380999863E-1,-1.822600007E0,-7.820600033E0
2.081200000E1,3.977199793E0,-3.950899839E0,-6.013599873E0
2.083200000E1,4.834799767E0,-3.754799843E0,-1.222999990E-1
2.085200000E1,4.767999649E0,-3.668399811E0,3.969999775E-2
2.087200000E1,4.927700043E0,-5.037499905E0,-4.263599873E0
2.089200000E1,4.116300106E0,-5.985199928E0,-8.459099770E0
2.091200156E1,1.148199916E0,-4.787600040E0,-5.160299778E0
2.093200156E1,-1.503199935E0,-3.096099854E0,-4.735799789E0
2.096200000E1,-1.520299911E0,-4.491300106E0,1.784099936E0
2.098200000E1,-2.487999916E0,-5.189099789E0,2.654399872E0
2.100200000E1,-4.122999668E0,-4.370199680E0,2.954900026E0
2.102200000E1,-5.148200035E0,-3.163399935E0,3.285099983E0
2.104200000E1,-7.246999741E0,-2.160500050E0,4.883999825E-1
2.106200000E1,-5.237299919E0,-1.447999954E0,1.327700019E0
2.108200156E1,-4.137099743E0,3.057000041E-1,2.096799850E0
2.111200000E1,-1.319700003E0,2.221499920E0,2.329999924E0
2.113200000E1,-5.216999650E-1,3.426499844E0,3.506799936E0
2.115200156E1,-1.032999977E-1,3.800400019E0,5.145099640E0
2.118200000E1,5.679999590E-1,3.119400024E0,6.602799892E0
2.120200000E1,1.535999924E-1,2.732199907E0,6.632099628E0
2.122200156E1,-8.122999668E-1,3.298899889E0,6.246299744E0
2.125200000E1,-1.014899969E0,4.677799702E0,5.957200050E0
2.127200000E1,-8.194999695E-1,5.316699982E0,5.675600052E0
2.129200156E1,-5.837000012E-1,5.466799736E0,4.936100006E0
2.132200000E1,-4.205999970E-1,1.766099930E0,-3.228999853E0
2.134200000E1,8.154000044E-1,-5.997699738E0,-1.916670036E1
2.136200000E1,2.808899879E0,-1.358419991E1,-2.579369926E1
2.138200000E1,1.967499971E0,-8.125399590E0,-2.949499846E0
2.140200000E1,2.142199993E0,-1.984899998E0,-2.317100048E0
2.142200000E1,2.223899841E0,4.437500000E0,-1.939399958E0
2.144200156E1,-1.568199992E0,4.013799667E0,-2.308500051E0
2.147200000E1,-5.901199818E0,-3.035499811E0,1.387069988E1
2.149200000E1,-8.703299522E0,-8.674399376E0,-1.190679932E1
2.151200156E1,-5.967700005E0,3.148999810E-1,9.253799438E0
2.154200000E1,-2.001299858E0,2.224099874E0,1.168249989E1
2.156200000E1,-2.387199879E0,-2.413899899E0,5.548699856E0
2.158200156E1,-2.143800020E0,-4.329199791E0,3.886099815E0
2.161200000E1,-4.299999774E-1,-2.800599813E0,2.553299904E0
2.163200000E1,9.029999971E-1,-6.823999882E-1,3.013099909E0
2.165200156E1,1.631799936E0,7.318999767E-1,1.509099960E0
2.168200000E1,3.306200027E0,1.626399994E0,-2.461199999E0
2.170200000E1,1.809199929E0,1.799999923E-2,-1.044099927E0
2.172200156E1,1.493299961E0,7.079999894E-2,-3.449999988E-1
2.175200156E1,3.580999970E-1,2.510599852E0,-1.416700006E0
2.178200156E1,4.677999914E-1,2.738499880E0,-1.125299931E0
2.181200000E1,7.251999974E-1,2.488100052E0,-4.889999703E-2
2.183200000E1,6.575999856E-1,1.237699986E0,3.926999867E-1
2.185200000E1,5.180000067E-1,-1.071200013E0,-2.498999983E-1
2.187200156E1,8.509999514E-1,-1.918099999E0,-1.743899941E0
2.190200000E1,2.080600023E0,-1.905299902E0,-8.105400085E0
2.192200000E1,4.547499657E0,-3.935899973E0,-1.035050011E1
2.194200000E1,5.135799885E0,-4.093199730E0,-3.371599913E0
2.196200000E1,4.935800076E0,-2.904999971E0,-5.881999731E-1
2.198200000E1,4.138799667E0,-3.369199991E0,-4.703299999E0
2.200200000E1,3.319199800E0,-5.363199711E0,-9.259200096E0
2.202200000E1,1.952899933E0,-4.107699871E0,-4.350299835E0
2.204200000E1,6.287999749E-1,-3.751999855E0,-1.169700027E0
2.206200000E1,5.667999983E-1,-5.507899761E0,2.639400005E0
2.208200000E1,-5.213999748E-1,-8.050000191E0,3.091099977E0
2.210200000E1,-2.707299948E0,-7.853399754E0,2.986999989E0
2.212200000E1,-3.781199932E0,-5.257999897E0,3.378299952E0
2.214200156E1,-4.951900005E0,-3.340899944E0,2.944700003E0
2.217200000E1,-6.023099899E0,-1.338000000E-1,3.668999970E-1
2.219200000E1,-3.969299793E0,1.231099963E0,1.569599986E0
2.221200156E1,-2.297299862E0,2.489099979E0,2.913899899E0
2.224200000E1,-1.824999899E-1,4.060499668E0,4.232199669E0
2.226200000E1,3.644999862E-1,4.460000038E0,5.783499718E0
2.228200156E1,7.459999919E-1,3.764099836E0,6.820499897E0
2.231200000E1,-1.034699917E0,3.299999952E0,6.517699718E0
2.233200000E1,-1.656999946E0,3.342799902E0,6.008399963E0
2.235200156E1,-1.811299920E0,3.866599798E0,6.259999752E0
2.237200156E1,-1.381199956E0,4.660799980E0,5.738699913E0
2.240200000E1,-7.902999520E-1,5.261899948E0,4.708300114E0
2.242200000E1,-5.080000162E-1,2.319299936E0,1.978500009E0
2.244200156E1,-9.900999665E-1,-2.908200026E0,-8.251799583E0
2.247200000E1,1.874599934E0,-1.499029922E1,-2.555489922E1
2.249200000E1,1.249999925E-2,-7.533499718E0,-4.289199829E0
2.251200156E1,-3.252999783E-1,8.037999868E-1,-4.486199856E0
2.253200156E1,-2.158200026E0,1.727199912E0,-6.359899998E0
2.256200000E1,-5.017999649E0,-3.862299919E0,1.374739933E1
2.258200000E1,-5.697999954E0,-4.296999872E-1,1.533430004E1
2.260200000E1,-2.941499949E0,4.685400009E0,8.462699890E0
2.262200000E1,-7.293999791E-1,4.045199871E0,5.867499828E0
2.264200156E1,-1.900499940E0,-2.616199970E0,5.164999962E0
2.267200000E1,-4.140999794E0,-7.625699997E0,6.125999928E0
2.269200000E1,-1.684799910E0,-5.518199921E0,6.964099884E0
2.271200156E1,1.893000007E-1,-2.150399923E0,7.492099762E0
2.274200000E1,3.469599962E0,2.414000034E0,-1.034369946E1
2.276200000E1,1.579699993E0,2.985399961E0,-6.836699963E0
2.278200156E1,1.416899920E0,-5.796999931E-1,1.945499897E0
2.280200156E1,8.983999491E-1,2.014999986E-1,1.467599988E0
2.283200000E1,4.070999920E-1,3.160099983E0,4.567999840E-1
2.285200156E1,3.843999803E-1,3.136299849E0,-4.616999924E-1
2.287200156E1,-1.420000009E-2,3.206699848E0,-7.380999923E-1
2.290200000E1,3.229999915E-2,2.594699860E0,-8.251000047E-1
2.292200000E1,2.696000040E-1,5.299000144E-1,-9.951999784E-1
2.294200156E1,6.525999904E-1,-9.709999561E-1,-1.108500004E0
2.297200000E1,1.073300004E0,-1.367900014E0,-2.484999895E0
2.299200000E1,2.108700037E0,-2.600699902E0,-6.534199715E0
2.301200156E1,4.383199692E0,-4.130099773E0,-7.824999809E0
2.304200000E1,5.009599686E0,-3.397499800E0,-8.709999919E-1
2.306200000E1,4.133199692E0,-2.325199842E0,-1.383999944E0
2.308200156E1,2.417299986E0,-3.458599806E0,-6.910999775E0
2.311200000E1,7.458999753E-1,-3.821399927E0,-7.257499695E0
2.313200000E1,3.319999948E-2,-3.230999947E0,-3.218799829E0
2.315200156E1,-5.920000076E-1,-3.026299953E0,-1.553599954E0
2.318200000E1,3.949999809E-2,-5.098299980E0,2.711599827E0
2.320200000E1,-1.903699994E0,-6.420399666E0,3.027899981E0
2.322200156E1,-3.429199934E0,-5.751800060E0,3.037499905E0
2.325200000E1,-5.672199726E0,-3.512399912E0,1.678999960E-1
2.327200000E1,-5.269799709E0,-1.617799997E0,5.500000119E-1
2.329200000E1,-4.401799679E0,5.730999708E-1,2.165999889E0
2.331200000E1,-3.305399895E0,1.556499958E0,2.673399925E0
2.333200000E1,-1.715499997E0,2.192699909E0,2.625299931E0
2.335200000E1,-1.158399940E0,3.440999985E0,3.151000023E0
2.337200156E1,-1.117399931E0,4.317599773E0,4.631700039E0
2.340200000E1,-3.686999977E-1,4.133399963E0,7.969899654E0
2.342200000E1,-4.298999906E-1,3.706799984E0,7.210299969E0
2.344200156E1,-9.657999873E-1,3.610800028E0,5.825799942E0
2.347200000E1,-1.303799987E0,3.518399954E0,6.158299923E0
2.349200000E1,-1.297500014E0,4.453799725E0,5.722199917E0
2.351200000E1,-1.197199941E0,4.734499931E0,4.703799725E0
2.353200000E1,-3.313999772E-1,1.726599932E0,-1.896999925E-1
2.355200000E1,1.587700009E0,-4.893899918E0,-1.406089973E1
2.357200156E1,2.004899979E0,-1.164549923E1,-2.664019966E1
2.360200000E1,7.275999784E-1,-5.527800083E0,-4.502399921E0
2.362200000E1,8.994999528E-1,1.159699917E0,-3.581099987E0
2.364200156E1,-1.525000036E-1,2.030999899E0,-1.401999950E0
2.367200000E1,-4.711299896E0,-2.512699842E0,9.983499527E0
2.369200156E1,-6.951399803E0,-6.064799786E0,2.017199993E0
2.371200156E1,-7.615499973E0,8.339999914E-1,2.046900034E0
2.373200469E1,-3.146299839E0,6.126100063E0,1.219829941E1
2.376200000E1,-3.056599855E0,4.162999988E-1,5.699899673E0
2.378200781E1,-2.908299923E0,-5.665899754E0,3.240599871E0
2.381200000E1,-1.103299975E0,-4.309099674E0,2.216099977E0
2.383200312E1,1.208999991E0,-1.150499940E0,6.265000105E-1
2.386200156E1,3.731799841E0,3.068599939E0,3.699100018E0
2.388200469E1,3.209499836E0,8.134999871E-1,-3.239300013E0
2.391200000E1,1.496099949E0,-8.305999637E-1,2.214999914E0
2.393200469E1,1.056800008E0,2.027299881E0,1.650399923E0
2.396200000E1,4.526000023E-1,2.584300041E0,-1.581699967E0
2.398200000E1,4.989999905E-2,2.854499817E0,-2.421599865E0
2.400200156E1,3.147999942E-1,2.262099981E0,-1.480799913E0
2.403200000E1,4.782999754E-1,1.711300015E0,-1.922999918E-1
2.405200000E1,-5.959999934E-2,2.568999827E-1,-2.219999880E-1
2.407200156E1,-3.483999968E-1,-8.036999702E-1,-1.962899923E0
2.409200156E1,-7.000000030E-2,-5.540999770E-1,-4.622299671E0
2.411200156E1,1.876399994E0,-2.335700035E0,-7.433799744E0
2.414200156E1,5.073800087E0,-4.089799881E0,-6.685699940E0
2.417200000E1,4.066599846E0,-2.817600012E0,-1.870199919E0
2.419200000E1,1.938099980E0,-3.939299822E0,-6.897899628E0
2.421200156E1,1.158100009E0,-5.278899670E0,-9.676400185E0
2.424200000E1,1.339100003E0,-4.679500103E0,-3.146499872E0
2.426200000E1,1.458799958E0,-4.963699818E0,2.379600048E0
2.428200156E1,6.069999933E-1,-6.288799763E0,3.621500015E0
2.430200156E1,-1.553099990E0,-7.614999771E0,3.223799944E0
2.433200000E1,-3.490599871E0,-5.346099854E0,2.895499945E0
2.435200156E1,-6.861799717E0,-3.890899897E0,-7.738999724E-1
2.437200156E1,-6.607899666E0,-2.303599834E0,7.892999649E-1
2.440200156E1,-4.599400043E0,5.722999573E-1,1.780099988E0
2.443200156E1,-1.759999990E0,2.124899864E0,2.862900019E0
2.446200000E1,-3.082999885E-1,3.972699881E0,6.594099998E0
2.448200000E1,6.107000113E-1,3.727799892E0,8.139200211E0
2.450200156E1,-1.217999980E-1,3.575699806E0,6.793200016E0
2.453200000E1,-1.389400005E0,4.191100121E0,6.969099998E0
2.455200000E1,-1.538199902E0,4.690599918E0,7.172099590E0
2.457200156E1,-1.359200001E0,5.634299755E0,6.576200008E0
2.460200000E1,-9.808999896E-1,6.762499809E0,5.693199635E0
2.462200000E1,-4.786999822E-1,5.094599724E0,3.585500002E0
2.464200156E1,-2.469999902E-2,-2.582099915E0,-5.793200016E0
2.467200000E1,3.265100002E0,-1.498559952E1,-2.716559982E1
2.469200000E1,4.351399899E0,-7.628499985E0,-4.499700069E0
2.471200156E1,2.895900011E0,-9.559999406E-2,-2.521999836E0
2.473200156E1,-3.833999932E-1,1.819599986E0,-4.027899742E0
2.476200000E1,-6.713899612E0,-1.909599900E0,9.244999886E0
2.478200156E1,-1.068289948E1,-6.879999638E0,5.679100037E0
2.480200156E1,-8.489399910E0,-6.341999769E-1,8.290100098E0
2.483200000E1,-2.661599874E0,2.571399927E0,7.537299633E0
2.485200000E1,-2.306099892E0,-2.038800001E0,6.176899910E0
2.487200000E1,-3.061399937E0,-4.007800102E0,5.803799629E0
2.489200156E1,-2.675799847E0,-4.147099972E0,5.936800003E0
2.492200000E1,1.557999998E-1,-2.411399841E0,4.646299839E0
2.494200156E1,1.340999961E0,-9.869999439E-2,1.952399969E0
2.497200000E1,3.040199995E0,2.962800026E0,-4.048699856E0
2.499200156E1,1.717899919E0,4.669999778E-1,-1.059999943E0
2.501200156E1,1.621599913E0,1.650999933E-1,-2.766000032E-1
2.503200156E1,9.183999896E-1,2.502300024E0,-1.508700013E0
2.506200000E1,5.637999773E-1,3.141499996E0,-1.452099919E0
2.508200156E1,1.156199932E0,2.849599838E0,2.317999899E-1
2.511200000E1,1.084800005E0,2.057600021E0,4.572999775E-1
2.513200000E1,4.743999839E-1,-2.799999900E-2,-5.539999604E-1
2.515200156E1,-1.289999932E-1,-1.089200020E0,-1.917799950E0
2.518200000E1,3.303999901E-1,-9.164999723E-1,-4.894299984E0
2.520200000E1,2.353399992E0,-2.794199944E0,-9.302299500E0
2.522200000E1,4.938099861E0,-4.645699978E0,-5.225499630E0
2.524200000E1,5.082399845E0,-4.150899887E0,-3.626999855E-1
2.526200000E1,4.339299679E0,-3.358299971E0,-2.412499905E0
2.528200156E1,3.454900026E0,-5.437399864E0,-8.331199646E0
2.530200156E1,2.559000015E0,-5.290199757E0,-6.250699997E0
2.533200000E1,3.405999839E-1,-3.740399837E0,-1.705699921E0
2.535200000E1,-1.112800002E0,-4.470699787E0,9.052000046E-1
2.537200156E1,-2.137300014E0,-6.632699966E0,2.122299910E0
2.539200156E1,-3.818499804E0,-6.550899982E0,2.752399921E0
2.542200000E1,-6.358699799E0,-3.358999968E0,2.533799887E0
2.544200156E1,-7.962399960E0,-1.052099943E0,3.811999857E-1
2.547200000E1,-4.240499973E0,7.874999642E-1,1.441399932E0
2.549200000E1,-2.507599831E0,1.479200006E0,1.603999972E0
2.551200156E1,-6.437000036E-1,2.015899897E0,3.187799931E0
2.554200000E1,-2.469999939E-1,3.628999949E0,5.438099861E0
2.556200000E1,2.054999918E-1,3.435299873E0,6.830899715E0
2.558200156E1,2.075999975E-1,2.664399862E0,6.384999752E0
2.561200000E1,-1.546399951E0,3.082099915E0,6.459099770E0
2.563200000E1,-1.845600009E0,3.852399826E0,6.678299904E0
2.565200156E1,-1.280900002E0,4.395899773E0,6.096499920E0
2.567200156E1,-7.831999660E-1,5.167799950E0,5.086899757E0
2.569200156E1,-6.335999966E-1,5.549099922E0,4.072599888E0
2.571200156E1,-1.079999935E-2,3.503799915E0,6.699999571E-1
2.573200156E1,-1.960999966E-1,-2.365499973E0,-9.576499939E0
2.576200156E1,2.323699951E0,-1.398419952E1,-2.553129959E1
2.578200156E1,1.778199911E0,-8.632999420E0,-4.163099766E0
2.581200156E1,3.964999914E-1,1.422999948E-1,-2.403899908E0
2.583200156E1,-5.505399704E0,1.422999948E-1,-4.080899715E0
2.586200156E1,-9.118399620E0,-2.960999966E0,9.996399879E0
2.589200000E1,-5.112099648E0,4.617300034E0,1.008139992E1
2.591200000E1,-1.982699990E0,4.819200039E0,8.204799652E0
2.593200156E1,-2.108899832E0,-1.511500001E0,5.767799854E0
2.596200000E1,-2.645900011E0,-6.829599857E0,4.878699780E0
2.598200000E1,-1.182500005E0,-4.544699669E0,4.806499958E0
2.600200156E1,7.461000085E-1,-1.627900004E0,4.655200005E0
2.603200000E1,4.404900074E0,3.577799797E0,-4.932699680E0
2.605200000E1,3.138799906E0,2.931900024E0,-1.226499915E0
2.607200156E1,1.164999962E0,-3.680000082E-2,2.601000071E-1
2.609200156E1,7.085999846E-1,-2.402999997E-1,4.563999772E-1
2.611200156E1,-2.319999970E-2,1.852699995E0,-6.169999763E-2
2.614200156E1,-9.999999747E-5,2.627899885E0,3.258000016E-1
2.617200000E1,-2.723000050E-1,2.530799866E0,4.490000010E-2
2.619200000E1,-6.015999913E-1,2.079799891E0,-7.660999894E-1
2.621200156E1,-3.351999819E-1,8.852999806E-1,-1.837099910E0
2.624200000E1,8.544999957E-1,-1.317899942E0,-1.596899986E0
2.626200000E1,1.657199979E0,-1.125599980E0,-2.220499992E0
2.628200000E1,2.736899853E0,-1.839899898E0,-4.963999748E0
2.630200156E1,4.233200073E0,-3.454399824E0,-8.387199402E0
2.633200000E1,5.010999680E0,-3.512099981E0,-2.531999826E0
2.635200000E1,4.297299862E0,-2.840600014E0,-1.991499901E0
2.637200156E1,3.213500023E0,-4.325099945E0,-8.482199669E0
2.640200000E1,3.027599812E0,-4.559999943E0,-5.734299660E0
2.642200000E1,2.362499952E0,-3.712899923E0,-2.282299995E0
2.644200156E1,5.737000108E-1,-3.747999907E0,-3.014000058E-1
2.647200000E1,-3.308999836E-1,-7.106999874E0,3.145900011E0
2.649200000E1,-2.869299889E0,-7.418799877E0,2.989499807E0
2.651200156E1,-4.113999844E0,-5.231100082E0,3.046000004E0
2.654200000E1,-7.330599785E0,-2.835000038E0,-1.116999984E-1
2.656200000E1,-7.715899944E0,-1.235800028E0,1.590999961E-1
2.658200156E1,-5.855700016E0,2.012999952E-1,1.564099908E0
2.661200000E1,-2.958199978E0,1.822899938E0,2.441599846E0
2.663200000E1,-1.553399920E0,3.413999796E0,3.409600019E0
2.665200156E1,-1.072799921E0,4.247600079E0,6.257699966E0
2.668200000E1,-2.031999975E-1,3.208699942E0,6.731400013E0
2.670200156E1,-1.550999999E0,3.329200029E0,6.099599838E0
2.672200156E1,-2.187700033E0,3.837199926E0,6.407799721E0
2.674200156E1,-2.230700016E0,4.580399990E0,6.538499832E0
2.677200000E1,-1.585899949E0,6.309999943E0,5.967400074E0
2.679200156E1,-1.228099942E0,6.930199623E0,5.710700035E0
2.682200000E1,1.885000020E-1,1.260100007E0,-1.748899937E0
2.684200000E1,2.770799875E0,-8.176899910E0,-1.991629982E1
2.686200156E1,2.903899908E0,-1.447550011E1,-2.408839989E1
2.689200000E1,1.564799905E0,-4.113800049E0,-1.214699984E0
2.691200000E1,1.040999964E-1,5.880999565E-1,-3.854799986E0
2.693200156E1,-3.417699814E0,-1.577099919E0,-4.943900108E0
2.696200000E1,-6.092899799E0,-2.649799824E0,1.272609997E1
2.698200000E1,-6.904099941E0,1.064000010E0,6.701900005E0
2.700200156E1,-4.413000107E0,6.063600063E0,5.007899761E0
2.703200000E1,-3.124500036E0,-7.698000073E-1,7.365499973E0
2.705200000E1,-3.470199823E0,-6.672100067E0,5.148699760E0
2.707200156E1,-2.388000011E0,-5.543399811E0,4.389499664E0
2.710200000E1,1.014999986E0,-2.194299936E0,1.156899929E0
2.712200000E1,2.254099846E0,1.410000026E-1,-2.667999864E-1
2.714200156E1,2.987799883E0,2.662899971E0,2.972299814E0
2.716200156E1,1.379400015E0,9.508000016E-1,-1.571099997E0
2.719200000E1,8.718999624E-1,-4.619999975E-2,1.162400007E0
2.721200156E1,3.782999814E-1,2.308799982E0,3.032000065E-1
2.723200156E1,6.359999627E-2,3.190599918E0,-1.717199922E0
2.726200000E1,4.742999971E-1,2.448699951E0,-1.765100002E0
2.728200000E1,5.379999876E-1,2.194900036E0,-9.457999468E-1
2.730200156E1,5.963999629E-1,1.925199986E0,3.839999810E-2
2.733200156E1,2.626999915E-1,4.865999818E-1,2.189999968E-1
2.736200000E1,8.419999480E-2,-1.454999924E0,-2.000200033E0
2.738200000E1,-7.329999655E-2,-2.032399893E0,-4.923899651E0
2.740200000E1,1.549199939E0,-2.634399891E0,-1.029500008E1
2.742200000E1,4.327300072E0,-3.640199900E0,-6.146399975E0
2.744200156E1,4.725999832E0,-3.260200024E0,-5.855000019E-1
2.747200000E1,4.085400105E0,-2.911599874E0,-3.358599901E0
2.749200000E1,4.308700085E0,-5.560299873E0,-1.084929943E1
2.751200156E1,3.313400030E0,-5.200099945E0,-5.584099770E0
2.754200000E1,1.081999987E-1,-2.929999828E0,-3.212499857E0
2.756200000E1,-7.635999918E-1,-3.527400017E0,7.429999858E-2
2.758200156E1,-1.194499969E0,-5.364599705E0,2.146199942E0
2.761200000E1,-3.537099838E0,-5.339399815E0,2.341899872E0
2.763200000E1,-4.370500088E0,-3.937500000E0,2.246700048E0
2.765200156E1,-5.295899868E0,-3.277299881E0,-1.963000000E-1
2.768200000E1,-4.482199669E0,-6.220999956E-1,1.255499959E0
2.770200156E1,-3.917999983E0,9.167999625E-1,2.775899887E0
2.772200156E1,-2.409899950E0,1.675199986E0,1.482299924E0
2.775200000E1,-1.177600026E0,3.500900030E0,4.242399693E0
2.777200000E1,-8.080999851E-1,4.159599781E0,6.321199894E0
2.779200156E1,-1.334999949E-1,3.599999905E0,6.801899910E0
2.781200156E1,-8.569999933E-1,3.335799932E0,5.317499638E0
2.783200156E1,-1.637199998E0,3.315999985E0,5.449100018E0
2.786200156E1,-1.891399980E0,3.962299824E0,6.114599705E0
2.789200000E1,-1.355700016E0,5.807600021E0,5.405299664E0
2.791200000E1,-8.032999635E-1,6.620399952E0,4.788099766E0
2.793200156E1,3.129000068E-1,4.107100010E0,1.252900004E0
2.796200156E1,3.073799849E0,-9.008600235E0,-2.351109886E1
2.798200156E1,2.778499842E0,-1.472009945E1,-1.745319939E1
2.800200156E1,1.847999990E-1,-6.361199856E0,-3.448999882E0
2.803200000E1,-1.931099892E0,-4.377999902E-1,-6.214200020E0
2.805200000E1,-5.559099674E0,-5.235799789E0,-7.597099781E0
2.807200156E1,-6.541599751E0,-4.216599941E0,1.189199924E1
2.810200000E1,-5.210599899E0,5.201099873E0,9.173099518E0
2.812200000E1,-2.935299873E0,8.615099907E0,5.337199688E0
2.814200156E1,-2.406599998E0,5.962599754E0,7.633800030E0
2.816200156E1,-4.810699940E0,-4.818900108E0,5.688999653E0
2.819200000E1,-2.832299948E0,-1.013070011E1,4.902800083E0
2.821200625E1,-1.545699954E0,-4.301799774E0,4.578700066E0
2.824200156E1,3.639199972E0,1.370499969E0,-3.446799994E0
2.826200469E1,3.772699833E0,3.403199911E0,-3.620499849E0
2.829200156E1,1.406700015E0,-1.615999937E-1,1.187299967E0
2.831200625E1,1.169199944E0,6.380999684E-1,8.643999696E-1
2.834200000E1,6.589999795E-1,3.221699953E0,-1.155499935E0
2.836200156E1,8.417999744E-1,2.834300041E0,-9.325999618E-1
2.839200000E1,6.639999747E-1,3.264400005E0,-6.699999571E-1
2.841200000E1,3.702999949E-1,3.056399822E0,-4.808999896E-1
2.843200156E1,-3.039999865E-2,5.360000134E-1,-1.096400023E0
2.846200000E1,1.472000033E-1,-1.745599985E0,-2.723399878E0
2.848200000E1,7.924000025E-1,-9.524999857E-1,-3.888799906E0
2.850200156E1,2.137500048E0,-2.734599829E0,-6.057999611E0
2.853200000E1,5.093199730E0,-4.820300102E0,-4.625999928E0
2.855200469E1,5.343100071E0,-3.892599821E0,-2.154599905E0
2.858200156E1,3.817600012E0,-5.029299736E0,-6.894499779E0
2.861200000E1,2.652999878E0,-5.141099930E0,-4.675299644E0
2.863200000E1,1.449100018E0,-4.103499889E0,-3.155200005E0
2.865200156E1,-7.691999674E-1,-3.350699902E0,-3.276899815E0
2.868200000E1,-1.634099960E0,-5.560400009E0,2.029199839E0
2.870200000E1,-2.745699883E0,-5.532999992E0,2.560299873E0
2.872200156E1,-3.771499872E0,-3.823400021E0,2.658099890E0
2.875200000E1,-6.151199818E0,-2.507099867E0,2.211999893E-1
2.877200000E1,-4.394599915E0,-1.129400015E0,8.658999801E-1
2.879200000E1,-3.201200008E0,9.120000005E-1,1.402300000E0
2.881200000E1,-1.537999988E0,1.375699997E0,3.057499886E0
2.883200000E1,-4.046999812E-1,2.352900028E0,2.858299971E0
2.885200000E1,2.666999996E-1,3.062299967E0,4.730899811E0
2.887200000E1,1.024500012E0,2.723999977E0,6.264499664E0
2.889200000E1,4.009999931E-1,2.513799906E0,5.739799976E0
2.891200156E1,-1.304000020E0,3.056599855E0,6.080599785E0
2.893200156E1,-2.164499998E0,3.906999826E0,6.244199753E0
2.896200000E1,-2.345299959E0,4.575900078E0,5.684799671E0
2.898200000E1,-2.199599981E0,5.756399632E0,5.191099644E0
2.900200156E1,-1.820199966E0,6.784599781E0,4.282999992E0
2.903200000E1,-6.252999902E-1,4.212599754E0,-9.640000015E-2
2.905200000E1,1.369899988E0,-4.625599861E0,-1.045419979E1
2.907200156E1,4.556999683E0,-1.373579979E1,-2.931919861E1
2.910200000E1,2.684000015E0,-6.845099926E0,-4.933599949E0
2.912200000E1,1.049600005E0,-6.529999524E-2,-4.170899868E0
2.914200156E1,-2.414999962E0,-4.271999896E-1,-5.441400051E0
2.917200000E1,-6.659399986E0,-3.871399879E0,1.470449924E1
2.919200156E1,-7.768199921E0,-1.570699930E0,9.926699638E0
2.922200156E1,-4.269000053E0,5.437299728E0,5.430200100E0
2.925200156E1,-3.362200022E0,-2.056400061E0,6.173500061E0
2.928200156E1,-3.404199839E0,-6.695299625E0,5.782499790E0
2.930200156E1,-1.623799920E0,-3.949100018E0,5.428599834E0
2.933200000E1,2.551899910E0,7.655999660E-1,-2.426199913E0
2.935200000E1,3.522499800E0,3.222399950E0,-6.783299923E0
2.937200156E1,1.387099981E0,1.130200028E0,-4.686999917E-1
2.940200000E1,7.233999968E-1,1.290499926E0,3.016999960E-1
2.942200000E1,3.923999965E-1,3.283099890E0,1.709999889E-1
2.944200156E1,4.397999942E-1,3.586699963E0,1.694999933E-1
2.947200156E1,-9.089999646E-2,3.084300041E0,3.030000031E-1
2.950200156E1,-2.298999876E-1,9.307000041E-1,-2.487400055E0
2.953200000E1,-9.209999442E-2,-3.446999788E-1,-2.975999832E0
2.955200000E1,8.020000160E-2,-7.804999948E-1,-1.653599977E0
2.957200156E1,5.184000134E-1,-8.014999628E-1,-2.262300014E0
2.960200000E1,2.956699848E0,-2.908999920E0,-4.780200005E0
2.962200000E1,4.889699936E0,-4.463399887E0,-5.112400055E0
2.964200156E1,5.063299656E0,-3.725399971E0,-4.039499760E0
2.966200156E1,3.233399868E0,-3.232499838E0,-4.601399899E0
2.969200000E1,1.387599945E0,-4.804199696E0,-6.998899937E0
2.971200000E1,1.602899909E0,-4.508100033E0,-5.325200081E0
2.973200156E1,1.010499954E0,-3.438499928E0,-4.133199692E0
2.976200156E1,-5.123999715E-1,-4.031599998E0,-8.399999887E-2
2.979200156E1,-1.251699924E0,-6.021899700E0,2.793599844E0
2.982200000E1,-3.107199907E0,-4.247699738E0,2.677000046E0
2.984200000E1,-4.591799736E0,-2.978199959E0,1.319999933E0
2.986200156E1,-5.740699768E0,-2.852399826E0,-3.321000040E-1
2.989200000E1,-4.817299843E0,-2.796999812E-1,1.936899900E0
2.991200156E1,-3.017699957E0,7.272999883E-1,1.967700005E0
2.993200156E1,-1.977999926E0,2.478999853E0,2.398099899E0
2.996200000E1,-8.506999612E-1,4.215300083E0,6.150300026E0
2.998200000E1,-7.459999621E-2,4.112499714E0,7.319599628E0
3.000200156E1,-2.149000019E-1,3.652299881E0,6.014100075E0
3.003200000E1,-9.235999584E-1,3.372099876E0,6.248099804E0
3.005200000E1,-1.103600025E0,3.649899960E0,6.193099976E0
3.007200156E1,-1.311999917E0,4.928299904E0,6.304499626E0
3.009200156E1,-1.428799987E0,6.013799667E0,6.081299782E0
3.012200000E1,-1.858299971E0,5.251299858E0,1.607399940E0
3.014200156E1,-1.406799912E0,-1.972999930E0,-1.032269955E1
3.017200000E1,2.897799969E0,-1.629640007E1,-2.324129868E1
3.019200000E1,2.140699863E0,-7.138499737E0,-2.939800024E0
3.021200000E1,1.481899977E0,2.135299921E0,-3.339099884E0
3.023200000E1,-1.598899961E0,4.540800095E0,-3.243999958E0
3.025200000E1,-5.409100056E0,-1.397400022E0,7.039999962E-1
3.027200000E1,-6.507499695E0,-6.360399723E0,1.257979965E1
3.029200000E1,-6.520999908E0,-4.351900101E0,6.835799694E0
3.031200000E1,-3.568199873E0,2.905799866E0,7.080899715E0
3.033200000E1,-1.884599924E0,1.966699958E0,6.053400040E0
3.035200000E1,-2.340699911E0,-2.376399994E0,5.802099705E0
3.037200000E1,-2.858299971E0,-4.850999832E0,5.885299683E0
3.039200000E1,-1.302099943E0,-4.263499737E0,6.041100025E0
3.041200000E1,3.588999987E0,-2.239699841E0,-4.611700058E0
3.043200156E1,2.466699839E0,1.462000012E0,-1.862100005E0
3.046200000E1,2.563999891E-1,2.195499897E0,-2.105999887E-1
3.048200000E1,-7.448999882E-1,1.484599948E0,-1.156099916E0
3.050200156E1,-8.341999650E-1,2.394599915E0,-1.152999997E0
3.053200156E1,-2.100999951E-1,3.539999962E0,9.223999977E-1
3.056200000E1,-4.073999822E-1,3.659399986E0,1.699199915E0
3.058200156E1,-3.219999969E-1,2.238999844E0,-2.052000016E-1
3.061200000E1,7.462999821E-1,-3.334999979E-1,-3.388299942E0
3.063200000E1,8.140999675E-1,-1.491799951E0,-3.675099850E0
3.065200156E1,7.060999870E-1,-1.463799953E0,-3.342499971E0
3.068200000E1,1.465199947E0,-2.394299984E0,-4.754199982E0
3.070200000E1,2.990799904E0,-3.430099964E0,-5.825399876E0
3.072200156E1,4.217599869E0,-3.555499792E0,-3.907199860E0
3.075200000E1,3.747999907E0,-2.450599909E0,-2.798699856E0
3.077200000E1,3.535499811E0,-3.849599838E0,-7.323599815E0
3.079200156E1,4.150099754E0,-5.196599960E0,-7.414999962E0
3.082200000E1,2.680099964E0,-4.484399796E0,-1.568300009E0
3.084200000E1,-1.448999941E-1,-4.569600105E0,-2.299499989E0
3.086200156E1,-1.245800018E0,-5.740399837E0,4.682999849E-1
3.089200000E1,-2.598099947E0,-6.027199745E0,2.829200029E0
3.091200000E1,-4.402499676E0,-4.061899662E0,2.964599848E0
3.093200156E1,-6.008399963E0,-2.941399813E0,3.925999999E-1
3.096200000E1,-4.681600094E0,-1.662999988E0,3.635999858E-1
3.098200000E1,-3.914299965E0,8.819999546E-2,1.910299897E0
3.100200156E1,-1.760899901E0,1.136399984E0,2.337499857E0
3.103200156E1,-4.549999833E-1,3.385999918E0,3.765100002E0
3.106200000E1,1.137999967E-1,3.918999910E0,8.361399651E0
3.108200156E1,3.033999801E-1,3.336999893E0,6.480199814E0
3.111200000E1,-1.220999956E0,3.470700026E0,6.531300068E0
3.113200000E1,-1.314599991E0,3.640799999E0,6.773200035E0
3.115200156E1,-1.427999973E0,4.495999813E0,6.424299717E0
3.118200000E1,-1.363699913E0,6.109499931E0,4.387399673E0
3.120200000E1,-1.854900002E0,6.435499668E0,2.226399899E0
3.122200156E1,-1.625699997E0,3.777799845E0,-1.176900029E0
3.125200000E1,5.252999663E-1,-9.512499809E0,-2.311139870E1
3.127200000E1,1.345999956E0,-1.594699955E1,-1.703009987E1
3.129200156E1,2.176899910E0,-4.532999992E0,-5.201600075E0
3.132200000E1,2.672600031E0,6.010299683E0,-2.987900019E0
3.134200000E1,-4.240999818E-1,3.645999908E0,1.745999932E0
3.136200156E1,-4.990799904E0,-1.139299989E0,1.388910007E1
3.139200000E1,-9.076899529E0,-8.401100159E0,2.570999861E-1
3.141200000E1,-5.302099705E0,-3.308999836E-1,1.090439987E1
3.143200000E1,-2.834699869E0,1.253700018E0,1.108189964E1
3.145200000E1,-3.079900026E0,-2.418099880E0,6.657399654E0
3.147200000E1,-3.564599991E0,-4.620999813E0,5.377999783E0
3.149200000E1,-2.867499828E0,-5.164400101E0,4.046599865E0
3.151200156E1,-8.200999498E-1,-3.456499815E0,3.893800020E0
3.154200000E1,9.947999716E-1,5.726000071E-1,2.073499918E0
3.156200000E1,2.076499939E0,4.607800007E0,-4.335499763E0
3.158200156E1,6.459000111E-1,2.332000017E0,-3.333099842E0
3.161200625E1,9.932999611E-1,6.753000021E-1,-1.555599928E0
3.164200156E1,4.165000021E-1,3.637099981E0,-1.366199970E0
3.166200156E1,5.460999608E-1,4.019799709E0,-6.451999545E-1
3.169200000E1,1.014099956E0,3.914499998E0,4.465999901E-1
3.171200781E1,1.179399967E0,4.892999828E-1,-4.320999980E-1
3.174200000E1,1.743399978E0,-2.518699884E0,-3.591799974E0
3.176200156E1,1.627900004E0,-1.492900014E0,-6.019000053E0
3.179200156E1,3.263499975E0,-2.864399910E0,-6.673599720E0
3.181200469E1,4.652999878E0,-3.878999949E0,-1.769299984E0
3.184200000E1,4.577300072E0,-3.597199917E0,-3.960699797E0
3.186200312E1,2.153399944E0,-5.083299637E0,-1.169929981E1
3.189200000E1,-2.144999951E-1,-4.438799858E0,-6.913499832E0
3.191200313E1,-9.567999840E-1,-2.926599979E0,-5.139499664E0
3.194200156E1,1.473199964E0,-4.714399815E0,4.005000114E0
3.196200313E1,3.623999953E-1,-7.479599953E0,4.018599987E0
3.199200000E1,-2.165999889E0,-8.684999466E0,3.554899931E0
3.201200156E1,-4.200999737E0,-6.475399971E0,2.012599945E0
3.203200156E1,-4.662899971E0,-4.214499950E0,-1.646299958E0
3.205200469E1,-3.425899982E0,-1.330799937E0,1.217999935E0
3.208200156E1,-3.075399876E0,1.732499957E0,4.117599964E0
3.210200625E1,-2.049700022E0,2.119299889E0,3.351099968E0
3.213200000E1,-5.979999900E-1,3.684199810E0,4.537499905E0
3.215200000E1,5.576999784E-1,4.145299911E0,6.704899788E0
3.217200156E1,1.052500010E0,3.790599823E0,7.430599689E0
3.219200156E1,-2.478999943E-1,4.032799721E0,7.288699627E0
3.222200156E1,-1.614300013E0,4.200599670E0,7.356999874E0
3.224200469E1,-2.277099848E0,4.633399963E0,7.402599812E0
3.227200000E1,-2.829099894E0,6.659499645E0,5.658899784E0
3.229200312E1,-2.547499895E0,7.335299969E0,4.118700027E0
3.232200000E1,-2.977799892E0,2.403499842E0,-2.023099899E0
3.234200469E1,-4.239999875E-2,-9.523900032E0,-2.041469955E1
3.237200156E1,-1.056299925E0,-1.325969982E1,-8.951299667E0
3.239200469E1,2.245599985E0,-3.355700016E0,-7.126999855E0
3.242200000E1,2.786299944E0,3.481799841E0,-3.610099792E0
3.244200156E1,5.124999881E-1,-1.579599977E0,-4.215099812E0
3.247200000E1,-6.026399612E0,-5.341599941E0,1.162039948E1
3.249200156E1,-6.508199692E0,-1.524099946E0,7.422799587E0
3.251200156E1,-6.539599895E0,4.883299828E0,1.762599945E0
3.253200156E1,-4.678199768E0,3.089299917E0,1.024639988E1
3.256200000E1,-5.294099808E0,-5.517299652E0,4.880599976E0
3.258200625E1,-3.451699972E0,-5.518799782E0,3.464599848E0
3.261200000E1,7.437999845E-1,-1.346799970E0,-3.522000015E-1
3.263200313E1,1.153100014E0,1.162199974E0,8.213099480E0
3.266200156E1,3.708999872E0,4.183000028E-1,-4.152999878E0
3.269200000E1,1.543200016E0,-2.902999818E-1,1.096499920E0
3.271200000E1,5.557000041E-1,1.992499948E0,-3.255999982E-1
3.273200469E1,-2.319999970E-2,3.700399876E0,-2.962100029E0
3.276200156E1,-2.771999836E-1,3.236199856E0,-3.086599827E0
3.278200625E1,-2.499999851E-2,2.514299870E0,-1.157500029E0
3.281200000E1,4.215999842E-1,1.519599915E0,6.347000003E-1
3.283200938E1,2.891999781E-1,1.745999902E-1,9.817000031E-1
3.286200156E1,4.776999950E-1,-1.077600002E0,-2.215499878E0
3.288200156E1,1.393599987E0,-1.160200000E0,-5.864999771E0
3.291200000E1,4.869299889E0,-3.996899843E0,-9.232799530E0
3.293200938E1,5.062399864E0,-3.998899937E0,-2.924799919E0
3.296200000E1,3.139699936E0,-1.952499986E0,-4.091000080E0
3.298200000E1,1.504799962E0,-3.284299850E0,-1.158220005E1
3.300200156E1,1.320500016E0,-5.180399895E0,-8.501999855E0
3.302200156E1,1.230499983E0,-4.572499752E0,-2.927899837E0
3.305200000E1,2.337800026E0,-6.008199692E0,4.375099659E0
3.307200156E1,1.003899932E0,-7.684899807E0,4.067800045E0
3.309200156E1,-1.202199936E0,-8.382900238E0,3.172699928E0
3.311200156E1,-3.115700006E0,-6.636099815E0,2.908099890E0
3.314200000E1,-8.064899445E0,-3.594799995E0,-1.985199928E0
3.316200000E1,-6.557399750E0,-1.440099955E0,5.066999793E-1
3.318200000E1,-4.768599987E0,6.391999722E-1,1.758199930E0
3.320200000E1,-2.724599838E0,1.620700002E0,3.120899916E0
3.322200156E1,-1.523399949E0,3.100699902E0,3.145999908E0
3.325200000E1,-2.881000042E-1,4.654500008E0,6.982599735E0
3.327200000E1,-4.510999918E-1,4.463799953E0,8.118100166E0
3.329200000E1,-1.367599964E0,4.311800003E0,7.129199982E0
3.331200000E1,-1.770499945E0,4.363599777E0,6.427199841E0
3.333200000E1,-1.748699903E0,4.354099751E0,7.572899818E0
3.335200000E1,-1.550099969E0,4.836800098E0,6.607899666E0
3.337200156E1,-1.201399922E0,5.973999977E0,5.776199818E0
3.339200156E1,-8.129999638E-1,6.672800064E0,4.855599880E0
3.342200000E1,-7.785999775E-1,7.143999934E-1,-4.096399784E0
3.344200156E1,1.415999979E-1,-8.442799568E0,-2.927279854E1
3.347200000E1,1.115999937E0,-1.045170021E1,-3.263999939E0
3.349200000E1,-4.131000042E-1,-2.608000040E0,-3.844899893E0
3.351200000E1,-1.997799993E0,5.106800079E0,-6.082999706E0
3.353200000E1,-7.427299976E0,2.874099970E0,-5.645999908E0
3.355200000E1,-6.318899632E0,-1.608999968E0,1.707410049E1
3.357200156E1,-9.239999771E0,-5.721699715E0,3.995899916E0
3.359200156E1,-4.250699997E0,-1.834999919E0,7.703099728E0
3.362200000E1,-1.497200012E0,-3.563999891E0,6.415199757E0
3.364200000E1,-1.184399962E0,-3.216599941E0,6.694099903E0
3.366200156E1,-5.231999755E-1,-2.980399847E0,6.670699596E0
3.369200156E1,1.202199936E0,-2.813599825E0,5.732800007E0
3.372200156E1,1.853399992E0,-5.217999816E-1,3.580899954E0
3.375200000E1,1.281799912E0,3.491199970E0,-3.642099857E0
3.377200000E1,7.989999652E-2,2.184700012E0,-3.049499989E0
3.379200156E1,9.052000046E-1,7.069999725E-2,-1.017400026E0
3.382200000E1,4.722999930E-1,2.623999834E0,-1.759199977E0
3.384200000E1,6.423000097E-1,3.214799881E0,-1.339699984E0
3.386200000E1,1.229599953E0,3.034799814E0,7.799999788E-3
3.388200000E1,1.106099963E0,2.857100010E0,5.460999608E-1
3.390200000E1,7.091000080E-1,1.090499997E0,9.734999537E-1
3.392200000E1,2.685999870E-1,-6.595000029E-1,-1.435699940E0
3.394200156E1,3.469999880E-2,-1.063899994E0,-3.360399961E0
3.397200000E1,1.696699977E0,-3.136799812E0,-6.451099873E0
3.399200000E1,3.729599953E0,-4.695600033E0,-7.110199928E0
3.401200000E1,4.311199665E0,-3.732800007E0,-3.558599949E0
3.403200000E1,3.491400003E0,-2.214699984E0,-2.327600002E0
3.405200000E1,2.827199936E0,-3.044999838E0,-6.638700008E0
3.407200156E1,3.537299871E0,-5.355899811E0,-8.693300247E0
3.410200000E1,3.051199913E0,-4.131499767E0,-3.154099941E0
3.412200000E1,2.304299831E0,-4.292099953E0,1.400900006E0
3.414200000E1,1.184499979E0,-5.034299850E0,2.289700031E0
3.416200000E1,-1.004999951E-1,-5.916199684E0,2.070999861E0
3.418200000E1,-1.427999973E0,-5.592499733E0,2.446599960E0
3.420200000E1,-2.457999945E0,-4.567599773E0,2.495300055E0
3.422200156E1,-3.131399870E0,-3.698199987E0,2.887199879E0
3.425200000E1,-4.264299870E0,-1.970699906E0,1.878099918E0
3.427200000E1,-3.213299990E0,1.130599976E0,1.730099916E0
3.429200156E1,-2.594899893E0,3.202899933E0,2.321099997E0
3.431200156E1,-1.418900013E0,3.888099909E0,4.272699833E0
3.434200000E1,-4.481000006E-1,4.542799950E0,5.585299969E0
3.436200156E1,-7.626999617E-1,4.329599857E0,7.039000034E0
3.439200000E1,-1.529500008E0,3.243099928E0,6.827199936E0
3.441200156E1,-1.745999932E0,2.791299820E0,6.329199791E0
3.443200156E1,-2.056499958E0,2.927099943E0,6.441999912E0
3.446200000E1,-2.474299908E0,5.588099957E0,5.262599945E0
3.448200000E1,-2.189899921E0,5.323400021E0,3.805999994E0
3.450200156E1,-6.125000119E-1,3.185999990E-1,-2.046799898E0
3.452200156E1,2.608599901E0,-6.726500034E0,-2.048099899E1
3.455200000E1,3.196699858E0,-1.016469955E1,-1.057159996E1
3.457200156E1,-5.351999998E-1,-3.339699984E0,-6.048599720E0
3.459200156E1,2.881000042E-1,1.046499968E0,-4.518799782E0
3.462200000E1,-1.194399953E0,-1.252599955E0,8.661099434E0
3.464200000E1,-6.881999969E0,-1.640100002E0,1.635059929E1
3.466200156E1,-5.248799801E0,-4.084799767E0,-1.583999991E0
3.469200000E1,-3.153100014E0,1.420899987E0,7.231099606E0
3.471200000E1,-3.200699806E0,-5.516999960E-1,1.351629925E1
3.473200156E1,-2.263799906E0,-5.218699932E0,6.062399864E0
3.476200000E1,2.282999903E-1,-5.301499844E0,4.318099976E0
3.478200000E1,1.341699958E0,-2.611899853E0,3.938199997E0
3.480200156E1,2.049499989E0,2.920999825E-1,-9.179999679E-2
3.483200156E1,1.501399994E0,3.450899839E0,-8.495999575E-1
3.486200156E1,1.338599920E0,-4.846999943E-1,5.180999637E-1
3.489200000E1,9.052000046E-1,2.817699909E0,-9.274999499E-1
3.491200000E1,2.615999877E-1,3.513399839E0,-2.412999868E0
3.493200156E1,4.671999812E-1,2.320699930E0,-1.545300007E0
3.496200000E1,7.597000003E-1,2.308799982E0,1.730999947E-1
3.498200000E1,8.789999783E-2,1.651199937E0,6.029999852E-1
3.500200156E1,2.098999918E-1,9.579999745E-2,-1.310099959E0
3.502200469E1,9.314999580E-1,-5.392999649E-1,-3.000699997E0
3.505200000E1,1.708899975E0,-1.901099920E0,-3.548499823E0
3.507200000E1,2.204999924E0,-2.883100033E0,-6.682299614E0
3.509200000E1,3.870100021E0,-2.870199919E0,-7.549899578E0
3.511200000E1,4.116199970E0,-2.762899876E0,-3.440599918E0
3.513200000E1,2.906800032E0,-2.993599892E0,-2.911199808E0
3.515200156E1,2.243399858E0,-4.315199852E0,-4.461699963E0
3.518200000E1,1.399299979E0,-4.498799801E0,-7.968499660E0
3.520200000E1,1.705699921E0,-5.625599861E0,1.188499928E0
3.522200156E1,1.501699924E0,-6.286200047E0,3.738099813E0
3.525200000E1,-5.529999733E-1,-7.302899837E0,3.449800014E0
3.527200000E1,-1.767399907E0,-6.044099808E0,3.068499804E0
3.529200156E1,-2.555899858E0,-4.925399780E0,3.280499935E0
3.531200156E1,-3.531499863E0,-3.804199934E0,3.847899914E0
3.533200156E1,-6.334899902E0,-2.408900023E0,1.518999934E0
3.536200156E1,-3.701499939E0,1.491699934E0,1.748499990E0
3.539200000E1,-1.483699918E0,4.052000046E0,3.365999937E0
3.541200000E1,-3.233999908E-1,4.911900043E0,5.666999817E0
3.543200156E1,7.062999606E-1,4.705499649E0,7.570099831E0
3.546200000E1,-9.738000035E-1,4.439399719E0,6.517899990E0
3.548200000E1,-1.956399918E0,4.175799847E0,7.090399742E0
3.550200156E1,-2.477999926E0,4.084399700E0,7.196499825E0
3.552200156E1,-2.868899822E0,4.245599747E0,6.833600044E0
3.555200000E1,-2.853199959E0,5.751499653E0,4.633800030E0
3.557200000E1,-2.301100016E0,4.146599770E0,1.007900000E0
3.559200156E1,1.498000026E-1,-2.531499863E0,-5.919399738E0
3.562200000E1,2.604499817E0,-1.050479984E1,-2.587500000E1
3.564200000E1,4.543699741E0,-9.224899292E0,-9.323100090E0
3.566200000E1,4.546799660E0,-3.308599949E0,-4.055599689E0
3.568200000E1,3.726300001E0,6.658999920E-1,-2.900099993E0
3.570200000E1,-8.718999624E-1,-4.278100014E0,-4.213799953E0
3.572200156E1,-4.687900066E0,-5.915299892E0,1.096350002E1
3.575200000E1,-6.197499752E0,9.443999529E-1,1.056799984E1
3.577200000E1,-4.117599964E0,5.362199783E0,7.079699993E0
3.579200156E1,-3.621899843E0,2.555799961E0,6.674699783E0
3.582200000E1,-5.726199627E0,-7.802199841E0,6.454899788E0
3.584200000E1,-4.010799885E0,-6.698400021E0,6.225100040E0
3.586200156E1,-1.958699942E0,-3.212800026E0,6.279200077E0
3.589200000E1,7.762999535E-1,6.829999685E-1,4.245699883E0
3.591200000E1,2.881099939E0,4.480199814E0,-6.122499943E0
3.593200156E1,7.200999856E-1,2.297199965E0,-2.015899897E0
3.595200156E1,1.441699982E0,-3.276999891E-1,8.305000067E-1
3.598200000E1,3.788000047E-1,2.764899969E0,-1.864199996E0
3.600200156E1,3.847999871E-1,3.442600012E0,-2.539700031E0
3.602200156E1,1.400599957E0,3.181299925E0,6.099999882E-3
3.605200000E1,1.479699969E0,3.092499971E0,1.174099922E0
3.607200000E1,1.190599918E0,5.457000136E-1,2.162499905E0
3.609200156E1,1.101199985E0,-2.184799910E0,-2.047999948E-1
3.612200000E1,4.954999983E-1,-1.447799921E0,-7.050600052E0
3.614200000E1,3.938999772E-1,-2.495599985E0,-8.708000183E0
3.616200156E1,2.243099928E0,-3.323599815E0,-5.444900036E0
3.619200000E1,3.993099928E0,-3.273900032E0,-6.872000098E-1
3.621200000E1,3.909299850E0,-3.821799994E0,-3.375999928E0
3.623200000E1,4.690899849E0,-5.490999699E0,-8.473199844E0
3.625200000E1,4.589699745E0,-5.336800098E0,-4.698199749E0
3.627200000E1,1.891199946E0,-4.961499691E0,-3.950699806E0
3.629200000E1,2.292999923E-1,-5.348199844E0,-1.627999991E-1
3.631200000E1,-6.019999832E-2,-5.593699932E0,3.650300026E0
3.633200000E1,-1.473899961E0,-5.388000011E0,3.414999962E0
3.635200000E1,-2.401900053E0,-4.193999767E0,3.446099997E0
3.637200000E1,-2.697000027E0,-3.395299911E0,4.105299950E0
3.639200000E1,-3.229199886E0,-3.163800001E0,4.455299854E0
3.641200156E1,-6.292500019E0,-3.920499802E0,2.159699917E0
3.643200156E1,-4.881599903E0,-1.921299934E0,1.090299964E0
3.645200156E1,-2.481999874E0,1.664000005E-1,1.568199992E0
3.648200156E1,-9.896999598E-1,3.459800005E0,4.862099648E0
3.650200156E1,6.069999933E-2,3.975999832E0,6.433899879E0
3.652200156E1,5.500999689E-1,3.787899971E0,7.767799854E0
3.655200000E1,-1.509499907E0,4.208300114E0,7.811499596E0
3.657200000E1,-2.316900015E0,4.659199715E0,7.680599689E0
3.659200000E1,-2.756099939E0,4.879399776E0,7.606699944E0
3.661200000E1,-2.939699888E0,5.308000088E0,7.262799740E0
3.663200000E1,-3.131999969E0,5.793600082E0,6.526700020E0
3.665200156E1,-3.224699974E0,5.208299637E0,4.245599747E0
3.668200000E1,-3.761999905E-1,-4.493199825E0,-1.074699974E1
3.670200000E1,-4.490000010E-2,-1.209070015E1,-3.279879761E1
3.672200156E1,4.023000002E-1,-1.288719940E1,-9.877499580E0
3.675200000E1,4.374000072E0,8.709999919E-2,-3.460199833E0
3.677200000E1,4.427599907E0,3.720599890E0,-1.772300005E0
3.679200156E1,2.640499830E0,-1.724200010E0,-1.256399989E0
3.682200000E1,-6.003599644E0,-7.409499645E0,8.993399620E0
3.684200156E1,-8.597999573E0,-1.922199965E0,4.466700077E0
3.686200156E1,-5.454499722E0,4.221699715E0,6.580899715E0
3.689200000E1,-4.670099735E0,1.266699910E0,1.035149956E1
3.691200000E1,-3.408900023E0,-5.322700024E0,4.800799847E0
3.693200156E1,-1.630599976E0,-5.817199707E0,3.835299969E0
3.696200469E1,6.728000045E-1,-1.756399989E0,4.303499699E0
3.699200000E1,4.403800011E0,2.867899895E0,-2.707700014E0
3.701200625E1,2.005599976E0,2.394299984E0,-2.377300024E0
3.704200000E1,1.236099958E0,-5.051000118E-1,1.415499926E0
3.706200625E1,2.989999950E-1,2.134999990E0,2.733999789E-1
3.709200156E1,-1.826999933E-1,2.966500044E0,-1.108199954E0
3.711200625E1,2.362999916E-1,2.240499973E0,2.699999884E-2
3.714200000E1,4.957000017E-1,2.027199984E0,8.987999558E-1
3.716200156E1,3.330000043E-1,1.113699913E0,9.101999998E-1
3.719200000E1,4.217000008E-1,-1.441799998E0,-1.468500018E0
3.721200312E1,3.289999962E-1,-9.366999865E-1,-4.593899727E0
3.724200000E1,2.831899881E0,-2.240399837E0,-1.047939968E1
3.726200000E1,4.416599751E0,-3.564800024E0,-4.136199951E0
3.728200000E1,4.882599831E0,-3.323599815E0,1.463000029E-1
3.730200625E1,4.567100048E0,-2.567600012E0,-1.361400008E0
3.733200000E1,2.341599941E0,-4.956399918E0,-1.006439972E1
3.735200625E1,1.966399908E0,-4.749499798E0,-3.697599888E0
3.738200000E1,8.287999630E-1,-4.942899704E0,1.351199985E0
3.740200781E1,8.813999891E-1,-6.567999840E0,4.006199837E0
3.743200156E1,-1.507799983E0,-7.921700001E0,3.498499870E0
3.745200469E1,-2.658799887E0,-5.756099701E0,3.239300013E0
3.748200000E1,-4.536999702E0,-2.711400032E0,2.292700052E0
3.750200156E1,-6.407299995E0,-1.156499982E0,1.237999916E0
3.752200156E1,-4.809400082E0,7.884999514E-1,2.748699903E0
3.755200000E1,-1.612199903E0,2.558899879E0,3.402400017E0
3.757200000E1,-2.642999887E-1,3.757299900E0,3.794899940E0
3.759200156E1,6.356999874E-1,4.269499779E0,6.518099785E0
3.762200000E1,4.545999765E-1,3.572199821E0,7.848999977E0
3.764200000E1,-9.984999895E-1,2.988999844E0,7.755199909E0
3.766200000E1,-1.945400000E0,2.728499889E0,7.728699684E0
3.768200000E1,-2.218899965E0,2.722100019E0,7.901499748E0
3.770200000E1,-2.479899883E0,3.800199986E0,7.992499828E0
3.772200156E1,-2.546700001E0,5.613399982E0,5.684000015E0
3.775200000E1,-1.260299921E0,4.485199928E0,1.518299937E0
3.777200000E1,-7.454999685E-1,-1.751500010E0,-6.182699680E0
3.779200156E1,1.226699948E0,-9.157199860E0,-2.731739998E1
3.782200000E1,2.496099949E0,-1.046509933E1,-5.996900082E0
3.784200000E1,8.049999923E-2,-2.597100019E0,-4.152199745E0
3.786200156E1,-9.532999992E-1,-5.173000097E-1,-3.911700010E0
3.789200000E1,-4.111999989E0,-5.177799702E0,2.149299860E0
3.791200000E1,-6.209099770E0,-1.370399952E0,1.374329948E1
3.793200156E1,-4.458099842E0,4.036099911E0,1.135559940E1
3.796200000E1,-1.425300002E0,5.555599689E0,7.228399754E0
3.798200000E1,-2.269500017E0,-1.458899975E0,7.286299706E0
3.800200469E1,-3.062599897E0,-9.631999969E0,6.599999905E0
3.803200781E1,-9.578999877E-1,-6.771100044E0,5.884699821E0
3.806200000E1,3.412599802E0,1.886999905E-1,-3.256699800E0
3.808200469E1,2.388799906E0,3.433199883E0,-5.640000105E-1
3.811200156E1,3.035999835E-1,5.419999957E-1,1.425699949E0
3.813200156E1,4.035999775E-1,5.056999922E-1,1.272400022E0
3.815200156E1,-4.573999941E-1,2.471699953E0,7.639999688E-2
3.818200000E1,-1.107900023E0,3.842299938E0,-2.108899832E0
3.820200000E1,-1.196999997E-1,2.979099989E0,-9.430999756E-1
3.822200312E1,5.063999891E-1,2.897799969E0,5.733000040E-1
3.825200000E1,8.755999804E-1,2.388399839E0,1.904799938E0
3.827200781E1,7.965999842E-1,-4.596999884E-1,1.096899986E0
3.830200000E1,6.279000044E-1,-1.372499943E0,-2.735800028E0
3.832200781E1,7.899999619E-1,-2.037799835E0,-9.354800224E0
3.835200000E1,3.428999901E0,-3.549099922E0,-5.124099731E0
3.837200625E1,3.897499800E0,-3.853999853E0,1.024399996E0
3.840200000E1,4.617899895E0,-4.440400124E0,5.033000112E-1
3.842200156E1,4.814499855E0,-4.944099903E0,-9.012700081E0
3.845200000E1,3.263199806E0,-3.903599977E0,-5.369999886E0
3.847200625E1,1.221999973E-1,-3.033799887E0,-2.548499823E0
3.850200000E1,-9.243999720E-1,-5.256099701E0,1.768499970E0
3.852200313E1,-1.033399940E0,-6.561100006E0,3.691900015E0
3.855200000E1,-3.085599899E0,-5.379600048E0,3.858999968E0
3.857200000E1,-3.401700020E0,-3.415599823E0,3.803299904E0
3.859200000E1,-4.656899929E0,-3.057499886E0,1.499099970E0
3.861200000E1,-4.011099815E0,-1.804999948E0,1.568399906E0
3.863200000E1,-3.509199858E0,2.117999941E-1,1.933200002E0
3.865200156E1,-1.944399953E0,1.434899926E0,1.905399919E0
3.867200156E1,-7.360999584E-1,2.852200031E0,3.458299875E0
3.869200156E1,1.564999968E-1,3.748799801E0,6.084899902E0
3.872200156E1,4.933999777E-1,3.175400019E0,7.949199677E0
3.875200000E1,-1.697099924E0,3.414399862E0,7.330199718E0
3.877200000E1,-2.169800043E0,3.765699863E0,7.063199997E0
3.879200000E1,-2.504400015E0,4.099100113E0,6.994999886E0
3.881200000E1,-2.764699936E0,4.737499714E0,7.110199928E0
3.883200000E1,-2.905099869E0,5.595299721E0,5.291999817E0
3.885200000E1,-2.292000055E0,4.604399681E0,2.095799923E0
3.887200000E1,-1.304000020E0,-1.765999913E0,-8.142499924E0
3.889200000E1,2.813599825E0,-1.032149982E1,-2.999879837E1
3.891200000E1,2.447099924E0,-1.154879951E1,-1.057819939E1
3.893200156E1,5.350999832E-1,-2.947799921E0,-5.793299675E0
3.895200156E1,2.525499821E0,2.334800005E0,-4.780200005E0
3.898200000E1,-1.411999941E0,-3.392299891E0,-2.531699896E0
3.900200000E1,-6.115699768E0,-4.307300091E0,1.757180023E1
3.902200000E1,-8.157799721E0,-4.334799767E0,6.652699947E0
3.904200000E1,-4.203199863E0,2.455899954E0,8.010700226E0
3.906200000E1,-2.093299866E0,1.914999962E0,7.671499729E0
3.908200156E1,-2.617699862E0,-3.306099892E0,9.055600166E0
3.911200156E1,-2.114599943E0,-6.463799953E0,6.743099689E0
3.913200156E1,-6.775000095E-1,-4.569099903E0,5.121699810E0
3.915200156E1,2.100699902E0,-1.257799983E0,-2.806699991E0
3.918200000E1,1.252399921E0,3.368199825E0,1.183699965E0
3.920200000E1,2.229999900E-1,9.126999974E-1,-8.899999410E-2
3.922200156E1,5.475000143E-1,-4.100000020E-3,1.343699932E0
3.925200000E1,-1.180999950E-1,3.661499977E0,-2.899999917E-1
3.927200000E1,-1.579999924E-2,4.049200058E0,-1.692999959E0
3.929200156E1,2.536999881E-1,2.807600021E0,-8.596999645E-1
3.932200000E1,6.078999639E-1,2.261600018E0,9.075999856E-1
3.934200000E1,5.651999712E-1,1.824799895E0,1.329499960E0
3.936200156E1,4.438999891E-1,2.522000074E-1,6.599000096E-1
3.938200156E1,4.127999842E-1,-8.563999534E-1,-1.784500003E0
3.941200000E1,1.803900003E0,-2.802099943E0,-8.950200081E0
3.943200156E1,4.336800098E0,-4.447999954E0,-9.063199997E0
3.946200000E1,4.673799992E0,-3.696799994E0,-2.434999943E-1
3.948200000E1,4.101399899E0,-2.670300007E0,-1.738899946E0
3.950200000E1,3.516399860E0,-4.521800041E0,-7.578099728E0
3.952200156E1,3.323699951E0,-5.160399914E0,-6.350499630E0
3.955200000E1,4.057999849E-1,-3.855399847E0,-2.648799896E0
3.957200000E1,-3.569999933E-1,-4.758899689E0,1.658999920E0
3.959200156E1,-4.095999897E-1,-6.115900040E0,3.877299786E0
3.961200156E1,-1.771799922E0,-6.596600056E0,3.430699825E0
3.963200156E1,-2.868599892E0,-5.320099831E0,3.093199968E0
3.965200156E1,-3.657399893E0,-3.252399921E0,2.774999857E0
3.968200000E1,-3.652199984E0,-1.537599921E0,1.387899995E0
3.970200000E1,-3.174199820E0,2.028999925E-1,2.842099905E0
3.972200156E1,-2.543099880E0,1.557599902E0,3.555999994E0
3.975200000E1,-9.559999704E-1,3.004799843E0,3.956199884E0
3.977200000E1,-7.160999775E-1,3.937699795E0,6.357100010E0
3.979200156E1,1.031999961E-1,3.544399977E0,8.141099930E0
3.982200000E1,-1.057699919E0,2.842200041E0,6.754699707E0
3.984200000E1,-1.643399954E0,2.723899841E0,6.902400017E0
3.986200156E1,-1.774299979E0,2.482100010E0,7.247599602E0
3.989200000E1,-2.431699991E0,4.263599873E0,6.188999653E0
3.991200000E1,-2.332999945E0,5.258199692E0,4.662600040E0
3.993200156E1,-1.998299956E0,3.924499989E0,2.514600039E0
3.995200156E1,-1.949699998E0,-1.209299922E0,-5.038399696E0
3.998200000E1,2.467099905E0,-1.139079952E1,-2.685829926E1
4.000200000E1,2.032099962E0,-8.403399467E0,-7.202600002E0
4.002200000E1,3.756999969E-1,-9.550999999E-1,-5.262899876E0
4.004200000E1,6.640999913E-1,3.842999935E-1,-3.593499899E0
4.006200000E1,-2.397300005E0,-4.001699924E0,-4.305099964E0
4.008200000E1,-3.542899847E0,-4.417999744E0,1.487559986E1
4.010200000E1,-5.699399948E0,-1.321299911E0,1.213669968E1
4.012200156E1,-4.336999893E0,3.203799963E0,7.790799618E0
4.015200156E1,-3.161799908E0,5.839999914E-1,6.024299622E0
4.018200000E1,-3.467700005E0,-5.672399998E0,6.821699619E0
4.020200000E1,-2.331599951E0,-4.971299648E0,6.890399933E0
4.022200156E1,-6.232999563E-1,-2.757599831E0,6.429899693E0
4.024200156E1,1.029099941E0,-1.067999974E-1,7.266699791E0
4.027200000E1,2.567299843E0,2.753299952E0,-8.536799431E0
4.029200156E1,1.394699931E0,-2.172999978E-1,-2.753999829E-1
4.032200000E1,9.724999666E-1,1.047099948E0,1.752299905E0
4.034200000E1,3.603000045E-1,3.213399887E0,1.641099930E0
4.036200156E1,-1.880999953E-1,3.642899990E0,5.904999971E-1
4.039200000E1,-5.146999955E-1,3.503199816E0,-3.003999889E-1
4.041200000E1,-5.374000072E-1,2.566599846E0,-3.079999983E-1
4.043200156E1,-1.665999889E-1,7.096999884E-1,-3.931999803E-1
4.045200156E1,4.648000002E-1,-4.224999845E-1,-6.290999651E-1
4.048200000E1,1.044199944E0,-1.337199926E0,-1.459100008E0
4.050200000E1,1.547500014E0,-2.470700026E0,-4.296199799E0
4.052200156E1,3.539799929E0,-3.688199997E0,-8.906599998E0
4.055200156E1,4.755799770E0,-3.621699810E0,-2.516599894E0
4.058200156E1,3.212899923E0,-4.054199696E0,-2.979599953E0
4.060200156E1,2.010599852E0,-4.672699928E0,-8.618999481E0
4.063200000E1,1.503700018E0,-2.880399942E0,-5.356899738E0
4.065200156E1,2.479999959E-1,-2.643399954E0,-2.468600035E0
4.068200000E1,3.619999886E-1,-5.282199860E0,3.231400013E0
4.070200156E1,-7.353999615E-1,-6.960700035E0,4.140799999E0
4.072200156E1,-2.225999832E0,-6.877799988E0,4.531300068E0
4.074200156E1,-3.142499924E0,-5.101699829E0,4.350800037E0
4.077200000E1,-3.878599882E0,-2.582700014E0,-1.129499912E0
4.079200156E1,-3.409899950E0,-5.771999955E-1,6.629999727E-2
4.082200000E1,-2.381399870E0,1.574800014E0,3.317699909E0
4.084200000E1,-1.294299960E0,2.094099998E0,4.362699986E0
4.086200156E1,1.144999936E-1,2.599699974E0,5.290899754E0
4.088200156E1,9.273999929E-1,2.733399868E0,6.986299992E0
4.091200000E1,-4.957000017E-1,2.609999895E0,6.909399986E0
4.093200000E1,-2.421999931E0,3.048899889E0,7.572099686E0
4.095200000E1,-2.928599834E0,3.239499807E0,7.730299950E0
4.097200000E1,-2.926100016E0,3.276700020E0,7.494599819E0
4.099200000E1,-3.105399847E0,4.347799778E0,6.710499763E0
4.101200156E1,-2.903100014E0,6.071499825E0,4.647299767E0
4.104200000E1,-1.108799934E0,4.440499783E0,6.129999757E-1
4.106200000E1,-5.640000105E-1,-2.405200005E0,-6.412299633E0
4.108200156E1,2.699300051E0,-1.082950020E1,-2.798789978E1
4.111200000E1,2.654399872E0,-8.754699707E0,-5.032700062E0
4.113200000E1,1.077799916E0,-8.840000033E-1,-4.311399937E0
4.115200156E1,2.840999961E-1,4.748999774E-1,-4.189700127E0
4.118200000E1,-2.246399879E0,-5.567999840E0,6.864399910E0
4.120200156E1,-5.120999813E0,-2.398699999E0,1.390909958E1
4.122200156E1,-4.550199986E0,3.242199898E0,9.510999680E0
4.125200000E1,-2.421499968E0,4.203700066E0,5.193599701E0
4.127200000E1,-3.164899826E0,-2.156100035E0,6.143300056E0
4.129200000E1,-3.897199869E0,-7.960499763E0,7.377899647E0
4.131200000E1,-2.236299992E0,-7.382299900E0,6.688299656E0
4.133200000E1,-1.659999937E-1,-3.807299852E0,4.390799999E0
4.135200000E1,2.773099899E0,1.158299923E0,-2.551399946E0
4.137200156E1,1.265999913E0,1.682699919E0,6.110999584E-1
4.140200000E1,1.131699920E0,1.000399947E0,9.752999544E-1
4.142200000E1,1.085299969E0,1.439999938E0,1.408999920E0
4.144200156E1,6.150999665E-1,3.046000004E0,7.700999975E-1
4.147200000E1,5.414999723E-1,3.160300016E0,-2.090699911E0
4.149200000E1,7.367999554E-1,2.399600029E0,-1.518000007E0
4.151200156E1,6.722999811E-1,2.481699944E0,-7.319999486E-2
4.154200000E1,3.470000029E-1,1.769499898E0,9.837999940E-1
4.156200000E1,2.667999864E-1,-4.188999832E-1,-1.569999903E-1
4.158200156E1,6.140999794E-1,-1.120100021E0,-1.193400025E0
4.161200000E1,2.068699837E0,-1.959999919E0,-6.509399891E0
4.163200000E1,3.689999819E0,-3.528299809E0,-7.655599594E0
4.165200000E1,4.509299755E0,-3.721199989E0,-2.873299837E0
4.167200000E1,4.436199665E0,-2.965999842E0,-3.042999804E-1
4.169200000E1,3.384899855E0,-4.322799683E0,-3.376499891E0
4.171200000E1,3.242799997E0,-5.479099751E0,-8.781000137E0
4.173200156E1,3.023200035E0,-4.983500004E0,-5.615699768E0
4.176200156E1,-2.326999903E-1,-4.057499886E0,-1.386600018E0
4.179200156E1,-1.699999906E-3,-6.157499790E0,3.471400023E0
4.181200156E1,-2.111199856E0,-7.141399860E0,3.474200010E0
4.184200000E1,-3.890699863E0,-4.661900043E0,3.800499916E0
4.186200156E1,-4.212500095E0,-2.785399914E0,3.176999807E0
4.188200156E1,-5.248199940E0,-2.117599964E0,8.714999557E-1
4.191200156E1,-4.170099735E0,4.120000005E-1,2.485299826E0
4.194200156E1,-1.853799939E0,2.036900043E0,3.581699848E0
4.197200000E1,-4.308999777E-1,2.982699871E0,6.231699944E0
4.199200000E1,1.766999960E-1,3.018999815E0,7.038599968E0
4.201200156E1,-4.931999743E-1,3.159600019E0,7.053699970E0
4.204200000E1,-1.524500012E0,3.620599985E0,7.470499992E0
4.206200000E1,-1.582199931E0,3.949999809E0,7.834699631E0
4.208200156E1,-1.549899936E0,4.476999760E0,7.976099968E0
4.211200000E1,-1.534600019E0,5.709399700E0,5.919699669E0
4.213200000E1,-1.089900017E0,5.169600010E0,3.827499866E0
4.215200156E1,-1.065999985E0,8.835999966E-1,-1.446699977E0
4.218200000E1,2.419399977E0,-1.270049953E1,-3.689559937E1
4.220200000E1,2.271299839E0,-1.399699974E1,-7.043099880E0
4.222200156E1,1.458999962E-1,-4.936699867E0,-3.561999798E0
4.225200000E1,-5.453000069E-1,2.991799831E0,-3.888899803E0
4.227200156E1,-4.823400021E0,-1.913100004E0,-6.649999619E-1
4.229200156E1,-6.477099895E0,-3.909799814E0,1.409270000E1
4.231200156E1,-8.297599792E0,-9.933999777E-1,8.989399910E0
4.233200156E1,-4.095399857E0,4.052700043E0,8.180199623E0
4.235200156E1,-2.252300024E0,9.547999501E-1,7.472399712E0
4.237200156E1,-2.465199947E0,-4.621699810E0,7.617199898E0
4.240200000E1,-1.596300006E0,-6.160199642E0,6.829899788E0
4.242200000E1,3.272999823E-1,-4.411799908E0,6.093999863E0
4.244200156E1,1.835399985E0,-2.142199993E0,4.289599895E0
4.247200312E1,2.919999838E0,3.134599924E0,-5.379999802E-2
4.250200156E1,1.186999917E0,-1.234999970E-1,-7.400000002E-3
4.252200156E1,9.889999628E-1,1.906999946E-1,1.154799938E0
4.255200469E1,-9.059999883E-2,3.755399942E0,-1.251899958E0
4.258200156E1,7.181000113E-1,2.648200035E0,-1.253999949E0
4.260200156E1,7.486999631E-1,2.716399908E0,3.418000042E-1
4.263200000E1,6.262999773E-1,2.296799898E0,1.794299960E0
4.265200156E1,3.669999912E-2,1.005999967E-1,1.041299939E0
4.268200000E1,3.312999904E-1,-1.253600001E0,-2.660899878E0
4.270200625E1,4.941999912E-1,-8.411999941E-1,-7.084699631E0
4.273200156E1,3.643800020E0,-3.376399994E0,-5.803199768E0
4.276200000E1,5.045700073E0,-3.713899851E0,1.879199982E0
4.278200000E1,5.090099812E0,-3.388299942E0,-7.289999723E-2
4.280200156E1,4.857399940E0,-5.387799740E0,-8.516900063E0
4.283200000E1,2.384999990E0,-5.135999680E0,-5.092999935E0
4.285200000E1,-2.583999932E-1,-2.920599937E0,-3.133499861E0
4.287200000E1,-1.616899967E0,-2.996699810E0,-1.222399950E0
4.289200625E1,-4.268999994E-1,-5.358099937E0,3.007900000E0
4.292200000E1,-2.218400002E0,-6.312399864E0,3.673399925E0
4.294200469E1,-3.513099909E0,-5.074800014E0,3.816200018E0
4.297200000E1,-3.725699902E0,-3.459399939E0,3.750499964E0
4.299200000E1,-6.088699818E0,-2.596899986E0,1.333699942E0
4.301200156E1,-4.634399891E0,-1.789999940E-2,2.701999903E0
4.304200000E1,-1.914099932E0,2.372900009E0,2.797899961E0
4.306200000E1,-4.298000038E-1,3.441799879E0,3.920799971E0
4.308200156E1,2.142999917E-1,3.730899811E0,6.245499611E0
4.311200000E1,-6.149999797E-2,3.552299976E0,8.242099762E0
4.313200000E1,-1.445799947E0,3.841899872E0,8.102999687E0
4.315200156E1,-2.066499949E0,4.273299694E0,7.466499805E0
4.318200000E1,-1.779500008E0,4.349800110E0,8.044699669E0
4.320200000E1,-1.171599984E0,4.624300003E0,8.036799431E0
4.322200000E1,-1.461199999E0,5.322599888E0,5.088999748E0
4.324200000E1,-1.209800005E0,3.154799938E0,-1.391999960E0
4.326200000E1,6.035000086E-1,-4.323299885E0,-1.726420021E1
4.328200000E1,1.676999927E-1,-1.329139996E1,-2.872879982E1
4.330200000E1,-1.113799930E0,-1.016779995E1,-2.502099991E0
4.332200000E1,-1.467999965E-1,-2.185699940E0,-5.646499634E0
4.334200000E1,4.239999950E-1,2.037099838E0,-2.668200016E0
4.336200156E1,-2.473000050E0,-5.995000005E-1,-1.058099985E0
4.338200156E1,-4.111899853E0,-2.116499901E0,1.329509926E1
4.341200000E1,-6.836899757E0,-3.373399973E0,4.726099968E0
4.343200000E1,-2.720999956E0,2.911999941E0,9.390600204E0
4.345200000E1,-1.508000016E0,1.614599943E0,7.936499596E0
4.347200000E1,-2.687099934E0,-3.065999985E0,7.539399624E0
4.349200000E1,-3.006000042E0,-5.620500088E0,6.746599674E0
4.351200000E1,-1.498999953E0,-5.356199741E0,6.084599972E0
4.353200000E1,4.323999882E-1,-3.553900003E0,5.276000023E0
4.355200000E1,1.732800007E0,-1.168499947E0,3.753999949E0
4.357200000E1,3.235299826E0,2.788599968E0,-4.625400066E0
4.359200000E1,1.581599951E0,3.931599855E0,-6.381999850E-1
4.361200000E1,8.555999994E-1,1.016399980E0,-2.391999960E-1
4.363200000E1,8.958999515E-1,3.944000006E-1,7.909999788E-2
4.365200000E1,-2.370999902E-1,2.754499912E0,-1.186200023E0
4.367200000E1,-5.133000016E-1,3.651499987E0,-1.234099984E0
4.369200000E1,-7.129999995E-2,3.203500032E0,-7.299999706E-3
4.371200000E1,9.030000120E-2,2.961699963E0,1.016399980E0
4.373200000E1,-1.084999964E-1,1.417599916E0,2.160300016E0
4.375200000E1,3.156999946E-1,-7.274000049E-1,3.145000041E-1
4.377200000E1,1.288599968E0,-1.172899961E0,-2.299599886E0
4.379200000E1,2.138200045E0,-1.332000017E0,-6.839599609E0
4.381200000E1,2.851599932E0,-2.921799898E0,-9.121500015E0
4.383200000E1,3.307099819E0,-3.532299995E0,-2.830299854E0
4.385200000E1,3.216899872E0,-2.844499826E0,2.082999945E-1
4.387200000E1,2.478899956E0,-2.920399904E0,-1.238799930E0
4.389200000E1,2.074399948E0,-4.865299702E0,-7.717099667E0
4.391200000E1,2.702399969E0,-6.210799694E0,-7.994499683E0
4.393200156E1,1.285899997E0,-4.338799953E0,-4.393599987E0
4.395200156E1,-5.468999743E-1,-2.913800001E0,-2.172299862E0
4.398200000E1,-1.412299991E0,-4.578000069E0,1.924999952E0
4.400200000E1,-1.092499971E0,-6.233200073E0,3.410699844E0
4.402200000E1,-2.892999887E0,-6.164799690E0,3.422299862E0
4.404200000E1,-3.864699841E0,-4.649600029E0,4.021399975E0
4.406200000E1,-4.543999672E0,-3.534799814E0,1.391600013E0
4.408200156E1,-4.871799946E0,-2.298699856E0,1.291000009E0
4.410200156E1,-4.102299690E0,1.264999956E-1,2.985899925E0
4.413200000E1,-2.316499949E0,2.139999866E0,3.449699879E0
4.415200000E1,-1.116599917E0,2.987599850E0,3.384199858E0
4.417200000E1,-8.661999702E-1,3.706799984E0,6.237099648E0
4.419200000E1,-3.299999982E-2,3.530900002E0,8.350899696E0
4.421200000E1,-3.245999813E-1,3.528800011E0,8.259799957E0
4.423200000E1,-1.233600020E0,3.924699783E0,7.214499950E0
4.425200000E1,-1.741099954E0,4.775199890E0,7.355700016E0
4.427200000E1,-1.621599913E0,5.499199867E0,7.858599663E0
4.429200000E1,-1.321399927E0,6.158099651E0,7.434499741E0
4.431200000E1,-1.038100004E0,6.046199799E0,4.472399712E0
4.433200000E1,-5.633999705E-1,2.043000013E-1,-4.634399891E0
4.435200000E1,1.255699992E0,-8.750100136E0,-2.814069939E1
4.437200000E1,-8.107999563E-1,-1.225959969E1,-1.642239952E1
4.439200000E1,3.443999887E-1,-6.666199684E0,-2.016499996E0
4.441200000E1,1.926999927E0,2.994000018E-1,-4.304999828E0
4.443200000E1,1.820499897E0,4.175300121E0,-1.203199983E0
4.445200000E1,-1.555999964E-1,2.272199869E0,-3.391999900E-1
4.447200000E1,-3.769500017E0,-2.169699907E0,1.280069923E1
4.449200000E1,-9.918999672E0,-9.997399330E0,-9.329899788E0
4.451200000E1,-7.371199608E0,-3.035300016E0,8.801799774E0
4.453200000E1,-2.051300049E0,2.633800030E0,1.328439999E1
4.455200000E1,-1.884799957E0,6.491000056E-1,9.637700081E0
4.457200000E1,-1.609699965E0,-3.126199961E0,5.305200100E0
4.459200000E1,-1.213400006E0,-4.928100109E0,4.157400131E0
4.461200000E1,2.649999969E-2,-4.597300053E0,3.988799810E0
4.463200000E1,1.606699944E0,-2.423399925E0,4.405299664E0
4.465200000E1,2.127599955E0,3.127999902E-1,4.302799702E0
4.467200000E1,1.803900003E0,4.099899769E0,-1.850199938E0
4.469200000E1,-9.059999883E-2,3.152400017E0,-2.981400013E0
4.471200000E1,3.953000009E-1,3.375000060E-1,-6.976000071E-1
4.473200000E1,3.838000000E-1,1.162599921E0,-5.961999893E-1
4.475200000E1,-2.324999869E-1,3.251299858E0,-1.287899971E0
4.477200000E1,1.485999972E-1,3.403199911E0,-8.107999563E-1
4.479200000E1,3.551000059E-1,3.199199915E0,2.250999957E-1
4.481200000E1,7.549999654E-2,2.030799866E0,1.500800014E0
4.483200000E1,-5.150000006E-2,-4.158999920E-1,6.779999733E-1
4.485200000E1,2.013999969E-1,-1.161800027E0,-2.992399931E0
4.487200000E1,9.103999734E-1,-2.953000069E-1,-7.519699574E0
4.489200000E1,1.974299908E0,-2.468499899E0,-7.336299896E0
4.491200156E1,3.065599918E0,-3.517799854E0,-3.259299994E0
4.493200156E1,3.953799963E0,-3.608799934E0,-3.554999828E-1
4.495200156E1,4.804800034E0,-3.200099945E0,-2.049999952E0
4.498200000E1,3.901499987E0,-4.094900131E0,-1.141379929E1
4.500200000E1,2.153199911E0,-4.158499718E0,-6.459599972E0
4.502200000E1,1.192700028E0,-3.011899948E0,-2.423799992E0
4.504200000E1,2.074100018E0,-3.911799908E0,4.314499855E0
4.506200000E1,1.125199914E0,-6.218499660E0,4.479300022E0
4.508200156E1,-6.035000086E-1,-8.764499664E0,3.503799915E0
4.511200000E1,-2.890100002E0,-5.490499973E0,2.522300005E0
4.513200000E1,-4.426099777E0,-2.600100040E0,-3.463000059E-1
4.515200156E1,-5.010399818E0,-1.006600022E0,4.181999862E-1
4.518200000E1,-3.971599817E0,5.483999848E-1,4.064099789E0
4.520200000E1,-3.225299835E0,1.551399946E0,4.033599854E0
4.522200000E1,-1.656799912E0,2.412499905E0,3.213099957E0
4.524200000E1,-9.516999722E-1,3.759099960E0,4.043999672E0
4.526200000E1,-1.789999902E-1,4.165199757E0,6.550899982E0
4.528200000E1,-6.448000073E-1,4.279699802E0,8.048500061E0
4.530200000E1,-1.574999928E0,4.205199718E0,7.255499840E0
4.532200000E1,-1.775399923E0,3.749499798E0,6.645499706E0
4.534200000E1,-1.831799984E0,3.116799831E0,6.745299816E0
4.536200156E1,-2.134099960E0,3.158200026E0,7.033199787E0
4.539200000E1,-1.560799956E0,4.483799934E0,4.140899658E0
4.541200000E1,-9.203999639E-1,7.105000019E-1,-8.495000005E-1
4.543200000E1,1.190999985E0,-5.893199921E0,-1.683189964E1
4.545200000E1,2.378299952E0,-1.144649982E1,-2.300869942E1
4.547200000E1,-5.630999804E-1,-6.978299618E0,-5.163499832E0
4.549200000E1,-1.284199953E0,2.818000019E-1,-6.720699787E0
4.551200156E1,8.540000021E-2,2.740399837E0,-3.919199944E0
4.553200156E1,-1.937199950E0,-4.465999901E-1,-2.417500019E0
4.556200000E1,-5.299999714E0,-4.337199688E0,1.561969948E1
4.558200000E1,-4.532499790E0,-2.283900023E0,5.432300091E0
4.560200000E1,-2.824399948E0,2.976199865E0,5.641399860E0
4.562200000E1,-1.024799943E0,9.153999686E-1,6.491299629E0
4.564200000E1,-1.616499901E0,-3.092200041E0,7.114500046E0
4.566200000E1,-1.119699955E0,-5.499599934E0,7.042899609E0
4.568200000E1,3.677999973E-1,-5.369199753E0,6.805599689E0
4.570200000E1,9.496999979E-1,-2.679999828E0,5.482299805E0
4.572200000E1,1.251699924E0,2.584999800E-1,2.906499863E0
4.574200000E1,5.390999913E-1,4.510200024E0,-6.890100002E0
4.576200000E1,-2.545999885E-1,1.846499920E0,-2.123600006E0
4.578200000E1,8.258999586E-1,2.290000021E-2,7.488999963E-1
4.580200000E1,6.463999748E-1,1.594900012E0,3.366000056E-1
4.582200000E1,-4.609999806E-2,3.278399944E0,-5.004999638E-1
4.584200000E1,-1.099999994E-3,3.138499975E0,-6.858999729E-1
4.586200000E1,5.317000151E-1,2.759799957E0,-8.739999682E-2
4.588200000E1,9.788999557E-1,2.394599915E0,8.039999604E-1
4.590200000E1,1.244899988E0,3.893999755E-1,7.536000013E-1
4.592200000E1,1.534999967E0,-1.470999956E0,-9.978999496E-1
4.594200000E1,1.725199938E0,-1.111699939E0,-2.543299913E0
4.596200000E1,1.257499933E0,-1.244599938E0,-4.135200024E0
4.598200000E1,6.742999554E-1,-3.262399912E0,-8.152299881E0
4.600200000E1,2.244299889E0,-3.108500004E0,-8.541099548E0
4.602200156E1,3.790799856E0,-3.091799974E0,-3.638099909E0
4.604200156E1,3.471199989E0,-2.948699951E0,-2.486399889E0
4.606200156E1,2.109099865E0,-4.051099777E0,-5.314899921E0
4.608200156E1,1.169099927E0,-3.963299990E0,-8.243700027E0
4.611200000E1,2.247699976E0,-4.517299652E0,2.091199875E0
4.613200000E1,2.103600025E0,-5.625599861E0,4.477900028E0
4.615200156E1,7.008000016E-1,-7.627099991E0,4.078299999E0
4.618200000E1,-1.919199944E0,-7.043999672E0,3.603099823E0
4.620200000E1,-2.734200001E0,-4.907099724E0,3.450899839E0
4.622200156E1,-2.966699839E0,-3.217499971E0,3.899099827E0
4.624200156E1,-5.673899651E0,-1.254899979E0,9.070000052E-2
4.627200000E1,-3.543099880E0,2.232899904E0,3.826599836E0
4.629200156E1,-2.112099886E0,3.680599928E0,4.213200092E0
4.631200156E1,-4.233999848E-1,4.727099895E0,5.206699848E0
4.634200000E1,6.538000107E-1,4.801099777E0,6.838599682E0
4.636200000E1,-7.145999670E-1,4.405900002E0,7.874099731E0
4.638200000E1,-1.767899990E0,3.929600000E0,8.424200058E0
4.640200000E1,-2.017099857E0,3.079099894E0,7.480499744E0
4.642200000E1,-2.326299906E0,2.316699982E0,7.014999866E0
4.644200156E1,-2.674199820E0,3.378399849E0,6.696699619E0
4.647200000E1,-1.859699965E0,4.395299911E0,2.071899891E0
4.649200000E1,-5.831999779E-1,-1.123399973E0,-4.830499649E0
4.651200156E1,1.981199980E0,-6.748600006E0,-1.843269920E1
4.653200156E1,1.044199944E0,-9.553400040E0,-1.706469917E1
4.656200000E1,1.535899997E0,-3.616099834E0,-6.720799923E0
4.658200156E1,3.301800013E0,-9.299999475E-2,-1.878099918E0
4.661200000E1,1.174899936E0,-1.574000001E0,-1.357599974E0
4.663200000E1,-3.360199928E0,-3.433899879E0,1.045179939E1
4.665200156E1,-6.526000023E0,-4.364599705E0,5.332399845E0
4.668200000E1,-4.626899719E0,3.722699881E0,6.267499924E0
4.670200156E1,-2.332799911E0,3.605000019E0,8.071299553E0
4.672200156E1,-3.521499872E0,-1.611099958E0,8.705100060E0
4.675200000E1,-1.772499919E0,-6.551699638E0,5.100899696E0
4.677200000E1,-7.209999859E-2,-4.798999786E0,4.677899837E0
4.679200000E1,1.522499919E0,-2.312399864E0,4.220499992E0
4.681200000E1,2.598299980E0,5.194999576E-1,2.525499821E0
4.683200000E1,2.431699991E0,4.253399849E0,-4.953599930E0
4.685200000E1,1.264799953E0,1.668999910E0,-5.270999670E-1
4.687200156E1,1.628099918E0,-3.434000015E-1,9.670999646E-1
4.690200000E1,5.156999826E-1,2.772599936E0,-3.914999962E-1
4.692200000E1,3.172000051E-1,3.539299965E0,-3.656999767E-1
4.694200156E1,5.769999623E-1,3.567499876E0,3.998000026E-1
4.697200000E1,1.829999983E-1,1.695799947E0,1.792199969E0
4.699200000E1,-3.078999817E-1,-5.561000109E-1,1.823000014E-1
4.701200156E1,-4.197999835E-1,-1.086099982E0,-1.977899909E0
4.703200156E1,-2.719999850E-2,-7.832999825E-1,-5.334199905E0
4.706200000E1,2.142400026E0,-3.072599888E0,-1.020759964E1
4.708200156E1,3.401299953E0,-3.377699852E0,-3.085500002E0
4.711200000E1,4.095099926E0,-2.639999866E0,7.875999808E-1
4.713200000E1,4.513000011E0,-4.160200119E0,-4.216700077E0
4.715200156E1,4.724699974E0,-5.956399918E0,-1.010120010E1
4.718200000E1,1.765299916E0,-3.883399963E0,-2.760099888E0
