"Time (s)","Acceleration x (m/s^2)","Acceleration y (m/s^2)","Acceleration z (m/s^2)"
0.000000000E0,-6.720361233E0,4.514870644E0,9.737563133E0
2.001406300E-2,-6.090485573E0,3.879171848E0,1.052015114E1
4.199531300E-2,-5.159552574E0,3.417310953E0,1.143649769E1
6.199531300E-2,-4.134518147E0,1.895700216E0,1.210915470E1
8.200000000E-2,-3.151545048E0,-7.067683339E-2,1.245343113E1
1.039953130E-1,-3.130026102E0,-6.126378775E-1,1.297127724E1
1.239953130E-1,-2.722916126E0,6.828550696E-1,1.361465645E1
1.439953130E-1,-3.593916893E0,9.834901690E-1,1.088104343E1
1.640046880E-1,-1.803293586E0,-3.243664503E-1,9.024531364E0
1.859953130E-1,-1.505378246E0,-1.454199791E0,9.076705933E0
2.059953130E-1,-2.018388748E0,-1.023157239E0,9.060798645E0
2.259953130E-1,-6.811791658E-1,-6.692655683E-1,7.621184349E0
2.480015630E-1,-7.163834572E-1,-1.034735680E0,6.677993774E0
2.699953130E-1,-1.040328503E0,-5.524859428E-1,7.357583046E0
2.900125000E-1,-1.793132544E0,-6.521642685E0,9.292126656E0
3.119953130E-1,-2.423832178E0,1.278551579E0,5.436245441E0
3.339937500E-1,-2.045251608E0,-6.818016171E-1,8.953452110E0
3.539937500E-1,-2.746896267E0,1.677760780E-1,8.098578453E0
3.739937500E-1,-2.156380892E0,8.036952019E-1,7.546063900E0
3.939937500E-1,-1.921394825E0,4.198280573E-1,6.620293617E0
4.140000000E-1,-7.419152260E-1,2.163027048E0,6.805278778E0
4.359937500E-1,1.850670099E0,2.195559502E0,7.859858036E0
4.559937500E-1,1.196401715E0,2.165057421E0,7.223163128E0
4.759937500E-1,-2.524158955E-1,2.403232574E0,8.417074203E0
4.959984380E-1,9.662806392E-1,2.510464191E0,1.048427677E1
5.179937500E-1,2.152674675E0,2.381081581E0,1.091118145E1
5.380000000E-1,1.443856835E0,2.296661854E0,1.173866558E1
5.599968750E-1,3.329472542E-1,2.213018179E0,1.136059284E1
5.819937500E-1,1.673240423E0,1.465988874E0,6.601992130E0
6.019953130E-1,4.081673145E0,1.064921737E0,1.020475769E1
6.219953130E-1,3.644587994E0,4.185639024E-1,1.142094517E1
6.439937500E-1,2.068140030E0,-5.866655707E-1,1.151024914E1
6.639937500E-1,2.218687534E0,-1.246421412E-1,1.141584110E1
6.839937500E-1,4.094008446E0,-1.234852672E0,9.769779205E0
7.039937500E-1,6.106995583E0,-2.296891928E0,7.873083591E0
7.239937500E-1,5.771443367E0,-3.921367168E0,3.819900990E0
7.439937500E-1,3.703475475E0,-2.819325686E0,4.861464977E0
7.639953130E-1,-1.831822872E0,1.597813606E0,5.241836548E0
7.859937500E-1,-2.469666898E-1,-3.157568872E-1,4.673376560E0
8.059937500E-1,4.855345190E-1,-2.594596386E0,3.283015728E0
8.259937500E-1,1.807335019E-1,-1.553310156E0,-5.273277164E-1
8.459937500E-1,1.505924225E0,-2.995433569E0,-1.499009609E0
8.659937500E-1,3.716068983E0,-3.244200706E0,8.146989346E-2
8.859937500E-1,6.248885632E0,-4.263039112E0,1.008629322E0
9.059937500E-1,7.620265007E0,-4.823042393E0,5.016417503E0
9.259937500E-1,8.544225693E0,-4.787665844E0,8.149172783E0
9.459937500E-1,1.074558926E1,-5.456529140E0,7.065825462E0
9.659937500E-1,1.248973656E1,-5.602154255E0,5.170748234E0
9.859937500E-1,1.149057770E1,-5.529370785E0,3.046305656E0
1.005993750E0,1.017725372E1,-5.938443661E0,2.706635475E0
1.025993750E0,1.113589191E1,-7.188054085E0,3.204437733E0
1.045993750E0,1.479574490E1,-8.965883255E0,4.642912388E0
1.065993750E0,1.742458725E1,-1.002552795E1,3.672217131E0
1.085993750E0,1.742421532E1,-9.672077179E0,-5.108939409E-1
1.105993750E0,1.854711533E1,-6.443658471E-1,-3.292415237E1
1.125993750E0,1.861541557E1,-9.544792175E0,-3.644731522E0
1.145993750E0,1.405020046E1,-8.580741882E0,1.177411938E1
1.165993750E0,1.067088985E1,-7.524219036E0,4.210807323E0
1.185993750E0,9.415082932E0,-7.907588482E0,-1.444776297E0
1.205995313E0,8.643700600E0,-8.802827835E0,5.916886330E0
1.227993750E0,1.030667496E1,-8.498295784E0,5.903995991E0
1.247993750E0,1.035197258E1,-6.449308872E0,-3.435890198E0
1.267995313E0,9.077261925E0,-6.582331181E0,-9.652367830E-1
1.289995313E0,6.666357994E0,-7.280997276E0,2.711079121E0
1.311993750E0,4.998508930E0,-7.634055614E0,2.300789595E0
1.331993750E0,4.916751862E0,-7.566462994E0,5.248070717E0
1.351993750E0,6.109638691E0,-6.834430695E0,4.385152817E0
1.371993750E0,6.419678211E0,-5.593927860E0,2.063370943E0
1.391993750E0,5.347344398E0,-4.408529758E0,1.942904353E0
1.411993750E0,6.885972977E0,-4.350858212E0,2.399909496E0
1.431993750E0,8.501483917E0,-3.918273926E0,1.208966494E0
1.451995313E0,1.006507969E1,-3.937389135E0,1.951283932E0
1.471995313E0,1.108232880E1,-4.287958145E0,4.003957748E0
1.491995313E0,9.586306572E0,-3.879909277E0,3.935588598E-1
1.511995313E0,6.245801926E0,-5.526162148E0,5.193770409E0
1.531995313E0,3.142140627E0,-5.807241917E0,7.562382698E0
1.551995313E0,3.794206381E0,-5.174090385E0,3.713052511E0
1.571995313E0,8.662097931E0,-3.558080673E0,1.599891782E0
1.593995313E0,1.083565903E1,-1.386645079E0,1.188596725E0
1.615993750E0,8.917319298E0,-2.177201033E0,3.181396008E0
1.635993750E0,6.598592281E0,-2.734312534E0,2.842013121E0
1.655993750E0,4.496913910E0,-4.281301975E0,1.661604762E0
1.675993750E0,4.934574127E0,-3.517934561E0,-4.268382490E-2
1.695995313E0,5.476401329E0,-2.389796495E0,-5.382261276E-1
1.717993750E0,6.150780678E0,-2.374272346E0,-1.068532228E0
1.737993750E0,5.978254318E0,-2.227277994E0,1.127008200E0
1.757995313E0,8.951211929E0,-4.763235569E0,1.140291214E0
1.779995313E0,1.144860363E1,-6.733768940E0,-7.525933981E-1
1.801993750E0,1.244020462E1,-8.210570335E0,-1.113016486E0
1.821995313E0,1.311736202E1,-8.466548920E0,4.255262315E-1
1.841995313E0,1.145718479E1,-1.004477692E1,-1.768979907E0
1.861995313E0,7.951632500E0,-7.359182358E0,7.572381198E-2
1.881995313E0,5.470367908E0,-6.026856899E0,-7.633576393E-1
1.903993750E0,1.382526994E0,-4.768416405E0,-1.010142446E0
1.923993750E0,2.297811031E0,-4.766415119E0,-5.807183981E-1
1.943993750E0,2.330649853E0,-6.735081196E0,-1.688764572E0
1.963993750E0,3.789733887E0,-6.043089390E0,-2.127391845E-1
1.983995313E0,1.257597566E0,-1.811405182E0,6.313797235E-1
2.005993750E0,3.503291607E-1,-1.959769011E0,3.836564720E-1
2.025993750E0,7.226562500E-1,-3.337775707E0,-3.466516733E0
2.045993750E0,4.796831012E-1,-3.252743244E0,-1.446681976E0
2.065993750E0,-5.780101299E0,-1.084173012E1,1.205585957E0
2.085993750E0,-1.479366684E1,-2.887715530E1,1.801770926E0
2.105993750E0,6.898901939E0,-5.021032715E1,-1.051969147E1
2.125993750E0,-5.311842918E0,-1.305473900E1,-4.190532684E0
2.145995313E0,-3.843795061E0,-1.773653269E0,-7.267455459E-1
2.167993750E0,-3.098096848E-1,-3.254199028E-1,-3.317051411E0
2.187993750E0,1.913359880E0,-4.316276550E0,-4.519151211E0
2.207993750E0,1.656347036E0,-6.834133625E0,-3.479081631E0
2.227993750E0,1.591349244E0,-8.190229416E0,-3.806694508E0
2.247995313E0,1.804710984E0,-9.613150597E0,-4.187305450E0
2.267995313E0,7.281820774E-1,-1.003185844E1,-6.555400848E0
2.287995313E0,1.612446904E-1,-8.397040367E0,-9.109535217E0
2.308003125E0,1.141009569E0,-7.690443993E0,-1.057914448E1
2.329993750E0,3.688794672E-1,-8.839833260E0,-3.606989145E0
2.349995313E0,-6.734391689E0,-1.447557354E1,3.196862459E0
2.369995313E0,-9.502318382E0,-2.455935669E1,7.318021059E-1
2.389995313E0,-6.628414631E0,-9.262017250E0,2.884151220E0
2.409995313E0,-2.551366806E0,-3.079920053E0,3.579427242E0
2.429995313E0,-2.339872599E0,-8.656159401E0,2.233531475E0
2.451993750E0,-3.050797224E0,-1.414866924E1,2.751866817E0
2.471993750E0,-1.448721886E0,-1.511671162E1,2.852336884E0
2.491993750E0,2.298548698E0,-1.284595490E1,-4.510245323E0
2.511993750E0,1.591272593E0,-9.543814659E0,-1.614170820E-1
2.531993750E0,1.836956024E0,-7.289501667E0,4.907922149E-1
2.551993750E0,9.868324399E-1,-7.881654263E0,-8.349059820E-1
2.571993750E0,-4.282556474E-1,-8.494503021E0,-1.197675467E-1
2.591993750E0,-1.563758373E0,-7.811437607E0,-1.706012487E-1
2.611993750E0,-1.562159181E0,-7.551207066E0,-2.441989928E-1
2.631993750E0,-9.913910627E-1,-8.152908325E0,1.013609245E-1
2.651995313E0,-1.182764411E0,-8.173526764E0,-1.038796231E-1
2.671995313E0,-1.377451301E0,-8.017855644E0,3.794809580E-1
2.693993750E0,-1.155939698E0,-7.676701069E0,1.042339563E0
2.713993750E0,-9.835954905E-1,-8.068402290E0,1.321541905E0
2.733993750E0,-8.323298097E-1,-9.865624428E0,8.836040497E-1
2.753995313E0,-4.876605868E-1,-1.121785927E1,-6.225116253E-1
2.773995313E0,3.335697651E-1,-1.093591881E1,-2.181606293E0
2.795993750E0,1.596731424E0,-1.180313683E1,-2.805324554E0
2.815993750E0,2.353280067E0,-1.248352051E1,-1.770061970E0
2.835993750E0,1.372911811E0,-1.197258854E1,-8.646036983E-1
2.855993750E0,-1.246009588E0,-1.283106327E1,-2.567445993E0
2.875993750E0,-2.942636728E0,-1.341939545E1,-6.059341431E0
2.895993750E0,-2.752958536E0,-1.292108536E1,-5.551962376E0
2.915993750E0,-2.176951885E0,-1.180917931E1,6.606177092E-1
2.935993750E0,-1.552266359E0,-1.128370953E1,3.658809662E0
2.955993750E0,-2.228666544E0,-1.298573875E1,2.426724672E0
2.975993750E0,-1.616871476E0,-1.609132385E1,2.373496532E0
2.995993750E0,-3.989180565E0,-1.696493912E1,8.881530911E-2
3.015993750E0,-5.733193874E0,-1.468488407E1,-4.715945244E0
3.035993750E0,-5.056582451E0,-1.106647968E1,-2.506164074E0
3.055993750E0,-4.458865166E0,-8.226984024E0,3.095223904E-1
3.075993750E0,-4.262234211E0,-7.392116547E0,5.262168050E-1
3.095993750E0,-3.629858971E0,-7.910270214E0,-1.925895922E-2
3.115993750E0,-2.935693502E0,-7.372245312E0,4.893652797E-1
3.135993750E0,-1.545581698E0,-6.913659573E0,1.857172728E0
3.155993750E0,-9.006986767E-2,-6.632695198E0,1.827647328E0
3.175993750E0,6.471144557E-1,-6.556875706E0,9.446657896E-1
3.195995313E0,4.315021932E-1,-6.104763985E0,1.057107091E0
3.217993750E0,-5.893758535E-1,-4.636859894E0,4.827859700E-1
3.237993750E0,-1.393042356E-1,-3.870409012E0,2.969767712E-2
3.257993750E0,4.437892139E-2,-3.851178646E0,-1.452255726E0
3.277993750E0,-8.268423676E-1,-4.870265961E0,-4.535633087E0
3.297993750E0,-2.992570162E0,-7.581632137E0,-9.759771347E0
3.317993750E0,-3.927544355E-1,-1.545921707E1,-1.333827019E1
3.337993750E0,-8.266700059E-2,-1.838117790E1,-1.292733860E1
3.357993750E0,-2.206917763E0,-9.486334801E0,-1.428037930E1
3.377993750E0,-6.577159166E-1,-4.488132477E0,-1.034850597E1
3.397993750E0,9.769012928E-1,-5.826021671E0,-7.188523293E0
3.417993750E0,3.158794880E0,-1.196880531E1,-6.816541195E0
3.437993750E0,-1.458394408E0,-1.338343430E1,6.461184025E0
3.457993750E0,-6.095800400E0,-1.601142502E1,1.157108188E0
3.477993750E0,-7.952034473E0,-1.053755188E1,2.784399271E0
3.497993750E0,-5.474658012E0,-5.583268642E0,3.073618650E0
3.517993750E0,-4.823435783E0,-6.769518852E0,4.590000629E0
3.537993750E0,-3.804807901E0,-1.110228729E1,1.918780327E0
3.557993750E0,-1.956675649E0,-1.502351093E1,2.333954096E0
3.577993750E0,1.778077841E0,-1.497528172E1,-3.910890102E0
3.597993750E0,6.516442299E-1,-1.147880840E1,1.899262667E0
3.617993750E0,2.497142792E0,-8.355974197E0,2.024086714E0
3.637993750E0,2.468833685E0,-7.226763725E0,-1.359676719E0
3.657993750E0,-5.477933586E-2,-8.232548714E0,-5.083081722E-1
3.677993750E0,-7.656273842E-1,-8.123296738E0,-7.639418542E-2
3.697993750E0,-1.116473794E0,-7.131780624E0,-1.416821480E0
3.717993750E0,-6.594206095E-1,-7.604434490E0,-2.610877037E0
3.737993750E0,-1.234546155E-1,-8.174446106E0,-2.244209766E0
3.757993750E0,8.467812091E-2,-8.501627922E0,-2.474647015E-2
3.777993750E0,-1.871403754E-1,-7.946259975E0,2.154254913E0
3.797993750E0,-4.107205272E-1,-7.750710964E0,3.065497637E0
3.817993750E0,-9.135890603E-1,-1.014636803E1,2.913733959E0
3.837993750E0,-1.090290785E0,-1.184259319E1,2.253231108E-1
3.857995313E0,-1.057020903E0,-1.005139542E1,-3.469773054E0
3.877995313E0,1.526543032E-2,-1.006011868E1,-6.064742565E0
3.899993750E0,2.576764345E0,-1.397030067E1,-3.930953503E0
3.920018750E0,2.736448050E0,-1.335067177E1,-5.314744711E-1
3.941995313E0,2.160546780E0,-1.342471027E1,-2.125964880E0
3.963993750E0,5.621297956E-1,-1.567276096E1,-3.754855156E0
3.983995313E0,-2.965927601E0,-1.319093037E1,-2.409036160E0
4.005993750E0,-3.865955830E0,-1.206673813E1,8.970499039E-1
4.025993750E0,-4.104772568E0,-1.317780113E1,1.376570225E0
4.045993750E0,-4.343972683E0,-1.697286987E1,2.297801495E0
4.065993750E0,-3.756579161E0,-1.659560204E1,2.118073702E0
4.085993750E0,-4.253864288E0,-1.292587376E1,1.722168446E0
4.105993750E0,-6.409948349E0,-1.044955063E1,-1.172229886E0
4.125993750E0,-6.036711216E0,-9.199231148E0,-3.585365117E-1
4.145993750E0,-5.009359360E0,-8.072328568E0,5.161994696E-1
4.165993750E0,-3.470165491E0,-7.255494118E0,-4.032984972E-1
4.185993750E0,-2.924115181E0,-6.053193569E0,-5.004839301E-1
4.205993750E0,-2.386396408E0,-5.512323856E0,9.481134415E-1
4.225993750E0,-1.450675488E0,-5.578432560E0,2.728163958E0
4.245993750E0,7.744763792E-2,-6.130650520E0,1.866739869E0
4.265993750E0,8.290737271E-1,-6.014885902E0,1.726516366E0
4.285993750E0,1.185551286E0,-5.667593002E0,8.351742029E-1
4.305993750E0,1.159435272E0,-5.021579742E0,1.341231912E-1
4.325993750E0,7.712489367E-1,-4.274502277E0,8.866208047E-2
4.345993750E0,3.402160704E-1,-4.635212898E0,-2.991507351E-1
4.365993750E0,-1.829170138E-1,-6.808582783E0,-4.339222431E0
4.385993750E0,-6.060394645E-1,-1.201059818E1,-1.441473103E1
4.405993750E0,1.332133822E-2,-1.976925087E1,-2.292041016E1
4.425993750E0,1.784216523E0,-1.693456268E1,-1.413729191E1
4.445993750E0,1.152645230E0,-7.718341351E0,-9.622286797E0
4.465993750E0,8.604186177E-1,-4.010958195E0,-7.989480019E0
4.485993750E0,2.428668737E0,-5.792426109E0,-4.042523384E0
4.505993750E0,-4.145291805E0,-9.302680969E0,1.159401798E1
4.525993750E0,-9.095936775E0,-1.506358910E1,2.327930212E0
4.545993750E0,-9.570381165E0,-1.772577858E1,-1.721909791E-1
4.565993750E0,-5.305867195E0,-5.759998798E0,1.202783680E1
4.585993750E0,-3.663827658E0,-6.243407726E0,4.224386692E0
4.605993750E0,-3.760064840E0,-1.251146603E1,1.103142858E0
4.625993750E0,-2.551414490E0,-1.679758644E1,1.615147591E0
4.645993750E0,-8.562909961E-1,-1.583364201E1,2.474551052E-1
4.665993750E0,4.668214321E-1,-1.288267326E1,1.167125463E0
4.685993750E0,1.512838602E0,-1.029434013E1,2.018101215E0
4.705993750E0,3.157501936E0,-7.213509083E0,1.735317335E-2
4.725995313E0,1.575672030E0,-8.314440727E0,-2.591771126E0
4.747993750E0,4.736113846E-1,-9.406368256E0,2.829946391E-2
4.767993750E0,-1.449641287E-1,-7.654990673E0,1.467837244E-1
4.787993750E0,-4.292229116E-1,-5.914721966E0,-1.292169809E0
4.807993750E0,-7.020469904E-1,-5.656521797E0,-2.432767630E0
4.827993750E0,-9.696900249E-1,-7.034231663E0,-1.862449408E0
4.847993750E0,-9.497223496E-1,-7.875199795E0,3.550601304E-1
4.867993750E0,-5.474294424E-1,-8.768094063E0,2.453798056E0
4.887993750E0,2.511900663E-1,-1.024026871E1,2.583640575E0
4.907993750E0,1.200433612E0,-9.932949066E0,-1.196717769E-1
4.927993750E0,1.767112374E0,-9.510324478E0,-2.796695709E0
4.948037500E0,2.234403133E0,-1.269787884E1,-3.370116711E0
4.969993750E0,1.315747976E0,-1.380614471E1,-2.118801594E0
4.989995313E0,-1.039658114E-1,-1.238844204E1,-1.204398394E0
5.011993750E0,-1.913838625E0,-1.233519554E1,-3.185753345E0
5.031993750E0,-2.525260210E0,-1.374756336E1,-4.924728870E0
5.051993750E0,-3.067058563E0,-1.381290627E1,-7.041644096E0
5.071993750E0,-6.872411966E-1,-1.373870468E1,3.189641714E0
5.091995313E0,-1.167240381E0,-1.236611938E1,3.880924225E0
5.113993750E0,-1.754509330E0,-1.549530220E1,3.104475021E0
5.133993750E0,-2.223322868E0,-1.884764481E1,2.707497358E0
5.153993750E0,-2.439749002E0,-1.717922974E1,1.886075497E0
5.173993750E0,-3.436685085E0,-1.328124046E1,-3.966943026E0
5.193993750E0,-3.932591200E0,-9.996816635E0,-2.909338236E0
5.213993750E0,-4.223362446E0,-7.420473576E0,4.782848954E-1
5.233993750E0,-3.658627510E0,-7.534687042E0,2.194094181E0
5.253993750E0,-3.268334150E0,-7.818773270E0,2.539548874E0
5.273993750E0,-2.888795853E0,-6.516624451E0,3.271351099E0
5.293993750E0,-2.308489233E-1,-6.433823109E0,2.125418901E0
5.313993750E0,7.569795251E-1,-5.775542259E0,1.921337247E0
5.333993750E0,1.257683754E0,-5.533105373E0,1.737635016E0
5.353995313E0,-1.420336217E-1,-4.507956028E0,1.879946232E0
5.373995313E0,-1.106705308E0,-3.902989149E0,1.514073968E0
5.395993750E0,-9.106873274E-1,-3.937609434E0,2.490831614E-1
5.415993750E0,-1.440581560E0,-3.958908319E0,-1.103401423E0
5.435993750E0,-2.057768583E0,-5.102254391E0,-4.129471302E0
5.455993750E0,-2.285141230E0,-1.054393959E1,-9.995112419E0
5.475993750E0,2.217174292E0,-1.935739899E1,-1.506975651E1
5.495993750E0,1.310969144E-1,-1.819190979E1,-1.487341309E1
5.515993750E0,2.707267404E-1,-9.248839378E0,-1.252355194E1
5.535993750E0,1.472568154E0,-4.779870510E0,-9.671502113E0
5.555993750E0,2.058659077E0,-9.572161674E0,-1.036697960E1
5.575993750E0,-2.239928961E0,-1.462813187E1,5.551321030E0
5.595993750E0,-6.702768326E0,-1.605521965E1,1.313762569E1
5.615993750E0,-3.996640921E0,-1.010601139E1,-1.894349813E0
5.635993750E0,-2.405464172E0,-3.532414913E0,4.185657978E0
5.655993750E0,-1.921978831E0,-5.349058628E0,4.659959316E0
5.675993750E0,-3.575529575E0,-1.440890884E1,2.858111858E0
5.695993750E0,-8.200811148E-1,-1.849756432E1,2.439806461E0
5.715993750E0,1.981259346E0,-1.375604916E1,-6.202533722E0
5.735993750E0,1.345991492E0,-9.853864670E0,-7.371076941E-1
5.755993750E0,3.969394863E-1,-9.564471245E0,4.428315535E-2
5.775993750E0,-6.426037550E-1,-8.411826134E0,-3.314532712E-2
5.795993750E0,-1.464964151E0,-7.771961689E0,6.574382186E-1
5.815993750E0,-1.935472608E0,-7.674240112E0,2.663788795E-1
5.835993750E0,-2.175544024E0,-7.411002636E0,-1.179201841E0
5.855995313E0,-2.366457701E0,-7.316967964E0,-3.112481356E0
5.877993750E0,-2.100844860E0,-7.729364395E0,-3.432059288E0
5.897993750E0,-1.190090537E0,-8.396455765E0,-1.559410691E0
5.917993750E0,-4.464611411E-1,-8.168642998E0,1.067248940E0
5.937993750E0,-1.276396811E-1,-7.717986584E0,2.623690605E0
5.957993750E0,-2.206496149E-2,-8.486315727E0,3.170717955E0
5.977993750E0,1.234354600E-1,-1.065494442E1,1.004875183E0
6.000012500E0,2.884151042E-1,-1.063807011E1,-2.211849689E0
6.021995313E0,6.896449924E-1,-9.753987312E0,-2.615129232E0
6.043993750E0,1.563720226E0,-1.104576492E1,1.307904571E-1
6.063993750E0,1.876077294E0,-1.167528629E1,1.933317900E0
6.083993750E0,1.674408913E0,-1.239724350E1,1.789617985E-1
6.103993750E0,4.124156237E-1,-1.353716087E1,-2.945960045E0
6.123993750E0,-3.748170733E-1,-1.476626778E1,-3.991526842E0
6.143993750E0,-1.133539557E0,-1.401802254E1,-3.575520039E0
6.163993750E0,-3.254285097E0,-1.190350151E1,-4.441799641E0
6.183993750E0,-4.087859631E0,-1.078520775E1,-2.402954817E0
6.203993750E0,-2.742289782E0,-1.159275246E1,1.759115696E0
6.223993750E0,-3.190704823E0,-1.380911350E1,1.803178549E0
6.243993750E0,-3.544088840E0,-1.589127445E1,1.606509447E0
6.263993750E0,-1.720645785E0,-1.457806492E1,-5.608177930E-2
6.283993750E0,-9.358455539E-1,-1.246263409E1,-1.948631167E0
6.303993750E0,-1.684723139E0,-1.050144768E1,-1.796273828E0
6.323993750E0,-2.586839199E0,-9.116823196E0,5.195417404E-1
6.343993750E0,-2.377528667E0,-8.579823494E0,2.060258627E0
6.363993750E0,-2.133214712E0,-8.124588966E0,1.984304786E0
6.383993750E0,-1.700582266E0,-7.386495113E0,7.210186124E-1
6.403993750E0,-1.480210423E0,-6.723148346E0,8.711638451E-1
6.423993750E0,-6.638067365E-1,-6.364496708E0,1.368391633E0
6.443993750E0,2.426571399E-1,-6.361461163E0,1.307444811E0
6.463993750E0,-9.894565344E-1,-5.380633354E0,1.148488998E0
6.483993750E0,-2.478027582E0,-3.998690367E0,9.651697278E-1
6.503993750E0,-2.970505238E0,-3.391607046E0,-7.110778987E-2
6.523993750E0,-2.309858561E0,-3.332738400E0,-9.549129605E-1
6.543993750E0,-2.070955753E0,-4.053852558E0,-2.377758265E0
6.563993750E0,-2.189784765E0,-6.405303478E0,-6.368940353E0
6.583993750E0,2.587940395E-1,-1.386116409E1,-1.237192154E1
6.603993750E0,2.385324001E0,-2.081620598E1,-1.767190933E1
6.623993750E0,2.182755470E0,-1.776336670E1,-1.536390781E1
6.643993750E0,1.961368322E0,-1.087479877E1,-9.161996841E0
6.663995313E0,2.410520554E0,-7.422935009E0,-7.085946083E0
6.685993750E0,-2.741265297E-1,-9.663093567E0,-6.256652355E0
6.705993750E0,1.374846399E-1,-1.697770500E1,-7.895991325E0
6.725993750E0,-3.986881971E0,-1.547276783E1,6.449701786E0
6.745993750E0,-7.689409733E0,-7.043703079E0,8.561004639E0
6.765993750E0,-7.179646015E0,7.866389304E-2,6.213815212E-1
6.785993750E0,-6.075870991E0,5.685846210E-1,-2.792625427E0
6.805993750E0,-5.551732540E0,-7.042467594E0,1.532949805E0
6.825993750E0,-4.271207809E0,-1.262709713E1,3.998498678E0
6.847992188E0,-1.293347776E-1,-2.182116508E1,4.457026958E0
6.867993750E0,2.330822468E0,-1.645289612E1,-2.824659824E0
6.887993750E0,2.514582157E0,-9.446293831E0,1.212509871E0
6.907993750E0,3.481341600E0,-9.014226913E0,-5.670523047E-1
6.927993750E0,2.034698009E0,-8.670792580E0,1.062307239E0
6.947993750E0,6.638929844E-1,-7.586190701E0,1.715838194E0
6.967993750E0,-5.687186718E-1,-7.063718796E0,-2.357330918E-1
6.987993750E0,-8.302995563E-1,-8.343667984E0,-1.823222876E0
7.007993750E0,-7.536276579E-1,-8.650662422E0,-1.654901028E0
7.027993750E0,-4.918648005E-1,-8.029960632E0,-1.207328916E0
7.047993750E0,-2.919202149E-1,-7.541323662E0,-2.509602308E-1
7.067993750E0,-5.906878710E-1,-7.416633129E0,8.810088038E-1
7.087993750E0,-1.114663720E0,-8.077451706E0,1.463211536E0
7.107993750E0,-1.147521734E0,-9.584995270E0,2.271245003E0
7.127995313E0,-8.216900229E-1,-1.071987534E1,1.494566083E0
7.147995313E0,1.689061373E-1,-1.045980740E1,-7.015681267E-1
7.169993750E0,1.164779186E0,-1.166576672E1,-3.397783995E0
7.189995313E0,1.562389016E0,-1.326290989E1,-3.081462145E0
7.211993750E0,8.656284213E-1,-1.255887127E1,-7.538478971E-1
7.231995313E0,-3.260806799E-1,-1.272146606E1,-3.906762600E-1
7.253993750E0,-5.198769569E-1,-1.414689732E1,-1.360088468E0
7.273993750E0,7.778282464E-2,-1.490344620E1,-1.122890115E0
7.293993750E0,-1.133156538E0,-1.401678753E1,-1.029487491E0
7.313995313E0,-4.876903057E0,-1.099299622E1,-5.435891151E0
7.333995313E0,-3.354420185E0,-1.200133801E1,-3.397372067E-1
7.353995313E0,-2.949541569E0,-1.360434246E1,1.916979909E0
7.375993750E0,-3.933242321E0,-1.535704231E1,2.283781052E0
7.395993750E0,-3.839667559E0,-1.353347397E1,1.261322856E0
7.415993750E0,-2.770915031E0,-1.093698120E1,-5.011925697E-1
7.435993750E0,-2.204466105E0,-9.586738586E0,-3.645928621E0
7.455993750E0,-2.855047226E0,-8.192564964E0,-1.449401855E0
7.475993750E0,-3.133598089E0,-7.929653168E0,1.958562374E0
7.495993750E0,-2.305740833E0,-7.429140568E0,2.937934637E0
7.515993750E0,-1.609104633E0,-6.166132450E0,4.340476990E0
7.535993750E0,7.034547925E-1,-6.719058990E0,3.364092827E0
7.555993750E0,2.649921656E0,-8.306357384E0,3.714843467E-2
7.575993750E0,2.407590151E0,-8.612738609E0,1.402274370E0
7.595993750E0,-1.886630990E-2,-6.423240662E0,2.204839706E0
7.615993750E0,-1.967717767E0,-4.704720974E0,1.324405432E0
7.635993750E0,-2.735595703E0,-4.179442883E0,-2.240972780E-2
7.655993750E0,-2.852672100E0,-3.330554962E0,-1.000115514E0
7.675993750E0,-2.960966825E0,-3.193118095E0,-3.069146156E0
7.695993750E0,-3.264072657E0,-7.195888042E0,-8.881416321E0
7.715993750E0,1.474062085E0,-1.785188675E1,-1.220157051E1
7.735993750E0,2.754662991E0,-2.053762436E1,-1.407514763E1
7.755993750E0,1.905229092E0,-1.286883354E1,-1.424231148E1
7.775993750E0,9.468109608E-1,-7.564078331E0,-9.286791801E0
7.795993750E0,-2.207817793E0,-1.360891056E1,-7.373968601E0
7.815993750E0,-4.903708100E-1,-1.920875740E1,-1.744932532E0
7.835993750E0,-3.076740742E0,-1.034040451E1,1.554917145E1
7.855995313E0,-3.840730429E0,-4.398742199E0,6.263078690E0
7.877995313E0,-5.884641171E0,7.383718155E-3,-7.904542923E0
7.899993750E0,-5.403339863E0,-6.599032879E0,4.462686539E0
7.920023438E0,-4.400331974E0,-1.326117706E1,5.041020393E0
7.942035938E0,-5.120143890E-1,-1.854201889E1,3.432432890E0
7.963993750E0,2.586082458E0,-1.326006508E1,-5.847809315E0
7.983993750E0,2.184680462E0,-8.794046402E0,1.870225787E0
8.003993750E0,1.248403788E0,-9.519441605E0,-1.753963351E0
8.023993750E0,-3.456652462E-1,-9.218663216E0,7.746966481E-1
8.043995313E0,-1.189448953E0,-8.245142937E0,1.645467758E0
8.065993750E0,-1.683698416E0,-7.430605888E0,3.805056810E-1
8.085993750E0,-2.083453417E0,-7.173086166E0,-1.839963078E0
8.105993750E0,-1.644318581E0,-8.154067039E0,-2.552630901E0
8.125995313E0,-8.826464415E-1,-8.586067200E0,-1.448702812E0
8.145995313E0,-3.892684579E-1,-8.502413750E0,2.833585441E-1
8.165995313E0,-3.251709044E-1,-8.201787949E0,1.340015531E0
8.187993750E0,-4.604528844E-1,-8.283152580E0,1.245645642E0
8.207995313E0,-5.000146627E-1,-9.879750252E0,5.477933213E-3
8.227995313E0,-1.717025787E-1,-1.093254757E1,-1.309724092E0
8.247995313E0,4.050414860E-1,-1.035363007E1,-1.561392903E0
8.269993750E0,1.248202682E0,-1.068696022E1,-8.537531495E-1
8.289995313E0,1.996448278E0,-1.198774910E1,-6.571987867E-1
8.309995313E0,1.912497878E0,-1.298384190E1,-1.372500181E0
8.331993750E0,9.570007324E-1,-1.429254055E1,-2.522234201E0
8.351993750E0,-5.161611438E-1,-1.449916077E1,-2.246441126E0
8.371995313E0,-2.155250788E0,-1.285803127E1,-1.669179916E0
8.393993750E0,-4.415741444E0,-1.048466873E1,-4.982314587E0
8.413993750E0,-4.701177597E0,-1.121008301E1,-2.356287003E0
8.433993750E0,-3.021827459E0,-1.405992126E1,1.077505708E0
8.453993750E0,-2.663491964E0,-1.545586491E1,2.403788090E0
8.473995313E0,-1.967593312E0,-1.434997368E1,1.314100742E0
8.495993750E0,-8.215463758E-1,-1.182713604E1,-2.505072594E0
8.515993750E0,-1.703091383E0,-1.020932579E1,-2.404056072E0
8.535993750E0,-2.392995119E0,-9.024905205E0,6.272329688E-1
8.555993750E0,-2.398827314E0,-8.463905334E0,2.037197590E0
8.575993750E0,-1.860840559E0,-8.000330925E0,1.470758080E0
8.595993750E0,-1.777742624E0,-7.366978168E0,7.698124647E-1
8.615993750E0,-1.551911950E0,-7.180393219E0,1.234009862E0
8.635993750E0,-1.135665655E0,-7.281006813E0,2.141077042E0
8.655993750E0,-6.626862884E-1,-7.089853287E0,1.917113900E0
8.675993750E0,-1.068963170E0,-5.776500225E0,1.409504890E0
8.695993750E0,-2.395657539E0,-3.827303648E0,5.677226782E-1
8.715993750E0,-2.582002878E0,-3.061820030E0,4.185064696E-3
8.735993750E0,-1.993440986E0,-3.032840490E0,-3.758226335E-1
8.755993750E0,-1.755773425E0,-3.696149349E0,-1.081288576E0
8.775993750E0,-1.894685030E0,-6.385891438E0,-5.039842129E0
8.795995313E0,8.257984519E-1,-1.592930412E1,-1.425909996E1
8.815995313E0,4.070899487E0,-2.402413940E1,-1.570899868E1
8.835995313E0,4.428430080E0,-1.848020172E1,-1.430263615E1
8.855995313E0,2.956341028E0,-9.386075020E0,-9.333632469E0
8.877993750E0,-1.662198544E0,-1.382281876E1,-7.471432209E0
8.897993750E0,-2.497152388E-1,-2.067548180E1,-7.475176811E0
8.917993750E0,-3.426456928E0,-9.082470894E0,2.093451500E1
8.937993750E0,-5.700670719E0,-3.215087175E0,1.125228786E1
8.957993750E0,-1.083810043E1,2.193088770E0,-1.247547626E1
8.977993750E0,-1.066316128E1,-3.316821814E0,-4.313709736E0
8.997993750E0,-6.892964363E0,-9.961066246E0,7.648497581E0
9.017993750E0,-4.513874531E0,-1.485759163E1,5.112798214E0
9.037993750E0,-8.014542460E-1,-1.996152306E1,2.230265856E0
9.057993750E0,1.165123940E0,-1.396003437E1,-2.923349142E0
9.077993750E0,2.481532812E0,-1.061916637E1,2.622081757E0
9.097993750E0,3.960565090E0,-1.114607239E1,-9.181763530E-1
9.117993750E0,3.204753876E0,-9.057810783E0,6.254900098E-1
9.137993750E0,2.278121233E0,-6.283371449E0,-1.546654291E-2
9.157993750E0,9.769970775E-1,-6.811130524E0,-1.354150891E0
9.177993750E0,-3.999370337E-1,-9.395431519E0,-1.019546866E0
9.197993750E0,-1.365001440E0,-9.350305557E0,-1.093192458E0
9.217993750E0,-1.487086535E0,-8.349156380E0,-1.152626157E0
9.237993750E0,-1.770837784E0,-8.116209030E0,-1.353279471E0
9.257998438E0,-1.795440555E0,-8.706629753E0,-1.133338451E0
9.279995313E0,-9.795349836E-1,-9.079607010E0,3.488639295E-1
9.299995313E0,5.811206251E-2,-9.124876976E0,1.804979086E0
9.320015625E0,9.829442501E-1,-9.825803757E0,1.951619148E0
9.341993750E0,2.282315969E0,-1.211792660E1,-6.273287535E-1
9.361995313E0,3.165948629E0,-1.296576118E1,-4.308730125E0
9.381995313E0,1.479903936E0,-1.161123657E1,-6.069636822E0
9.403993750E0,-1.369311094E0,-1.106147099E1,-3.739886761E0
9.423993750E0,-1.653550625E0,-1.245218563E1,-3.035981894E0
9.443993750E0,-5.182201266E-1,-1.406021786E1,-1.072142720E0
9.463993750E0,-5.768206716E-1,-1.299162769E1,7.349145412E-1
9.483993750E0,-1.950642347E0,-1.160834503E1,-1.068493843E0
9.503993750E0,-2.675798178E0,-1.426732540E1,-1.368046880E0
9.523995313E0,-1.737175345E0,-1.639721680E1,2.373036861E0
9.543995313E0,-1.918358922E0,-1.493643856E1,3.162299871E0
9.565993750E0,-1.977926612E0,-1.188965321E1,7.538958192E-1
9.585993750E0,-2.828021526E0,-1.009854221E1,-2.821202993E0
9.605993750E0,-3.035100937E0,-8.497405052E0,-5.125698447E-1
9.625993750E0,-2.841419458E0,-8.091396332E0,1.317174792E0
9.645993750E0,-2.860084772E0,-8.504165649E0,1.717772722E0
9.665993750E0,-2.686428547E0,-8.106796265E0,1.637250900E0
9.685993750E0,-1.938096642E0,-7.099986076E0,2.317529678E0
9.705993750E0,-1.147052526E0,-6.145293236E0,2.124863625E0
9.725993750E0,-1.058974624E0,-6.035198212E0,1.305222988E0
9.745993750E0,-1.199246049E0,-6.176082611E0,1.343204618E0
9.765993750E0,-1.368410826E0,-5.666491032E0,1.304533482E0
9.785993750E0,-1.393272161E0,-4.977726936E0,-3.289250135E-1
9.805993750E0,-1.209914684E0,-4.198596478E0,-1.260202408E0
9.825993750E0,-1.512177706E0,-3.611107349E0,-1.736275077E0
9.845993750E0,-1.305337906E0,-5.394184113E0,-4.008209705E0
9.865993750E0,2.434520125E-1,-1.155975151E1,-1.088135910E1
9.885993750E0,1.963436842E0,-2.098909569E1,-1.640074158E1
9.905993750E0,1.892549396E0,-1.886684608E1,-1.733103371E1
9.925993750E0,4.093089104E0,-1.234537506E1,-8.732199669E0
9.945993750E0,2.945960045E0,-1.151278687E1,-9.601820946E0
9.965993750E0,-3.992360115E0,-1.291428566E1,9.022884369E0
9.985993750E0,-8.473252296E0,-1.267407990E1,1.239122009E1
1.000599375E1,-7.698029041E0,-4.632665634E0,-3.519667864E0
1.002599375E1,-5.849159241E0,-1.190741777E0,-3.264676094E0
1.004599375E1,-6.053164482E0,-6.797042847E0,3.427558422E0
1.006599375E1,-5.396090508E0,-1.499550819E1,4.220144749E0
1.008599375E1,2.402744055E0,-1.742610168E1,-6.366009712E0
1.010599375E1,1.468124509E0,-1.364564705E1,1.690229774E0
1.012599375E1,2.600361586E0,-1.206848145E1,2.489969775E-4
1.014599375E1,2.467636824E0,-8.870172501E0,2.669247687E-1
1.016599375E1,1.209014416E0,-6.528902054E0,1.026480436E0
1.018599375E1,-5.590940118E-1,-6.833511353E0,7.095360160E-1
1.020599375E1,-1.402389288E0,-8.476536751E0,-3.667916730E-2
1.022599375E1,-1.569705725E0,-8.750318527E0,-1.438350201E0
1.024599375E1,-1.317490816E0,-8.299595833E0,-1.782636404E0
1.026599375E1,-1.037886500E0,-7.710593700E0,-1.554133773E0
1.028599375E1,-7.209994793E-1,-7.373825073E0,-1.040998921E-1
1.030599375E1,-8.125633597E-1,-7.678855896E0,1.193863869E0
1.032599375E1,-1.012814283E0,-8.466481209E0,1.942789316E0
1.034599375E1,-1.198958755E0,-9.902351379E0,1.826440692E0
1.036599375E1,-8.765746951E-1,-1.024388885E1,4.196557030E-2
1.038599375E1,5.025525093E-1,-9.750644684E0,-1.885328531E0
1.040599375E1,1.958342075E0,-1.155268383E1,-2.699002743E0
1.042599375E1,2.612715721E0,-1.323426533E1,-1.743601322E0
1.044599375E1,2.347744703E0,-1.255437946E1,-4.251814783E-1
1.046599375E1,8.150916100E-1,-1.196875763E1,-1.386070490E0
1.048599375E1,-8.960156441E-1,-1.257180023E1,-4.000433445E0
1.050599531E1,-1.456900477E0,-1.322227573E1,-5.738547325E0
1.052799375E1,-1.286289692E0,-1.233815384E1,-4.318316460E0
1.054799375E1,-7.825208902E-1,-1.185089684E1,2.313890696E0
1.056799375E1,-5.046689510E-1,-1.352698135E1,3.710208178E0
1.058799375E1,-1.124834180E0,-1.711414719E1,2.891046286E0
1.060799375E1,-2.246077061E0,-1.784903336E1,2.318975925E0
1.062799375E1,-1.251190662E0,-1.485251617E1,6.836498976E-1
1.064799375E1,-6.132317185E-1,-1.184912395E1,-4.176455021E0
1.066799375E1,-2.536292791E0,-9.834633827E0,-2.945720434E0
1.068799375E1,-3.689033985E0,-8.193753242E0,8.296196461E-1
1.070799375E1,-3.442000151E0,-8.204316139E0,2.282153130E0
1.072799375E1,-3.542920351E0,-7.570073128E0,1.496452689E0
1.074799375E1,-2.519054413E0,-6.801515102E0,1.946821213E0
1.076799375E1,-8.870038390E-1,-5.662420750E0,3.816309452E0
1.078799375E1,-6.858909130E-2,-5.324542046E0,3.527540207E0
1.080799375E1,-4.156334326E-2,-5.733538628E0,1.600677133E0
1.082799375E1,-1.133501172E0,-6.216669559E0,1.602027297E0
1.084799375E1,-2.370269299E0,-5.950510979E0,1.683018446E0
1.086799375E1,-2.475403547E0,-5.172625065E0,3.229874074E-1
1.088799375E1,-2.571305752E0,-3.855478764E0,-1.266810417E0
1.090799375E1,-3.099073648E0,-3.030149698E0,-3.343406916E0
1.092799375E1,-2.110383511E0,-6.883234024E0,-6.545392990E0
1.094799375E1,1.256802559E0,-1.545978260E1,-1.277140903E1
1.096799375E1,2.957566977E0,-1.977934456E1,-1.802926826E1
1.098799375E1,5.812930107E0,-1.542079449E1,-1.406520748E1
1.100799375E1,7.125805378E0,-1.097191811E1,-8.043588638E0
1.102799375E1,5.720973492E0,-7.501311302E0,-1.000815487E1
1.104799375E1,5.394845009E0,-1.000060940E1,-1.387200505E-1
1.106799375E1,-7.640797615E0,-8.434542656E0,1.595429993E1
1.108799375E1,-1.287057686E1,-1.694729805E1,-2.651592827E1
1.110799375E1,-9.672201157E0,-8.924166679E0,9.344962120E0
1.112799375E1,-5.183417797E0,-2.371169329E0,7.156566143E0
1.114799375E1,-3.914165497E0,-7.171007633E0,7.833636403E-1
1.116799375E1,-3.999877930E0,-1.464926720E1,-3.925533220E-2
1.118799375E1,-1.042444944E0,-1.900213623E1,-3.225343943E0
1.120799375E1,-3.051553667E-1,-1.540819168E1,4.663474083E0
1.122799375E1,3.060881615E0,-1.421025753E1,7.397987843E-1
1.124799375E1,2.776986599E0,-1.043382549E1,-1.601816714E-1
1.126799531E1,9.209440351E-1,-7.368356705E0,1.629723549E0
1.129000781E1,-6.429197788E-1,-7.194317341E0,7.177337408E-1
1.131199531E1,-1.281223536E0,-8.323422432E0,-4.673960507E-1
1.133399375E1,-1.400675058E0,-7.718561649E0,-1.797183633E0
1.135399531E1,-1.541913867E0,-6.539637089E0,-2.429903984E0
1.137399531E1,-1.085320354E0,-6.551177502E0,-1.928634763E0
1.139599375E1,-8.068364263E-1,-6.509020329E0,-5.834764838E-1
1.141599375E1,-5.453608632E-1,-6.443046093E0,8.563867807E-1
1.143599375E1,-4.908017516E-1,-7.243829727E0,1.699691653E0
1.145599375E1,1.764718145E-1,-9.543718338E0,1.093020201E0
1.147599375E1,1.277967453E0,-1.017716694E1,-3.813963234E-1
1.149599531E1,1.957566381E0,-9.882346153E0,-5.748766065E-1
1.151799375E1,2.530403137E0,-1.170503235E1,-5.939056873E-1
1.153799375E1,1.991726756E0,-1.371746349E1,-1.120553493E0
1.155799375E1,-4.332547262E-2,-1.260833454E1,-2.175917387E0
1.157799375E1,-1.536502957E0,-1.293219471E1,-3.571976662E0
1.159799375E1,-1.643925905E0,-1.458894348E1,-5.145005226E0
1.161799375E1,-1.975120753E-1,-1.599192715E1,-5.152896404E0
1.163799375E1,-1.374434590E0,-1.349748421E1,-4.941105366E0
1.165799375E1,-1.123110533E0,-1.248620224E1,1.698781848E0
1.167799375E1,-4.401596189E-1,-1.307469749E1,3.913629055E0
1.169799375E1,-1.817467332E0,-1.643072701E1,2.833758116E0
1.171799375E1,-3.538218260E0,-1.948666573E1,1.519647717E0
1.173799375E1,-2.275765419E0,-1.653034401E1,-6.400945783E-1
1.175799375E1,-1.139074922E0,-1.191547298E1,-3.167528868E0
1.177799531E1,-1.437047720E0,-9.355160713E0,-3.097560883E0
1.180000156E1,-3.358758450E0,-7.439943314E0,5.346348286E-1
1.182002031E1,-3.537270308E0,-7.890580177E0,2.592317104E0
1.184199375E1,-2.467148304E0,-7.727458477E0,3.015372515E0
1.186199375E1,-9.271402359E-1,-6.512257099E0,1.019441485E0
1.188199531E1,-3.413078189E-1,-5.816329956E0,2.567417383E0
1.190399375E1,3.558070958E-1,-5.813542843E0,2.545218229E0
1.192399375E1,4.045243189E-2,-5.323153496E0,2.423564196E0
1.194399375E1,-1.990414739E0,-3.634781361E0,2.265470266E0
1.196399375E1,-2.970170021E0,-3.192409515E0,9.511492848E-1
1.198399375E1,-2.523843050E0,-3.663482904E0,-1.194898114E-1
1.200399375E1,-1.887167215E0,-3.847108603E0,-1.498751044E0
1.202399375E1,-2.101706743E0,-4.167376041E0,-3.488658428E0
1.204399531E1,-2.569466829E0,-7.573013306E0,-6.695346832E0
1.206599375E1,1.201008201E0,-1.910394859E1,-1.220511341E1
1.208599375E1,2.816452742E0,-2.139665413E1,-2.039659691E1
1.210599375E1,3.766931534E0,-1.517518711E1,-1.542719173E1
1.212599375E1,2.791447639E0,-8.797024727E0,-9.960558891E0
1.214599375E1,2.906436205E0,-6.166247368E0,-6.700977802E0
1.216599531E1,1.852767348E0,-9.627821922E0,-9.096529961E0
1.218799375E1,-1.699864030E0,-1.348332977E1,7.838587284E0
1.220799375E1,-9.003979683E0,-1.222711086E1,8.180172920E0
1.222799375E1,-9.170884132E0,-6.954706192E0,-4.403875351E0
1.224799375E1,-4.526132584E0,-3.838997126E0,4.100472450E0
1.226799375E1,-3.963773251E0,-7.164677143E0,6.013190746E0
1.228799375E1,-3.836737156E0,-1.561801910E1,2.706769466E0
1.230800312E1,-2.040817499E0,-1.796115875E1,3.136481047E0
1.232999375E1,6.910431981E-1,-1.359799290E1,-4.245790958E0
1.235000156E1,1.183195353E0,-9.607720375E0,-2.487489223E0
1.237000156E1,2.236874104E0,-7.436543941E0,2.974958420E0
1.239199375E1,1.314857244E0,-8.356482506E0,-3.363949358E-1
1.241199375E1,1.628536135E-1,-9.051815033E0,8.796775937E-1
1.243199531E1,-6.345400214E-1,-8.295861244E0,4.869519174E-1
1.245399375E1,-1.000824213E0,-7.301434040E0,-2.523335457E0
1.247399531E1,-4.774133861E-1,-7.708151340E0,-2.178800106E0
1.249599375E1,-4.158153832E-1,-7.827564716E0,-1.341796875E0
1.251599375E1,-1.412387490E-1,-7.646649361E0,-3.497450054E-1
1.253599375E1,2.193088643E-2,-7.614164352E0,5.526679754E-1
1.255599375E1,1.134181246E-1,-8.527839661E0,1.628382802E0
1.257599375E1,3.846237063E-1,-9.380261421E0,1.545830727E0
1.259599375E1,1.177813053E0,-9.130355835E0,2.797193527E-1
1.261599375E1,2.125792503E0,-1.023804665E1,-1.326014280E0
1.263599375E1,2.659776211E0,-1.320508480E1,-2.966664791E0
1.265599375E1,2.049302578E0,-1.272615910E1,-3.112701654E0
1.267599375E1,1.993891224E-2,-1.182560349E1,-1.260930300E0
1.269599375E1,-1.794913769E0,-1.289136791E1,-1.235580444E0
1.271599375E1,-2.059319735E0,-1.553802395E1,-2.554776192E0
1.273599375E1,-2.800114632E0,-1.455331707E1,-9.642378807E0
1.275599375E1,-2.365547895E0,-1.267278671E1,-3.586236238E0
1.277599375E1,-9.546639919E-1,-1.234439850E1,3.533487320E0
1.279599375E1,-6.756724119E-1,-1.329371834E1,3.808351278E0
1.281599375E1,-9.655719399E-1,-1.687802887E1,3.454449892E0
1.283599375E1,-1.070926428E0,-1.733845520E1,2.510090590E0
1.285599531E1,4.596867263E-1,-1.338320446E1,-2.889533281E0
1.287801719E1,-1.309388876E0,-1.033904362E1,-3.706760406E0
1.289999375E1,-3.322903156E0,-8.594618797E0,2.732167244E-1
1.292002188E1,-3.762009144E0,-8.523127556E0,2.952586889E0
1.294199375E1,-3.461172819E0,-8.491410255E0,5.123400092E-1
1.296199375E1,-2.304064751E0,-8.122367859E0,-1.513422877E-1
1.298199375E1,-1.311773539E0,-7.147046566E0,1.973626733E0
1.300199375E1,-3.149524629E-1,-6.543927670E0,2.474311829E0
1.302199531E1,1.353202760E-1,-6.157599449E0,1.388579488E0
1.304399375E1,-1.926566243E0,-4.007903099E0,1.696406841E0
1.306399844E1,-3.175180674E0,-2.899694443E0,9.261825681E-1
1.308599375E1,-2.930962563E0,-2.764125109E0,-2.385774106E-1
1.310599375E1,-2.550476074E0,-3.005364656E0,-4.759385586E-1
1.312599375E1,-1.925828815E0,-3.880004883E0,-1.824458241E0
1.314599375E1,-3.500227034E-1,-8.403236389E0,-6.847014427E0
1.316599375E1,4.368288040E0,-1.941606712E1,-1.645397758E1
1.318599375E1,4.535029888E0,-2.065633011E1,-1.796122551E1
1.320599375E1,2.585795403E0,-1.347114849E1,-1.151742172E1
1.322599375E1,8.102840781E-1,-9.482025146E0,-9.707357407E0
1.324599375E1,-2.696503162E0,-1.896464539E1,-1.910922432E1
1.326599375E1,-2.555858195E-1,-1.830597115E1,9.543622971E0
1.328599375E1,-5.845711231E0,-5.879220486E0,2.009867096E1
1.330599375E1,-3.775148392E0,-1.723700643E0,7.141300201E0
1.332599375E1,-3.154868364E0,1.995442629E0,-1.285371208E1
1.334599375E1,-5.853976727E0,-4.557966232E0,1.134449363E0
1.336599531E1,-7.207341671E0,-1.326339817E1,6.741593361E0
1.338799375E1,3.636313438E0,-2.639815140E1,-1.197876573E0
1.340799375E1,1.761078984E-1,-1.564908695E1,-6.714012027E-1
1.342799375E1,-1.174145222E0,-1.026989937E1,1.105747700E0
1.344799375E1,3.156036735E-1,-7.671501160E0,-4.457428753E-1
1.346799375E1,4.233235717E-1,-7.684669495E0,-5.013362765E-1
1.348799375E1,1.096544322E-2,-8.398447990E0,-5.115929991E-2
1.350799375E1,-3.397276402E-1,-8.279312134E0,-1.442113876E0
1.352799375E1,-5.136903524E-1,-8.828111649E0,-2.529206038E0
1.354799375E1,-5.607028604E-1,-9.424076080E0,-2.066875935E0
1.356799375E1,-5.926223993E-1,-8.823054314E0,-1.239439964E0
1.358799375E1,-6.834296584E-1,-7.457469463E0,-4.488649368E-1
1.360799375E1,-7.723790407E-1,-7.005386353E0,3.949474990E-1
1.362799375E1,-6.419525146E-1,-7.233247280E0,9.598737955E-1
1.364799375E1,-5.711416006E-1,-7.524497032E0,1.579292059E0
1.366799375E1,-3.229874074E-1,-9.158213615E0,2.081519127E0
1.368799375E1,3.281301260E-1,-1.059893990E1,1.212481260E0
1.370799375E1,8.638280034E-1,-1.084583855E1,-4.694933891E-1
1.372799375E1,1.426542044E0,-1.161227989E1,-2.342803001E0
1.374799375E1,1.498904347E0,-1.241052628E1,-3.941181660E0
1.376799375E1,5.386571288E-1,-1.191462994E1,-3.727139950E0
1.378799375E1,-3.902069926E-1,-1.157279491E1,-3.184336185E0
1.380799375E1,-4.405044019E-1,-1.197611332E1,-3.083367825E0
1.382799375E1,2.455876321E-1,-1.276472473E1,-3.102234125E0
1.384799375E1,4.776623845E-1,-1.275523472E1,-2.185590029E0
1.386799375E1,-7.392241359E-1,-1.164983082E1,-7.888511419E-1
1.388799375E1,-8.398284912E-1,-1.290894127E1,2.611470699E0
1.390799375E1,-8.567028046E-1,-1.602406693E1,3.357226372E0
1.392799375E1,-2.306430101E0,-1.963047981E1,2.929583549E0
1.394799531E1,-1.675060153E0,-1.776913261E1,1.901561141E0
1.396799531E1,-3.160920739E-1,-1.305666447E1,-6.936576962E-1
1.398999531E1,-1.273926020E0,-1.043240833E1,-3.510704041E0
1.401199375E1,-4.147341251E0,-8.493133545E0,1.832330525E-1
1.403199531E1,-4.353022575E0,-7.920890808E0,2.030924797E0
1.405199531E1,-2.755515337E0,-8.367179871E0,2.691111326E0
1.407399375E1,-1.792203665E0,-7.221573353E0,2.469963789E0
1.409399375E1,-4.927746058E-1,-6.794456959E0,3.297122240E0
1.411399375E1,-9.403466433E-2,-6.561290741E0,9.160790443E-1
1.413399375E1,-4.470836520E-1,-6.718580246E0,3.172317147E-1
1.415399375E1,-1.630470514E0,-6.012156963E0,1.404093981E0
1.417399375E1,-2.239622593E0,-5.161736012E0,1.324184984E-1
1.419399375E1,-2.408834934E0,-4.901888847E0,-1.668461680E0
1.421399375E1,-2.554278135E0,-4.696552277E0,-3.767621040E0
1.423399375E1,-2.298759222E0,-4.712229729E0,-4.726383686E0
1.425399375E1,-2.133980751E0,-5.622973919E0,-4.824872017E0
1.427399375E1,-3.527233601E-1,-8.037459373E0,-4.518538475E0
1.429399375E1,1.933097601E0,-1.012158298E1,-5.665054798E0
1.431399375E1,3.835664272E0,-1.153858662E1,-8.687303543E0
1.433399531E1,5.448130608E0,-1.388434982E1,-1.233030128E1
1.435399531E1,7.047601223E0,-1.490401077E1,-9.868008614E0
1.437399531E1,6.446196556E0,-1.134673405E1,-4.272730350E0
1.439599375E1,4.978569984E0,-6.654233456E0,-5.324914932E0
1.441599375E1,3.872717142E0,-5.371219158E0,-2.308441401E0
1.443599375E1,-2.282727718E0,-7.867902279E0,6.449021339E0
1.445599375E1,-8.952590942E0,-1.163809013E1,3.255961180E0
1.447599375E1,-1.642469406E1,-3.065915108E1,-2.959104156E1
1.449599375E1,-9.369803429E0,-1.025465298E1,1.529860497E1
1.451599375E1,-2.948229551E0,-2.227163076E0,3.692788124E0
1.453599375E1,-8.860749006E-1,-6.317436695E-1,2.929909229E0
1.455599375E1,-2.072334766E0,-5.196049690E0,2.033577442E0
1.457599375E1,-2.840528727E0,-1.622851181E1,2.495035887E0
1.459599375E1,-1.408575892E0,-2.093676758E1,2.345139742E0
1.461599375E1,3.448416591E-1,-1.507535934E1,-2.799032450E0
1.463599375E1,1.972726464E0,-7.828589439E0,6.916561127E-1
1.465599375E1,1.065132499E0,-8.709598541E0,-1.831305742E0
1.467599375E1,3.212731183E-1,-9.455640793E0,7.748786211E-1
1.469599375E1,-1.314033717E-1,-7.733922958E0,1.093891621E0
1.471599375E1,-1.035252865E-2,-6.534791470E0,-5.995846987E-1
1.473599375E1,8.107054234E-1,-7.043722153E0,-1.205988169E0
1.475599375E1,7.419726849E-1,-7.855107307E0,-1.398367047E0
1.477599375E1,5.137765408E-1,-8.362754822E0,-1.400502682E0
1.479599375E1,2.284738719E-1,-8.466567039E0,7.025545835E-2
1.481599375E1,-5.065364838E-1,-7.943721771E0,1.397811532E0
1.483599375E1,-1.230993152E0,-8.187508583E0,1.942367911E0
1.485599531E1,-1.376378655E0,-9.358493805E0,1.543082118E0
1.487599531E1,-4.596388638E-1,-1.011882496E1,2.590526268E-2
1.489799375E1,5.054351091E-1,-1.147002602E1,-1.742576718E0
1.491799375E1,7.049966455E-1,-1.266437912E1,-3.286089659E0
1.493799375E1,5.374025106E-1,-1.243524456E1,-2.729945421E0
1.495799375E1,4.708628654E-1,-1.238453484E1,-1.612734199E-1
1.497799375E1,2.457600087E-1,-1.254689026E1,5.156535506E-1
1.499799375E1,3.539012969E-1,-1.348255444E1,-6.464727521E-1
1.501799375E1,1.947826743E-1,-1.362175274E1,-1.507418036E0
1.503799375E1,-5.524381399E-1,-1.295027542E1,-1.490160823E0
1.505799375E1,-1.732875347E0,-1.148718834E1,-1.938680887E0
1.507799844E1,-4.716136932E0,-9.565439224E0,-5.338600636E0
1.509999688E1,-2.832608700E0,-1.183377266E1,8.065682650E-1
1.512002656E1,-2.145271778E0,-1.405052662E1,2.583669186E0
1.514199375E1,-1.912497878E0,-1.521956635E1,2.080024958E0
1.516199531E1,-4.761205018E-1,-1.443465137E1,-1.032552123E0
1.518399375E1,-4.706521630E-1,-1.212408352E1,-2.470078945E0
1.520399375E1,-1.656442881E0,-1.068825340E1,-1.029535413E0
1.522399531E1,-2.088145971E0,-9.573752403E0,5.657977462E-1
1.524599375E1,-1.738908648E0,-8.421767235E0,2.190570116E0
1.526599375E1,-1.354773402E0,-7.924462795E0,2.665062428E0
1.528599375E1,-7.410437465E-1,-7.951105595E0,2.661758661E0
1.530599375E1,1.819018722E-1,-8.267178535E0,4.728452563E-1
1.532599375E1,7.457172275E-1,-8.239855766E0,1.049761772E0
1.534599375E1,-4.431092739E-1,-6.581373215E0,1.687557817E0
1.536599531E1,-2.588850260E0,-4.665102005E0,1.221119523E0
1.538599531E1,-3.910258055E0,-3.853936911E0,3.990176618E-1
1.540799375E1,-3.990952492E0,-3.306794643E0,-9.491860271E-1
1.542799375E1,-3.776048899E0,-2.191125393E0,-2.147819042E0
1.544799375E1,-3.382020473E0,-1.805371761E0,-3.379750967E0
1.546799375E1,-2.342314482E0,-4.044409752E0,-5.492432594E0
1.548799375E1,1.100729465E0,-9.922491074E0,-7.468673706E0
1.550799375E1,4.251833916E0,-1.840027428E1,-1.216592503E1
1.552799375E1,7.519038200E0,-2.168815422E1,-1.886591530E1
1.554799375E1,9.367725372E0,-1.558178997E1,-1.071683025E1
1.556799375E1,8.530453682E0,-1.061084366E1,-6.451674461E0
1.558799375E1,5.447000504E0,-1.114546871E1,-2.271695137E0
1.560799375E1,-4.775570393E0,-1.100759220E1,1.035719204E1
1.562799375E1,-1.063547421E1,-1.647806358E1,-1.011293602E1
1.564799375E1,-1.012295341E1,-9.800530434E0,5.573347092E0
1.566799375E1,-7.539484978E0,-1.785365820E0,5.806188107E0
1.568800781E1,-5.843259811E0,-5.132201195E0,1.699998140E0
1.570999531E1,-5.016063690E0,-1.344473553E1,4.454939067E-1
1.573199531E1,-2.535019159E0,-1.850487137E1,3.596895456E0
1.575399375E1,-1.939734340E0,-1.402889156E1,4.526966095E0
1.577399375E1,-3.537480831E-1,-1.070748329E1,3.399478912E0
1.579399375E1,2.741992950E0,-5.475711346E0,-8.140381813E0
1.581399375E1,8.575456142E-1,-6.745318413E0,-5.100128651E-1
1.583399375E1,4.552047849E-1,-1.055144787E1,1.626208901E0
1.585399375E1,4.437221885E-1,-9.417678833E0,5.767248273E-1
1.587399375E1,5.886958838E-1,-6.940474510E0,-1.235752821E0
1.589399375E1,1.154215932E0,-6.871828079E0,-7.691995502E-1
1.591399375E1,4.331015050E-1,-7.445095539E0,-1.031058192E0
1.593399375E1,-4.398340285E-1,-8.741613388E0,-9.359030128E-1
1.595399375E1,-8.934106827E-1,-8.963632584E0,-1.957307756E-1
1.597399375E1,-1.030780435E0,-8.814167023E0,1.260326862E0
1.599399375E1,-6.497001052E-1,-8.998970985E0,2.550169706E0
1.601399375E1,3.315490484E-2,-9.939460754E0,2.023406744E0
1.603399375E1,5.004264712E-1,-1.101281071E1,-4.171465337E-1
1.605399375E1,1.082083344E0,-1.270989704E1,-3.127268076E0
1.607399375E1,1.691647053E0,-1.311022758E1,-3.758494377E0
1.609399375E1,1.594911814E0,-1.230582333E1,-1.259857655E0
1.611399375E1,3.385018110E-1,-1.183966255E1,5.011159778E-1
1.613399375E1,-9.778590202E-1,-1.201016808E1,-9.290843606E-1
1.615399375E1,-1.001063585E0,-1.273472023E1,-2.644625664E0
1.617399375E1,-3.889333010E-1,-1.272872543E1,-3.256957054E0
1.619399375E1,-6.847512722E-1,-1.210757446E1,-3.445332766E0
1.621399375E1,-2.219817638E0,-1.094502640E1,-2.560129404E0
1.623399375E1,-1.618671894E0,-1.193070889E1,2.973263502E0
1.625399375E1,-1.735259891E0,-1.467539310E1,2.827734232E0
1.627399375E1,-2.975399017E0,-1.698232269E1,1.505512357E0
1.629399375E1,-2.395839453E0,-1.535693645E1,-1.461420804E-1
1.631399375E1,-8.922519684E-1,-1.249103928E1,-1.572310567E0
1.633399375E1,-1.565127969E0,-1.078162670E1,-2.128186703E0
1.635399531E1,-2.808274269E0,-1.006882477E1,-7.461864352E-1
1.637599531E1,-2.774592638E0,-9.143916130E0,3.089650154E0
1.639799375E1,-2.092206717E0,-8.230221748E0,1.840039849E0
1.641799375E1,-8.038293123E-1,-8.373002052E0,5.435795188E-1
1.643799375E1,-2.742318809E-1,-7.303464413E0,1.857929230E0
1.645799375E1,4.149247408E-1,-6.574181080E0,1.883489728E0
1.647799375E1,2.336740941E-1,-5.704252243E0,1.969498992E0
1.649799375E1,-1.733670115E0,-4.120133877E0,1.487153530E0
1.651799375E1,-2.899100542E0,-3.496549606E0,4.580107629E-1
1.653799375E1,-3.137744904E0,-3.360721588E0,-5.153950453E-1
1.655799375E1,-2.671124697E0,-3.221398354E0,-1.440389991E0
1.657799375E1,-2.135580063E0,-4.054187775E0,-3.312282324E0
1.659799375E1,-3.996305764E-1,-6.786393642E0,-7.452603817E0
1.661799375E1,4.010000706E0,-1.256530666E1,-1.186776066E1
1.663799375E1,6.703870296E0,-1.837721252E1,-8.735033989E0
1.665799375E1,5.766109467E0,-1.791131973E1,-1.107728100E1
1.667799375E1,5.937898159E0,-1.388294125E1,-9.564710617E0
1.669799375E1,-1.217422843E0,-1.562223339E1,-7.174350262E0
1.671799375E1,-4.964070797E0,-1.996648216E1,-1.196719742E1
1.673799375E1,-5.894888878E0,-9.963010788E0,1.469404888E1
1.675799375E1,-6.006592274E0,-1.878031015E0,7.888942242E0
1.677799375E1,-6.514306545E0,2.009577990E0,-1.728211403E0
1.679799375E1,-4.762756824E0,-2.727819443E0,8.293323517E-1
1.681799375E1,-5.404153824E0,-8.199996948E0,2.474867105E0
1.683799375E1,-2.714172363E0,-1.883319283E1,3.849895477E0
1.685799375E1,1.371264696E0,-2.096792030E1,1.350693703E0
1.687799375E1,1.014892459E0,-1.106776237E1,3.207904816E0
1.689799531E1,1.808426738E0,-9.262744904E0,-4.261468410E0
1.692001406E1,1.938029647E0,-9.899831772E0,-5.325853825E-1
1.694199375E1,1.396815538E0,-8.541256905E0,2.326637268E0
1.696199375E1,3.416430056E-1,-6.284319878E0,5.452171564E-1
1.698199375E1,-6.573041677E-1,-6.901382446E0,-1.960448980E0
1.700199375E1,-1.176960826E0,-8.084577560E0,-2.242907286E0
1.702199531E1,-1.325286388E0,-8.263903618E0,-1.549967885E0
1.704399375E1,-1.237534165E0,-8.221114159E0,-1.681495607E-1
1.706401406E1,-1.201937079E0,-8.697961807E0,8.699284196E-1
1.708599531E1,-1.168437481E0,-1.002313423E1,1.435505867E0
1.710599531E1,-6.164686084E-1,-1.050901222E1,4.011054039E-1
1.712599531E1,9.847543240E-1,-1.040643597E1,-1.976786971E0
1.714799375E1,2.144438505E0,-1.164888287E1,-3.217117786E0
1.716799375E1,1.592785716E0,-1.207077026E1,-3.432576656E0
1.718799375E1,1.113974094E0,-1.178511333E1,-3.771346331E0
1.720799375E1,1.432699800E0,-1.160708046E1,-2.536742926E0
1.722799375E1,1.147387743E0,-1.225322723E1,-2.162586689E0
1.724799375E1,-2.978386879E-1,-1.297821140E1,-3.249104023E0
1.726799375E1,-1.327048540E0,-1.209785366E1,-3.800747395E-1
1.728799375E1,-1.209311247E0,-1.133618069E1,2.646473885E0
1.730800313E1,-2.449565172E0,-1.202998257E1,8.533126116E-1
1.732999531E1,-3.278006792E0,-1.735461998E1,5.706914663E-1
1.734999531E1,-5.399518490E0,-1.874330521E1,-9.621817619E-2
1.737000625E1,-3.773960829E0,-1.396020699E1,-2.012977839E0
1.739199375E1,-3.062452078E0,-1.036549473E1,-2.860582590E0
1.741199375E1,-3.561422825E0,-8.730800629E0,-9.079483151E-1
1.743199531E1,-3.586638689E0,-8.206643105E0,1.525939703E0
1.745199531E1,-2.894925117E0,-8.252247810E0,3.402601004E0
1.747399375E1,-1.875780344E0,-7.734583378E0,2.856531620E0
1.749399375E1,-5.080687404E-1,-7.107915401E0,9.631298780E-1
1.751399375E1,4.589876235E-1,-7.264458179E0,-1.071644649E-1
1.753399375E1,7.190170884E-1,-6.903910637E0,9.853385091E-1
1.755399375E1,-1.192322016E0,-4.960632801E0,2.109014034E0
1.757399375E1,-2.268190145E0,-3.619764805E0,1.088768125E0
1.759399375E1,-2.125888109E0,-3.016924143E0,5.500917882E-2
1.761399375E1,-1.321331143E0,-3.262540340E0,-1.157749772E0
1.763399375E1,-9.998377562E-1,-3.983942032E0,-1.962067485E0
1.765399375E1,-1.072497129E0,-5.062807560E0,-3.286061049E0
1.767399375E1,-3.481648266E-1,-8.844391823E0,-7.474851131E0
1.769399375E1,1.698628664E0,-1.592001438E1,-1.331238365E1
1.771399375E1,2.855353832E0,-2.049173164E1,-1.778388977E1
1.773399375E1,3.639397144E0,-1.549330044E1,-1.235729885E1
1.775399375E1,2.682942390E0,-9.314870834E0,-7.800022125E0
1.777399375E1,1.270392179E0,-6.839075565E0,-5.303396225E0
1.779399375E1,-2.112739325E0,-1.309002972E1,-8.799074173E0
1.781399375E1,-4.787819386E0,-1.550664043E1,2.687893629E0
1.783399375E1,-9.274620056E0,-1.293611145E1,1.798064590E0
1.785399531E1,-8.731318474E0,-4.622466087E0,4.759366512E0
1.787599531E1,-6.182125568E0,-4.178839624E-1,3.012058973E0
1.789799375E1,-3.889715910E0,-6.010872841E0,4.285812676E-1
1.791799375E1,-2.409304380E0,-1.356491470E1,2.915132046E0
1.793799375E1,4.388858974E-1,-2.103167343E1,3.184872627E0
1.795799375E1,-1.304073781E-1,-1.628390503E1,8.892831206E-1
1.797799375E1,1.209071875E-1,-1.068007469E1,1.141890526E0
1.799799375E1,3.553091049E0,-5.944831371E0,-2.318544872E-2
1.801799375E1,2.530594587E0,-7.711895943E0,-3.732550859E0
1.803799375E1,9.666158557E-1,-1.009987259E1,1.251995087E0
1.805799375E1,4.542662799E-1,-8.690828323E0,2.356268167E0
1.807799375E1,-5.646485090E-2,-6.778023243E0,-1.393425465E-1
1.809799375E1,1.681783050E-1,-7.890819550E0,-2.581409216E0
1.811799375E1,1.829170138E-1,-8.602194786E0,-2.735787392E0
1.813799375E1,4.293282330E-2,-8.675916672E0,-1.375248671E0
1.815799375E1,-2.513432801E-1,-8.405716896E0,5.704807639E-1
1.817799375E1,-7.488775849E-1,-7.892562389E0,1.834858775E0
1.819799375E1,-8.348677158E-1,-8.560132980E0,2.596157551E0
1.821799531E1,-1.056666493E0,-1.013937664E1,2.406651497E0
1.823799531E1,-1.077333212E0,-1.109352398E1,6.879498959E-1
1.825800313E1,-8.606101871E-1,-1.164745617E1,-1.621420383E0
1.827999531E1,-3.444777429E-1,-1.210373306E1,-5.111055851E0
1.829999531E1,7.636641264E-1,-1.251326656E1,-5.732351303E0
1.832001719E1,1.196765661E0,-1.226596451E1,-1.667628527E0
1.834199531E1,4.165815115E-1,-1.157540035E1,-5.924596190E-1
1.836199531E1,-3.017843366E-1,-1.217455387E1,-2.497018337E0
1.838199531E1,-1.304246187E0,-1.182471275E1,-6.801313877E0
1.840199531E1,-6.725887656E-1,-1.192703247E1,-6.078016162E-1
1.842199531E1,-1.446385235E-1,-1.173552418E1,3.641628742E0
1.844199531E1,7.033207268E-2,-1.327320480E1,3.905967712E0
1.846199531E1,-8.707137108E-1,-1.720985794E1,3.249228477E0
1.848199531E1,-2.513605118E0,-1.836593246E1,2.333120823E0
1.850199531E1,-1.712285161E0,-1.441071892E1,-1.837118864E0
1.852199531E1,-2.435544729E0,-1.120009518E1,-3.646713972E0
1.854199844E1,-3.858304024E0,-9.026926041E0,-1.835950494E0
1.856399531E1,-4.448455334E0,-7.821004391E0,1.237036109E0
1.858399531E1,-3.912729025E0,-8.063767433E0,1.998555064E0
1.860399531E1,-2.840241432E0,-7.921436310E0,1.471303940E0
1.862399531E1,-1.413201571E0,-7.081770897E0,2.092733383E0
1.864399531E1,-4.012011588E-1,-6.255273342E0,1.650974512E0
1.866399531E1,-4.470453411E-2,-6.267589092E0,5.889544487E-1
1.868399531E1,-4.313585162E-1,-6.291885376E0,1.020906687E0
1.870399531E1,-1.893832684E0,-5.081635952E0,9.244491458E-1
1.872399531E1,-2.384739637E0,-4.161304474E0,-3.820762932E-1
1.874399531E1,-1.995528817E0,-3.618098497E0,-6.911965013E-1
1.876399531E1,-1.295521736E0,-3.871634722E0,-1.030857086E0
1.878399531E1,-1.027265787E0,-4.455705166E0,-1.579397440E0
1.880399531E1,-9.603525996E-1,-6.085591316E0,-3.714297295E0
1.882399531E1,5.503407717E-1,-1.072651196E1,-8.799408913E0
1.884399531E1,3.192227602E0,-1.812127113E1,-1.540894794E1
1.886400000E1,4.874652386E0,-1.931758881E1,-1.663860893E1
1.888599531E1,2.647728443E0,-1.262926102E1,-9.328345299E0
1.890599531E1,1.255394936E0,-7.403512955E0,-7.118459702E0
1.892599531E1,-4.096000269E-2,-6.133092403E0,-4.921271801E0
1.894599531E1,-3.149620056E0,-9.443833351E0,-5.083187103E0
1.896599531E1,-6.055415154E0,-1.382502079E1,3.796619654E0
1.898599531E1,-5.724909782E0,-2.075065994E1,-7.153309345E0
1.900599531E1,-5.225565434E0,-5.946450233E0,6.964617729E0
1.902599531E1,-3.653580666E0,-7.982842922E-1,3.601300716E0
1.904599531E1,-2.762650251E0,-3.395638943E0,1.292457104E0
1.906599531E1,-3.459209681E0,-1.359801197E1,2.013236284E0
1.908599531E1,-1.962843180E0,-2.151224518E1,4.648055077E0
1.910599531E1,-6.936481595E-1,-1.695011520E1,-6.429868340E-1
1.912599531E1,1.175840378E0,-1.109183884E1,-2.484434366E0
1.914599531E1,2.550437689E0,-7.842887878E0,1.183693334E-1
1.916599531E1,1.339038730E0,-7.920536041E0,-1.929535031E0
1.918599531E1,-3.343837857E-1,-8.083447456E0,-1.006330848E-1
1.920599531E1,-9.018574953E-1,-8.224840164E0,5.010872483E-1
1.922599531E1,-9.563398957E-1,-7.192114830E0,-5.300666690E-1
1.924599531E1,-3.974183202E-1,-6.738298893E0,-1.801042914E0
1.926599531E1,1.654297709E-1,-7.009418011E0,-2.358997345E0
1.928599531E1,3.321236670E-1,-7.855002403E0,-1.296709180E0
1.930599531E1,3.527137935E-1,-7.784114838E0,6.296846271E-1
1.932599531E1,2.691273987E-1,-7.853058338E0,2.307186842E0
1.934599531E1,1.409705915E-2,-9.113605499E0,2.856272936E0
1.936599531E1,4.804684222E-2,-9.771551132E0,8.937746286E-1
1.938599531E1,5.545353889E-1,-1.017121983E1,-1.745143175E0
1.940599531E1,7.483412623E-1,-1.157906818E1,-3.047081232E0
1.942599531E1,2.439308465E-1,-1.168180752E1,-2.527147055E0
1.944599531E1,-7.185861468E-1,-1.188757515E1,-4.607880414E-1
1.946599531E1,-1.792519689E0,-1.159179592E1,-1.333666146E-1
1.948599531E1,-2.316026211E0,-1.157164669E1,-1.674236536E0
1.950599531E1,-2.884486437E0,-1.234020424E1,-2.931489229E0
1.952599531E1,-2.522253275E0,-1.302945614E1,-3.809624910E0
1.954599531E1,-1.410472095E-1,-1.367419529E1,-5.229922771E0
1.956599531E1,3.636122048E-1,-1.364189339E1,-4.081798077E0
1.958599531E1,-7.517218590E-1,-1.324589252E1,4.320576191E0
1.960599531E1,-2.410759926E0,-1.355105686E1,3.960689545E0
1.962599531E1,-1.930885434E0,-1.524195671E1,1.830616236E0
1.964599531E1,-2.022525817E-1,-1.678780746E1,7.430165410E-1
1.966599531E1,1.790882111E0,-1.519448566E1,-1.907565832E0
1.968599531E1,2.171397209E0,-1.225837994E1,-3.257905245E0
1.970599531E1,2.585737780E-2,-9.652741432E0,-2.406642199E0
1.972599531E1,-1.907144427E0,-7.688097477E0,6.378440261E-1
1.974599531E1,-2.548656464E0,-6.633442402E0,2.921854973E0
1.976599531E1,-8.578807712E-1,-7.384072304E0,3.689225435E0
1.978599531E1,4.035761952E-1,-7.738644123E0,2.935300827E0
1.980599531E1,3.416621685E-1,-7.118967056E0,1.707008243E0
1.982599531E1,4.973523021E-1,-7.226639271E0,1.452763319E0
1.984599531E1,9.222464636E-3,-7.555641174E0,2.314139605E0
1.986599531E1,-2.741341829E0,-5.607536793E0,1.190856814E0
1.988599531E1,-4.604634285E0,-4.534235001E0,-3.267893791E-1
1.990799375E1,-5.378813267E0,-3.749894619E0,-1.902921200E0
1.992799375E1,-4.708044529E0,-3.555083036E0,-3.692922115E0
1.994799375E1,-1.920666814E0,-4.280439854E0,-5.282787323E0
1.996799375E1,9.013690948E-1,-6.463674545E0,-6.044574261E0
1.998799375E1,3.750019073E0,-1.047055244E1,-8.205715179E0
2.000799375E1,7.196616173E0,-1.817825317E1,-1.510196400E1
2.002799375E1,4.500199318E0,-2.029679680E1,-1.529480171E1
2.004799375E1,4.566288471E0,-1.620164871E1,-7.147276402E0
2.006799375E1,3.957021713E0,-8.191071510E0,-8.024569511E0
2.008799375E1,-8.999325335E-2,-1.090600967E1,-4.456815720E0
2.010799375E1,-5.505016804E0,-1.097541332E1,7.003997326E0
2.012799375E1,-6.692952633E0,-1.565404701E1,-4.993586540E0
2.014799375E1,-6.967758656E0,-4.952788830E0,6.321027756E0
2.016799375E1,-6.943223000E0,-2.999838889E-1,-1.013101697E0
2.018799375E1,-4.588478088E0,-7.181331635E0,-7.070173621E-1
2.020799375E1,-3.021520853E0,-1.466277122E1,2.046123028E0
2.022799375E1,-1.206859589E0,-1.660646057E1,3.170181751E0
2.024799375E1,6.295984387E-1,-1.264192104E1,-4.229300022E0
2.026799375E1,1.323351979E0,-8.600126266E0,5.924691558E-1
2.028799375E1,2.268295527E0,-7.522562504E0,-8.673522472E-1
2.030800313E1,6.327396035E-1,-8.124455452E0,-1.647861958E0
2.032999688E1,-4.861187041E-1,-7.707098007E0,5.047456026E-1
2.035199375E1,-9.183104038E-1,-7.819884300E0,2.417473346E-1
2.037199375E1,-4.031165242E-1,-8.228804588E0,-1.425325632E0
2.039199531E1,3.185437620E-1,-8.720640182E0,-2.412732840E0
2.041399375E1,9.632352591E-1,-8.756562233E0,-2.223399401E0
2.043399375E1,7.066630125E-1,-8.578482628E0,-1.221943140E0
2.045399375E1,7.596323639E-2,-8.613591194E0,6.475357413E-1
2.047399375E1,-3.806301951E-1,-8.701103210E0,2.218448162E0
2.049399375E1,-3.134871721E-1,-9.294721603E0,3.604288816E0
2.051400625E1,-2.780625820E-1,-1.060608387E1,3.231262445E0
2.053599375E1,-4.526477754E-1,-1.121200752E1,1.324730992E0
2.055599375E1,-7.815248966E-1,-1.129058552E1,-8.134252429E-1
2.057599375E1,-1.548416376E0,-1.217291641E1,-4.043826103E0
2.059599375E1,-1.070715666E0,-1.280617332E1,-6.174665451E0
2.061599375E1,2.417952120E-1,-1.284875202E1,-3.671786070E0
2.063599375E1,1.044494390E0,-1.289386845E1,-7.950665057E-2
2.065599375E1,1.190042734E0,-1.287764454E1,5.449107289E-1
2.067599375E1,9.881636500E-1,-1.356608295E1,-1.727655903E-2
2.069599375E1,-2.520519793E-1,-1.269775391E1,-3.136499822E-1
2.071599375E1,-2.638352871E0,-1.045378399E1,-4.071435928E0
2.073599375E1,-3.918704748E0,-1.003815079E1,-2.792204142E0
2.075599375E1,-2.121923685E0,-1.246576595E1,1.217710137E0
2.077599375E1,-1.533783078E0,-1.438272667E1,2.939332724E0
2.079599375E1,-1.629560709E0,-1.472544098E1,2.893363953E0
2.081599375E1,-1.045653224E0,-1.307071304E1,2.080398321E0
2.083599375E1,-4.476486742E-1,-1.171555710E1,-3.182688951E0
2.085599531E1,-2.422098875E0,-9.980468750E0,-2.547449589E0
2.087599531E1,-3.558003902E0,-8.213596344E0,6.405351758E-1
2.089799375E1,-3.244737148E0,-7.637072086E0,1.456823826E0
2.091799375E1,-2.372519732E0,-7.723148823E0,-9.458054602E-2
2.093799375E1,-2.146574259E0,-7.273642063E0,-4.394222200E-1
2.095799375E1,-1.843698144E0,-7.068975925E0,2.193213224E0
2.097799375E1,-4.720120728E-1,-7.189136505E0,1.843343735E0
2.099799375E1,-4.384932518E-1,-7.131598949E0,-6.487233043E-1
2.101799375E1,-1.819660306E0,-5.485642433E0,-1.059367180E0
2.103799375E1,-2.213669538E0,-4.392210960E0,-1.279528499E0
2.105799375E1,-1.702229500E0,-4.278677940E0,-1.794961810E0
2.107799375E1,-1.059414983E0,-4.912719727E0,-2.253633261E0
2.109799375E1,-6.187574863E-1,-6.005893230E0,-3.914548635E0
2.111799375E1,2.692998052E-1,-7.405380726E0,-6.164284229E0
2.113799375E1,2.483946085E0,-1.026002502E1,-7.499415398E0
2.115799375E1,4.862269402E0,-1.440220547E1,-1.111476517E1
2.117799375E1,5.496895313E0,-1.592984009E1,-1.320113945E1
2.119799375E1,3.667093515E0,-1.386626816E1,-8.568243980E0
2.121799375E1,1.844234347E0,-9.833082199E0,-5.921627045E0
2.123799375E1,1.118446589E0,-5.836987495E0,-5.016350746E0
2.125799375E1,-7.396934032E-1,-4.578920364E0,-3.543562174E0
2.127801875E1,-3.537471533E0,-7.492510796E0,-3.701148331E-1
2.129999375E1,-7.795990467E0,-1.264120293E1,6.789094210E-1
2.132002344E1,-1.098899269E1,-2.394647980E1,-1.983668900E1
2.134199375E1,-5.758610249E0,-6.718991756E0,8.523328781E0
2.136199375E1,-2.063840151E0,-1.311141491E0,5.954849243E0
2.138199375E1,-1.509046197E0,-1.868377566E0,2.923942804E0
2.140199375E1,-1.447840810E0,-8.866476059E0,-2.847807169E0
2.142199375E1,-1.370144129E0,-1.796656799E1,1.477682114E0
2.144199375E1,7.801649570E-1,-1.825283813E1,1.559257269E0
2.146201094E1,5.017585754E0,-1.125860977E1,-1.466774225E0
2.148399375E1,2.923990726E0,-8.686633110E0,-4.926050663E0
2.150399531E1,1.665406674E-1,-8.683606148E0,1.102156401E0
2.152599375E1,-3.910018504E-1,-7.420387745E0,1.799817085E0
2.154599375E1,-9.665775299E-1,-6.977622986E0,3.993911445E-1
2.156599375E1,-6.123697758E-1,-7.817930698E0,-6.737954021E-1
2.158599375E1,-4.822880030E-1,-8.875727654E0,-1.676697731E0
2.160599375E1,-1.515721232E-1,-9.595548630E0,-2.014366388E0
2.162599375E1,-2.644060552E-1,-9.139778137E0,-2.497889996E0
2.164599375E1,-5.462228060E-1,-8.258683205E0,-2.117297888E0
2.166599375E1,-5.804311037E-1,-7.945321083E0,-5.801438093E-1
2.168599375E1,-6.268881559E-1,-8.064418793E0,1.538255453E0
2.170599375E1,-5.803257227E-1,-8.709138870E0,3.080121279E0
2.172599375E1,-2.573671043E-1,-9.731367111E0,2.847309113E0
2.174599375E1,5.501492023E-1,-1.027343369E1,8.370799422E-1
2.176599375E1,1.297168970E0,-1.060429287E1,-5.007328987E-1
2.178599375E1,1.202607512E0,-1.188811111E1,-7.139126658E-1
2.180599375E1,-8.264783770E-3,-1.337182713E1,-7.970680594E-1
2.182599375E1,-1.120859861E0,-1.304249001E1,-1.570902824E0
2.184599531E1,-1.251382232E0,-1.347676945E1,-1.428093433E0
2.186799375E1,-5.319820642E-1,-1.532616615E1,-2.815581160E-3
2.188799375E1,-3.838288188E-1,-1.496175861E1,1.984314471E-1
2.190799375E1,-1.114500880E0,-1.245659065E1,-1.087369800E0
2.192799375E1,-1.839886546E0,-1.021164322E1,-2.225381851E0
2.194799375E1,-3.639061928E0,-7.742972851E0,-7.238313675E0
2.196799375E1,-3.344000816E0,-9.147124290E0,-2.330899000E0
2.198799375E1,-1.895077586E0,-1.192884159E1,2.038375378E0
2.200799375E1,-9.084463120E-1,-1.284550476E1,2.594012260E0
2.202799375E1,-2.345838845E-1,-1.283375359E1,2.431580067E0
2.204799375E1,1.391701549E-1,-1.204786205E1,1.940404654E0
2.206799375E1,2.444288284E-1,-1.077363014E1,3.309744224E-2
2.208799375E1,9.168834984E-2,-1.096053123E1,-3.807173252E0
2.210799375E1,-1.409121871E0,-1.037377930E1,-1.014547706E0
2.212799375E1,-1.972257257E0,-9.356320381E0,7.957560420E-1
2.214799375E1,-1.428112507E0,-9.077720642E0,1.752842963E-1
2.216799375E1,-1.433150053E0,-9.409538269E0,5.723770261E-1
2.218799375E1,-1.122660279E0,-9.340279579E0,9.934883714E-1
2.220799375E1,-6.191022396E-1,-8.242977142E0,8.560802937E-1
2.222799375E1,-1.868109345E0,-5.999888897E0,8.190084994E-2
2.224799375E1,-2.999245167E0,-4.638440132E0,-2.196536362E-1
2.226799375E1,-3.466047525E0,-4.155185223E0,-7.158854604E-1
2.228799375E1,-2.733862400E0,-4.058277130E0,-1.388483763E0
2.230800313E1,-2.128186703E0,-4.369475365E0,-1.855401039E0
2.232999531E1,-1.760475755E0,-5.258183956E0,-2.741811037E0
2.235199531E1,-1.893564582E0,-6.205205441E0,-4.650957108E0
2.237399375E1,7.793988585E-1,-1.016730309E1,-6.210032940E0
2.239399375E1,4.198682785E0,-1.564854145E1,-1.054165173E1
2.241399375E1,6.253874779E0,-1.816103554E1,-1.685630989E1
2.243399375E1,6.283514977E0,-1.481426620E1,-1.157076454E1
2.245399375E1,5.890971661E0,-1.049507904E1,-4.734744549E0
2.247399375E1,4.409190655E0,-7.652950764E0,-3.885837078E0
2.249399375E1,1.266082644E0,-8.532388687E0,-1.983538747E0
2.251399375E1,-2.609986305E0,-1.072057438E1,5.827017784E0
2.253399375E1,-7.028542995E0,-1.360305977E1,3.004522085E0
2.255399375E1,-9.503065109E0,-1.352577400E1,-1.234330654E1
2.257399375E1,-7.728349209E0,-2.281836987E0,5.235218525E0
2.259399375E1,-5.134634018E0,-2.888671398E0,1.212414145E0
2.261399375E1,-4.433889389E0,-7.216421127E0,-5.198194981E-1
2.263399375E1,-2.778710365E0,-1.296394157E1,8.434006572E-1
2.265399375E1,4.415578246E-1,-1.577829647E1,3.708283186E0
2.267399375E1,3.127679586E0,-1.367968369E1,-1.032322288E0
2.269399375E1,4.897560120E0,-8.802924156E0,-1.837070942E0
2.271399375E1,3.452419758E0,-8.902772903E0,-4.379090786E0
2.273399375E1,1.268409848E0,-9.862751007E0,8.994632363E-1
2.275399375E1,2.304371148E-1,-8.382664680E0,1.998794556E0
2.277399375E1,-9.644898176E-1,-7.249527931E0,7.264199257E-1
2.279399375E1,-8.211728334E-1,-8.193629265E0,-9.910462499E-1
2.281399375E1,-6.456587315E-1,-9.000638008E0,-1.297571182E0
2.283399375E1,-6.414065957E-1,-9.330903053E0,-1.674198270E0
2.285399375E1,-6.042485833E-1,-9.036655426E0,-1.478247166E0
2.287399375E1,-5.300571322E-1,-8.527916908E0,-2.776124775E-1
2.289399375E1,-4.925256073E-1,-8.604244232E0,1.012383461E0
2.291399375E1,-4.291462898E-1,-9.136675835E0,2.276023865E0
2.293399375E1,-2.982026041E-1,-9.568081856E0,3.030379295E0
2.295399375E1,-3.313862383E-1,-9.958040237E0,3.000279427E0
2.297399375E1,-5.762364268E-1,-1.057918262E1,2.199466705E0
2.299399375E1,-9.629479647E-1,-1.157440472E1,7.726663351E-1
2.301399375E1,-1.149446607E0,-1.261301899E1,-1.969068170E0
2.303399375E1,-1.354102969E0,-1.329465675E1,-5.075343609E0
2.305399531E1,-7.784411907E-1,-1.334409237E1,-7.162752628E0
2.307599375E1,6.455725431E-2,-1.282492447E1,-2.932830095E0
2.309599375E1,1.770847291E-1,-1.268231678E1,-2.130839601E-2
2.311599375E1,-2.389221787E-1,-1.241117764E1,9.222465008E-2
2.313599375E1,-7.229148746E-1,-1.127565575E1,-4.674152136E-1
2.315599375E1,-1.136671185E0,-1.004763222E1,-3.239086628E0
2.317599375E1,-2.117221117E0,-9.349156380E0,-4.658340931E0
2.319599375E1,-8.271583915E-1,-1.193765259E1,2.349516392E0
2.321599375E1,-7.500268221E-1,-1.366032791E1,3.436512709E0
2.323599375E1,-1.414312363E0,-1.481549263E1,3.083875418E0
2.325599375E1,-7.393581867E-1,-1.422220898E1,2.418910027E0
2.327599375E1,7.442519665E-1,-1.252680779E1,-1.003582358E0
2.329599375E1,-1.023569107E-1,-1.090999413E1,-6.227586746E0
2.331599375E1,-2.785251379E0,-8.526345253E0,-4.200387597E-1
2.333599375E1,-3.613932610E0,-7.386227131E0,2.563941002E0
2.335599531E1,-3.103785753E0,-7.359201431E0,2.385860443E0
2.337799375E1,-1.674801469E0,-8.081675529E0,8.473941684E-1
2.339799375E1,-1.094916344E0,-7.524832726E0,8.280490041E-1
2.341799375E1,-5.515761971E-1,-7.377464294E0,1.275333762E0
2.343799375E1,-3.895270526E-1,-7.467476368E0,1.178876162E0
2.345799375E1,-1.969623566E0,-5.894285202E0,5.299805105E-2
2.347799375E1,-2.903458118E0,-4.877994537E0,-1.300846457E0
2.349799375E1,-2.738382578E0,-4.622619152E0,-2.108716965E0
2.352002813E1,-1.791035295E0,-5.036030769E0,-3.340275288E0
2.354199375E1,-1.008207917E0,-6.346013546E0,-3.914529324E0
2.356199375E1,-1.229537487E0,-7.915997028E0,-5.336732864E0
2.358199375E1,3.271724582E-1,-1.098148537E1,-5.705104828E0
2.360199375E1,3.283647776E0,-1.442774677E1,-7.162723541E0
2.362199375E1,4.650334358E0,-1.534615326E1,-1.023892784E1
2.364199375E1,4.508885384E0,-1.261437798E1,-9.022539139E0
2.366199375E1,3.223170280E0,-1.014382076E1,-6.218555450E0
2.368199375E1,1.891208649E0,-9.360035896E0,-4.793009758E0
2.370199375E1,1.433849096E0,-1.076597881E1,-5.301126480E0
2.372199375E1,-1.225879192E0,-1.395301437E1,-2.784523726E0
2.374199375E1,-7.318500042E0,-1.297823048E1,2.916042089E0
2.376199375E1,-1.078278542E1,-8.099862099E0,-4.736774921E0
2.378199375E1,-9.088839531E0,-1.193251014E0,2.885376930E0
2.380199375E1,-6.575904846E0,-2.411143064E0,1.328983068E0
2.382199375E1,-3.514659405E0,-7.430098534E0,3.523786068E-1
2.384199375E1,-1.129469514E0,-1.361739540E1,3.086470604E0
2.386199375E1,1.794004083E0,-1.801421356E1,2.775128603E0
2.388199375E1,2.646445274E0,-1.406842518E1,-1.095883489E0
2.390199375E1,3.067853451E0,-8.280960083E0,2.354266346E-1
2.392199375E1,4.272472382E0,-7.782189846E0,-3.577569246E0
2.394199375E1,1.876709342E0,-1.036901951E1,-4.809568226E-1
2.396199375E1,5.071110725E-1,-9.404079437E0,2.374521255E0
2.398199375E1,-6.482636333E-1,-7.919482708E0,1.429577827E0
2.400199375E1,-8.469823599E-1,-8.081694603E0,-6.367810965E-1
2.402199375E1,-4.278151393E-1,-8.776885033E0,-1.181145906E0
2.404199375E1,-5.121389031E-1,-8.732362747E0,-1.378159881E0
2.406199375E1,-3.278907239E-1,-8.647981644E0,-3.582108617E-1
2.408199375E1,-3.926394880E-1,-8.528893471E0,7.145925760E-1
2.410199375E1,-2.628833652E-1,-8.553209305E0,2.305118084E0
2.412199375E1,-4.574170113E-1,-8.835590363E0,2.872764349E0
2.414199375E1,-7.397795916E-1,-1.007536602E1,3.059598207E0
2.416199375E1,-1.262893558E0,-1.143213081E1,2.160968304E0
2.418199375E1,-1.821805596E0,-1.142513084E1,-2.436339483E-2
2.420199375E1,-1.584348679E0,-1.107324982E1,-2.028779507E0
2.422199375E1,-1.119298816E0,-1.132668114E1,-3.528689384E0
2.424199375E1,1.050671488E-1,-1.254335690E1,-3.743113995E0
2.426199375E1,9.097296000E-1,-1.246151352E1,-2.080944300E0
2.428199375E1,3.410779834E-1,-1.196974373E1,-8.506119847E-1
2.430199375E1,-1.481244713E-1,-1.236931705E1,-6.938013434E-1
2.432199375E1,7.585788518E-2,-1.250524139E1,-4.456279576E-1
2.434199375E1,-2.456163615E-1,-1.122990704E1,-6.751649082E-3
2.436199531E1,-1.022448659E0,-1.043557835E1,1.209454983E-1
2.438199531E1,-2.712965727E0,-9.915270805E0,-5.916580200E0
2.440399375E1,-2.739732981E0,-1.241073704E1,-1.982111692E0
2.442399375E1,-1.743007541E0,-1.276472473E1,3.011867523E0
2.444399375E1,-1.192111373E0,-1.301394272E1,3.528574467E0
2.446399375E1,-1.150107384E0,-1.280470848E1,2.619285345E0
2.448399375E1,-1.579952836E0,-1.134355545E1,1.537096739E0
2.450399375E1,-2.684924841E0,-1.112744522E1,-5.394328117E0
2.452399375E1,-3.704576969E0,-9.725745201E0,-1.886717200E0
2.454599375E1,-3.440429449E0,-8.093110085E0,1.721210837E0
2.456599375E1,-2.556595802E0,-7.709233761E0,5.561443567E-1
2.458599375E1,-1.117143989E0,-7.988158226E0,-1.027964830E0
2.460599375E1,-2.299965918E-1,-8.562728882E0,2.788287401E-1
2.462599375E1,2.913168967E-1,-8.752061844E0,1.049675584E0
2.464599375E1,-1.228991598E-1,-8.084032059E0,1.252493024E0
2.466599375E1,-1.808091521E0,-5.815123081E0,-2.542354763E-1
2.468599375E1,-2.188070536E0,-4.617362022E0,-1.148843288E0
2.470599375E1,-1.690718293E0,-4.282968044E0,-1.908782125E0
2.472599375E1,-6.452851892E-1,-4.930360317E0,-2.306784630E0
2.474599375E1,2.808877453E-2,-6.394204140E0,-3.882667303E0
2.476599375E1,-6.739199162E-2,-8.655585289E0,-7.493037224E0
2.478599375E1,1.101438165E0,-1.243731213E1,-9.331563950E0
2.480599375E1,3.218793392E0,-1.551577759E1,-9.832181931E0
2.482799375E1,3.979565382E0,-1.446087265E1,-1.034567070E1
2.484799375E1,2.458864212E0,-8.559002876E0,-8.372609138E0
2.486799375E1,2.754557848E0,-7.935399532E0,-9.440988541E0
2.488799375E1,1.966022730E0,-1.251679134E1,9.032652378E-1
2.490803750E1,-6.647989273E0,-1.138408375E1,3.890778780E0
2.492999844E1,-1.027265739E1,-6.210808277E0,-2.295934200E0
2.495199375E1,-8.340345383E0,-2.428295165E-1,-8.097381592E-1
2.497199375E1,-4.352888584E0,-6.299221039E0,-2.015908241E0
2.499199375E1,-1.988374829E0,-1.132716942E1,1.602716923E0
2.501199375E1,1.511871338E0,-1.742849541E1,-5.272894502E-1
2.503199375E1,1.944484353E0,-1.606836891E1,8.217570782E-1
2.505199375E1,3.531504869E0,-1.212796307E1,1.687816530E-1
2.507199375E1,3.384347677E0,-1.065416908E1,-1.645716786E0
2.509199531E1,1.297647715E0,-9.353256226E0,8.645557761E-1
2.511399375E1,-4.510867596E-1,-8.243571281E0,8.692005873E-1
2.513399375E1,-1.752833366E0,-7.520561218E0,-3.918637633E-1
2.515399375E1,-1.955698848E0,-8.391973495E0,-1.171511650E0
2.517399375E1,-1.367893696E0,-9.126399994E0,-9.323308468E-1
2.519399375E1,-9.965816736E-1,-8.893789291E0,-1.410500884E0
2.521399531E1,-5.253453255E-1,-8.623052597E0,-1.204149365E0
2.523599375E1,-4.470165968E-1,-8.129454613E0,-1.090319514E0
2.525599375E1,-2.453386337E-1,-7.974080086E0,-9.950302541E-3
2.527599531E1,-5.008957386E-1,-8.338965416E0,1.126309037E0
2.529599531E1,-1.226166487E0,-9.207755089E0,2.024556160E0
2.531799375E1,-9.347347021E-1,-1.092953968E1,2.126549006E0
2.533799375E1,4.969596565E-1,-1.150699329E1,-2.423889749E-2
2.535799531E1,1.248719811E0,-1.120032406E1,-1.216752410E0
2.537799531E1,1.416850209E0,-1.210246944E1,-2.523105383E0
2.539999688E1,1.272661924E0,-1.355377769E1,-3.879909277E0
2.542002188E1,5.429187417E-1,-1.318872833E1,-2.871548176E0
2.544199375E1,-4.725675285E-1,-1.237164497E1,-1.389958620E0
2.546199375E1,-1.097703099E0,-1.156972027E1,-1.850392342E0
2.548199375E1,-7.344931960E-1,-1.120856094E1,-2.295570135E0
2.550199375E1,-1.172833204E0,-1.010900021E1,-3.953832626E0
2.552199531E1,-2.265815020E0,-9.694573402E0,-2.044159889E0
2.554399531E1,-1.038374901E0,-1.266835308E1,2.018656731E0
2.556399531E1,-6.251931190E-1,-1.411466217E1,2.855947495E0
2.558599375E1,-1.063849092E0,-1.408135319E1,2.601280928E0
2.560599375E1,-7.116237879E-1,-1.345699406E1,1.488178372E0
2.562599375E1,-1.593580693E-1,-1.268758297E1,-3.798343420E0
2.564599375E1,-2.272643328E0,-1.040038395E1,-3.487250566E0
2.566599375E1,-3.773731232E0,-8.864358902E0,-2.069739550E-1
2.568599375E1,-4.253950596E0,-8.559884071E0,2.028377295E0
2.570599375E1,-4.030954361E0,-8.948558807E0,9.928371310E-1
2.572599375E1,-3.146067142E0,-9.219131470E0,-8.866303563E-1
2.574599375E1,-1.810418725E0,-8.909609795E0,-3.594558835E-1
2.576599375E1,-2.600103021E-1,-8.438584328E0,1.272518158E0
2.578599375E1,1.193270087E-1,-8.087411880E0,1.087915659E0
2.580599375E1,-1.749673009E0,-5.998691559E0,3.678834438E-1
2.582599375E1,-2.860831499E0,-4.230918407E0,-3.742424548E-1
2.584599375E1,-2.596904278E0,-3.756780386E0,-1.130168557E0
2.586599375E1,-1.879266381E0,-3.918226004E0,-1.684972167E0
2.588599375E1,-8.116439581E-1,-4.916569710E0,-2.676985502E0
2.590603594E1,5.812451243E-1,-6.971177578E0,-4.993596077E0
2.592799375E1,1.240100741E0,-1.051848412E1,-8.436975479E0
2.594799375E1,2.939284801E0,-1.518599987E1,-1.077799702E1
2.596799375E1,3.223467112E0,-1.573900318E1,-1.205067730E1
2.598799375E1,1.927389741E0,-9.240181923E0,-9.482254982E0
2.600799375E1,1.542995930E0,-5.636132717E0,-7.875592232E0
2.602799375E1,2.738775253E0,-5.822918892E0,-8.363530159E0
2.604799375E1,3.734820604E0,-1.028062534E1,-7.221199274E-1
2.606799375E1,-5.522983074E0,-1.311760139E1,3.421132326E0
2.608799375E1,-9.564299583E0,-1.618698692E1,-1.071841049E1
2.610799375E1,-6.521805763E0,-5.391387463E0,6.583029747E0
2.612799375E1,-4.268440247E0,-5.270020962E-1,-2.173935063E-2
2.614799375E1,-2.566651344E0,-4.107741356E0,-3.789762735E0
2.616799375E1,-1.711720109E0,-1.057433701E1,-4.191864133E-1
2.618799375E1,-5.512410030E-2,-1.881138611E1,4.726144314E0
2.620799375E1,3.128608704E0,-1.838227844E1,-3.058161736E-1
2.622799375E1,2.527462959E0,-1.285447884E1,1.945145279E-1
2.624799375E1,1.903735161E0,-9.669280052E0,9.721416831E-1
2.626799375E1,1.241594672E0,-8.146386147E0,5.686037540E-1
2.628799375E1,-4.942589998E-1,-8.067013741E0,6.206249595E-1
2.630800313E1,-1.974517345E0,-8.632399559E0,-4.366353452E-1
2.632999688E1,-1.827465415E0,-9.417276382E0,-5.338590741E-1
2.635199375E1,-1.579694390E0,-8.522123337E0,-1.200299501E0
2.637199375E1,-1.410290122E0,-7.692292690E0,-1.957671762E0
2.639199375E1,-1.004492164E0,-7.521883011E0,-1.656241655E0
2.641199375E1,-9.227923751E-1,-7.538996696E0,-1.450953245E0
2.643199375E1,-1.050336361E0,-8.437300682E0,-5.398733616E-1
2.645199375E1,-1.099034309E0,-9.291456223E0,1.143853784E0
2.647199531E1,-9.846968651E-1,-9.936914444E0,2.627904654E0
2.649399375E1,-8.665190339E-1,-1.044597816E1,1.170678496E0
2.651399375E1,5.538267493E-1,-1.070478249E1,-2.295780659E0
2.653399375E1,2.032370806E0,-1.199255657E1,-4.917010307E0
2.655399375E1,1.593609333E0,-1.255553818E1,-3.522387981E0
2.657399375E1,3.170497715E-1,-1.269336796E1,-1.476370096E0
2.659399375E1,-5.672150850E-1,-1.274835777E1,-2.273572206E0
2.661399375E1,-1.206581950E0,-1.240953064E1,-4.455197811E0
2.663399375E1,-1.860898018E0,-1.175424671E1,-5.398445606E0
2.665399375E1,-1.993536830E0,-1.102342224E1,-3.207301378E0
2.667399375E1,-6.353253871E-2,-1.136571598E1,3.761654854E0
2.669399531E1,-1.527213454E-1,-1.191543484E1,4.123754025E0
2.671599375E1,-7.210856676E-1,-1.530726147E1,3.234882593E0
2.673599375E1,-1.789933920E0,-1.667608452E1,2.128330231E0
2.675599375E1,1.057949811E-1,-1.465477467E1,-2.510349035E0
2.677599375E1,-1.070821047E0,-1.181641006E1,-5.322721958E0
2.679599375E1,-3.497507334E0,-9.606322289E0,-2.143030643E0
2.681599375E1,-4.066408157E0,-8.564864159E0,1.112384439E0
2.683599375E1,-3.984334707E0,-8.964493752E0,2.364226341E0
2.685599531E1,-4.877458096E0,-8.419631958E0,4.168592393E-1
2.687599531E1,-3.605016708E0,-7.873485565E0,1.151036397E-1
2.689799375E1,-1.617474675E0,-6.530338287E0,2.034784079E0
2.691799375E1,-6.946824193E-1,-5.850500107E0,2.402504921E0
2.693799375E1,7.979395241E-2,-6.331906796E0,1.028347850E0
2.695799375E1,-6.336590052E-1,-6.404068470E0,7.211623192E-1
2.697799375E1,-1.458653092E0,-5.689341545E0,1.039275080E-1
2.699799375E1,-1.689616799E0,-4.855450630E0,6.802788973E-1
2.701799375E1,-1.482116222E0,-4.356039047E0,-9.044527411E-1
2.703799375E1,-9.060999751E-1,-5.154811859E0,-2.903285742E0
2.705799375E1,-4.108449817E-2,-7.902637005E0,-6.558838844E0
2.707799375E1,2.631342411E0,-1.401369381E1,-1.303406239E1
2.709799375E1,4.582482815E0,-1.839446831E1,-1.559916306E1
2.711799375E1,4.782676220E0,-1.273920250E1,-1.129761505E1
2.713799375E1,2.465003014E0,-7.471872330E0,-8.107235909E0
2.715799375E1,1.375296474E0,-6.522753239E0,-5.268459797E0
2.717799375E1,1.852901340E0,-1.080088615E1,-2.611422777E0
2.719799531E1,-4.984746933E0,-1.171617985E1,5.596446514E0
2.722001563E1,-1.002163982E1,-1.597634506E1,-9.810720444E0
2.724199531E1,-7.483527184E0,-7.046978474E0,8.710144997E0
2.726399375E1,-4.118314266E0,-2.506681442E0,4.293081760E0
2.728399375E1,-3.172087431E0,-7.915422440E0,5.070440173E-1
2.730399375E1,-2.206927299E0,-1.763222313E1,1.273686528E0
2.732399375E1,-9.897534251E-1,-1.806162643E1,2.029162645E0
2.734399531E1,7.818313837E-1,-1.322010136E1,-1.906493306E0
2.736599375E1,2.692921400E0,-8.631777763E0,3.259178698E-1
2.738599375E1,2.388206482E0,-8.318768501E0,-1.324730992E0
2.740599375E1,7.654741406E-2,-8.794572830E0,-1.129009798E-1
2.742599375E1,-1.139458060E0,-8.282434464E0,1.132141352E0
2.744599375E1,-1.598551035E0,-6.769758224E0,5.112386942E-1
2.746599375E1,-1.020743966E0,-6.662871361E0,7.565677166E-3
2.748599375E1,-9.426354766E-1,-6.958316326E0,-1.510195494E0
2.750599375E1,-5.413864851E-1,-7.836796761E0,-2.249840736E0
2.752599375E1,1.853303611E-1,-8.606302261E0,-9.962847829E-1
2.754599375E1,3.060172796E-1,-8.843616486E0,4.851514697E-1
2.756599375E1,-2.191269249E-1,-9.133601189E0,1.249035835E0
2.758599375E1,-7.780101895E-1,-9.740550995E0,4.159015715E-1
2.760599375E1,-4.562582374E-1,-1.009389687E1,-9.372725487E-1
2.762599375E1,2.504430711E-1,-9.827173233E0,-5.138244033E-1
2.764599375E1,7.259985805E-1,-1.020862675E1,3.407619298E-1
2.766599375E1,1.014289141E0,-1.187646580E1,7.846277952E-1
2.768599375E1,4.244632125E-1,-1.266343021E1,6.353062391E-1
2.770599375E1,-5.472857952E-1,-1.168054390E1,-9.718735218E-1
2.772599375E1,-1.022381544E0,-1.155257893E1,-3.172116280E0
2.774599375E1,-1.696531326E-1,-1.317923737E1,-3.577205658E0
2.776599375E1,1.420317054E0,-1.439334679E1,-1.719936967E0
2.778599375E1,1.155566335E0,-1.416267014E1,2.936728001E-1
2.780599375E1,-1.916414738E0,-1.235002041E1,-4.416277409E0
2.782599375E1,-2.997703314E0,-1.103379250E1,-2.151544571E0
2.784599375E1,-1.891237378E0,-1.129114151E1,1.769190550E0
2.786599531E1,-2.772945404E0,-1.328023434E1,1.421313167E0
2.788799375E1,-2.203977585E0,-1.484917355E1,1.733220100E0
2.790799375E1,-6.840521693E-1,-1.267582321E1,1.653694272E0
2.792799375E1,-6.118429899E-1,-1.028865051E1,1.595371485E0
2.794799375E1,-5.083369017E-1,-9.119178772E0,4.814260826E-2
2.796799375E1,-7.869741321E-1,-9.153061867E0,-1.873625636E0
2.798799375E1,-2.302647352E0,-8.607691765E0,-9.281362295E-1
2.801000469E1,-2.685078144E0,-7.757902622E0,6.053882241E-1
2.803199375E1,-1.979976058E0,-7.271276951E0,1.367184877E0
2.805199688E1,-1.108917594E0,-7.288955688E0,1.587891936E0
2.807399375E1,-8.035036325E-1,-6.527743340E0,1.042387605E0
2.809399375E1,-1.049828768E0,-6.174703598E0,7.285460234E-1
2.811399375E1,-1.360596061E0,-6.436370373E0,7.898280025E-1
2.813399375E1,-1.623182654E0,-6.261076450E0,-2.016109377E-1
2.815399375E1,-1.693801880E0,-5.921665192E0,-1.727282524E0
2.817399375E1,-1.871126056E0,-5.822746754E0,-2.627770424E0
2.819399375E1,-2.259982586E0,-6.025248051E0,-2.712065458E0
2.821399375E1,-2.184891224E0,-6.823810101E0,-3.341213942E0
2.823399375E1,-3.885980844E-1,-1.006537724E1,-5.378650665E0
2.825399375E1,3.310893536E0,-1.550723457E1,-8.808267593E0
2.827399375E1,5.117883682E0,-1.623350143E1,-1.277289391E1
2.829399375E1,5.929316998E0,-1.344785786E1,-1.177864838E1
2.831399375E1,4.012174606E0,-1.098368740E1,-7.389894962E0
2.833399375E1,2.677837849E0,-1.036180782E1,-3.668146610E0
2.835399531E1,1.354869127E0,-1.145978928E1,-4.998777390E0
2.837399531E1,-1.958466530E0,-1.127745628E1,3.416257620E0
2.839599375E1,-8.485424995E0,-1.057140636E1,5.883233547E0
2.841599375E1,-1.118323898E1,-8.461922646E0,-9.529966354E0
2.843599375E1,-7.803507805E0,-3.972133875E0,5.774335384E0
2.845599375E1,-5.253951073E0,-5.573203564E0,1.654144406E0
2.847599375E1,-3.128445864E0,-1.217702484E1,4.614105523E-1
2.849599375E1,4.442680627E-2,-1.692485237E1,2.406910181E0
2.851599375E1,1.416170239E0,-1.425180149E1,9.358646870E-1
2.853599375E1,1.740393043E0,-9.962771416E0,-4.703169763E-1
2.855599375E1,3.345992565E0,-6.729880810E0,-1.813607812E0
2.857599375E1,1.351344824E0,-9.589793205E0,-2.269406319E0
2.859599375E1,4.104906619E-1,-1.089266968E1,1.845106006E0
2.861599375E1,-4.928511977E-1,-7.837936401E0,2.468718767E0
2.863599375E1,-5.558474660E-1,-7.001584530E0,7.550929189E-1
2.865599375E1,-4.605103433E-1,-8.155053139E0,-1.165190935E0
2.867600000E1,-8.435729742E-1,-8.713380814E0,-2.169778824E0
2.869799375E1,-9.782708287E-1,-9.299165726E0,-2.091564894E0
2.871799375E1,-8.576509356E-1,-9.472410202E0,-1.097368002E0
2.873799375E1,-6.214677095E-1,-9.084117889E0,4.262540936E-1
2.875799375E1,-6.501023769E-1,-8.346484184E0,2.169951200E0
2.877799375E1,-6.982928514E-1,-8.615572929E0,3.317846537E0
2.879799375E1,-9.350411296E-1,-9.448975563E0,2.192351341E0
2.881799375E1,-8.407478929E-1,-1.018213749E1,9.653517008E-1
2.883799375E1,-5.023226738E-1,-1.056424236E1,9.678129554E-1
2.885800938E1,-3.988931477E-1,-1.102532673E1,1.099580169E0
2.888000000E1,-3.056916893E-1,-1.209786320E1,4.361852407E-1
2.890003594E1,-4.242908657E-1,-1.166686821E1,-1.362769961E0
2.892199375E1,-5.644186735E-1,-1.081091213E1,-2.951284647E0
2.894199375E1,-4.152694941E-1,-1.092010784E1,-3.225238800E0
2.896199531E1,7.337079048E-1,-1.235708809E1,-2.163553953E0
2.898399375E1,1.817208648E0,-1.357115936E1,-2.948698699E-1
2.900399375E1,1.090683341E0,-1.284800529E1,7.131848484E-2
2.902399375E1,-5.162090659E-1,-1.194000912E1,-4.315979481E-1
2.904399375E1,-3.387077093E0,-9.983820915E0,-4.988415241E0
2.906399375E1,-3.237276554E0,-1.121448803E1,-7.752999663E-1
2.908399375E1,-1.901963353E0,-1.257013416E1,2.092915297E0
2.910399375E1,-3.118754148E0,-1.437788963E1,1.714583635E0
2.912399531E1,-2.059999704E0,-1.384022808E1,7.126676440E-1
2.914599375E1,3.038624823E-1,-1.146184731E1,-9.804159999E-1
2.916599375E1,-1.437287182E-1,-9.581202507E0,-1.882168055E0
2.918599375E1,-1.457877278E0,-8.227022171E0,-5.092563033E-1
2.920599375E1,-2.511278152E0,-7.437961102E0,8.095657825E-1
2.922599375E1,-2.744837284E0,-7.593191624E0,2.541387796E0
2.924599375E1,-1.902336955E0,-7.842830181E0,1.724600911E0
2.926599375E1,-8.427206874E-1,-7.728770733E0,4.841746092E-1
2.928599375E1,1.059769467E-1,-7.553734779E0,-2.129307240E-1
2.930599375E1,3.914998472E-1,-7.787322521E0,5.717353225E-1
2.932599375E1,-4.948431849E-1,-7.343294621E0,3.455215991E-1
2.934599375E1,-1.891045928E0,-6.259391308E0,-3.722791970E-1
2.936599375E1,-2.445552588E0,-5.970851421E0,-1.576428533E0
2.938599375E1,-2.275478125E0,-6.363328457E0,-2.736610889E0
2.940599375E1,-1.680662632E0,-7.179071426E0,-3.473718405E0
2.942599375E1,-1.191201568E0,-7.813094139E0,-3.865611076E0
2.944599375E1,-1.180714965E0,-8.473721504E0,-5.489502430E0
2.946599375E1,-2.345359921E-1,-1.075549126E1,-6.376994610E0
2.948599375E1,2.088912249E0,-1.348088741E1,-7.526546478E0
2.950599375E1,3.241289377E0,-1.475001526E1,-9.656303406E0
2.952599375E1,4.064990520E0,-1.302016735E1,-9.975690842E0
2.954599375E1,4.131530285E0,-1.339959049E1,-8.059744835E0
2.956599375E1,4.111706257E0,-1.846951294E1,-1.003377342E1
2.958599375E1,6.728855968E-1,-1.491927624E1,6.870113850E0
2.960599375E1,-5.436724663E0,-4.698084354E0,1.087851429E1
2.962599375E1,-5.279233932E0,-1.609880328E0,1.325104475E0
2.964599375E1,-1.303346920E1,1.434385419E0,-8.064599991E0
2.966599375E1,-8.579918861E0,-6.050243855E0,1.069011092E0
2.968599375E1,-3.859462738E0,-8.324285507E0,-3.317405656E-2
2.970599375E1,5.938578025E-2,-1.313520336E1,-1.536885977E0
2.972599375E1,2.000546932E0,-1.792869186E1,-1.158793573E-3
2.974599531E1,1.317500472E0,-1.337129116E1,6.687924862E0
2.976799375E1,4.183283329E0,-1.238535881E1,-2.028061390E0
2.978799375E1,2.780424833E0,-1.056384945E1,-6.098893285E-1
2.980799375E1,1.342112899E0,-8.557345390E0,2.328705788E0
2.982799375E1,5.328439474E-1,-7.951096058E0,1.937301874E0
2.984799375E1,-9.939672351E-1,-8.475224495E0,-2.849674821E-1
2.986799375E1,-1.574149251E0,-9.254136086E0,-9.933925867E-1
2.988800156E1,-1.492985845E0,-9.017492294E0,-8.543086648E-1
2.990999531E1,-1.262711525E0,-8.498937607E0,7.762001455E-2
2.992999531E1,-1.017526150E0,-8.267053604E0,7.752233148E-1
2.995199531E1,-9.601802230E-1,-8.283506393E0,1.063820481E0
2.997199531E1,-1.219750047E0,-8.812568665E0,9.876464605E-1
2.999399375E1,-7.230967879E-1,-9.567564964E0,-2.383188307E-1
3.001399375E1,9.877805710E-1,-9.900684357E0,-1.697891235E0
3.003399375E1,2.535000086E0,-1.134888935E1,-2.974805117E0
3.005399375E1,3.090837955E0,-1.321223927E1,-3.537538290E0
3.007399375E1,1.661394000E0,-1.264585781E1,-2.601587296E0
3.009399375E1,1.186183318E-1,-1.299988270E1,-1.541703105E0
3.011399375E1,-8.132815957E-1,-1.410151291E1,-6.263231859E-3
3.013399375E1,-1.785279512E0,-1.270398808E1,-5.109130740E-1
3.015399375E1,-3.032850027E0,-1.036282349E1,-4.279951572E0
3.017399375E1,-4.395237446E0,-1.052538013E1,-4.574112892E0
3.019399375E1,-2.685394049E0,-1.331888676E1,1.421686530E0
3.021399375E1,-2.105690956E0,-1.390359879E1,3.172527790E0
3.023399375E1,-2.597814322E0,-1.432710457E1,2.592537403E0
3.025399375E1,-1.783536673E0,-1.374941254E1,1.056704879E0
3.027399375E1,-9.845723510E-1,-1.306280231E1,-6.352583408E0
3.029399375E1,-2.862067223E0,-1.081979942E1,-2.740891695E0
3.031399375E1,-3.654490232E0,-8.875602722E0,1.516439438E0
3.033399375E1,-3.254476547E0,-8.764818192E0,1.478860140E0
3.035399375E1,-2.176262140E0,-9.272695541E0,-9.800904244E-2
3.037399375E1,-1.602171063E0,-8.481325150E0,2.970438242E0
3.039399375E1,5.661807954E-2,-8.527581215E0,1.634866238E0
3.041399375E1,1.312185287E0,-8.229646683E0,2.233215570E-1
3.043399375E1,-5.221945047E-1,-5.106631279E0,1.035568833E0
3.045399375E1,-2.392650127E0,-2.738449812E0,1.045768142E0
3.047399375E1,-2.906579971E0,-1.727608085E0,1.307425648E-1
3.049399375E1,-1.971299410E0,-1.884016514E0,-8.560037017E-1
3.051399375E1,-1.037522435E0,-2.692538261E0,-2.222604513E0
3.053399375E1,-1.734857678E0,-4.908084869E0,-5.535126209E0
3.055399375E1,-1.038413197E-1,-1.380099201E1,-1.641355515E1
3.057399375E1,1.627530336E0,-2.318681908E1,-1.728414536E1
3.059399375E1,-4.589397311E-1,-1.476359558E1,-1.249396038E1
3.061399375E1,-2.272097468E-1,-5.391617775E0,-9.821025848E0
3.063399375E1,-5.349317193E-1,-1.286717796E1,-5.771137238E0
3.065399375E1,-2.087839603E0,-1.692089653E1,3.350991726E0
3.067399375E1,-3.605916739E0,-1.070944595E1,1.066964436E1
3.069399375E1,-3.568672657E0,-3.254007339E0,1.350253224E0
3.071399375E1,-2.272212505E0,-3.745948792E0,-5.975352526E-1
3.073399375E1,-3.472981215E0,-1.202902412E1,4.282096863E0
3.075399375E1,-1.265507936E0,-1.875178146E1,4.415358067E0
3.077399375E1,2.115832806E0,-1.502914143E1,-5.145685673E0
3.079399375E1,2.151803255E0,-1.028035736E1,-2.134124279E0
3.081399375E1,1.905707836E0,-1.023032856E1,8.268519044E-1
3.083399375E1,-3.109972179E-1,-8.942420006E0,5.397584438E-1
3.085399375E1,-1.963551879E0,-7.210368156E0,1.520768166E0
3.087399375E1,-2.534683943E0,-6.962367058E0,1.382996202E0
3.089399375E1,-2.440084219E0,-7.455285549E0,-1.678526849E-1
3.091399375E1,-1.541540265E0,-7.888645649E0,-2.433227301E0
3.093399375E1,-2.664459348E-1,-8.614509583E0,-3.159627914E0
3.095399375E1,4.380718768E-1,-8.963603973E0,-1.827867627E0
3.097399375E1,4.449288547E-1,-8.555727959E0,4.108641744E-1
3.099399375E1,-1.475690156E-1,-8.048492432E0,1.490649223E0
3.101399375E1,-1.059865236E0,-8.870497704E0,1.721737385E0
3.103399375E1,-1.501375079E0,-1.021276474E1,5.302678347E-1
3.105399375E1,-8.366873264E-1,-1.039780807E1,-1.810006976E0
3.107399531E1,3.610647619E-1,-1.054310608E1,-2.455933809E0
3.109599375E1,1.276167035E0,-1.103566074E1,-1.698561668E0
3.111599375E1,1.226367593E0,-1.152577305E1,-1.049637198E0
3.113599375E1,7.906420231E-1,-1.162079430E1,-9.156576395E-1
3.115599375E1,6.140648574E-2,-1.302475357E1,-1.589242339E0
3.117599375E1,-4.109982252E-1,-1.531550694E1,-2.617705345E0
3.119599375E1,-1.437469125E0,-1.404118824E1,-2.613644600E0
3.121599375E1,-3.393349886E0,-1.149032021E1,-4.819652557E0
3.123599375E1,-3.085330963E0,-1.143441963E1,-7.363224030E-1
3.125599375E1,-2.567398310E0,-1.251472187E1,1.609066367E0
3.127599375E1,-3.751771450E0,-1.494661808E1,8.128219247E-1
3.129599375E1,-3.897817850E0,-1.585436535E1,1.922065169E-1
3.131599375E1,-2.900527477E0,-1.352460670E1,-1.607926726E0
3.133599375E1,-2.691532612E0,-1.062340832E1,-2.289565325E0
3.135599375E1,-2.515990019E0,-9.177512169E0,-1.582146049E0
3.137599531E1,-2.134842634E0,-8.147066116E0,1.614764571E0
3.139799375E1,-1.855640411E0,-7.145427704E0,3.088462591E0
3.141799375E1,-1.057978630E0,-7.256308079E0,2.317529678E0
3.143799375E1,-2.688209414E-1,-7.994248867E0,2.241834700E-1
3.145799375E1,-5.463568121E-2,-7.926483631E0,-3.067834079E-1
3.147799375E1,-5.929958820E-2,-7.679114819E0,-1.735317409E-1
3.149799375E1,-9.059946537E-1,-6.383583546E0,4.945271611E-1
3.151799375E1,-2.009922743E0,-4.674880028E0,5.011447072E-1
3.153799375E1,-2.231108665E0,-3.862249613E0,-2.740307748E-1
3.155799375E1,-1.725549102E0,-3.647757769E0,-1.281242728E0
3.157799375E1,-1.072659731E0,-4.276408195E0,-1.884648561E0
3.159799375E1,-8.257793188E-1,-5.040666103E0,-2.469733953E0
3.161799375E1,-1.528822303E0,-5.643631458E0,-3.756291866E0
3.163799375E1,-2.791610241E0,-7.220452785E0,-6.081367970E0
3.165799375E1,-8.136071563E-1,-1.345491600E1,-8.504395485E0
3.167799375E1,1.357177138E0,-2.066392326E1,-1.712126160E1
3.169799375E1,3.131730795E0,-1.740419006E1,-1.573816967E1
3.171799375E1,4.028742313E0,-1.314524937E1,-1.007894707E1
3.173799375E1,4.187075615E0,-8.332482338E0,-5.627484798E0
3.175799375E1,2.328504801E0,-5.630396366E0,-4.791065693E0
3.177799375E1,2.979344502E-2,-8.286552429E0,-2.066311121E0
3.179799375E1,-4.359937191E0,-1.148537827E1,1.084711266E1
3.181799375E1,-8.743969917E0,-1.704508781E1,-1.121024609E1
3.183799375E1,-1.043250370E1,-9.599723816E0,1.864431858E0
3.185799375E1,-6.395736217E0,-1.661374927E0,5.886566639E0
3.187799375E1,-3.668999195E0,-5.543448448E0,-3.443532288E-1
3.189799375E1,-2.291969299E0,-1.385496807E1,-2.706405707E-2
3.191799375E1,8.569326997E-2,-1.726444626E1,3.091690302E0
3.193799375E1,3.917105496E-1,-1.423865223E1,3.087524176E0
3.195799531E1,1.747278810E0,-1.102385235E1,-1.309934855E0
3.197999375E1,3.076367140E0,-6.754406929E0,-7.019703388E-1
3.200000000E1,1.680183768E0,-8.528280258E0,-1.819497585E0
3.202001094E1,5.062683225E-1,-1.063479519E1,1.677875757E0
3.204199531E1,-8.562431931E-1,-8.203071594E0,1.819171906E0
3.206399375E1,-1.683238745E0,-6.894774437E0,1.146152243E-1
3.208399531E1,-1.729906440E0,-7.603352547E0,-1.435525060E0
3.210599375E1,-1.658166647E0,-7.855126858E0,-2.227297068E0
3.212599375E1,-8.014350533E-1,-8.198694229E0,-2.135378838E0
3.214599375E1,1.650849879E-1,-8.835255623E0,-9.854246974E-1
3.216599375E1,4.561816156E-1,-9.158118248E0,4.439711869E-1
3.218599375E1,1.141938493E-1,-8.849055290E0,1.985473156E0
3.220599375E1,-3.126827478E-1,-8.697176933E0,2.250415564E0
3.222599375E1,-1.514380425E-1,-9.318558693E0,5.524572730E-1
3.224599375E1,7.852693796E-1,-9.882862091E0,-1.338674784E0
3.226599375E1,1.328667045E0,-1.103291225E1,-9.862483144E-1
3.228599375E1,2.755725980E-1,-1.175048351E1,-1.159751266E-1
3.230599375E1,-7.396934032E-1,-1.167559242E1,-3.399862051E-1
3.232599375E1,-1.307291627E0,-1.202286720E1,-1.422596335E0
3.234599375E1,-1.654240131E0,-1.347659779E1,-2.788402081E0
3.236599375E1,-1.646511674E0,-1.414608288E1,-3.830799341E0
3.238599531E1,-1.372394800E0,-1.380736160E1,-6.095809937E0
3.240799375E1,-1.491376996E0,-1.267801666E1,-4.973867893E0
3.242799375E1,-5.680100322E-1,-1.226886654E1,2.422711849E0
3.244799375E1,-9.593182802E-1,-1.272031784E1,3.119635344E0
3.246799375E1,-2.563711107E-1,-1.553922176E1,2.611786842E0
3.248800781E1,5.656923652E-1,-1.668504906E1,2.827379942E0
3.250999375E1,1.347485423E0,-1.437103367E1,1.915935874E0
3.252999375E1,1.243557930E0,-1.056944275E1,1.073617578E0
3.254999375E1,1.463996768E0,-8.740426064E0,-9.936224222E-1
3.256999531E1,-1.012201428E0,-7.799169540E0,-2.016722202E0
3.258999531E1,-3.590651274E0,-7.224407673E0,-5.723482370E-1
3.261000000E1,-3.682579041E0,-8.144480705E0,2.078425646E0
3.263199375E1,-1.578640819E0,-8.559787750E0,1.770368576E0
3.265199531E1,-4.205463231E-1,-7.678425312E0,9.707721472E-1
3.267399531E1,-2.498493195E-1,-6.740443707E0,1.277057648E0
3.269599375E1,-1.481876850E0,-6.444549084E0,8.479783535E-1
3.271599375E1,-2.660178423E0,-6.041020870E0,3.965851367E-1
3.273599375E1,-3.121349335E0,-5.842177868E0,-3.566690087E-1
3.275599375E1,-3.369024992E0,-5.367522240E0,-2.232602835E0
3.277599375E1,-2.720502615E0,-5.565637589E0,-2.546406031E0
3.279599375E1,-1.767658353E0,-5.762479305E0,-2.251641273E0
3.281599375E1,-1.493273139E0,-5.634341717E0,-2.454257727E0
3.283599375E1,-9.869090915E-1,-7.381869793E0,-3.767372131E0
3.285599375E1,1.123368979E0,-1.287751102E1,-5.510351181E0
3.287599375E1,5.147581577E0,-1.739494705E1,-1.383378315E1
3.289599375E1,8.251309395E0,-1.651547050E1,-1.704062462E1
3.291599375E1,7.409115791E0,-1.290921021E1,-7.195888042E0
3.293599375E1,6.393227100E0,-9.819866180E0,-2.690843344E0
3.295599375E1,3.130399704E0,-9.504464149E0,-3.137869358E0
3.297599375E1,-3.761606932E0,-1.225178146E1,4.510675967E-1
3.299599375E1,-6.813390732E0,-1.527957535E1,2.028061390E0
3.301599375E1,-1.079862499E1,-1.157909679E1,-6.664288998E0
3.303599375E1,-9.791059494E0,9.339301586E-1,1.126663446E0
3.305599375E1,-4.380709171E0,-2.958553553E0,4.703169689E-2
3.307599375E1,-2.793918371E0,-1.138218880E1,2.856330633E0
3.309599375E1,1.709651500E-1,-1.817457581E1,6.181263447E0
3.311599375E1,3.318172097E-1,-1.610407066E1,6.082488537E0
3.313599375E1,-2.759652734E-1,-1.180859566E1,3.488371134E0
3.315599375E1,2.549049139E0,-8.257658958E0,-1.030997849E1
3.317599375E1,7.518176436E-1,-8.114111900E0,-1.137236238E0
3.319599375E1,-8.853853941E-1,-1.119007683E1,2.824104726E-1
3.321599375E1,-7.161344886E-1,-1.069378853E1,1.007269382E0
3.323599375E1,-9.726684093E-1,-8.178219795E0,5.853440166E-1
3.325599375E1,-1.402896881E0,-6.905212879E0,-1.631552696E0
3.327599375E1,-1.188673258E0,-7.371909618E0,-1.549738050E0
3.329599375E1,-1.176711798E0,-7.397690296E0,-1.133798242E0
3.331599375E1,-1.118944526E0,-7.571634293E0,-6.679631472E-1
3.333799375E1,-8.008413315E-1,-8.108299255E0,3.268660009E-1
3.335799375E1,-7.336887121E-1,-8.161881447E0,1.659018874E0
3.337799531E1,-1.060133338E0,-8.678310394E0,2.015429497E0
3.339999375E1,-4.015459418E-1,-9.628569603E0,1.010640413E-1
3.342001875E1,5.111046433E-1,-9.516310692E0,-1.954674244E0
3.344199375E1,1.245530725E0,-1.042697811E1,-2.219003677E0
3.346199375E1,1.353394270E0,-1.188087177E1,-5.814749599E-1
3.348199375E1,9.883456230E-1,-1.213244438E1,6.883425713E-1
3.350199375E1,-1.434318423E-1,-1.218160248E1,-2.899090946E-1
3.352199375E1,-1.088356256E0,-1.306033230E1,-2.708885908E0
3.354199531E1,-1.197799921E0,-1.429249287E1,-4.476333618E0
3.356399375E1,-5.918371081E-1,-1.476860428E1,-4.362350464E0
3.358399375E1,-2.008486271E0,-1.335147667E1,-5.361393452E0
3.360399375E1,-2.745019197E0,-1.194549656E1,-7.046326995E-1
3.362399375E1,-1.698848844E0,-1.203102684E1,3.529723644E0
3.364399531E1,-1.379376173E0,-1.241059399E1,2.902021408E0
3.366599375E1,-1.380381823E0,-1.533656597E1,8.762107491E-1
3.368599375E1,-3.511336446E-1,-1.538883686E1,-1.284355044E0
3.370599375E1,-6.933129430E-1,-1.258478642E1,-1.589156151E0
3.372599375E1,-2.118964434E0,-1.074738979E1,-1.351852417E0
3.374599375E1,-3.500878334E0,-9.744774818E0,-1.184651032E-1
3.376599375E1,-3.912958622E0,-9.197613716E0,1.775607109E0
3.378599375E1,-3.423813820E0,-8.793778419E0,5.228362083E-1
3.380599375E1,-2.406402588E0,-8.493114471E0,-5.419323444E-1
3.382599375E1,-1.210316896E0,-7.667268276E0,6.261891127E-1
3.384599375E1,3.829764947E-2,-6.937017441E0,2.102961540E0
3.386599375E1,6.399222463E-2,-6.052551270E0,1.286251307E0
3.388599375E1,-1.580489159E0,-4.432538986E0,1.427806139E0
3.390599375E1,-2.423410892E0,-3.467311621E0,1.036258459E0
3.392599375E1,-2.326713800E0,-3.318430662E0,2.927534282E-1
3.394599375E1,-1.884418726E0,-3.787387609E0,6.189490110E-2
3.396599375E1,-1.931239724E0,-4.054398537E0,-5.163718462E-1
3.398599375E1,-1.915370941E0,-5.831001282E0,-1.911722183E0
3.400599375E1,-2.448549986E0,-1.228080845E1,-8.714740753E0
3.402599375E1,6.413204074E-1,-1.874568939E1,-1.316592598E1
3.404599844E1,1.564246893E0,-1.792894173E1,-1.917850304E1
3.406799531E1,2.466219366E-1,-8.974981308E0,-1.215672207E1
3.408999531E1,1.194993854E0,-5.118343830E0,-7.653927803E0
3.411199375E1,1.891553521E0,-7.271947384E0,-4.053326130E0
3.413199375E1,3.045472383E0,-1.235834312E1,-4.476400375E0
3.415199375E1,-9.074695110E-1,-1.339268589E1,8.202486992E0
3.417199531E1,-6.595833778E0,-1.540329742E1,-1.303746319E1
3.419399375E1,-8.612929344E0,-4.878377438E0,7.037650585E0
3.421399375E1,-5.189929962E0,-8.657529354E-1,8.004774451E-1
3.423399375E1,-1.680509329E0,-4.506423950E0,3.138223886E-1
3.425399375E1,-1.283292100E-2,-1.539301300E1,2.488801479E0
3.427399375E1,2.349937677E0,-2.041770554E1,1.010247827E0
3.429399375E1,5.951889753E-1,-1.527584934E1,1.037129879E0
3.431399375E1,1.606404066E0,-9.919877052E0,1.337592602E0
3.433399375E1,3.162242413E0,-8.878054619E0,-3.270010233E0
3.435399531E1,2.369685024E-1,-1.111270618E1,9.946854711E-1
3.437599375E1,-9.740857482E-1,-9.763468742E0,2.457590580E0
3.439599375E1,-1.954817772E0,-8.341321945E0,3.610264659E-1
3.441599375E1,-2.239555359E0,-7.968573570E0,-1.897146225E0
3.443599375E1,-2.030972481E0,-7.838491917E0,-2.409371376E0
3.445599375E1,-1.602506280E0,-7.588977337E0,-1.903514862E0
3.447599375E1,-1.028568268E0,-7.633280277E0,-1.318927407E0
3.449599375E1,-5.033473969E-1,-7.982393265E0,-6.036931872E-1
3.451599375E1,-3.391721845E-1,-8.446953773E0,-4.897578955E-1
3.453599375E1,-1.961138397E-1,-9.146263123E0,4.735443592E-1
3.455599375E1,-4.415099621E-1,-9.281917572E0,8.420694470E-1
3.457599375E1,-6.578596234E-1,-9.188486099E0,3.368162736E-2
3.459599375E1,-6.480146646E-1,-9.116201401E0,-1.661202550E0
3.461599375E1,4.742913544E-1,-9.708574295E0,-2.119548321E0
3.463599375E1,1.509802699E0,-1.121271706E1,-4.690815806E-1
3.465599375E1,1.596568584E0,-1.163074398E1,2.633430362E-1
3.467599375E1,1.121558905E0,-1.168918228E1,-1.129670501E0
3.469599375E1,1.224777848E-1,-1.204784298E1,-2.833796501E0
3.471599375E1,-9.638864994E-1,-1.273837852E1,-4.410713196E0
3.473599375E1,-1.775214314E0,-1.311400032E1,-5.653610229E0
3.475599375E1,-2.041966915E0,-1.371863174E1,-4.578335762E0
3.477599375E1,-9.015414715E-1,-1.339370060E1,1.644184470E0
3.479599375E1,-9.024895430E-1,-1.286999321E1,3.669209957E0
3.481599375E1,-4.130380750E-1,-1.357226944E1,3.543054581E0
3.483599375E1,-8.556972742E-1,-1.576595211E1,2.941870689E0
3.485599531E1,-8.672468662E-1,-1.600638771E1,1.719687939E0
3.487799375E1,9.409021139E-1,-1.349627781E1,-4.072192192E0
3.489799375E1,-2.073589325E0,-9.857158661E0,-2.352619171E0
3.491799375E1,-3.645315647E0,-8.193226814E0,-5.405341387E-1
3.493799375E1,-4.003258705E0,-8.285823822E0,1.504238605E0
3.495799375E1,-4.227375031E0,-7.880735397E0,1.292830586E0
3.497799375E1,-3.943250179E0,-6.865708351E0,2.968522906E-1
3.499799375E1,-2.456508398E0,-6.165739536E0,1.176616073E0
3.501799375E1,-8.816121221E-1,-5.950031757E0,2.833432436E0
3.503799375E1,1.638878882E-1,-6.237728596E0,1.306017876E0
3.505799531E1,-5.332366005E-2,-6.627360821E0,6.404680610E-1
3.507999375E1,-4.820677042E-1,-6.389980316E0,7.660105228E-1
3.509999375E1,-6.148788929E-1,-5.725158691E0,1.676324308E-1
3.512002656E1,-7.728291750E-1,-5.443753719E0,-8.245726228E-1
3.514199375E1,-1.221234322E0,-6.148693085E0,-2.178465128E0
3.516199375E1,-1.757066250E0,-8.680627823E0,-4.435574532E0
3.518199375E1,-1.874075770E0,-1.162298775E1,-8.014657021E0
3.520199531E1,8.644504547E-1,-1.433451653E1,-1.085191154E1
3.522399375E1,1.891936541E0,-1.302808666E1,-1.266019344E1
3.524399375E1,1.981527448E0,-1.049077892E1,-1.120012283E1
3.526399375E1,1.758857131E0,-9.416864395E0,-7.953049660E0
3.528399375E1,3.006264925E0,-1.013921356E1,-4.028081417E0
3.530399375E1,1.837760448E0,-1.400587845E1,-5.249948025E0
3.532399375E1,-2.491684198E0,-1.491716957E1,1.947271228E0
3.534399531E1,-6.985907078E0,-1.154765606E1,6.307888031E0
3.536599375E1,-6.543458462E0,-4.082267284E0,-6.123314500E-1
3.538599375E1,-4.828262329E0,-1.595735431E0,4.807547569E0
3.540599375E1,-4.283973694E0,-8.148368835E0,2.312961578E0
3.542599375E1,-1.219453096E0,-1.760164452E1,2.667447329E0
3.544599375E1,-4.636132121E-1,-1.617373276E1,3.765791893E0
3.546599375E1,6.293877363E-1,-1.167376328E1,1.969087273E-1
3.548599375E1,2.291097879E0,-8.294309616E0,-5.471727371E0
3.550599375E1,6.428144574E-1,-7.134146690E0,-1.027744651E0
3.552599375E1,-4.540747106E-1,-1.098582363E1,-1.547985435E0
3.554599375E1,2.330994792E-2,-1.033152676E1,1.196842313E0
3.556599375E1,-4.074069560E-1,-6.846861362E0,1.060257792E0
3.558599375E1,-7.369257212E-1,-6.037726402E0,1.063121334E-1
3.560599375E1,-1.358948827E0,-7.225767612E0,-9.867750406E-1
3.562599375E1,-2.238961697E0,-8.658390999E0,-2.178139448E0
3.564599375E1,-1.599690676E0,-9.303255081E0,-2.263324976E0
3.566599375E1,6.158844382E-2,-9.536661148E0,-6.293590069E-1
3.568599375E1,4.136605859E-1,-9.121037483E0,1.182371736E0
3.570599375E1,-1.639740914E-1,-8.822144508E0,2.600945711E0
3.572599375E1,-7.884776592E-1,-9.499053001E0,2.522262812E0
3.574599375E1,-1.231826305E0,-1.005697823E1,1.033203363E0
3.576599375E1,-1.374463201E0,-9.992506981E0,-5.316181183E-1
3.578599375E1,-8.629660606E-1,-1.045759583E1,-1.335428238E0
3.580599375E1,6.520368457E-1,-1.205438423E1,-1.725347877E0
3.582599375E1,1.875588894E0,-1.246673203E1,-1.410577416E0
3.584599375E1,1.740833640E0,-1.166485786E1,-1.116387606E0
3.586599375E1,6.416939497E-1,-1.258704567E1,-1.826909900E0
3.588603750E1,-6.471048295E-2,-1.433125114E1,-2.369426489E0
3.590799375E1,-1.066473201E-1,-1.409881210E1,-2.359150648E0
3.592799375E1,-1.274213314E0,-1.266910076E1,-4.310262203E0
3.594799375E1,-3.035244465E0,-1.110873222E1,-3.152301788E0
3.596799375E1,-1.482547164E0,-1.175456333E1,2.630528450E0
3.598799375E1,-1.539931417E0,-1.280772495E1,2.882513523E0
3.600799375E1,-1.788698435E0,-1.484180927E1,1.928385854E0
3.602799375E1,-6.526306868E-1,-1.373725891E1,8.351358771E-1
3.604799375E1,7.781347036E-1,-1.207774258E1,-1.270162344E0
3.606799531E1,-3.190417588E-1,-1.089990044E1,-2.043719292E0
3.608799688E1,-2.238894463E0,-1.004062080E1,-1.497735977E0
3.611000000E1,-3.183263540E0,-9.309556961E0,1.592575073E0
3.613199375E1,-3.691744089E0,-7.938157558E0,2.264579535E0
3.615199375E1,-2.781554699E0,-7.514929771E0,7.638461590E-1
3.617199375E1,-1.760542750E0,-7.299413681E0,1.155135274E0
3.619199375E1,-5.361287594E-1,-6.917815685E0,1.903227568E0
3.621199375E1,3.866539896E-1,-7.145054340E0,1.501394272E0
3.623199375E1,4.472368583E-2,-6.775312901E0,1.220439553E0
3.625199375E1,-1.684876323E0,-5.477780342E0,1.019824624E0
3.627199375E1,-2.511153460E0,-4.689427376E0,2.104024440E-1
3.629199375E1,-2.776517391E0,-4.333840370E0,-6.972011328E-1
3.631199375E1,-3.180725574E0,-4.125065804E0,-1.544623971E0
3.633199375E1,-3.358739376E0,-5.700459957E0,-3.600630283E0
3.635199375E1,-4.323257804E-1,-1.406973743E1,-7.852713585E0
3.637199375E1,2.345379114E0,-1.712817574E1,-1.227946758E1
3.639199375E1,4.078848362E0,-1.538443184E1,-1.699593925E1
3.641199375E1,4.870715618E0,-1.199186707E1,-1.272786331E1
3.643199375E1,4.766836643E0,-9.631490707E0,-7.799303532E0
3.645199531E1,4.887944698E0,-8.285862923E0,-4.064415932E0
3.647399375E1,3.598437309E0,-9.195908546E0,-1.165880442E0
3.649399375E1,-3.673069239E0,-8.884260178E0,1.218738651E1
3.651399375E1,-8.030420303E0,-1.332840633E1,-6.383909225E0
3.653399375E1,-9.800617218E0,-1.249961948E1,-9.364019394E0
3.655399375E1,-6.156593800E0,-3.398128748E0,9.395604134E0
3.657399375E1,-2.786984921E0,-7.032459736E0,1.922802448E0
3.659399375E1,-2.274951458E0,-1.486226559E1,3.119357526E-1
3.661399375E1,-7.169293165E-1,-1.670779228E1,1.864125490E0
3.663399531E1,2.802748382E-1,-1.314455032E1,2.612495422E0
3.665599375E1,1.322011113E0,-9.837975502E0,4.614105523E-1
3.667599375E1,1.489815950E0,-6.816656113E0,-2.213669538E0
3.669599375E1,-3.526563346E-1,-8.106173515E0,-1.728010297E0
3.671599375E1,-5.191587210E-1,-1.158504391E1,-2.879362702E-1
3.673599375E1,-4.255837202E-1,-9.953146935E0,1.106418133E0
3.675599375E1,-7.009935379E-1,-7.017089367E0,-1.806377321E-1
3.677599375E1,-6.051488519E-1,-6.964914322E0,-1.692882538E0
3.679599375E1,-7.248110175E-1,-7.277606964E0,-1.831315279E0
3.681599375E1,-7.822623253E-1,-7.838568211E0,-1.639338613E0
3.683599375E1,-3.574543297E-1,-8.422562599E0,-5.119569302E-1
3.685599531E1,-3.111887574E-1,-8.659194946E0,7.489541769E-1
3.687599531E1,-8.806352615E-1,-8.590070724E0,1.379424095E0
3.689799375E1,-1.211102128E0,-9.147948265E0,1.405290961E0
3.691799375E1,-9.473472834E-1,-9.493382454E0,7.598429918E-1
3.693799375E1,1.005852073E-1,-1.005840492E1,-8.245630562E-2
3.695799375E1,7.699177861E-1,-1.126299477E1,-3.973129988E-1
3.697799375E1,9.241235256E-1,-1.217699623E1,-2.808206975E-1
3.699799375E1,5.217444301E-1,-1.207971478E1,2.665799856E-1
3.701799375E1,-8.335173726E-1,-1.131367588E1,-4.292420745E-1
3.703799375E1,-1.665540814E0,-1.186956120E1,-1.785978794E0
3.705799375E1,-1.508414030E0,-1.311025620E1,-2.517905235E0
3.707799375E1,-3.721547127E-1,-1.355795193E1,-2.348922491E0
3.709799375E1,2.910487354E-1,-1.372460842E1,-1.943335176E0
3.711799375E1,-1.709507942E0,-1.182703972E1,-6.888970852E0
3.713799375E1,-2.518614054E0,-1.140771008E1,-1.297695637E0
3.715799375E1,-1.580450773E0,-1.132774448E1,3.056773186E0
3.717799375E1,-2.090166807E0,-1.252328396E1,2.095912933E0
3.719799375E1,-1.179958344E0,-1.490503502E1,1.993881583E0
3.721799375E1,-4.404469430E-1,-1.403534698E1,1.382584453E0
3.723799375E1,1.141450047E0,-1.239286709E1,-1.220190525E0
3.725799688E1,1.637155116E-1,-1.066054726E1,-2.845882416E0
3.728000000E1,-1.926920533E0,-8.988187790E0,-7.609443069E-1
3.730199375E1,-2.762209654E0,-7.738021374E0,1.499699235E0
3.732199531E1,-2.782818794E0,-7.376353741E0,2.429300785E0
3.734399531E1,-1.566267610E0,-7.748785973E0,1.060727119E0
3.736599375E1,-5.353626609E-1,-7.260627270E0,1.375037909E0
3.738599375E1,2.247868031E-1,-7.204277515E0,1.575758219E0
3.740599375E1,2.581907064E-2,-7.152897835E0,1.334298253E0
3.742599375E1,-1.673020244E0,-6.038406849E0,1.174921036E0
3.744599375E1,-2.738909245E0,-5.217434406E0,7.144297659E-2
3.746599375E1,-3.107673883E0,-5.139317036E0,-1.190780163E0
3.748599375E1,-2.884629965E0,-5.089737892E0,-2.231348038E0
3.750599375E1,-2.786065340E0,-5.512304783E0,-3.624620438E0
3.752599375E1,-2.738985777E0,-6.805269718E0,-5.540585041E0
3.754599375E1,-5.243971944E-1,-1.099910641E1,-6.393409252E0
3.756599375E1,3.626267672E0,-1.667505074E1,-8.317007065E0
3.758599375E1,5.857510090E0,-1.633331108E1,-1.260255051E1
3.760599375E1,6.349049091E0,-1.356900406E1,-1.196314526E1
3.762599375E1,5.397305965E0,-1.182803631E1,-7.400984764E0
3.764599375E1,4.031452656E0,-1.039234829E1,-4.220057964E0
3.766599375E1,1.295761108E0,-1.044125652E1,-2.523555756E0
3.768599375E1,-3.277978182E0,-1.052718067E1,2.773807049E0
3.770599375E1,-7.952120781E0,-1.273429012E1,5.250771642E-1
3.772599375E1,-1.254366302E1,-9.724097252E0,-7.186224937E0
3.774599375E1,-8.452413559E0,-2.009137392E0,6.447690487E0
3.776599375E1,-5.202437401E0,-3.554422379E0,1.336357236E0
3.778599375E1,-2.739426613E0,-1.066357327E1,6.739773750E-1
3.780599375E1,4.276906252E-1,-1.812608910E1,1.580058217E0
3.782599375E1,1.354964972E0,-1.536605358E1,3.433285236E0
3.784599375E1,1.730739594E0,-1.025685501E1,7.968477607E-1
3.786599375E1,3.193903208E0,-6.120891571E0,-4.320940495E0
3.788599375E1,2.588409662E0,-7.323345661E0,-2.239545822E0
3.790599375E1,1.037302256E0,-1.155333519E1,4.837723970E-1
3.792599375E1,-1.546367109E-1,-9.592934608E0,2.432058811E0
3.794599375E1,-9.518771172E-1,-6.734324455E0,1.947347879E0
3.796599375E1,-9.636086822E-1,-7.670476437E0,-3.946602345E-2
3.798599375E1,-1.057796597E0,-8.265847206E0,-1.318324089E0
3.800599375E1,-8.948664069E-1,-8.276505470E0,-1.082581401E0
3.802599375E1,-7.233170867E-1,-8.407699585E0,2.944868058E-2
3.804599375E1,-7.561751008E-1,-8.394071579E0,8.250227571E-1
3.806599375E1,-7.105320692E-1,-8.591545105E0,1.653799534E0
3.808599375E1,-7.985619903E-1,-9.193035126E0,2.359983921E0
3.810599375E1,-9.015126824E-1,-1.050844860E1,1.800535440E0
3.812599375E1,-6.883713007E-1,-1.032985973E1,-2.234268934E-1
3.814599375E1,3.250080943E-1,-1.059555817E1,-1.364771605E0
3.816599375E1,1.113773108E0,-1.219506741E1,-1.017468691E0
3.818599375E1,1.011780143E0,-1.212447643E1,-5.469027162E-1
3.820599375E1,-3.952348232E-2,-1.156547832E1,-4.829392135E-1
3.822599375E1,-1.234517455E0,-1.149890041E1,-1.172957778E0
3.824599375E1,-1.665550470E0,-1.260853577E1,-2.190378428E0
3.826599375E1,-1.225467443E0,-1.371291542E1,-2.371121645E0
3.828599375E1,-9.800903797E-1,-1.352250862E1,-1.955804229E0
3.830599375E1,-2.103603125E0,-1.171581554E1,-4.998489857E0
3.832599375E1,-2.542067528E0,-1.155180264E1,-1.209885836E0
3.834599375E1,-1.466189981E0,-1.226894379E1,3.083722115E0
3.836599375E1,-2.097579241E0,-1.396189213E1,2.214033127E0
3.838599375E1,-2.092359781E0,-1.520063400E1,1.297120929E0
3.840599375E1,-1.329710960E0,-1.355675507E1,-1.487488747E0
3.842599375E1,-1.111187220E0,-1.156523895E1,-2.531427622E0
3.844599375E1,-2.104503155E0,-1.014255619E1,-2.088960171E0
3.846599375E1,-3.135915756E0,-9.245277405E0,5.912337899E-1
3.848599375E1,-3.519869089E0,-8.441534042E0,2.618107319E0
3.850599375E1,-2.629369974E0,-8.176294327E0,1.562657118E0
3.852599375E1,-1.244371891E0,-7.549894810E0,1.922543943E-1
3.854599375E1,-5.453225374E-1,-6.903910637E0,1.313870907E0
3.856599375E1,5.399212241E-1,-6.959379196E0,1.708770514E0
3.858599375E1,2.445437610E-1,-6.621767998E0,1.254973531E0
3.860599375E1,-1.659306288E0,-4.638833046E0,1.459246874E0
3.862599375E1,-2.559803963E0,-3.731870890E0,9.728982449E-1
3.864599375E1,-2.544662952E0,-3.836353779E0,1.781094521E-1
3.866599375E1,-1.940385461E0,-4.443542480E0,-7.201471329E-1
3.868599375E1,-1.844129086E0,-4.785961628E0,-2.122928858E0
3.870599375E1,-2.322174549E0,-6.671404839E0,-4.946162224E0
3.872599375E1,-5.513846278E-1,-1.598300076E1,-1.064399815E1
3.874599375E1,2.497219563E0,-2.166310120E1,-1.477228260E1
3.876599375E1,1.892683506E0,-1.653223991E1,-1.704649544E1
3.878599375E1,1.548895240E0,-9.654713631E0,-1.120364761E1
3.880599375E1,2.651492119E0,-6.683538437E0,-6.465761662E0
3.882599375E1,1.729015827E0,-7.760450840E0,-3.842071295E0
3.884599375E1,-9.009859711E-2,-1.254515743E1,-1.814881444E0
3.886599375E1,-5.730205536E0,-1.288753796E1,9.733790398E0
3.888599375E1,-9.989414215E0,-1.057653904E1,-5.720552444E0
3.890599375E1,-8.695127487E0,-2.137773275E0,3.128762007E0
3.892599375E1,-4.298961639E0,-4.352725506E0,2.296336412E0
3.894599375E1,-7.477187514E-1,-1.408694649E1,1.398012638E0
3.896599375E1,8.751860857E-1,-1.746861267E1,2.553751230E0
3.898599375E1,3.253700972E0,-1.458629131E1,-2.698140860E0
3.900599375E1,1.927064180E0,-9.509807587E0,3.204878569E-1
3.902599375E1,2.344689608E0,-7.201461792E0,9.512833953E-1
3.904599375E1,2.122900486E0,-6.905203342E0,-3.940099478E0
3.906599375E1,-5.350466371E-1,-1.035322762E1,-1.507600069E0
3.908599375E1,-6.361297965E-1,-1.073426914E1,1.931814313E0
3.910599375E1,-1.530364156E0,-8.048683167E0,1.023051977E0
3.912599375E1,-1.239899635E0,-7.428278923E0,-9.527773261E-1
3.914599375E1,-6.536074877E-1,-7.709252834E0,-1.171588302E0
3.916599375E1,-6.385335922E-1,-7.522198677E0,-5.709979534E-1
3.918599375E1,-7.701092958E-1,-7.645576477E0,3.561901748E-1
3.920599375E1,-9.624211788E-1,-8.145246506E0,8.423088789E-1
3.922599375E1,-1.186710000E0,-8.813228607E0,6.165643930E-1
3.924599375E1,-1.325544953E0,-9.988331795E0,-3.683910072E-1
3.926599375E1,-1.114864826E0,-1.087733650E1,-1.299103379E0
3.928599375E1,-2.726899981E-1,-1.015950775E1,-1.329452276E0
3.930599375E1,7.874721289E-1,-1.030814934E1,-4.343752265E-1
3.932599375E1,1.253527403E0,-1.121385670E1,9.331640601E-2
3.934599375E1,1.106858611E0,-1.153016853E1,-5.823560357E-1
3.936599375E1,5.085667372E-1,-1.163000679E1,-2.434797764E0
3.938599375E1,-4.838489890E-1,-1.208563328E1,-4.611404896E0
3.940599375E1,-1.058553219E0,-1.425276852E1,-6.313605309E0
3.942599375E1,-9.475101233E-1,-1.486896038E1,-3.403472662E0
3.944599375E1,-1.027237058E0,-1.260527039E1,-4.881393909E-1
3.946599375E1,-9.799180031E-1,-1.111597157E1,2.046333790E0
3.948599375E1,-8.569422364E-1,-1.214695358E1,2.615205526E0
3.950599375E1,-7.235085964E-1,-1.517811775E1,1.687433362E0
3.952599375E1,-1.162710547E0,-1.638325310E1,-8.191713095E-1
3.954599375E1,-1.087254882E-1,-1.426887703E1,-2.015917778E0
3.956599375E1,-8.953452110E-1,-1.143705368E1,-1.503826737E0
3.958599375E1,-1.921682000E0,-1.016686249E1,-1.205269933E0
3.960599375E1,-2.748629570E0,-9.180739403E0,8.999229670E-1
3.962599375E1,-3.050193787E0,-8.587733269E0,1.914997458E0
3.964599375E1,-2.961550713E0,-7.874375820E0,1.847088218E0
3.966599375E1,-1.735614300E0,-7.342279434E0,1.385773540E0
3.968599375E1,-7.951431274E-1,-6.714902401E0,1.816174269E0
3.970599375E1,-7.852981240E-2,-6.625675201E0,1.127467871E0
3.972599375E1,-5.729420185E-1,-6.456874371E0,8.709531426E-1
3.974599375E1,-2.054493189E0,-5.710381985E0,6.239576936E-1
3.976599375E1,-2.681822062E0,-5.087812424E0,-1.420623511E-1
3.978599375E1,-2.817831755E0,-4.427453518E0,-1.012862206E0
3.980599375E1,-2.274300098E0,-4.019682407E0,-1.462857127E0
3.982599375E1,-2.154331207E0,-4.470348358E0,-1.753618598E0
3.984599375E1,-2.436368465E0,-5.478182793E0,-3.737138271E0
3.986599375E1,-1.356248140E0,-8.796545982E0,-6.027192116E0
3.988599375E1,3.622350693E0,-1.735845184E1,-9.230422974E0
3.990599375E1,6.294921398E0,-1.873124886E1,-1.565386486E1
3.992599375E1,6.751524448E0,-1.442216301E1,-1.390144348E1
3.994599375E1,5.418787003E0,-1.150359344E1,-7.766924381E0
3.996599375E1,3.609440804E0,-8.736202240E0,-4.384089947E0
3.998599375E1,1.870647192E0,-9.268213272E0,-3.912977934E0
4.000599375E1,1.598464847E-1,-1.112082672E1,-4.233216763E0
4.002599375E1,-2.835941315E0,-1.158036137E1,5.767277241E0
4.004599375E1,-1.092837238E1,-1.151035404E1,-8.033504486E0
4.006599375E1,-1.239627647E1,-4.662295818E0,4.067719936E0
4.008599375E1,-7.504165649E0,-1.024919391E0,-6.982832551E-1
4.010599375E1,-1.948947310E0,-5.292220116E0,-8.395890594E-1
4.012599375E1,-7.490786910E-1,-1.230747032E1,4.674717426E0
4.014599375E1,2.252915144E0,-2.087793732E1,2.188635588E0
4.016599375E1,9.477399588E-1,-1.650846100E1,1.153239012E0
4.018599375E1,2.189736843E0,-9.839106560E0,1.940308928E0
4.020599375E1,2.825933933E0,-9.090946198E0,-5.262493610E0
4.022599375E1,2.121837288E-1,-1.117049313E1,1.109884858E0
4.024599375E1,-5.855930448E-1,-9.404232025E0,2.802911043E0
4.026599375E1,-1.167700052E0,-7.164744377E0,1.538686395E0
4.028599375E1,-1.395637631E0,-6.681757450E0,-1.844789863E0
4.030599375E1,-1.151668429E0,-8.037766457E0,-2.055948973E0
4.032599375E1,-1.365393996E0,-8.314229965E0,-1.924095511E0
4.034599375E1,-8.973563910E-1,-8.241512299E0,-1.702516794E0
4.036599375E1,-1.691647172E-1,-8.011592865E0,-8.647186160E-1
4.038599375E1,1.278408021E-1,-7.840733051E0,5.055021644E-1
4.040599375E1,-2.370355427E-1,-7.457392693E0,1.692671895E0
4.042599375E1,-9.105148911E-1,-8.327569008E0,2.288444996E0
4.044599375E1,-7.780772448E-1,-9.595634460E0,1.056925178E0
4.046599375E1,3.578565419E-1,-9.850732803E0,-3.385784328E-1
4.048599375E1,1.159607649E0,-1.048124981E1,-6.428910494E-1
4.050599375E1,1.301066637E0,-1.237732315E1,-1.140971184E0
4.052599375E1,1.107260823E0,-1.287372780E1,-1.503960967E0
4.054599375E1,4.145224988E-1,-1.236026764E1,-1.202693701E0
4.056599375E1,-7.130986452E-1,-1.261676311E1,-1.623958230E0
4.058599375E1,-1.238989711E0,-1.397986794E1,-2.453894138E0
4.060599375E1,-9.358455539E-1,-1.504685879E1,-3.273802757E0
4.062599375E1,-1.548033357E0,-1.302737808E1,-6.830150127E0
4.064599375E1,-2.379070282E0,-1.049776936E1,-3.844187737E0
4.066599375E1,-2.418268204E0,-1.006002331E1,1.054071307E0
4.068599375E1,-1.474311113E0,-1.161308479E1,3.247313261E0
4.070599375E1,-6.183552742E-1,-1.420355415E1,3.438897133E0
4.072599375E1,-4.751149714E-1,-1.583453178E1,2.371830225E0
4.074599375E1,1.062537074E0,-1.494241428E1,-2.572924137E0
4.076599375E1,-1.226358056E0,-1.181435204E1,-5.322099686E0
4.078599375E1,-3.211428881E0,-9.448946953E0,-1.456134319E0
4.080599375E1,-3.533152103E0,-8.497519493E0,1.036823392E0
4.082599375E1,-3.309131622E0,-8.794534683E0,1.991449118E0
4.084599375E1,-3.575893641E0,-8.930899620E0,1.643150091E0
4.086599375E1,-2.794244051E0,-8.616272926E0,7.357573509E-1
4.088599375E1,-1.434931278E0,-7.766809464E0,7.518559694E-1
4.090599375E1,1.165114269E-1,-6.998806953E0,9.572976232E-1
4.092599375E1,-5.891651511E-1,-5.481524944E0,1.366524220E0
4.094599375E1,-1.988470674E0,-3.958477259E0,1.271196604E0
4.096599375E1,-2.526639462E0,-3.267836332E0,8.054190278E-1
4.098599375E1,-2.398472786E0,-3.007864237E0,2.279184312E-1
4.100599375E1,-2.114597082E0,-3.225257874E0,-1.017660260E0
4.102599375E1,-2.026423693E0,-4.647921562E0,-3.923789978E0
4.104599375E1,-8.998750448E-1,-1.122803020E1,-1.088237476E1
4.106599375E1,4.442527294E0,-2.080308342E1,-1.375676632E1
4.108599375E1,4.236558914E0,-1.785540962E1,-1.743653107E1
4.110599531E1,2.177861691E0,-1.010794640E1,-1.018854523E1
4.112799375E1,2.026624680E0,-6.277184963E0,-5.648822308E0
4.114799375E1,6.615466475E-1,-6.519497395E0,-3.338493824E0
