"Time (s)","Gyroscope x (rad/s)","Gyroscope y (rad/s)","Gyroscope z (rad/s)"
1.488510000E-1,-1.727404714E0,-3.212662458E0,2.064724565E-1
1.708463130E-1,-1.587289691E0,-1.872127414E0,3.815988004E-1
1.908541250E-1,-1.323099136E0,-1.047616482E0,7.345218062E-1
2.128463130E-1,-7.627612352E-1,2.129476219E-1,1.595876694E0
2.328478750E-1,-1.025031880E-1,1.526517272E0,2.077779531E0
2.548463130E-1,3.712140918E-1,2.417193651E0,2.176984072E0
2.748494380E-1,8.631176949E-1,2.360592604E0,2.136928797E0
2.968463130E-1,6.320884228E-1,2.837556303E-1,-2.633003592E-1
3.188447500E-1,9.189332724E-1,1.191361770E-1,-5.448917747E-1
3.388447500E-1,1.361845493E0,-8.595397472E-1,-3.361329734E-1
3.588447500E-1,1.274526715E0,-2.979451656E0,-1.866106093E-1
3.788447500E-1,1.302975535E0,-3.364401340E0,1.466076542E-2
3.988447500E-1,9.868091345E-1,-2.262557507E0,2.690774202E-1
4.188447500E-1,4.409923553E-1,-1.898534298E0,4.086164832E-1
4.388510000E-1,2.844886668E-2,-1.470562100E0,1.332558841E-1
4.608447500E-1,-3.602534235E-1,-5.390798450E-1,-6.466444582E-2
4.808619380E-1,-6.400471330E-1,-4.036946595E-2,6.321582198E-2
5.028447500E-1,-6.639581323E-1,-3.420496285E-1,-1.996656694E-2
5.228463130E-1,-5.109451413E-1,-8.387179971E-1,-3.498337865E-1
5.448463130E-1,-1.726305187E-1,-1.967422366E0,-6.075839996E-1
5.648463130E-1,4.853760451E-2,-3.144385099E0,-4.917465150E-1
5.868447500E-1,-3.569721878E-1,-1.197260976E0,-9.845402092E-2
6.068447500E-1,-7.840018868E-1,1.617920212E-2,1.409527957E-1
6.268447500E-1,-8.977450132E-1,5.032656789E-1,-8.445648104E-2
6.468447500E-1,-4.854633212E-1,1.788962483E-1,2.174156606E-1
6.668447500E-1,1.157502383E-1,-9.984155893E-1,8.680046201E-1
6.868447500E-1,6.467142701E-1,-2.480182648E0,1.029499888E0
7.068447500E-1,8.836951256E-1,-3.217130423E0,5.017821491E-2
7.268447500E-1,6.396282911E-1,-3.143180847E0,-7.907912135E-1
7.468447500E-1,9.794788063E-2,-3.967255592E0,-9.899507761E-1
7.668447500E-1,7.665485889E-2,-5.523757458E0,-4.273962379E-1
7.868447500E-1,6.952693462E-1,-6.797830582E0,6.534861922E-1
8.068447500E-1,1.263042450E0,-7.988895416E0,1.188499451E0
8.268447500E-1,1.264770269E0,-7.779665470E0,1.966514826E0
8.468447500E-1,7.798829079E-1,-6.648849010E0,2.625760555E0
8.668447500E-1,1.950580031E-1,-5.474242687E0,3.338570595E0
8.868447500E-1,-5.499358177E-1,-3.418611288E0,3.884701490E0
9.068447500E-1,-7.054795623E-1,-1.857920408E0,3.888890266E0
9.268447500E-1,-1.295034308E-2,-2.009799004E0,3.853233099E0
9.468447500E-1,6.727720499E-1,-2.286119461E0,3.542809010E0
9.668447500E-1,1.052503347E0,-1.893368125E0,3.002891302E0
9.868447500E-1,1.063952684E0,-1.018766165E0,2.633230686E0
1.006844750E0,9.883101583E-1,-5.202128291E-1,2.724807978E0
1.026844750E0,1.085891485E0,-7.073993683E-1,3.093631029E0
1.046844750E0,1.782225490E0,-1.756167769E0,2.979922771E0
1.066844750E0,3.217497110E0,-3.043627262E0,2.467092752E0
1.086844750E0,3.918578386E0,-2.790502310E0,2.007146120E0
1.106844750E0,-1.517389268E-1,1.334827840E-1,1.811023474E0
1.126844750E0,-2.251945972E0,4.951167583E0,1.919268727E0
1.146844750E0,-2.518510073E-2,2.867087364E0,4.782027602E-1
1.166844750E0,1.027719617E0,7.615918517E-1,3.128851652E-1
1.186844750E0,2.500882149E-1,3.590491414E-1,8.892278075E-1
1.206846313E0,2.388308495E-1,2.083923072E-1,1.445237279E0
1.228844750E0,1.483006239E0,-5.835159421E-1,1.575561047E0
1.248844750E0,1.366941810E0,-7.785914093E-2,1.201798797E0
1.268846313E0,3.047868609E-1,5.644569397E-1,7.017445564E-1
1.290846313E0,5.360953212E-1,-3.121521473E-1,2.235766798E-1
1.312844750E0,5.437747836E-1,-3.691720366E-1,3.627666831E-1
1.332844750E0,7.291636467E-1,-2.198591232E-1,7.306472063E-1
1.352844750E0,1.098039031E0,-1.138129234E-1,8.127823472E-1
1.372844750E0,1.033444405E0,3.063750863E-1,6.368532181E-1
1.392844750E0,7.258300781E-1,4.139048159E-1,3.334276974E-1
1.412844750E0,6.385461688E-1,2.477145791E-1,-1.119803265E-1
1.432844750E0,3.279299140E-1,4.807683825E-1,-8.204443455E-1
1.452846313E0,9.964084625E-2,9.388126135E-1,-1.768280268E0
1.472846313E0,1.462236792E-1,8.677253127E-1,-2.782037258E0
1.492846313E0,-3.780557811E-1,4.201182127E-1,-3.106075287E0
1.512846313E0,-4.910309315E-1,-8.594874144E-1,-2.474074125E0
1.532846313E0,1.185253114E-1,-1.773970127E0,-9.981363416E-1
1.552846313E0,9.308364391E-1,-2.399862528E0,-1.538507789E-1
1.572846313E0,1.101791501E0,-2.066068411E0,-4.206243455E-1
1.594846313E0,6.724404693E-1,-1.309921980E0,-1.655724049E0
1.616844750E0,-5.623450875E-2,-6.972590089E-1,-2.069018126E0
1.636844750E0,-4.805589616E-1,-7.397229075E-1,-1.978016496E0
1.656844750E0,-2.053903490E-1,-1.339365721E0,-1.605929852E0
1.676844750E0,7.923794910E-3,-1.186666846E0,-1.122229218E0
1.696846313E0,-3.758217394E-1,-8.143008351E-1,-4.427725673E-1
1.718844750E0,-9.018465281E-1,-4.502774775E-1,4.582885504E-1
1.738844750E0,-1.188534260E0,-1.091790676E0,1.349540949E0
1.758846313E0,-7.940026522E-1,-1.653856516E0,1.726200461E0
1.780846313E0,-3.764849603E-1,-1.365894675E0,1.778316021E0
1.802844750E0,-3.674441576E-1,-9.381493926E-1,1.718643188E0
1.822846313E0,-6.089453772E-2,-1.458309889E0,1.499656677E0
1.842846313E0,8.539895713E-2,-1.667923927E0,1.173454642E0
1.862846313E0,-2.074149251E-1,-1.420820236E0,1.187364936E0
1.882846313E0,-7.653268427E-2,-6.249151230E-1,1.903543353E0
1.904844750E0,-7.019365430E-1,-9.497383833E-1,3.828938246E0
1.924844750E0,-8.669050336E-1,-1.668796539E0,5.614846230E0
1.944844750E0,-2.283588797E-1,-6.049834490E-1,6.285174847E0
1.964844750E0,4.970697761E-1,3.509159088E-1,4.386885166E0
1.984846313E0,7.115009427E-1,2.535090744E-1,3.944583654E0
2.006844750E0,7.561464310E-1,-3.200410306E-1,3.942716122E0
2.026844750E0,-4.583409131E-1,-1.711871266E0,3.709418058E0
2.046844750E0,-1.411255717E0,-3.055076599E0,3.536229134E0
2.066844750E0,-1.737440348E0,-5.003597260E0,5.162038326E0
2.086844750E0,-1.253617644E0,-6.942902088E0,9.562466621E0
2.106844750E0,-1.416753531E0,-2.534305334E0,1.570586920E0
2.126844750E0,-1.867205620E0,1.499656677E0,-2.684141874E0
2.146846313E0,-1.105997682E0,2.857016802E0,-1.341477513E0
2.168844750E0,3.013834655E-1,1.237490773E0,-7.592182141E-3
2.188844750E0,4.240277410E-1,4.271169603E-1,-4.682718217E-2
2.208844750E0,2.265961021E-1,-2.632130980E-1,-2.849948108E-1
2.228844750E0,1.082453206E-1,-5.065469146E-1,-2.995159626E-1
2.248846313E0,1.891413331E-1,-4.518831968E-1,-3.308097124E-1
2.268846313E0,2.167349905E-1,-1.989500821E-1,-4.353200197E-1
2.288846313E0,-3.839724232E-3,1.205498874E-1,-4.254414439E-1
2.308854125E0,-3.596076369E-1,5.921552777E-1,-5.766218901E-1
2.330844750E0,-5.028991699E-1,5.669353008E-1,-8.874301314E-1
2.350846313E0,-1.391900033E-1,-4.084244967E-1,-1.378635615E-1
2.370846313E0,-7.124782801E-1,6.669775844E-1,3.393269181E-1
2.390846313E0,-3.728896081E-1,5.689598918E-1,2.322858721E-1
2.410846313E0,1.878323406E-1,-1.568178296E0,2.560746968E-1
2.430846313E0,1.151638031E0,-2.256274462E0,2.668084800E-1
2.452844750E0,1.753898859E0,-1.538176060E0,2.549926043E-1
2.472844750E0,2.241439104E0,-1.137047052E0,3.590665758E-1
2.492844750E0,1.884624004E0,8.713730574E-1,8.098327368E-2
2.512844750E0,1.763410807E0,2.353419304E0,7.168067247E-2
2.532844750E0,2.857505322E0,1.585439682E0,2.815565169E-1
2.552844750E0,2.862531900E0,5.976356268E-1,1.280897111E-1
2.572844750E0,2.028194666E0,-3.494149148E-1,-2.202605456E-2
2.592844750E0,1.262885332E0,-9.448339939E-1,3.862413764E-2
2.612844750E0,9.414480329E-1,-9.799500108E-1,2.389006615E-1
2.632844750E0,8.463450670E-1,-7.665486336E-1,1.417905539E-1
2.652846313E0,8.597840667E-1,-2.892708778E-1,3.769911081E-2
2.672846313E0,9.368229508E-1,1.868724078E-1,7.974409312E-2
2.694844750E0,1.053882122E0,5.012410879E-1,2.090555429E-1
2.714844750E0,1.221870065E0,4.878544211E-1,3.013660014E-1
2.734844750E0,1.478101850E0,3.459766209E-1,3.143686950E-1
2.754846313E0,1.727230191E0,4.027347267E-1,3.084171414E-1
2.774846313E0,1.498016119E0,8.136026859E-1,3.245265186E-1
2.796844750E0,9.710139036E-1,1.333169699E0,2.447300702E-1
2.816844750E0,4.136953950E-1,1.322575569E0,-6.124360487E-2
2.836844750E0,-2.565633971E-3,7.451508641E-1,-4.629485905E-1
2.856844750E0,-2.439970225E-1,3.362202346E-1,-7.000690103E-1
2.876844750E0,-1.193735361E0,9.267174602E-1,-5.436875224E-1
2.896844750E0,-2.761931181E0,1.757633805E0,-4.419522583E-1
2.916844750E0,-3.461493969E0,1.760042429E0,-4.817108810E-1
2.936844750E0,-3.183009386E0,1.116661668E0,-5.888741016E-1
2.956844750E0,-2.827224016E0,6.899635792E-1,-4.689350724E-1
2.976844750E0,-2.508020639E0,7.778234482E-1,-6.202027202E-1
2.996844750E0,-2.231630325E0,1.003040671E0,-6.965259910E-1
3.016844750E0,-2.532699585E0,8.830144405E-1,-3.100053668E-1
3.036844750E0,-2.612583399E0,7.399672270E-1,-2.874382734E-1
3.056844750E0,-2.126928091E0,1.336642981E0,-1.237787530E-1
3.076844750E0,-1.524876714E0,2.552805901E0,2.494250089E-1
3.096844750E0,-1.284317970E0,3.275249958E0,2.587974072E-1
3.116844750E0,-1.309049249E0,2.868151903E0,1.379682720E-1
3.136844750E0,-1.372300029E0,1.583572149E0,1.208465993E-1
3.156844750E0,-1.482709527E0,-1.589296758E-1,1.410749704E-1
3.176844750E0,-1.530357003E0,-1.145599246E0,9.808750451E-2
3.196846313E0,-1.177643418E0,-1.339278340E0,-4.225442186E-2
3.218844750E0,-4.805414975E-1,-1.054335952E0,-1.500634104E-1
3.238844750E0,4.053178132E-1,-6.711314321E-1,-1.402895600E-1
3.258844750E0,1.267789721E0,-6.088581085E-1,-2.502802201E-2
3.278844750E0,1.726968408E0,-7.012558579E-1,2.158797681E-1
3.298844750E0,1.162808180E0,-7.734252214E-1,6.289643049E-1
3.318844750E0,-3.504621238E-2,-1.286970854E0,5.304229856E-1
3.338844750E0,-5.605124831E-1,-1.769310117E0,-2.735629082E-1
3.358844750E0,-4.050734639E-1,-8.264831901E-1,-5.278748274E-1
3.378844750E0,2.672797143E-1,1.419284344E0,-6.210230589E-1
3.398844750E0,5.787162781E-1,2.263499975E0,-8.315621018E-1
3.418844750E0,-6.199758649E-1,-1.364847459E-2,-7.838622928E-1
3.438844750E0,1.549677849E-1,-1.783901006E-1,-2.837730944E-1
3.458844750E0,8.353145719E-1,-1.350710243E-1,5.681221485E-1
3.478844750E0,-1.066239119E0,5.548750758E-1,3.152413666E-1
3.498844750E0,-7.008369565E-1,-2.486221492E-1,8.161159605E-2
3.518844750E0,1.642005801E0,-1.455953598E0,4.545884430E-1
3.538844750E0,2.810154676E0,1.530304700E-1,7.754672170E-1
3.558844750E0,3.363301754E0,1.233406782E0,7.308042645E-1
3.578844750E0,2.769313812E0,3.259646654E0,2.035577446E-1
3.598844750E0,2.417996645E0,3.843145132E0,4.550771415E-1
3.618844750E0,2.678329945E0,2.420754194E0,8.232020140E-1
3.638844750E0,2.679481745E0,4.106759652E-2,6.422287822E-1
3.658844750E0,1.834690094E0,-1.529920697E0,5.049062967E-1
3.678844750E0,1.172075868E0,-2.251631737E0,4.918861389E-1
3.698844750E0,1.008363962E0,-2.015733004E0,5.440714955E-1
3.718844750E0,1.038627982E0,-1.162982702E0,4.262966812E-1
3.738844750E0,1.046883345E0,3.073524870E-2,1.639038622E-1
3.758844750E0,9.309237003E-1,9.499827027E-1,-1.593485661E-2
3.778844750E0,7.116056681E-1,1.002412438E0,-2.759365551E-2
3.798844750E0,7.809475660E-1,6.643770337E-1,1.066047102E-1
3.818844750E0,1.557688951E0,2.366317362E-1,1.488416791E-1
3.838844750E0,2.382182360E0,-3.824016452E-2,3.019419685E-2
3.858846313E0,2.081235409E0,4.702440500E-1,6.072000414E-2
3.878846313E0,1.244349957E0,1.559015393E0,2.818881273E-1
3.900844750E0,2.517637312E-1,2.308040857E0,1.152440906E-1
3.920869750E0,-2.026152760E-1,1.520408630E0,-2.738770545E-1
3.942846313E0,-7.093192339E-1,5.099502802E-1,-5.972691178E-1
3.964844750E0,-2.014424086E0,6.466096044E-1,-1.079241753E0
3.984846313E0,-2.970567942E0,9.488657117E-1,-1.129489779E0
4.006844750E0,-3.101729393E0,6.424207687E-1,-1.078037500E0
4.026844750E0,-2.841221571E0,4.262792170E-1,-9.310633540E-1
4.046844750E0,-2.357520819E0,5.551193953E-1,-6.619859338E-1
4.066844750E0,-2.131535769E0,9.442929626E-1,-7.360576987E-1
4.086844750E0,-2.082265139E0,1.187609315E0,-8.641299605E-1
4.106844750E0,-2.193372726E0,9.182177186E-1,-5.759935379E-1
4.126844750E0,-2.316488266E0,4.142887890E-1,-1.319992542E-1
4.146844750E0,-1.948485613E0,5.012760162E-1,2.119178772E-1
4.166844750E0,-1.609699726E0,9.312204123E-1,2.802126110E-1
4.186844750E0,-1.520827532E0,1.683876157E0,3.319267035E-1
4.206844750E0,-1.346242309E0,2.020707369E0,4.704883993E-1
4.226844750E0,-1.167363524E0,1.366016865E0,5.684711933E-1
4.246844750E0,-1.028051257E0,2.563016117E-1,4.899139106E-1
4.266844750E0,-8.029561639E-1,-6.375513077E-1,3.350159526E-1
4.286844750E0,-3.456275463E-1,-8.552811146E-1,1.933999360E-1
4.306844750E0,2.369458973E-1,-4.891285300E-1,5.921902135E-2
4.326844750E0,9.380097389E-1,-3.813893497E-1,2.968805097E-2
4.346844750E0,1.695150971E0,-8.287870288E-1,-1.528908405E-2
4.366844750E0,2.123227835E0,-1.190157413E0,-1.208989546E-1
4.386844750E0,1.300148129E0,-6.924419403E-1,-3.525215983E-1
4.406844750E0,-6.905220747E-1,1.274788529E-1,-5.624148846E-1
4.426844750E0,-1.397380352E0,-5.678079724E-1,-6.180385351E-1
4.446844750E0,-5.767789483E-1,-1.410400569E-1,-8.641997576E-1
4.466844750E0,-2.219186127E-1,4.417602718E-1,-9.575051069E-1
4.486844750E0,-1.107917547E0,5.087285638E-1,-9.932843447E-1
4.506844750E0,3.676536083E-1,-1.061858311E-1,-5.732883215E-1
4.526844750E0,1.305593491E0,-4.409050643E-1,3.044203222E-1
4.546844750E0,-2.700670004E0,3.513208151E0,2.926044464E-1
4.566844750E0,-2.823418975E-1,-6.088930368E-1,2.310292274E-1
4.586844750E0,1.792540431E0,-2.480584145E0,5.610011816E-1
4.606844750E0,2.521128178E0,-8.893674016E-1,7.301061153E-1
4.626844750E0,2.870473146E0,8.700466156E-1,5.217661858E-1
4.646844750E0,2.912029505E0,2.459884405E0,4.846430123E-1
4.666844750E0,2.547534943E0,3.421456099E0,7.358133793E-1
4.686844750E0,2.275246143E0,3.120090246E0,8.096756935E-1
4.706844750E0,2.913390875E0,1.159230232E0,6.319662929E-1
4.726846313E0,2.723568916E0,1.924050897E-1,4.752357006E-1
4.748844750E0,1.971262097E0,-3.437775075E-1,3.116634488E-1
4.768844750E0,1.523218632E0,-5.560619235E-1,2.574186027E-1
4.788844750E0,1.370519757E0,-2.453060299E-1,2.789734304E-1
4.808844750E0,1.246339560E0,5.577024817E-1,1.910786480E-1
4.828844750E0,9.441882372E-1,1.426527381E0,6.393141299E-2
4.848844750E0,6.589839458E-1,1.798404694E0,1.792104095E-1
4.868844750E0,8.944114447E-1,1.265852451E0,4.489510357E-1
4.888844750E0,1.565071583E0,6.070255116E-2,5.812295675E-1
4.908844750E0,1.610903978E0,-5.884552002E-1,4.856029451E-1
4.928844750E0,1.367203712E0,-1.208640486E-1,4.262268543E-1
4.948888500E0,8.832412958E-1,7.898487449E-1,2.150943726E-1
4.970844750E0,5.164778233E-1,1.249062300E0,-1.452637464E-1
4.990846313E0,2.232799679E-1,8.382990956E-1,-3.960501254E-1
5.012844750E0,-8.953539282E-2,5.437049866E-1,-5.684537292E-1
5.032844750E0,-1.136837602E0,1.029307961E0,-4.318293631E-1
5.052844750E0,-2.983047009E0,2.226848125E0,-3.130247891E-1
5.072844750E0,-3.292528629E0,1.745032549E0,-7.712609768E-1
5.092846313E0,-3.139795065E0,7.471754551E-1,-9.286198616E-1
5.114844750E0,-2.824780464E0,5.040336251E-1,-6.296100616E-1
5.134844750E0,-2.442605734E0,6.801722646E-1,-5.290790796E-1
5.154844750E0,-1.994352818E0,6.408848763E-1,-6.574131846E-1
5.174844750E0,-2.079856396E0,7.779979706E-1,-7.187265754E-1
5.194844750E0,-2.653162241E0,9.244310856E-1,-4.905073345E-1
5.214844750E0,-2.500550747E0,1.071195841E0,1.801179722E-2
5.234844750E0,-1.941329718E0,1.334391475E0,3.407231867E-1
5.254844750E0,-1.451695085E0,1.533987284E0,1.019446775E-1
5.274844750E0,-9.476613998E-1,1.393715262E0,-7.613126189E-2
5.294844750E0,-9.002931714E-1,5.649456382E-1,-2.631956637E-1
5.314844750E0,-1.212183475E0,-5.358160734E-1,-4.277452826E-1
5.334844750E0,-1.227821708E0,-1.031943321E0,-4.546059072E-1
5.354846313E0,-8.463450670E-1,-1.265695333E0,-2.548355162E-1
5.374846313E0,-2.953446209E-1,-1.472935677E0,7.066838443E-2
5.396844750E0,4.314453900E-1,-1.371846199E0,1.886351854E-1
5.416844750E0,1.244978309E0,-1.395111442E0,3.147352338E-1
5.436844750E0,2.004877090E0,-1.527442336E0,5.220977664E-1
5.456844750E0,1.801336884E0,-1.288105369E0,5.941624641E-1
5.476844750E0,2.640683204E-2,-9.393361807E-1,-2.896373868E-1
5.496844750E0,-1.693370819E0,-1.312819242E0,-5.144706964E-1
5.516844750E0,-1.510058880E0,-8.994903564E-1,-4.880115092E-1
5.536844750E0,-5.370378122E-2,1.327776670E0,-5.098455548E-1
5.556844750E0,7.791149616E-2,1.949113846E0,-5.484697223E-1
5.576844750E0,-5.021486878E-1,1.064249396E0,-3.617718518E-1
5.596844750E0,1.927192509E-1,-9.529148340E-1,3.536909819E-1
5.616844750E0,-7.178190351E-1,-4.768588543E-1,9.501572698E-2
5.636844750E0,-5.190783739E-1,-6.405009031E-1,1.298350394E-1
5.656844750E0,4.958654940E-1,-1.008939981E0,3.380702734E-1
5.676844750E0,1.353921652E0,-7.949451208E-1,7.376983166E-1
5.696844750E0,1.994195700E0,-3.489960432E-1,2.067866027E-1
5.716844750E0,1.669232845E0,9.010436535E-1,-3.519980013E-1
5.736844750E0,2.055387020E0,9.102590084E-1,5.717698485E-2
5.756844750E0,2.191540003E0,-5.078035593E-1,2.849599123E-1
5.776844750E0,1.754020929E0,-1.543342233E0,1.084198505E-1
5.796844750E0,1.591094494E0,-2.318547726E0,-2.209586836E-2
5.816844750E0,1.574932694E0,-2.490846634E0,4.279547185E-2
5.836844750E0,1.534476042E0,-2.034460545E0,1.395390779E-1
5.856846313E0,1.460299492E0,-1.195410848E0,1.034805700E-1
5.878844750E0,1.425235868E0,1.676039696E-1,9.215338528E-2
5.898844750E0,1.241173387E0,1.434835196E0,1.652477682E-1
5.918844750E0,1.022501111E0,1.751402974E0,2.535963356E-1
5.938844750E0,9.817476869E-1,1.309555411E0,3.377561271E-1
5.958844750E0,1.423455596E0,3.052057326E-1,4.519006610E-1
5.978844750E0,1.964472771E0,-6.370102763E-1,4.328067601E-1
6.000863500E0,1.779240966E0,-5.334424376E-1,3.748094440E-1
6.022846313E0,1.156664610E0,1.757546514E-1,4.309392571E-1
6.044844750E0,4.366639256E-1,2.565459311E-1,3.901509047E-1
6.064844750E0,3.510729671E-1,-4.524766207E-1,1.893158704E-1
6.084844750E0,6.585999727E-1,-9.672091007E-1,-5.431464687E-2
6.104844750E0,2.797064781E-1,-6.497860551E-1,-3.866427839E-1
6.124844750E0,-5.079082847E-1,2.345024347E-1,-5.375962853E-1
6.144844750E0,-1.285766602E0,8.726646304E-1,-6.033428907E-1
6.164844750E0,-2.346350908E0,9.429664612E-1,-4.941201508E-1
6.184844750E0,-3.614925861E0,7.593578696E-1,-1.228886321E-1
6.204844750E0,-3.710674763E0,4.226489365E-1,-3.118379712E-1
6.224844750E0,-3.046123028E0,2.782403827E-1,-6.003059745E-1
6.244844750E0,-2.217248917E0,3.535338938E-1,-4.853062630E-1
6.264844750E0,-1.832333922E0,7.903897762E-1,-2.540152073E-1
6.284844750E0,-2.161729813E0,1.633191824E0,-4.580093026E-1
6.304844750E0,-2.444822311E0,2.306173325E0,-4.865978062E-1
6.324844750E0,-2.226656199E0,2.141170025E0,-2.999871969E-1
6.344844750E0,-1.592839837E0,1.200926185E0,-2.265088260E-1
6.364844750E0,-1.239410639E0,5.858371854E-1,-3.495720029E-1
6.384844750E0,-1.296535254E0,7.189010829E-2,-4.684463739E-1
6.404844750E0,-1.589035034E0,-1.251924634E-1,-4.028918147E-1
6.424844750E0,-1.569452405E0,-6.509903669E-1,-2.319018990E-1
6.444844750E0,-1.232900620E0,-1.213056207E0,-3.047868609E-1
6.464844750E0,-7.409969568E-1,-1.400015831E0,-4.094193280E-1
6.484844750E0,-2.116211653E-1,-1.392214179E0,-2.963219881E-1
6.504844750E0,3.317696452E-1,-9.493718147E-1,-8.902924508E-2
6.524844750E0,9.339954853E-1,-5.556604862E-1,6.981316954E-2
6.544844750E0,1.559137464E0,-6.147922277E-1,3.385764062E-1
6.564844750E0,1.802977443E0,-8.095709682E-1,6.034650207E-1
6.584844750E0,1.382038951E0,-9.236456752E-1,4.145331383E-1
6.604844750E0,2.912954390E-1,-4.968079627E-1,-4.194375277E-1
6.624844750E0,-1.087619424E0,-7.684859037E-1,-6.033079624E-1
6.644844750E0,-1.012133837E0,-6.876772046E-1,-8.617911935E-1
6.664846313E0,-2.069785893E-1,6.383017898E-1,-1.076641202E0
6.686844750E0,2.938785255E-1,-1.993864179E-1,-7.232819200E-1
6.706844750E0,-8.230100274E-1,-4.756371379E-1,-6.351776719E-1
6.726844750E0,-4.624773562E-1,-1.087340117E-1,-9.746965766E-1
6.746844750E0,5.940577388E-1,-1.949707270E-1,-7.387978435E-1
6.766844750E0,6.472728252E-1,-6.259448528E-1,-3.779510558E-1
6.786844750E0,1.797689125E-3,-8.996474147E-1,3.978303373E-1
6.806844750E0,1.755574346E0,9.662666321E-1,1.664799809E0
6.826844750E0,2.552858114E0,2.677352428E0,2.384783030E0
6.848843188E0,2.962207794E0,2.720828772E0,1.256008744E0
6.868844750E0,2.338723660E0,3.453238726E0,2.426007576E-2
6.888844750E0,2.419759274E0,2.778773546E0,4.521624446E-1
6.908844750E0,2.504669666E0,8.311606646E-1,7.544360161E-1
6.928844750E0,1.781405210E0,-5.466196537E-1,5.173504949E-1
6.948844750E0,1.333658457E0,-1.706164002E0,3.984935880E-1
6.968844750E0,1.292695522E0,-2.224038124E0,4.881162345E-1
6.988844750E0,1.287965775E0,-1.883995652E0,3.696432710E-1
7.008844750E0,1.242587209E0,-8.673413396E-1,1.881290376E-1
7.028844750E0,1.163680792E0,3.259576857E-1,1.615302265E-1
7.048844750E0,1.111268640E0,1.218012929E0,1.253670007E-1
7.068844750E0,1.042380452E0,1.362264395E0,1.404291838E-1
7.088844750E0,1.161027908E0,1.111949205E0,2.513448596E-1
7.108844750E0,1.430611491E0,3.973067403E-1,3.829601407E-1
7.128846313E0,1.578126669E0,-2.975786328E-1,4.681671262E-1
7.148846313E0,1.633820176E0,-3.561344445E-1,5.318367481E-1
7.170844750E0,1.317339659E0,3.650006950E-1,4.386186898E-1
7.190846313E0,6.282836199E-1,9.865648150E-1,1.200437471E-1
7.212844750E0,2.455329150E-1,7.347487211E-1,-1.881290376E-1
7.232846313E0,7.466518879E-2,3.450515866E-2,-3.034603894E-1
7.254844750E0,-5.218359828E-1,-2.281668931E-1,-3.207566142E-1
7.274844750E0,-1.197906733E0,-2.473131567E-2,-4.326496720E-1
7.294844750E0,-1.857641220E0,8.803440630E-2,-6.820572019E-1
7.314846313E0,-2.974512339E0,6.943268776E-1,-3.536909819E-1
7.334846313E0,-3.836757183E0,1.027178645E0,-1.717403978E-1
7.354846313E0,-3.533366680E0,9.039933085E-1,-5.524315834E-1
7.376844750E0,-2.555057287E0,8.118050098E-1,-6.012484431E-1
7.396844750E0,-1.943930268E0,1.126767159E0,-3.144734204E-1
7.416844750E0,-1.899180055E0,1.354148626E0,-3.395014405E-1
7.436844750E0,-2.285037518E0,1.783831239E0,-3.511951566E-1
7.456844750E0,-2.465329885E0,2.527114630E0,-1.336398572E-1
7.476844750E0,-2.094988585E0,2.393579483E0,8.768533915E-2
7.496844750E0,-1.605859995E0,1.593817234E0,4.817108810E-2
7.516844750E0,-1.159579277E0,7.161260247E-1,3.658210114E-2
7.536844750E0,-7.799527049E-1,-2.809805572E-1,-1.356295347E-1
7.556844750E0,-9.336464405E-1,-4.043753445E-1,-6.504667401E-1
7.576844750E0,-9.051277637E-1,-7.143807411E-1,-9.357757568E-1
7.596844750E0,-4.965112507E-1,-1.742798567E0,-7.887492180E-1
7.616844750E0,-8.574802428E-2,-2.207946301E0,-4.510803521E-1
7.636844750E0,3.556108475E-1,-1.948712468E0,-2.640683055E-1
7.656844750E0,9.600532651E-1,-1.399858832E0,-1.451241225E-1
7.676844750E0,1.634623051E0,-9.897238612E-1,2.200162113E-1
7.696844750E0,1.777879596E0,-7.431262732E-1,7.164052725E-1
7.716844750E0,5.513843894E-1,-7.859741449E-1,3.782303035E-1
7.736844750E0,-3.509682715E-1,-1.837430239E0,-5.323079824E-1
7.756844750E0,-9.719564319E-1,-9.597914815E-1,-7.499155998E-1
7.776844750E0,-4.488637745E-1,9.805783033E-1,-7.102093697E-1
7.796844750E0,2.458470762E-1,1.402215004E0,-3.058340549E-1
7.816844750E0,-1.074546814E0,6.949726343E-1,-2.210110426E-1
7.836844750E0,-1.456477195E-1,-9.742776752E-1,-5.181184411E-1
7.856846313E0,1.085664630E0,-1.479218841E0,-3.995233178E-1
7.878846313E0,-2.911907434E-1,4.672420919E-1,9.225810319E-2
7.900844750E0,2.739643455E-1,9.820269346E-1,8.270766139E-1
7.920874438E0,2.161468029E0,4.227012992E-1,1.604969859E0
7.942886938E0,2.520726681E0,2.148325741E-1,7.763398886E-1
7.964844750E0,1.255694628E0,1.991089106E0,-1.679879427E-1
7.984844750E0,2.105460405E0,3.855955899E-1,4.024205506E-1
8.004844750E0,2.008472443E0,-1.181134105E0,4.827057123E-1
8.024844750E0,1.319975019E0,-1.889423609E0,2.769314051E-1
8.044846313E0,1.088352442E0,-2.432709694E0,2.504721880E-1
8.066844750E0,1.083727241E0,-2.500166655E0,3.316474557E-1
8.086844750E0,1.325804472E0,-1.892757177E0,2.510656118E-1
8.106844750E0,1.394413352E0,-5.789082646E-1,1.702917814E-1
8.126846313E0,1.232115149E0,9.274854064E-1,1.650208831E-1
8.146846313E0,1.140625000E0,1.669267774E0,2.065597177E-1
8.166846313E0,1.221346498E0,1.636647582E0,2.595304549E-1
8.188844750E0,1.520199180E0,9.385856986E-1,3.731339276E-1
8.208846313E0,1.628025651E0,2.270673364E-1,5.146277547E-1
8.228846313E0,1.455307841E0,-1.215447262E-1,5.456422567E-1
8.248846313E0,1.197767138E0,-9.499827027E-2,5.782625079E-1
8.270844750E0,8.780925870E-1,-1.559277177E-1,5.579817891E-1
8.290846313E0,5.198463202E-1,-3.647912741E-1,3.708824515E-1
8.310846313E0,3.126233816E-1,-3.507413566E-1,4.136430472E-2
8.332844750E0,-2.260201424E-1,-7.492698729E-2,-3.422939777E-1
8.352844750E0,-1.138582945E0,1.814444214E-1,-6.036919355E-1
8.372846313E0,-1.715693593E0,2.427752912E-1,-6.078981757E-1
8.394844750E0,-2.761756659E0,4.258603454E-1,-3.057816923E-1
8.414844750E0,-3.745424271E0,6.345667839E-1,-1.168148890E-1
8.434844750E0,-3.281759977E0,6.596297622E-1,-5.052379370E-1
8.454844750E0,-2.193250656E0,7.211002111E-1,-6.891781688E-1
8.474846313E0,-1.669477224E0,1.024037004E0,-4.957956672E-1
8.496844750E0,-1.858217120E0,1.890697718E0,-6.556503773E-1
8.516844750E0,-2.262784481E0,2.678870916E0,-6.829648018E-1
8.536844750E0,-2.037724257E0,2.439167500E0,-5.720142126E-1
8.556844750E0,-1.480580211E0,1.616436720E0,-4.557229280E-1
8.576844750E0,-1.073970914E0,9.124755859E-1,-5.266007185E-1
8.596844750E0,-9.318661690E-1,7.504915595E-1,-6.396806240E-1
8.616844750E0,-8.814436197E-1,5.475097895E-1,-6.577622294E-1
8.636844750E0,-8.791921735E-1,-2.424436808E-1,-6.888639927E-1
8.656844750E0,-8.889660239E-1,-1.263443828E0,-7.124608755E-1
8.676844750E0,-7.209606171E-1,-1.856768489E0,-7.032978535E-1
8.696844750E0,-2.759365439E-1,-1.685499310E0,-5.096710324E-1
8.716844750E0,2.985560298E-1,-1.098021507E0,-1.835737228E-1
8.736844750E0,9.508204460E-1,-7.537727952E-1,1.316850930E-1
8.756844750E0,1.619490981E0,-1.010022044E0,5.049412251E-1
8.776844750E0,1.960144401E0,-1.453859210E0,8.430463672E-1
8.796846313E0,9.791646004E-1,-1.546588659E0,5.744925737E-1
8.816846313E0,-5.022708774E-1,-2.095093250E0,-4.968428910E-1
8.836846313E0,-1.369908929E0,-2.299715519E0,-8.186118007E-1
8.856846313E0,-7.158642411E-1,-6.439566612E-1,-1.158741593E0
8.878844750E0,3.565533161E-1,9.423207045E-1,-9.839991927E-1
8.898844750E0,-1.165530920E0,5.999045968E-1,-1.352123976E0
8.918844750E0,1.102524474E-1,-1.017579317E0,-1.889598131E0
8.938844750E0,2.119737387E0,-1.961051941E0,-1.373888254E0
8.958844750E0,1.198814273E0,-2.285334170E-1,-3.966784179E-1
8.978844750E0,-1.254350662E0,2.376056433E0,1.326607347E0
8.998844750E0,1.079451203E0,1.873977423E0,2.346403122E0
9.018844750E0,2.589998722E0,1.477438688E0,2.541269302E0
9.038844750E0,2.764828444E0,1.203142762E0,1.314058423E0
9.058844750E0,1.590064764E0,1.960702896E0,6.025050879E-1
9.078844750E0,2.226830721E0,2.313084900E-1,1.071370363E0
9.098844750E0,2.143421412E0,-4.814316332E-1,8.644964695E-1
9.118844750E0,1.531910419E0,-5.245063305E-1,4.191408157E-1
9.138844750E0,1.346504092E0,-6.698224545E-1,4.830722213E-1
9.158844750E0,1.387362242E0,-8.087680936E-1,6.333625317E-1
9.178844750E0,1.329539418E0,-9.144303799E-1,2.960951030E-1
9.198844750E0,1.031419754E0,-5.929406881E-1,1.411622316E-1
9.218844750E0,7.384138703E-1,-7.773696631E-2,2.540675700E-1
9.238844750E0,7.458315492E-1,4.399974942E-1,2.380803674E-1
9.258849438E0,9.158091545E-1,9.313600659E-1,2.553242147E-1
9.280846313E0,9.326515794E-1,1.229078293E0,3.964864314E-1
9.300846313E0,1.104531646E0,1.072155714E0,5.070530772E-1
9.320866625E0,1.641028404E0,5.345768929E-1,6.156125069E-1
9.342844750E0,1.904084444E0,1.867851317E-1,5.298121572E-1
9.362846313E0,1.578493237E0,5.510178804E-1,1.865233332E-1
9.382846313E0,6.973463297E-1,1.077321887E0,-2.264564633E-1
9.404844750E0,-4.321260750E-1,6.883578300E-1,-4.174129367E-1
9.424844750E0,-1.133818269E0,2.801602483E-1,-2.934247553E-1
9.444844750E0,-1.962116599E0,2.775247991E-1,-4.157548845E-1
9.464844750E0,-2.426845312E0,3.315950930E-1,-6.667158008E-1
9.484844750E0,-2.586403370E0,6.118775010E-1,-6.691766977E-1
9.504844750E0,-2.859547377E0,1.043183327E0,-5.724331141E-1
9.524846313E0,-2.539680958E0,7.146948576E-1,-8.993856311E-1
9.544846313E0,-2.010881186E0,1.957561225E-1,-9.581159353E-1
9.566844750E0,-1.739552259E0,-8.028514683E-3,-8.513890505E-1
9.586844750E0,-2.017303944E0,7.651000023E-1,-6.912725568E-1
9.606844750E0,-2.093662024E0,1.484803915E0,-4.313755631E-1
9.626844750E0,-1.754666805E0,1.493809819E0,-3.044377863E-1
9.646844750E0,-1.322872281E0,1.297599912E0,-4.430518150E-1
9.666844750E0,-8.556127548E-1,1.186090827E0,-6.561216116E-1
9.686844750E0,-7.164576650E-1,6.510950923E-1,-7.507708073E-1
9.706844750E0,-9.978396297E-1,-3.393618166E-1,-7.088305950E-1
9.726844750E0,-1.385407448E0,-1.065924883E0,-6.305001974E-1
9.746844750E0,-1.359402061E0,-1.361897826E0,-4.696680903E-1
9.766844750E0,-8.815832734E-1,-1.784564257E0,-3.744429350E-1
9.786844750E0,-2.833018303E-1,-1.815508962E0,-2.377836555E-1
9.806844750E0,3.200235665E-1,-1.420139551E0,-3.665191308E-2
9.826844750E0,9.698445797E-1,-1.379298806E0,2.885727286E-1
9.846844750E0,1.481051445E0,-1.635111690E0,6.095038652E-1
9.866844750E0,1.205027699E0,-1.664887071E0,3.590840399E-1
9.886844750E0,8.560840040E-2,-1.651797056E0,-4.171685874E-1
9.906844750E0,-1.076327085E0,-2.680127621E-1,-5.605997443E-1
9.926844750E0,-6.988298297E-1,3.701668680E-1,-1.032100439E0
9.946844750E0,-3.237934709E-1,3.868871331E-1,-1.206964970E0
9.966844750E0,-1.817062348E-1,4.216890037E-1,-8.521569967E-1
9.986844750E0,1.082365990E0,-9.892176986E-1,1.396263391E-1
1.000684475E1,7.182553411E-1,-6.825459003E-1,3.684389964E-2
1.002684475E1,-1.276900291E0,4.350931346E-1,2.615375817E-1
1.004684475E1,-3.730990291E-1,1.273898363E0,8.267799020E-1
1.006684475E1,1.972134829E0,-2.113419175E-1,1.401778579E0
1.008684475E1,1.863557816E0,1.038505793E0,4.238532186E-1
1.010684475E1,2.289261103E0,1.314843774E0,3.673917949E-1
1.012684475E1,2.610279560E0,7.753799558E-1,3.967133462E-1
1.014684475E1,2.247792006E0,3.571641743E-1,1.690002382E-1
1.016684475E1,2.010706663E0,-5.324301124E-1,2.262993902E-1
1.018684475E1,1.691189170E0,-1.571093082E0,3.995407820E-1
1.020684475E1,1.446110010E0,-2.241281986E0,3.775496185E-1
1.022684475E1,1.390852928E0,-2.054147720E0,2.519906461E-1
1.024684475E1,1.324443102E0,-1.033933043E0,2.245540619E-1
1.026684475E1,1.222131848E0,2.757794857E-1,1.801354289E-1
1.028684475E1,1.193508506E0,1.290810585E0,1.402022988E-1
1.030684475E1,1.141864181E0,1.671013117E0,1.931206882E-1
1.032684475E1,1.302347183E0,1.495537758E0,3.205820620E-1
1.034684475E1,1.691799998E0,7.776314616E-1,4.047418535E-1
1.036684475E1,1.677715182E0,1.903805137E-1,5.605474114E-1
1.038684475E1,1.435725331E0,1.890889704E-1,7.247130871E-1
1.040684475E1,1.073604345E0,5.363745689E-1,6.550569534E-1
1.042684475E1,5.380849838E-1,6.420542598E-1,3.439520299E-1
1.044684475E1,2.923251987E-1,2.576804161E-1,5.852089077E-2
1.046684475E1,2.181836069E-1,-2.650108039E-1,-2.018124163E-1
1.048684475E1,-1.178097278E-1,-1.398532391E-1,-3.718074858E-1
1.050684631E1,-1.137762666E0,7.501774430E-1,-3.027448058E-1
1.052884475E1,-2.730602503E0,1.392284036E0,-3.302686512E-1
1.054884475E1,-3.368625164E0,9.870883822E-1,-5.510702729E-1
1.056884475E1,-3.148277283E0,2.310117781E-1,-8.385260105E-1
1.058884475E1,-2.744861841E0,-2.008175850E-1,-1.093117118E0
1.060884475E1,-2.277724504E0,-2.151990868E-2,-9.278868437E-1
1.062884475E1,-1.901990056E0,1.340587437E-1,-6.849893928E-1
1.064884475E1,-2.120662212E0,6.141639352E-1,-8.934515119E-1
1.066884475E1,-2.426042557E0,1.085716963E0,-7.656235695E-1
1.068884475E1,-2.109614372E0,1.123363733E0,-3.540749550E-1
1.070884475E1,-1.567113638E0,1.020528913E0,-2.305579931E-1
1.072884475E1,-1.042607307E0,1.509570122E0,-3.779161274E-1
1.074884475E1,-6.814987063E-1,1.753183246E0,-5.652772188E-1
1.076884475E1,-7.207337022E-1,5.118352771E-1,-7.205941081E-1
1.078884475E1,-1.069049120E0,-1.439617395E0,-6.928259134E-1
1.080884475E1,-1.353450418E0,-2.252434731E0,-6.124534607E-1
1.082884475E1,-1.182879448E0,-2.120854378E0,-3.795567453E-1
1.084884475E1,-6.333625317E-1,-1.981838822E0,-7.892379165E-2
1.086884475E1,4.136430100E-3,-1.880278111E0,5.506513640E-2
1.088884475E1,5.903576016E-1,-1.764807105E0,1.905550510E-1
1.090884475E1,1.159300089E0,-1.524754524E0,5.696405768E-1
1.092884475E1,1.671554208E0,-1.062242270E0,7.665486336E-1
1.094884475E1,1.238590360E0,-2.702118754E-1,-1.168323383E-1
1.096884475E1,-2.108706832E-1,-1.118581519E-1,-7.170684934E-1
1.098884475E1,-1.262850404E0,6.082996130E-1,-8.473922610E-1
1.100884475E1,-1.094478488E0,5.032831430E-1,-1.204887986E0
1.102884475E1,-6.266255379E-1,-1.242674470E0,-1.156559825E0
1.104884475E1,-7.293033004E-1,-5.885249972E-1,-1.440367818E0
1.106884475E1,9.356535673E-1,-5.856277943E-1,-5.001415610E-1
1.108884475E1,-7.460409999E-1,1.088334918E0,9.307666421E-1
1.110884475E1,-3.173706770E0,7.497061491E-1,3.152937293E-1
1.112884475E1,-2.666863054E-2,-3.269856930E0,6.899286807E-2
1.114884475E1,2.022574902E0,-1.181902051E0,4.038691819E-1
1.116884475E1,2.574570179E0,1.690299034E0,2.675240636E-1
1.118884475E1,2.070082664E0,3.403357029E0,-3.221877664E-2
1.120884475E1,2.343401194E0,2.307412624E0,7.233342528E-1
1.122884475E1,2.722923040E0,4.741710424E-1,9.047437906E-1
1.124884475E1,2.179183245E0,-1.180017069E-1,3.158871531E-1
1.126884631E1,2.062647581E0,-1.134987593E0,3.043505251E-1
1.129085881E1,2.057341814E0,-2.219779491E0,4.781852961E-1
1.131284631E1,1.960353851E0,-2.299994946E0,4.440292120E-1
1.133484475E1,1.860503554E0,-1.433369040E0,2.526887655E-1
1.135484631E1,1.820884585E0,-2.428276539E-1,2.414139360E-1
1.137484631E1,1.745835423E0,9.914168119E-1,2.430021912E-1
1.139684475E1,1.481034040E0,1.907034039E0,2.457074523E-1
1.141684475E1,1.244105577E0,1.989675283E0,3.279124498E-1
1.143684475E1,1.324285984E0,1.288524270E0,4.750262499E-1
1.145684475E1,1.681851625E0,2.535090744E-1,6.076363921E-1
1.147684475E1,1.429494500E0,-2.974739075E-1,5.356066227E-1
1.149684631E1,8.669573665E-1,-3.780557811E-1,4.610985219E-1
1.151884475E1,5.786464810E-1,-2.934945524E-1,2.785370946E-1
1.153884475E1,7.205242515E-1,-1.918291301E-1,-7.323401421E-2
1.155884475E1,5.354321003E-1,-1.726130582E-2,-2.993239760E-1
1.157884475E1,2.650631666E-1,2.787814438E-1,-2.852566242E-1
1.159884475E1,-5.364792943E-1,7.389898300E-1,-1.651255935E-1
1.161884475E1,-1.870416999E0,1.216197729E0,-2.745053768E-1
1.163884475E1,-3.241338253E0,1.411936402E0,-3.640582263E-1
1.165884475E1,-3.856688976E0,8.344244361E-1,-4.923224747E-1
1.167884475E1,-3.614402294E0,7.248352468E-2,-8.046142459E-1
1.169884475E1,-3.177494049E0,-2.020218670E-1,-9.425999522E-1
1.171884475E1,-2.607836008E0,-1.310044080E-1,-5.448743105E-1
1.173884475E1,-2.120714664E0,-7.724827528E-2,-4.525115192E-1
1.175884475E1,-2.169723511E0,3.137927353E-1,-7.466344237E-1
1.177884631E1,-2.494075537E0,1.078072429E0,-6.698049903E-1
1.180085256E1,-2.280569315E0,1.910035968E0,-1.960179210E-1
1.182087131E1,-1.623435497E0,2.192133427E0,4.567526653E-2
1.184284475E1,-8.910604119E-1,1.547077298E0,-3.625048697E-1
1.186284475E1,-8.088379502E-1,7.261791229E-1,-6.300289631E-1
1.188284631E1,-1.058611989E0,-4.266457260E-1,-6.357885599E-1
1.190484475E1,-1.339540243E0,-1.547827840E0,-6.200805902E-1
1.192484475E1,-1.297652245E0,-1.679268479E0,-6.081076264E-1
1.194484475E1,-8.066039085E-1,-1.701050282E0,-3.418576419E-1
1.196484475E1,-1.327322870E-1,-1.470073342E0,-8.251916617E-2
1.198484475E1,5.579817891E-1,-1.084931612E0,7.126179338E-2
1.200484475E1,1.220508695E0,-8.959124088E-1,3.065670729E-1
1.202484475E1,1.739552259E0,-7.780503035E-1,6.420891881E-1
1.204484631E1,1.874658108E0,-7.515038848E-1,9.051626325E-1
1.206684475E1,1.091249704E0,-1.141113758E0,1.336224079E-1
1.208684475E1,-6.191381216E-1,-1.389212251E0,-6.502224207E-1
1.210684475E1,-1.669582009E0,-1.217244983E0,-6.096260548E-1
1.212684475E1,-8.690518141E-1,-4.258603323E-3,-8.473049998E-1
1.214684475E1,2.559700012E-1,-3.920009360E-2,-8.747590184E-1
1.216684631E1,4.660028964E-3,-5.219407082E-1,-6.768212318E-1
1.218884475E1,-6.749188155E-2,1.276184767E-1,-7.822914720E-1
1.220884475E1,1.084268332E0,-1.240056455E-1,9.436995536E-2
1.222884475E1,-7.521321774E-1,7.170859575E-1,5.330933928E-1
1.224884475E1,-8.934863806E-1,-6.981316983E-5,3.156602383E-1
1.226884475E1,1.044597030E0,-8.154178262E-1,6.396806240E-1
1.228884475E1,2.396843195E0,1.476723105E-1,7.863057256E-1
1.230885413E1,2.945626974E0,8.216661215E-1,1.725607067E-1
1.233084475E1,2.549385071E0,1.608076572E0,1.370432526E-1
1.235085256E1,1.334775448E0,3.254358292E0,2.207317948E-1
1.237085256E1,2.348584890E0,1.037999630E0,6.150889397E-1
1.239284475E1,2.427194357E0,-7.695156932E-1,4.886921942E-1
1.241284475E1,1.888952374E0,-1.404326797E0,2.949082851E-1
1.243284631E1,1.504526138E0,-1.532870293E0,3.043679595E-1
1.245484475E1,1.460002780E0,-8.698022962E-1,3.773401976E-1
1.247484631E1,1.566659927E0,1.070759520E-1,2.309245169E-1
1.249684475E1,1.522398353E0,1.109767556E0,2.077814490E-1
1.251684475E1,1.300567031E0,1.687139988E0,2.620611787E-1
1.253684475E1,1.294423461E0,1.808073878E0,3.672870994E-1
1.255684475E1,1.589977503E0,1.214853883E0,4.890761673E-1
1.257684475E1,1.781073570E0,2.450616807E-1,5.572487116E-1
1.259684475E1,1.640888691E0,-3.866602480E-1,6.347064376E-1
1.261684475E1,1.318910360E0,-4.777140617E-1,6.153681874E-1
1.263684475E1,8.932769895E-1,-5.462880433E-2,2.953446209E-1
1.265684475E1,3.812148273E-1,4.828628004E-1,-1.710422635E-1
1.267684475E1,-1.330115348E-1,3.145432472E-1,-5.366538167E-1
1.269684475E1,-4.181634486E-1,-1.071632132E-1,-6.102194786E-1
1.271684475E1,-1.072033525E0,-6.476917118E-2,-5.003335476E-1
1.273684475E1,-2.118567944E0,7.147995830E-1,-3.393967152E-1
1.275684475E1,-3.617404222E0,1.646334171E0,-1.716531366E-1
1.277684475E1,-3.564206600E0,1.085525036E0,-3.793822229E-1
1.279684475E1,-3.174858570E0,4.527384043E-1,-4.889714420E-1
1.281684475E1,-2.625777960E0,1.841671467E-1,-6.067985892E-1
1.283684475E1,-2.041354656E0,7.428121567E-2,-6.748315692E-1
1.285684631E1,-1.850206137E0,4.221777022E-1,-8.322777152E-1
1.287886819E1,-2.373717546E0,1.557654023E0,-9.134180546E-1
1.290084475E1,-2.145428419E0,1.677488327E0,-5.051506162E-1
1.292087288E1,-1.417137504E0,1.021506310E0,-2.158972323E-1
1.294284475E1,-8.149989247E-1,8.384561539E-1,-3.393792808E-1
1.296284475E1,-7.860962749E-1,1.235221863E0,-5.887868404E-1
1.298284475E1,-8.874824643E-1,6.862634420E-1,-7.340331078E-1
1.300284475E1,-9.538224339E-1,-6.142686009E-1,-6.879040599E-1
1.302284631E1,-8.815308809E-1,-1.323413372E0,-6.107605100E-1
1.304484475E1,-5.566902161E-1,-1.682602167E0,-3.527310491E-1
1.306484944E1,-1.983217597E-1,-1.599681497E0,2.689552307E-2
1.308684475E1,1.951103508E-1,-9.576447010E-1,3.097086847E-1
1.310684475E1,6.668030620E-1,-8.420515656E-1,5.647187233E-1
1.312684475E1,1.225849390E0,-1.273392200E0,9.333671927E-1
1.314684475E1,1.385442376E0,-1.900872946E0,9.333846569E-1
1.316684475E1,1.413193047E-1,-1.941800952E0,-3.125884756E-2
1.318684475E1,-1.329172969E0,-1.367901802E0,-7.282211781E-1
1.320684475E1,-1.147780895E0,2.752384171E-2,-7.615918517E-1
1.322684475E1,-3.087138236E-1,8.889136314E-1,-8.855451345E-1
1.324684475E1,-1.304092526E0,8.253836632E-1,-3.593807518E-1
1.326684475E1,-2.141868114E0,1.422949433E0,-9.110094905E-1
1.328684475E1,7.596371174E-1,-1.476565957E0,-6.675535440E-1
1.330684475E1,2.104203939E0,-2.474632502E0,-5.764997005E-1
1.332684475E1,3.064449131E-1,-1.265014708E-1,-2.741388679E-1
1.334684475E1,3.939208090E-1,3.305321932E0,8.838521838E-1
1.336684631E1,1.506585717E0,3.509263754E0,2.265419960E0
1.338884475E1,2.132076740E0,4.652524292E-1,9.723054767E-1
1.340884475E1,1.643611431E0,-3.265511096E-1,-2.280098200E-1
1.342884475E1,1.686319709E0,-1.004262447E0,4.549549818E-1
1.344884475E1,1.594323397E0,-1.568021297E0,6.630505919E-1
1.346884475E1,1.444451928E0,-1.951696992E0,4.833514690E-1
1.348884475E1,1.470771551E0,-1.919198990E0,3.477045000E-1
1.350884475E1,1.673386812E0,-1.586835861E0,3.303733766E-1
1.352884475E1,1.926040649E0,-9.398248792E-1,2.763728797E-1
1.354884475E1,1.921659827E0,-8.536405116E-2,1.456651837E-1
1.356884475E1,1.687803149E0,7.660424709E-1,1.311265826E-1
1.358884475E1,1.459636331E0,1.408777356E0,2.331585288E-1
1.360884475E1,1.378321409E0,1.545105100E0,2.971422970E-1
1.362884475E1,1.310497880E0,1.300392509E0,3.670601845E-1
1.364884475E1,1.246357083E0,7.748563886E-1,5.013109446E-1
1.366884475E1,1.408620358E0,-4.317944497E-2,6.578844190E-1
1.368884475E1,1.565874457E0,-6.674313545E-1,6.834360361E-1
1.370884475E1,1.495136261E0,-7.264409661E-1,5.759586692E-1
1.372884475E1,1.341268063E0,-2.584134340E-1,4.113740921E-1
1.374884475E1,1.047372103E0,5.019043088E-1,1.449844986E-1
1.376884475E1,5.170887113E-1,1.039989352E0,-5.272639543E-2
1.378884475E1,3.499384969E-2,1.070497751E0,-4.661774263E-2
1.380884475E1,-4.724082649E-1,9.293703437E-1,-1.897172816E-2
1.382884475E1,-1.230160356E0,9.419018626E-1,-1.410400569E-1
1.384884475E1,-2.176617622E0,1.040617704E0,-4.612032473E-1
1.386884475E1,-3.165451288E0,9.926385283E-1,-5.833762884E-1
1.388884475E1,-3.562984943E0,4.801575243E-1,-6.714106798E-1
1.390884475E1,-3.223361254E0,-1.141619831E-1,-9.717818499E-1
1.392884475E1,-2.517305851E0,-2.973342836E-1,-9.374512434E-1
1.394884631E1,-1.820657611E0,-2.178869098E-1,-7.635989785E-1
1.396884631E1,-1.506847501E0,3.132691383E-1,-9.885544777E-1
1.399084631E1,-1.949096441E0,1.467856765E0,-1.325699687E0
1.401284475E1,-1.922427773E0,2.002032280E0,-9.930748940E-1
1.403284631E1,-1.281822205E0,1.837761879E0,-6.116681099E-1
1.405284631E1,-5.855405331E-1,1.155058861E0,-6.499955058E-1
1.407484475E1,-3.352253735E-1,4.938409030E-1,-8.179659843E-1
1.409484475E1,-4.069758654E-1,-8.034448624E-1,-8.922297359E-1
1.411484475E1,-7.638608217E-1,-1.443526864E0,-9.750281572E-1
1.413484475E1,-1.118738651E0,-1.424659848E0,-8.877442479E-1
1.415484475E1,-1.242430091E0,-1.824427605E0,-6.326818466E-1
1.417484475E1,-1.108493567E0,-2.112284660E0,-4.562115967E-1
1.419484475E1,-8.319635391E-1,-1.947735071E0,-3.964166343E-1
1.421484475E1,-3.650006950E-1,-1.545017838E0,-2.283065170E-1
1.423484475E1,1.122421250E-1,-9.936333895E-1,8.689994365E-2
1.425484475E1,3.002489805E-1,-9.080948234E-1,4.825660884E-1
1.427484475E1,3.478964865E-1,-9.434028268E-1,6.804864407E-1
1.429484475E1,4.332256317E-1,-7.756941319E-1,3.300068676E-1
1.431484475E1,5.249601603E-1,-8.167791963E-1,-1.182111502E-1
1.433484631E1,3.306002617E-1,-1.763480604E-1,-4.429645538E-1
1.435484631E1,-2.138901055E-1,3.043854237E-1,-9.156869650E-1
1.437484631E1,-2.092300653E-1,-1.289117575E0,-1.225029111E0
1.439684475E1,-1.545663625E-1,-2.170194626E0,-1.162493944E0
1.441684475E1,6.866125017E-2,-2.164696932E0,-1.164379001E0
1.443684475E1,1.366453171E0,-1.843678594E0,-7.732157707E-1
1.445684475E1,2.307272911E0,-8.434478045E-1,4.910134673E-1
1.447684475E1,-4.736771107E0,4.437272549E0,1.179353833E0
1.449684475E1,-1.238119125E0,-1.995609403E0,-2.822895646E-1
1.451684475E1,9.082169533E-1,-1.089329839E0,-6.846926361E-2
1.453684475E1,1.978243470E0,-6.547079086E-1,2.448871434E-1
1.455684475E1,2.474196196E0,4.731936753E-1,9.381842613E-1
1.457684475E1,2.556663036E0,1.396595001E0,1.310969114E0
1.459684475E1,2.297987700E0,1.613434672E0,6.623001099E-1
1.461684475E1,1.413821459E0,2.358288765E0,4.145680666E-1
1.463684475E1,1.760077238E0,1.318439126E0,6.842388511E-1
1.465684475E1,2.289610147E0,-4.236088693E-1,5.940053463E-1
1.467684475E1,1.927314758E0,-6.612354517E-1,3.225368559E-1
1.469684475E1,1.655025959E0,-6.889861822E-1,2.935120165E-1
1.471684475E1,1.586539149E0,-5.497089028E-1,5.092521906E-1
1.473684475E1,1.552208543E0,-1.042310596E-1,4.905422330E-1
1.475684475E1,1.499970913E0,4.069758654E-1,3.126059175E-1
1.477684475E1,1.401551723E0,9.522516131E-1,2.722539008E-1
1.479684475E1,1.139263630E0,1.053969383E0,2.225643843E-1
1.481684475E1,9.388998747E-1,6.152111292E-1,1.950056404E-1
1.483684475E1,1.058559656E0,-7.998844236E-2,3.264812827E-1
1.485684631E1,1.291526198E0,-7.762700915E-1,4.695284665E-1
1.487684631E1,1.346189857E0,-9.733352065E-1,5.398128629E-1
1.489884475E1,1.248119831E0,-4.232946932E-1,4.458792508E-1
1.491884475E1,1.040233731E0,4.554960132E-1,1.960004717E-1
1.493884475E1,5.228657126E-1,1.198587418E0,7.979645580E-2
1.495884475E1,1.940631568E-1,1.041629910E0,3.558726236E-2
1.497884475E1,1.975538135E-1,2.472607940E-1,-7.312929723E-3
1.499884475E1,-1.084722131E-1,-1.997703910E-1,-1.125213802E-1
1.501884475E1,-5.844409466E-1,-4.084070399E-2,-3.116285503E-1
1.503884475E1,-1.271297812E0,3.008598685E-1,-4.473627806E-1
1.505884475E1,-2.106280804E0,4.932998717E-1,-5.089554787E-1
1.507884944E1,-3.455001354E0,1.097131371E0,-2.124240249E-1
1.510084788E1,-3.928980589E0,9.597216249E-1,-3.139498234E-1
1.512087756E1,-3.060661793E0,4.133114219E-1,-6.786189079E-1
1.514284475E1,-2.042803049E0,2.458296269E-1,-5.468116403E-1
1.516284631E1,-1.796449900E0,7.773696184E-1,-5.063025355E-1
1.518484475E1,-2.265699148E0,2.139756203E0,-8.865749240E-1
1.520484475E1,-2.172289133E0,2.850227356E0,-8.148941994E-1
1.522484631E1,-1.696145892E0,2.586089134E0,-6.500129700E-1
1.524684475E1,-1.145162821E0,1.535051942E0,-6.832265854E-1
1.526684475E1,-8.835380077E-1,4.465250373E-1,-8.423133492E-1
1.528684475E1,-8.910778761E-1,-5.595525503E-1,-1.092035055E0
1.530684475E1,-9.988344908E-1,-8.374613523E-1,-1.247247219E0
1.532684475E1,-1.035381675E0,-1.194922209E0,-1.282921672E0
1.534684475E1,-9.090023637E-1,-2.019014359E0,-1.236618161E0
1.536684631E1,-6.906093359E-1,-2.507828712E0,-9.376955628E-1
1.538684631E1,-2.980149686E-1,-2.269748211E0,-5.683490038E-1
1.540884475E1,3.738844395E-1,-1.494839549E0,-3.151715696E-1
1.542884475E1,1.024543166E0,-7.842113376E-1,-8.059930801E-2
1.544884475E1,1.538245916E0,-5.866924524E-1,5.329188108E-1
1.546884475E1,1.675062299E0,-6.255260110E-1,1.197138786E0
1.548884475E1,1.505241752E0,-6.387904882E-1,1.197889328E0
1.550884475E1,1.012465477E0,-1.517302036E0,4.389503002E-1
1.552884475E1,-2.372949570E-1,-9.724625349E-1,-4.202403724E-1
1.554884475E1,-9.064542055E-1,1.180383563E0,-1.342262864E0
1.556884475E1,-4.095938802E-1,-2.506292798E-2,-1.881587148E0
1.558884475E1,-1.281769872E-1,-1.133818269E0,-1.590483665E0
1.560884475E1,5.834984779E-1,-1.279116869E0,-6.108129025E-1
1.562884475E1,-2.573138773E-1,8.323474973E-2,9.099972248E-1
1.564884475E1,-2.889095783E0,8.810421824E-1,9.060004354E-2
1.566884475E1,-4.038517475E-1,-4.190832138E0,-6.200805902E-1
1.568885881E1,1.549730182E0,-2.475470304E0,3.934670389E-1
1.571084631E1,2.331480503E0,1.027684808E0,1.106119871E0
1.573284631E1,2.583767891E0,2.315266609E0,5.034925938E-1
1.575484475E1,2.798583031E0,1.856925607E0,5.019392371E-1
1.577484475E1,2.743151426E0,1.028086185E0,7.935488224E-1
1.579484475E1,1.765033960E0,1.173559427E0,6.705729365E-1
1.581484475E1,1.861637950E0,-2.509783395E-2,6.349507570E-1
1.583484475E1,2.084097624E0,-6.806260347E-1,5.132315159E-1
1.585484475E1,1.883925796E0,-5.944591165E-1,3.558726311E-1
1.587484475E1,1.602945328E0,-1.344601661E-1,4.334176183E-1
1.589484475E1,1.345893145E0,2.941228747E-1,3.175277412E-1
1.591484475E1,1.166595578E0,6.900159121E-1,1.538333148E-1
1.593484475E1,1.098737121E0,1.003965735E0,1.230282560E-1
1.595484475E1,9.539969563E-1,1.048768401E0,1.415112913E-1
1.597484475E1,8.516159654E-1,6.587046981E-1,2.839825153E-1
1.599484475E1,1.003267646E0,-3.609341010E-2,4.826184511E-1
1.601484475E1,1.267178893E0,-6.677106023E-1,5.836032033E-1
1.603484475E1,1.471521974E0,-6.416528225E-1,5.845980048E-1
1.605484475E1,1.418045163E0,1.635548025E-1,4.429994822E-1
1.607484475E1,8.997172117E-1,1.182600141E0,2.314655632E-1
1.609484475E1,2.510307133E-1,1.270756721E0,-1.122246683E-2
1.611484475E1,7.970918715E-2,3.549301624E-1,-1.929810494E-1
1.613484475E1,-5.948081985E-2,-2.610663474E-1,-1.785471886E-1
1.615484475E1,-4.815712571E-1,1.032187715E-1,-1.663996875E-1
1.617484475E1,-1.166874766E0,8.229227662E-1,-3.509857059E-1
1.619484475E1,-2.171050072E0,1.359192610E0,-5.093917847E-1
1.621484475E1,-3.405154705E0,1.571267605E0,-4.896346629E-1
1.623484475E1,-3.665348530E0,8.063944578E-1,-5.608091950E-1
1.625484475E1,-3.178872824E0,1.808161102E-2,-8.668352365E-1
1.627484475E1,-2.515979290E0,-9.794788063E-2,-8.301309347E-1
1.629484475E1,-2.041354656E0,3.531150222E-1,-5.424134135E-1
1.631484475E1,-2.051302910E0,1.318683505E0,-6.405009031E-1
1.633484475E1,-2.248333216E0,2.319211006E0,-7.464947701E-1
1.635484631E1,-2.189620256E0,2.625708342E0,-6.036221385E-1
1.637684631E1,-1.333780646E0,1.593817234E0,-4.675911665E-1
1.639884475E1,-6.339908242E-1,7.174524665E-1,-5.588195324E-1
1.641884475E1,-6.208834052E-1,5.730439425E-1,-9.390918612E-1
1.643884475E1,-1.043706894E0,2.633701824E-2,-1.164256811E0
1.645884475E1,-1.450141668E0,-7.799003720E-1,-1.138233900E0
1.647884475E1,-1.441450000E0,-1.563972116E0,-1.000160933E0
1.649884475E1,-1.058507323E0,-2.177769423E0,-6.439217925E-1
1.651884475E1,-5.134758353E-1,-2.172027349E0,-2.892883122E-1
1.653884475E1,1.090132669E-1,-1.580517769E0,-1.400452256E-1
1.655884475E1,7.932695746E-1,-1.118337154E0,1.025206372E-1
1.657884475E1,1.495415568E0,-1.321947336E0,5.460088253E-1
1.659884475E1,1.962971807E0,-1.378914833E0,9.157393575E-1
1.661884475E1,1.330918312E0,-5.381548405E-1,6.077585220E-1
1.663884475E1,5.312433243E-1,-1.711609483E0,-4.268726408E-1
1.665884475E1,-2.554463744E-1,-1.431693554E0,-1.121827841E0
1.667884475E1,-3.904301524E-1,2.276258469E-1,-1.395792127E0
1.669884475E1,7.508406043E-2,4.856029451E-1,-9.763197303E-1
1.671884475E1,-1.660785556E0,5.710368156E-1,-3.241949081E-1
1.673884475E1,-1.464348674E0,-3.551395833E-1,-8.982860446E-1
1.675884475E1,9.715898633E-1,-1.773394108E0,-4.575206041E-1
1.677884475E1,6.999468207E-1,-1.273025751E0,1.648114473E-1
1.679884475E1,1.817236781E0,1.710946262E-1,7.846651077E-1
1.681884475E1,2.463863850E0,2.563714027E0,2.032680273E0
1.683884475E1,2.267374754E0,2.654383898E0,2.236639500E0
1.685884475E1,1.292364001E0,1.997476935E0,5.185896754E-1
1.687884475E1,1.246950507E0,-6.731735170E-2,4.248654842E-1
1.689884631E1,1.701521516E0,-2.064078808E0,8.573755622E-1
1.692086506E1,1.297285795E0,-1.727980614E0,6.620557308E-1
1.694284475E1,1.410767078E0,-1.990513086E0,3.696607351E-1
1.696284475E1,1.649248838E0,-1.966654420E0,3.079982400E-1
1.698284475E1,1.627030849E0,-1.416718602E0,2.402096689E-1
1.700284475E1,1.364428639E0,-4.762305319E-1,8.981464058E-2
1.702284631E1,1.110902071E0,5.743878484E-1,8.782497048E-2
1.704484475E1,1.133713484E0,1.192862749E0,1.639387757E-1
1.706486506E1,1.156716943E0,1.265869856E0,2.932327688E-1
1.708684631E1,1.315332532E0,8.883376718E-1,4.161562920E-1
1.710684631E1,1.681118608E0,3.985808492E-1,5.129173398E-1
1.712684631E1,1.658237338E0,3.688229620E-1,6.069557071E-1
1.714884475E1,1.165216684E0,6.815161705E-1,4.325449467E-1
1.716884475E1,7.433531880E-1,8.294502497E-1,1.375842988E-1
1.718884475E1,2.329490930E-1,8.218581080E-1,2.673844434E-2
1.720884475E1,-4.066617191E-1,6.602231264E-1,-3.946189582E-2
1.722884475E1,-1.074686527E0,4.368559122E-1,-3.036174774E-1
1.724884475E1,-2.176617622E0,4.017922580E-1,-5.698150992E-1
1.726884475E1,-2.977653980E0,4.412716031E-1,-6.443057656E-1
1.728884475E1,-2.918382406E0,-1.608495414E-1,-9.220923185E-1
1.730885412E1,-2.891067982E0,-3.645120263E-1,-8.333249092E-1
1.733084631E1,-2.774043798E0,-1.594358236E-1,-8.101119995E-1
1.735084631E1,-2.241578817E0,4.726351425E-2,-6.246010065E-1
1.737085725E1,-1.755120516E0,3.609690070E-1,-6.166597009E-1
1.739284475E1,-1.847657919E0,1.386140466E0,-6.736971140E-1
1.741284475E1,-1.970651269E0,2.287149191E0,-3.834663033E-1
1.743284631E1,-1.681502581E0,2.522245169E0,-1.019097716E-1
1.745284631E1,-1.151672959E0,1.911257744E0,-1.869073063E-1
1.747484475E1,-9.204866290E-1,6.839596033E-1,-4.496142566E-1
1.749484475E1,-1.086746693E0,-6.151587367E-1,-4.198215008E-1
1.751484475E1,-1.214504838E0,-7.721336484E-1,-4.301014841E-1
1.753484475E1,-1.090656281E0,-8.208632469E-1,-5.815611482E-1
1.755484475E1,-8.094487786E-1,-1.356138229E0,-6.078981757E-1
1.757484475E1,-5.064771175E-1,-1.566834450E0,-4.391073883E-1
1.759484475E1,-1.315280050E-1,-1.367447972E0,-2.197544128E-1
1.761484475E1,4.270995259E-1,-1.013861775E0,-7.853981806E-4
1.763484475E1,1.050112247E0,-6.855478883E-1,2.280796319E-1
1.765484475E1,1.560446501E0,-6.666110754E-1,4.352851212E-1
1.767484475E1,1.624395370E0,-8.403585553E-1,4.943819642E-1
1.769484475E1,8.100422025E-1,-1.066989541E0,5.516985804E-2
1.771484475E1,-7.761479020E-1,-1.183420539E0,-5.109626055E-1
1.773484475E1,-1.180785060E0,-6.812019944E-1,-8.641822934E-1
1.775484475E1,-6.039188504E-1,-1.118232459E-1,-1.071300507E0
1.777484475E1,1.294685304E-1,-9.372417927E-1,-9.777159691E-1
1.779484475E1,-2.008350343E-1,-8.414756060E-1,-5.744576454E-1
1.781484475E1,-5.887868404E-1,4.281118214E-1,-2.715208828E-1
1.783484475E1,-6.194347739E-1,1.029133439E0,1.086991057E-1
1.785484631E1,-9.192474484E-1,-2.787639797E-1,1.397834122E-1
1.787684631E1,7.900756598E-1,-2.806838512E0,4.438721240E-1
1.789884475E1,2.753204584E0,-5.456422567E-1,1.372596741E0
1.791884475E1,3.222855091E0,1.947822332E0,1.654816508E0
1.793884475E1,3.065513849E0,2.922588825E0,5.286602378E-1
1.795884475E1,2.204001665E0,3.664528131E0,3.160791099E-2
1.797884475E1,1.638637304E0,3.670182943E0,4.678355157E-1
1.799884475E1,2.154155254E0,2.058493614E0,7.784692049E-1
1.801884475E1,2.377243042E0,1.153662652E-1,6.907663941E-1
1.803884475E1,1.511734366E0,-7.244512439E-1,4.587423503E-1
1.805884475E1,1.085577369E0,-1.414536953E0,3.431317210E-1
1.807884475E1,1.291770577E0,-1.679477930E0,4.558101892E-1
1.809884475E1,1.335630655E0,-1.101547122E0,3.887371719E-1
1.811884475E1,1.058350205E0,-2.312561311E-2,1.979377866E-1
1.813884475E1,9.387951493E-1,9.186191559E-1,1.188743785E-1
1.815884475E1,8.315272331E-1,1.082383394E0,4.406956211E-2
1.817884475E1,7.094763517E-1,6.968924999E-1,1.678483188E-1
1.819884475E1,9.082169533E-1,-3.368485486E-3,2.761808932E-1
1.821884631E1,1.354340553E0,-7.688698769E-1,2.879444063E-1
1.823884631E1,1.584846258E0,-1.038488388E0,2.933723927E-1
1.825885413E1,1.640312791E0,-6.179862022E-1,2.666164935E-1
1.828084631E1,1.466251135E0,6.107954383E-1,2.424087822E-1
1.830084631E1,6.204296350E-1,1.806206346E0,2.038195431E-1
1.832086819E1,-1.653001308E-1,1.546222091E0,-2.122320421E-2
1.834284631E1,-3.724881709E-1,3.310365975E-1,-1.791580468E-1
1.836284631E1,-8.721235991E-1,4.433136433E-3,-2.927266359E-1
1.838284631E1,-1.939985871E0,4.635245502E-1,-3.436902463E-1
1.840284631E1,-2.793574095E0,1.079154491E0,-3.836059272E-1
1.842284631E1,-2.897700310E0,5.162509084E-1,-6.663318276E-1
1.844284631E1,-2.813470840E0,-1.815491468E-1,-8.311257958E-1
1.846284631E1,-2.606649160E0,-4.674689770E-1,-9.802117944E-1
1.848284631E1,-2.074899673E0,-4.474326074E-1,-8.584750891E-1
1.850284631E1,-1.729411840E0,-4.993386939E-2,-8.831365705E-1
1.852284631E1,-2.013045311E0,9.006073475E-1,-1.065558434E0
1.854284944E1,-2.249711990E0,1.433403969E0,-8.103389144E-1
1.856484631E1,-1.840816259E0,1.440734386E0,-4.063301086E-1
1.858484631E1,-1.205132365E0,1.453178525E0,-3.795916438E-1
1.860484631E1,-6.752155423E-1,1.383766890E0,-5.571789145E-1
1.862484631E1,-8.386481404E-1,6.455798149E-1,-6.882007718E-1
1.864484631E1,-1.415444613E0,-7.289891243E-1,-6.522818804E-1
1.866484631E1,-1.745329261E0,-1.274596453E0,-5.645092726E-1
1.868484631E1,-1.521473289E0,-1.240300775E0,-4.573460817E-1
1.870484631E1,-9.275028706E-1,-1.499883652E0,-3.627841473E-1
1.872484631E1,-4.355818331E-1,-1.202968240E0,-2.087413818E-1
1.874484631E1,3.312635049E-2,-7.840716839E-1,-1.026253588E-2
1.876484631E1,5.245237947E-1,-6.997025013E-1,2.763554454E-1
1.878484631E1,1.028347969E0,-8.743052483E-1,5.147324800E-1
1.880484631E1,1.447401524E0,-1.053044438E0,6.970146894E-1
1.882484631E1,1.409789681E0,-1.105648637E0,5.526584983E-1
1.884484631E1,3.742160499E-1,-9.772621989E-1,-1.710422686E-3
1.886485100E1,-1.126435518E0,-6.705031395E-1,-5.102121234E-1
1.888684631E1,-1.097620130E0,-3.641978502E-1,-7.652570605E-1
1.890684631E1,-3.477045000E-1,-5.589765906E-1,-8.512494564E-1
1.892684631E1,2.652900517E-1,-8.645313978E-1,-7.579790354E-1
1.894684631E1,-6.569419056E-2,-2.855882347E-1,-5.314527750E-1
1.896684631E1,-6.197664142E-2,4.240975678E-1,-2.884156704E-1
1.898684631E1,-7.836353779E-1,1.277319193E0,-4.785169065E-1
1.900684631E1,-1.402197480E-1,9.557772279E-1,-3.012961745E-1
1.902684631E1,8.263610601E-1,-2.606125772E-1,5.477541089E-1
1.904684631E1,1.263775468E0,-4.216541052E-1,9.836850166E-1
1.906684631E1,1.765400529E0,6.051231027E-1,1.167154074E0
1.908684631E1,2.340312004E0,6.293133497E-1,3.229033649E-1
1.910684631E1,2.118410826E0,4.164006412E-1,6.426302344E-2
1.912684631E1,1.268313289E0,1.202462077E0,3.251897395E-1
1.914684631E1,2.198783159E0,-3.743905723E-1,5.329712033E-1
1.916684631E1,2.350853682E0,-9.951343536E-1,2.482207268E-1
1.918684631E1,2.060814857E0,-9.590758681E-1,7.379251719E-2
1.920684631E1,1.799608946E0,-8.606567383E-1,8.653342724E-2
1.922684631E1,1.675865173E0,-6.226287484E-1,1.629788429E-1
1.924684631E1,1.740843773E0,5.937610194E-2,1.799085438E-1
1.926684631E1,1.714698672E0,1.033583999E0,1.245641485E-1
1.928684631E1,1.381899357E0,1.805455804E0,7.354817539E-2
1.930684631E1,1.001696825E0,1.852387786E0,6.120869517E-2
1.932684631E1,9.623571038E-1,1.267859578E0,1.874309033E-1
1.934684631E1,1.357010961E0,4.152138159E-2,3.571292758E-1
1.936684631E1,1.532241940E0,-9.692686200E-1,3.861191869E-1
1.938684631E1,1.382510185E0,-9.075711966E-1,3.792600334E-1
1.940684631E1,1.183595061E0,-6.426302344E-2,2.538755834E-1
1.942684631E1,7.636513710E-1,6.735923886E-1,4.310963303E-2
1.944684631E1,3.428001106E-1,5.934468508E-1,-1.198866665E-1
1.946684631E1,3.161664009E-1,1.826312542E-1,-9.562659264E-2
1.948684631E1,2.353052944E-1,3.440218568E-1,-1.044754088E-1
1.950684631E1,-3.981095925E-2,1.095595479E0,-1.934348345E-1
1.952684631E1,-6.139020920E-1,1.891151547E0,-1.862440854E-1
1.954684631E1,-1.803623199E0,2.536487103E0,-1.828756034E-1
1.956684631E1,-3.644212484E0,3.119252443E0,-4.285481572E-1
1.958684631E1,-3.943466663E0,1.765697241E0,-5.815611482E-1
1.960684631E1,-3.520678043E0,-3.931528628E-1,-5.279272199E-1
1.962684631E1,-3.095463514E0,-1.533167005E0,-1.376366615E-1
1.964684631E1,-2.640142202E0,-1.294947028E0,1.371828765E-1
1.966684631E1,-2.301652908E0,1.500634104E-1,-1.489114910E-1
1.968684631E1,-2.165866375E0,2.013481617E0,-7.283957005E-1
1.970684631E1,-2.105198622E0,3.260432005E0,-9.621127248E-1
1.972684631E1,-1.588895440E0,3.347018003E0,-8.234987259E-1
1.974684631E1,-7.628659606E-1,2.612269163E0,-5.137725472E-1
1.976684631E1,-5.082398653E-2,1.333187222E0,-7.441385984E-1
1.978684631E1,-3.408628106E-1,-6.603278518E-1,-1.467996478E0
1.980684631E1,-1.177521229E0,-1.978871703E0,-1.664328456E0
1.982684631E1,-1.442828774E0,-2.395726204E0,-1.389840603E0
1.984684631E1,-1.093588352E0,-2.695940256E0,-1.088055730E0
1.986684631E1,-7.068234086E-1,-2.808636189E0,-7.365114689E-1
1.988684631E1,-3.748443723E-1,-2.179584503E0,-4.329987466E-1
1.990884475E1,1.554041207E-1,-1.472569227E0,-3.728372455E-1
1.992884475E1,6.886545420E-1,-9.577144980E-1,1.934348345E-1
1.994884475E1,9.721658230E-1,-8.007570505E-1,8.008443117E-1
1.996884475E1,1.175915599E0,-9.973334670E-1,1.053969383E0
1.998884475E1,1.091843128E0,-1.661518574E0,8.862782121E-1
2.000884475E1,3.304082751E-1,-1.536134124E0,1.353502870E-1
2.002884475E1,-9.413782358E-1,4.760211110E-1,-2.811027169E-1
2.004884475E1,-7.991688251E-1,2.246936858E-1,-7.976503968E-1
2.006884475E1,4.396484420E-2,-8.180183768E-1,-6.880262494E-1
2.008884475E1,5.518032908E-1,-1.283689588E-1,-3.132517040E-1
2.010884475E1,5.235463977E-1,-3.490658477E-3,1.571668983E-1
2.012884475E1,-4.879067838E-1,1.205586195E0,1.797340065E-1
2.014884475E1,-4.747295678E-1,-5.496041849E-2,-2.827258706E-1
2.016884475E1,2.412917614E-1,-2.366282463E0,5.375439525E-1
2.018884475E1,8.896990418E-1,-1.113851666E0,1.221294165E0
2.020884475E1,1.945762873E0,7.873878479E-1,1.027004123E0
2.022884475E1,2.613752604E0,1.335665584E0,2.368935347E-1
2.024884475E1,2.095040798E0,2.322998285E0,-9.983283468E-3
2.026884475E1,1.736201167E0,2.429952145E0,3.794171214E-1
2.028884475E1,2.514164209E0,2.213601023E-1,5.962219238E-1
2.030885412E1,1.881185651E0,-5.077860951E-1,3.832393885E-1
2.033084788E1,1.333710790E0,-1.232429385E0,2.718175650E-1
2.035284475E1,1.268732190E0,-1.706530571E0,3.895400465E-1
2.037284475E1,1.272990823E0,-1.699165344E0,4.581663907E-1
2.039284631E1,1.202252626E0,-1.040774703E0,3.963991702E-1
2.041484475E1,1.148636103E0,-9.215338156E-3,1.652303189E-1
2.043484475E1,9.879610538E-1,7.684510350E-1,5.323254317E-2
2.045484475E1,7.220252752E-1,8.929802775E-1,2.750638872E-2
2.047484475E1,6.033428907E-1,5.547703505E-1,1.127657220E-1
2.049484475E1,8.649153709E-1,-1.481784582E-1,2.404191047E-1
2.051485725E1,1.369664550E0,-8.801869750E-1,2.652027905E-1
2.053684475E1,1.705972075E0,-1.153383374E0,1.244768798E-1
2.055684475E1,1.766447783E0,-8.628907800E-1,4.248131439E-2
2.057684475E1,1.724018812E0,1.471138000E-1,2.136282995E-2
2.059684475E1,1.140555263E0,1.672810793E0,1.001295373E-1
2.061684475E1,1.232027933E-1,2.195536852E0,1.491907388E-1
2.063684475E1,-2.986781895E-1,1.298839092E0,7.745771110E-2
2.065684475E1,-5.660277009E-1,7.489208132E-2,-9.328784794E-2
2.067684475E1,-1.051997185E0,-4.619886577E-1,-3.438124061E-1
2.069684475E1,-1.547426343E0,-4.417777359E-1,-5.789780617E-1
2.071684475E1,-2.220128536E0,-6.759659946E-2,-4.724606276E-1
2.073684475E1,-3.344364882E0,6.307271123E-1,-6.134832278E-2
2.075684475E1,-3.306351662E0,5.252219439E-1,-3.339512944E-1
2.077684475E1,-2.599423647E0,3.240552843E-1,-6.242170334E-1
2.079684475E1,-2.019956827E0,3.775147200E-1,-3.994884193E-1
2.081684475E1,-1.699322343E0,5.003858805E-1,-3.564834893E-1
2.083684475E1,-1.818668008E0,1.067198992E0,-6.201503873E-1
2.085684631E1,-2.207160711E0,1.693300962E0,-7.265980244E-1
2.087684631E1,-1.868113160E0,1.427958608E0,-4.018969536E-1
2.089884475E1,-1.234506249E0,9.666506052E-1,-1.656841040E-1
2.091884475E1,-9.944711328E-1,9.667378664E-1,-2.953969836E-1
2.093884475E1,-1.097829580E0,1.474855542E0,-4.529478550E-1
2.095884475E1,-1.288053036E0,9.486039281E-1,-4.089306295E-1
2.097884475E1,-1.108563304E0,-5.462182164E-1,-3.038618267E-1
2.099884475E1,-9.654463530E-1,-9.653066993E-1,-4.223173261E-1
2.101884475E1,-8.192750216E-1,-8.003032804E-1,-4.057192504E-1
2.103884475E1,-6.255434752E-1,-6.129246950E-1,-1.241278127E-1
2.105884475E1,-3.167772591E-1,-2.745752037E-1,1.448623240E-1
2.107884475E1,9.745918214E-2,-8.169886470E-2,3.388905823E-1
2.109884475E1,4.492652118E-1,-2.299471349E-1,4.657410979E-1
2.111884475E1,6.028367281E-1,-3.202155530E-1,4.800353646E-1
2.113884475E1,5.749463439E-1,-6.315823197E-1,1.754754037E-1
2.115884475E1,-3.328342736E-2,-1.139420748E0,-3.950552642E-1
2.117884475E1,-8.445647955E-1,-8.377406001E-1,-8.816705346E-1
2.119884475E1,-1.185096025E0,-6.792995930E-1,-1.051281571E0
2.121884475E1,-8.788082004E-1,-1.290304422E0,-1.093588352E0
2.123884475E1,-1.184031367E-1,-1.525452614E0,-9.979618192E-1
2.125884475E1,5.703910589E-1,-1.258347511E0,-7.327066660E-1
2.127886975E1,9.041678309E-1,-5.436177254E-1,-4.061555564E-1
2.130084475E1,1.451991796E0,6.820746511E-2,-7.581710070E-2
2.132087444E1,-1.527163148E0,1.777844787E0,1.377064735E-1
2.134284475E1,-3.627492189E-1,8.204792440E-2,1.616174877E-1
2.136284475E1,1.410836935E0,-5.123937726E-1,5.714557171E-1
2.138284475E1,2.274966955E0,-4.925144613E-1,8.746019602E-1
2.140284475E1,2.166965961E0,1.025346041E0,1.214679360E0
2.142284475E1,1.476723075E0,2.305771828E0,1.095665336E0
2.144284475E1,1.480440617E0,2.118253708E0,5.044699907E-1
2.146286194E1,2.066731691E0,7.151486874E-1,3.333753347E-1
2.148484475E1,1.997651458E0,-7.162830979E-2,1.977109015E-1
2.150484631E1,1.625983596E0,-5.034227967E-1,2.472782433E-1
2.152684475E1,1.445516586E0,-1.141201019E0,2.507688999E-1
2.154684475E1,1.343153000E0,-1.446738362E0,3.009994924E-1
2.156684475E1,1.304371834E0,-1.616960287E0,2.962347269E-1
2.158684475E1,1.395844460E0,-1.350710273E0,2.905798554E-1
2.160684475E1,1.532870293E0,-7.177143097E-1,1.485798806E-1
2.162684475E1,1.550271273E0,1.295906901E-1,-1.172861271E-2
2.164684475E1,1.266725063E0,1.022902608E0,-3.117158078E-2
2.166684475E1,8.988794684E-1,1.627502084E0,-1.432915311E-2
2.168684475E1,6.543064713E-1,1.581983924E0,6.525786221E-2
2.170684475E1,9.591980577E-1,8.560316563E-1,2.456376404E-1
2.172684475E1,1.423560381E0,-3.028844297E-1,3.803072572E-1
2.174684475E1,1.412495017E0,-8.076511025E-1,4.934045672E-1
2.176684475E1,1.194957137E0,-6.819001436E-1,4.558276534E-1
2.178684475E1,9.580112100E-1,-3.254515529E-1,2.020742148E-1
2.180684475E1,8.925439119E-1,-4.581489414E-2,-1.356295347E-1
2.182684475E1,7.740185857E-1,2.795668244E-1,-1.796990931E-1
2.184684631E1,3.202155530E-1,5.205270052E-1,-1.144063324E-1
2.186884475E1,-2.259328663E-1,4.119675159E-1,-9.955357760E-2
2.188884475E1,-3.745650947E-1,1.180366203E-1,-2.021265775E-1
2.190884475E1,-7.304028273E-1,-4.834562074E-3,-2.737374306E-1
2.192884475E1,-1.449111938E0,1.731541157E-1,-1.592089385E-1
2.194884475E1,-2.844328165E0,9.994453192E-1,1.614429504E-1
2.196884475E1,-3.835413456E0,1.494385839E0,2.964616120E-1
2.198884475E1,-3.258512259E0,1.069241047E0,-1.203404516E-1
2.200884475E1,-2.437317371E0,5.098455548E-1,-3.403217494E-1
2.202884475E1,-2.102912188E0,2.879967690E-1,-2.733185589E-1
2.204884475E1,-2.097780943E0,2.991319895E-1,-3.682121038E-1
2.206884475E1,-2.015244484E0,8.084015846E-1,-5.406157374E-1
2.208884475E1,-2.251561880E0,1.909233093E0,-7.042577863E-1
2.210884475E1,-2.027391911E0,2.068302393E0,-6.721088290E-1
2.212884475E1,-1.275521517E0,1.215272784E0,-5.995554924E-1
2.214884475E1,-8.304101825E-1,8.238303065E-1,-7.133858800E-1
2.216884475E1,-8.063071966E-1,8.722457290E-1,-9.864077568E-1
2.218884475E1,-8.788605332E-1,2.561794221E-1,-1.177660942E0
2.220884475E1,-8.730136752E-1,-5.147674084E-1,-1.230509520E0
2.222884475E1,-8.074940443E-1,-1.112769604E0,-1.037947297E0
2.224884475E1,-6.122789383E-1,-1.275992751E0,-6.306747198E-1
2.226884475E1,-2.428276539E-1,-1.029395223E0,-2.752035260E-1
2.228884475E1,1.807113886E-1,-6.602057219E-1,4.953244328E-2
2.230885412E1,5.821720362E-1,-4.318817258E-1,4.293335378E-1
2.233084631E1,8.469035625E-1,-4.224743843E-1,8.144928217E-1
2.235284631E1,7.708246708E-1,-5.987700820E-1,1.219356775E0
2.237484475E1,6.863158345E-1,-9.889733791E-1,1.284091115E0
2.239484475E1,4.332779944E-1,-1.213178396E0,5.316098332E-1
2.241484475E1,-4.454603791E-1,-5.108927488E-1,-2.706831098E-1
2.243484475E1,-8.900830150E-1,8.300786018E-1,-8.105832338E-1
2.245484475E1,-5.040336251E-1,1.217716187E-1,-1.127046347E0
2.247484475E1,2.055997849E-1,-1.298053741E0,-9.597390890E-1
2.249484475E1,5.354495645E-1,-1.512921214E0,-6.853209734E-1
2.251484475E1,5.886297226E-1,-1.258312583E0,-4.194898903E-1
2.253484475E1,1.153191447E0,-4.773824513E-1,-7.613126189E-2
2.255484475E1,-1.191414118E0,2.564691544E0,-2.303834632E-2
2.257484475E1,-2.085668407E-2,-1.383260727E0,2.420073599E-1
2.259484475E1,1.190366864E0,-2.064654589E0,7.364067435E-1
2.261484475E1,1.872790694E0,-3.679677546E-1,1.253059149E0
2.263484475E1,1.821425557E0,1.614429593E0,1.603364110E0
2.265484475E1,1.645409107E0,1.854290128E0,1.054650068E0
2.267484475E1,1.249969840E0,1.899319649E0,2.049714625E-1
2.269484475E1,1.978470325E0,1.253024220E0,8.850564808E-2
2.271484475E1,2.238035679E0,6.486341357E-1,1.901536286E-1
2.273484475E1,1.505154490E0,-4.162610322E-2,1.364149302E-1
2.275484475E1,1.121129751E0,-1.266690135E0,5.658357590E-2
2.277484475E1,1.067181587E0,-2.101987362E0,1.853888780E-1
2.279484475E1,1.057320476E0,-2.152113199E0,2.218662500E-1
2.281484475E1,1.006391764E0,-1.697786450E0,7.721336931E-2
2.283484475E1,1.010580540E0,-9.105557203E-1,-1.698205434E-2
2.285484475E1,9.552012682E-1,2.251474652E-3,-3.724532574E-2
2.287484475E1,8.095535040E-1,6.322280765E-1,-2.951351739E-2
2.289484475E1,6.325073242E-1,7.710689902E-1,3.539527580E-2
2.291484475E1,6.338686943E-1,5.198637843E-1,1.350535750E-1
2.293484475E1,9.585871696E-1,-4.139921069E-2,1.434486061E-1
2.295484475E1,1.226739526E0,-6.980095506E-1,1.262396574E-1
2.297484475E1,1.424223542E0,-1.073534608E0,1.457524449E-1
2.299484475E1,1.775750279E0,-1.003354907E0,9.119345248E-2
2.301484475E1,1.913736105E0,-4.322831333E-1,4.366813600E-2
2.303484475E1,1.613469601E0,6.862634420E-1,5.133013427E-2
2.305484631E1,6.810449362E-1,1.827237606E0,8.634144068E-2
2.307684475E1,-3.482455313E-1,1.766639709E0,6.127851084E-2
2.309684475E1,-6.357012987E-1,7.398101687E-1,-2.914699912E-2
2.311684475E1,-9.383239150E-1,3.131120652E-2,-1.469567269E-1
2.313684475E1,-1.242482424E0,2.532472648E-2,-2.240304649E-1
2.315684475E1,-1.852824092E0,5.179439187E-1,-1.822821796E-1
2.317684475E1,-3.423759937E0,1.365318656E0,1.616174914E-2
2.319684475E1,-3.664929628E0,1.094251633E0,-2.324080467E-1
2.321684475E1,-3.084031582E0,4.881336689E-1,-5.953841805E-1
2.323684475E1,-2.358358622E0,1.660157144E-1,-4.118976891E-1
2.325684475E1,-1.777321100E0,9.655161202E-2,-1.501855850E-1
2.327684475E1,-1.505660653E0,4.063301086E-1,-4.288448393E-1
2.329684475E1,-2.141449213E0,1.765976548E0,-9.066810608E-1
2.331684475E1,-2.073695421E0,2.026344776E0,-7.126877308E-1
2.333684475E1,-1.294755101E0,1.376698256E0,-2.771233916E-1
2.335684631E1,-5.930105448E-1,9.966353774E-1,-1.565560400E-1
2.337884475E1,-3.816162348E-1,9.523388743E-1,-5.559920669E-1
2.339884475E1,-7.593927383E-1,5.219407082E-1,-7.584328055E-1
2.341884475E1,-1.188446999E0,-4.275009334E-1,-6.635916233E-1
2.343884475E1,-1.368058920E0,-1.306361437E0,-5.073846579E-1
2.345884475E1,-1.200978518E0,-1.950091243E0,-3.511253297E-1
2.347884475E1,-9.131038785E-1,-1.676545858E0,-1.348965019E-1
2.349884475E1,-4.610112607E-1,-9.610655308E-1,7.126179338E-2
2.352087912E1,1.068141535E-1,-6.686356664E-2,3.908315897E-1
2.354284475E1,4.407654405E-1,2.079210728E-1,6.146351695E-1
2.356284475E1,5.071054101E-1,3.960151970E-2,7.442607284E-1
2.358284475E1,5.354844928E-1,-3.759439290E-1,6.661398411E-1
2.360284475E1,2.878920734E-1,-1.047965527E0,9.616763890E-2
2.362284475E1,-1.413542181E-1,-1.216808677E0,-4.691968560E-1
2.364284475E1,-1.440769285E-1,-5.769534707E-1,-7.685208321E-1
2.366284475E1,2.343628109E-1,-9.606292099E-2,-9.715898633E-1
2.368284475E1,6.588966846E-1,-6.236236095E-1,-1.005850673E0
2.370284475E1,5.541071296E-1,-1.460177302E0,-9.949598312E-1
2.372284475E1,2.182185203E-1,-6.638185382E-1,-9.863902926E-1
2.374284475E1,6.270967722E-1,4.208512306E-1,-4.253541827E-1
2.376284475E1,-2.973517478E-1,1.416805863E0,7.745771110E-2
2.378284475E1,-3.759613633E-1,-1.369140983E0,2.992366850E-1
2.380284475E1,9.258971810E-1,-2.012835741E0,8.294328451E-1
2.382284475E1,2.322300196E0,2.816088796E-1,1.583938599E0
2.384284475E1,2.915293217E0,2.274582863E0,1.799800992E0
2.386284475E1,2.484633207E0,2.759225845E0,7.627961636E-1
2.388284475E1,1.374202490E0,3.259315014E0,-6.213372108E-3
2.390284475E1,1.392057180E0,2.906601429E0,2.417804599E-1
2.392284475E1,2.422639132E0,6.072174907E-1,6.723532081E-1
2.394284475E1,1.403925419E0,-4.474326074E-1,4.442560971E-1
2.396284475E1,6.162408590E-1,-1.722116351E0,2.032261342E-1
2.398284475E1,6.768735647E-1,-2.275560379E0,3.248930275E-1
2.400284475E1,1.018591642E0,-2.135340452E0,3.560471535E-1
2.402284475E1,9.723404050E-1,-1.484210491E0,1.813397110E-1
2.404284475E1,7.711039186E-1,-5.936039090E-1,8.210028708E-2
2.406284475E1,6.900159121E-1,1.950580031E-1,8.412486874E-3
2.408284475E1,8.529074788E-1,6.869790554E-1,-1.966986060E-2
2.410284475E1,8.344244361E-1,5.971120596E-1,2.851868048E-2
2.412284475E1,7.708421350E-1,9.845402092E-2,1.195550561E-1
2.414284475E1,1.100587130E0,-3.756646812E-1,1.277930140E-1
2.416284475E1,1.678709984E0,-7.786786556E-1,5.642649531E-2
2.418284475E1,1.871097684E0,-7.927110791E-1,1.078788042E-1
2.420284475E1,1.710963726E0,-2.277131081E-1,1.721243709E-1
2.422284475E1,1.368844271E0,5.691169500E-1,2.424436808E-1
2.424284475E1,8.223991394E-1,1.218379498E0,2.588497698E-1
2.426284475E1,2.212204784E-1,1.059362531E0,7.752752304E-2
2.428284475E1,-1.047023013E-1,4.883605838E-1,-1.086467430E-1
2.430284475E1,-4.237310290E-1,1.505346447E-1,-1.777094305E-1
2.432284475E1,-8.272860646E-1,2.139075547E-1,-2.961300015E-1
2.434284475E1,-1.103414655E0,3.901683390E-1,-3.932924867E-1
2.436284631E1,-1.509901762E0,3.771831095E-1,-4.661599994E-1
2.438284631E1,-2.464561939E0,6.542017460E-1,-3.725928962E-1
2.440484475E1,-3.593545675E0,1.278087139E0,-3.675663471E-1
2.442484475E1,-2.944213390E0,9.263684154E-1,-5.639333129E-1
2.444484475E1,-2.276188612E0,5.414360166E-1,-4.346742630E-1
2.446484475E1,-1.888952374E0,4.153883457E-1,-4.154232740E-1
2.448484475E1,-1.625756741E0,5.402666926E-1,-4.909611046E-1
2.450484475E1,-2.249188423E0,1.300357580E0,-4.808033109E-1
2.452484475E1,-2.556959629E0,1.608111501E0,-3.621907234E-1
2.454684475E1,-1.694051504E0,1.113415360E0,-2.107834071E-1
2.456684475E1,-1.006967664E0,1.016811371E0,-1.876578033E-1
2.458684475E1,-9.531941414E-1,1.124323606E0,-3.042806983E-1
2.460684475E1,-1.095525742E0,9.091943502E-1,-4.306949079E-1
2.462684475E1,-1.176596284E0,5.141565204E-1,-5.736548305E-1
2.464684475E1,-1.111600161E0,-6.121218801E-1,-6.611481905E-1
2.466684475E1,-9.937381148E-1,-1.375895381E0,-4.952720702E-1
2.468684475E1,-7.762176991E-1,-1.315611720E0,-2.358987033E-1
2.470684475E1,-4.694237411E-1,-8.353145719E-1,3.494149074E-2
2.472684475E1,-2.370157093E-2,-6.200456619E-1,2.345897108E-1
2.474684475E1,4.330860078E-1,-7.141188979E-1,3.451563120E-1
2.476684475E1,5.688202381E-1,-7.750309110E-1,3.876027167E-1
2.478684475E1,2.723411620E-1,-9.301557541E-1,2.465102971E-1
2.480684475E1,-3.037222028E-1,-1.375127435E0,-1.487020552E-1
2.482884475E1,-4.335921407E-1,-1.239724874E0,-5.887344480E-1
2.484884475E1,-1.935046464E-1,-7.523590922E-1,-8.550367951E-1
2.486884475E1,-3.984412253E-1,-2.467546463E-1,-9.489005804E-1
2.488884475E1,1.576555967E-1,2.412045002E-1,-1.222393751E0
2.490888850E1,7.542440295E-1,8.698197603E-1,-5.538976789E-1
2.493084944E1,-4.132939503E-2,6.098180413E-1,4.632453024E-1
2.495284475E1,-4.075867534E-1,-2.993449211E0,4.144982398E-1
2.497284475E1,1.040652514E0,-1.224086642E0,1.282415628E0
2.499284475E1,2.305719614E0,1.791650295E0,1.476478696E0
2.501284475E1,2.162550211E0,3.246137857E0,6.409372687E-1
2.503284475E1,1.867729187E0,3.407214403E0,-1.137954649E-2
2.505284475E1,2.230653048E0,1.324635029E0,2.898119092E-1
2.507284475E1,1.792557836E0,-3.443534672E-2,2.603507638E-1
2.509284631E1,1.475553751E0,-1.199582219E0,2.713812590E-1
2.511484475E1,1.311178565E0,-2.387715101E0,2.947337627E-1
2.513484475E1,1.162214756E0,-2.857016802E0,3.437775075E-1
2.515484475E1,1.142335415E0,-2.600558043E0,3.615100384E-1
2.517484475E1,1.330761194E0,-2.013830662E0,2.245540619E-1
2.519484475E1,1.464959502E0,-1.151987076E0,1.534668058E-1
2.521484631E1,1.458309889E0,-2.340835631E-1,1.395390779E-1
2.523684475E1,1.377518535E0,5.285380483E-1,1.314931065E-1
2.525684475E1,1.195672750E0,9.427570701E-1,1.176700965E-1
2.527684631E1,9.084787965E-1,9.796707630E-1,1.005309671E-1
2.529684631E1,8.450360894E-1,6.530847549E-1,2.271022350E-1
2.531884475E1,1.491802692E0,-1.617396623E-1,4.236437678E-1
2.533884475E1,1.617798090E0,-4.142015278E-1,4.935441911E-1
2.535884631E1,1.445778370E0,-1.347743273E-1,4.013035595E-1
2.537884631E1,1.531124949E0,2.085493952E-1,2.478716522E-1
2.540084788E1,1.173489571E0,5.168443322E-1,7.077310234E-2
2.542087288E1,4.266108274E-1,4.909611046E-1,-1.551597659E-2
2.544284475E1,-5.654866807E-3,4.363323096E-4,-1.211782098E-1
2.546284475E1,-3.483502567E-1,-1.173210293E-1,-1.189441904E-1
2.548284475E1,-1.017876029E0,1.390852928E-1,-1.674817950E-1
2.550284475E1,-1.951033711E0,5.177693963E-1,-2.095442265E-1
2.552284631E1,-2.807938099E0,7.628659606E-1,-1.371305138E-1
2.554484631E1,-2.792806149E0,5.379628539E-1,-4.519879222E-1
2.556484631E1,-2.547726870E0,4.564559460E-1,-7.845255136E-1
2.558684475E1,-2.236709356E0,5.884377360E-1,-6.187890172E-1
2.560684475E1,-1.879702091E0,7.268074751E-1,-5.422039628E-1
2.562684475E1,-1.909180760E0,1.132561564E0,-7.965857387E-1
2.564684475E1,-2.216009617E0,1.577358723E0,-8.607963920E-1
2.566684475E1,-2.103086948E0,1.228205681E0,-5.667083859E-1
2.568684475E1,-1.724681973E0,6.573433280E-1,-3.538480401E-1
2.570684475E1,-1.283148646E0,4.840496182E-1,-3.740414977E-1
2.572684475E1,-1.210263610E0,8.957029581E-1,-3.789982498E-1
2.574684475E1,-1.330865860E0,9.420239925E-1,-4.196469784E-1
2.576684475E1,-1.490703106E0,-1.292590797E-1,-4.884129465E-1
2.578684475E1,-1.662949681E0,-9.049706459E-1,-5.388180614E-1
2.580684475E1,-1.675254226E0,-1.339034081E0,-4.387932122E-1
2.582684475E1,-1.420994759E0,-1.232603908E0,-1.411098689E-1
2.584684475E1,-9.204342961E-1,-7.948927283E-1,1.020494029E-1
2.586684475E1,-3.606373966E-1,-3.912853599E-1,3.237236738E-1
2.588684475E1,1.831548512E-1,-4.897219241E-1,5.224643350E-1
2.590688694E1,5.903576016E-1,-6.532069445E-1,5.178741217E-1
2.592884475E1,4.376413226E-1,-8.902052045E-1,3.444756269E-1
2.594884475E1,-1.642529368E-1,-1.261297107E0,3.996803891E-3
2.596884475E1,-4.809254706E-1,-1.026009202E0,-3.886324763E-1
2.598884475E1,-1.313883811E-1,-7.773172855E-1,-7.219030857E-1
2.600884475E1,3.504970074E-1,-2.092475295E-1,-8.331503868E-1
2.602884475E1,1.429075599E-1,1.780235767E-2,-8.024674654E-1
2.604884475E1,5.499881506E-1,2.136806548E-1,-1.195498228E0
2.606884475E1,1.375633597E0,5.514193177E-1,-8.007745147E-1
2.608884475E1,-6.514441371E-1,1.377064824E0,1.344078034E-1
2.610884475E1,-7.904072404E-1,-1.900244713E0,-2.230356187E-1
2.612884475E1,6.910805702E-1,-2.158780336E0,3.932924867E-1
2.614884475E1,1.440123558E0,3.589618802E-1,1.211677432E0
2.616884475E1,1.639841557E0,3.077661276E0,1.564129114E0
2.618884475E1,2.334185839E0,3.160197735E0,1.057128429E0
2.620884475E1,2.555860043E0,2.063729763E0,1.349837631E-1
2.622884475E1,2.074795008E0,1.066274047E0,-1.417207345E-2
2.624884475E1,1.897487044E0,-5.519952774E-1,2.837556303E-1
2.626884475E1,1.603748083E0,-1.830309272E0,3.997153044E-1
2.628884475E1,1.318142414E0,-2.926393509E0,3.441963792E-1
2.630885412E1,1.197435498E0,-3.315968513E0,3.892433345E-1
2.633084788E1,1.366907001E0,-3.079633474E0,2.748195529E-1
2.635284475E1,1.642442107E0,-2.243027449E0,1.597848982E-1
2.637284475E1,1.641953349E0,-1.093815327E0,1.801354289E-1
2.639284475E1,1.538961530E0,7.782422751E-2,1.489114910E-1
2.641284475E1,1.398602128E0,9.512393475E-1,7.932521403E-2
2.643284475E1,1.212148666E0,1.528070688E0,9.215338528E-2
2.645284475E1,1.070776939E0,1.550567985E0,1.555437446E-1
2.647284631E1,1.336398602E0,8.308814168E-1,2.280098200E-1
2.649484475E1,1.921380639E0,-2.395464331E-1,3.605850339E-1
2.651484475E1,1.933650255E0,-3.004758954E-1,4.652873278E-1
2.653484475E1,1.414868593E0,5.373345017E-1,3.376514018E-1
2.655484475E1,5.807932019E-1,1.031646609E0,-2.110103145E-2
2.657484475E1,1.503775716E-1,5.801649094E-1,-1.838704348E-1
2.659484475E1,-6.037093699E-2,1.001295373E-1,-2.445729822E-1
2.661484475E1,-5.756444931E-1,3.200061023E-1,-3.187320232E-1
2.663484475E1,-1.513549566E0,1.050600886E0,-3.061482012E-1
2.665484475E1,-2.760848999E0,1.614045620E0,-2.360557765E-1
2.667484475E1,-2.973168373E0,1.252936959E0,-5.520825386E-1
2.669484631E1,-2.733464956E0,6.298893094E-1,-7.889412045E-1
2.671684475E1,-2.400717735E0,2.626371384E-1,-9.884497523E-1
2.673684475E1,-1.983758688E0,3.212453127E-1,-7.892902493E-1
2.675684475E1,-1.492989540E0,5.478239655E-1,-6.404660344E-1
2.677684475E1,-1.773481369E0,1.214190602E0,-9.720785618E-1
2.679684475E1,-2.038213015E0,1.387187719E0,-6.467142701E-1
2.681684475E1,-1.821495414E0,1.091319442E0,-2.898293734E-1
2.683684475E1,-1.437645197E0,8.630478382E-1,-3.731688559E-1
2.685684631E1,-1.158182979E0,1.027248383E0,-3.969925940E-1
2.687684631E1,-1.175653815E0,1.248556137E0,-2.896548510E-1
2.689884475E1,-1.295994282E0,4.528954923E-1,-1.493129134E-1
2.691884475E1,-1.488067746E0,-7.893949747E-1,9.318313003E-2
2.693884475E1,-1.649056911E0,-1.479463220E0,1.304459125E-1
2.695884475E1,-1.461940169E0,-1.275765896E0,1.251575649E-1
2.697884475E1,-9.985901117E-1,-7.227233648E-1,1.473755985E-1
2.699884475E1,-3.059736788E-1,-5.557826161E-1,1.799783558E-1
2.701884475E1,5.615247488E-1,-8.473224640E-1,3.287676573E-1
2.703884475E1,1.306832671E0,-1.132648826E0,4.804717004E-1
2.705884475E1,1.593555450E0,-1.352403283E0,4.942074418E-1
2.707884475E1,7.484146357E-1,-1.121269345E0,1.643925607E-1
2.709884475E1,-7.387804389E-1,-1.006915331E0,-4.641005099E-1
2.711884475E1,-8.406378031E-1,-4.294906259E-1,-8.981638551E-1
2.713884475E1,-4.485496320E-3,3.686309755E-1,-1.067548037E0
2.715884475E1,2.487966865E-1,-2.777342498E-1,-9.919404387E-1
2.717884475E1,-2.728473246E-1,-9.595994949E-1,-1.058175683E0
2.719884631E1,4.922526479E-1,-3.464653194E-1,-6.881135106E-1
2.722086663E1,-9.323548526E-2,7.907737494E-1,3.291341960E-1
2.724284631E1,-1.500267625E0,-3.789284229E-1,8.712683618E-2
2.726484475E1,6.762452722E-1,-2.718228102E0,5.999220014E-1
2.728484475E1,1.786361933E0,-1.405792952E0,1.007596016E0
2.730484475E1,2.143438816E0,5.660626292E-1,5.597620010E-1
2.732484475E1,2.341778040E0,1.559626222E0,-1.734857261E-2
2.734484631E1,1.870870829E0,2.757323503E0,7.014477998E-2
2.736684475E1,2.178519964E0,2.809334278E0,4.499284327E-1
2.738684475E1,2.769453526E0,1.176264644E0,5.083620548E-1
2.740684475E1,2.050849199E0,-1.828581393E-1,2.811550796E-1
2.742684475E1,1.345997930E0,-1.405792952E0,2.011142820E-1
2.744684475E1,1.154430628E0,-2.031423569E0,3.814068139E-1
2.746684475E1,1.186195612E0,-1.952412605E0,4.778711498E-1
2.748684475E1,1.271577120E0,-1.139141440E0,3.767991364E-1
2.750684475E1,1.244280100E0,2.014459074E-1,2.986083925E-1
2.752684475E1,1.060235143E0,1.244768858E0,2.613979578E-1
2.754684475E1,9.089325666E-1,1.470457315E0,2.054950595E-1
2.756684475E1,1.137727737E0,9.789551497E-1,2.018647790E-1
2.758684475E1,1.436580539E0,1.189790964E-1,2.629862130E-1
2.760684475E1,1.119925380E0,-1.648812592E-1,3.773576319E-1
2.762684475E1,7.513467669E-1,-6.709045917E-2,3.737273514E-1
2.764684475E1,6.605896950E-1,-3.677408770E-2,3.219957948E-1
2.766684475E1,6.128374338E-1,-6.133086979E-2,2.012015581E-1
2.768684475E1,6.947631836E-1,-1.101302728E-1,-6.934192777E-2
2.770684475E1,8.098851442E-1,4.342379048E-2,-2.168048024E-1
2.772684475E1,6.180559993E-1,6.540446877E-1,-1.604830176E-1
2.774684475E1,3.647738136E-3,1.305087447E0,-4.717624933E-2
2.776684475E1,-7.228280902E-1,1.304651022E0,-1.760862619E-1
2.778684475E1,-1.346713543E0,5.214869380E-1,-4.334001541E-1
2.780684475E1,-2.132355928E0,-1.967509687E-1,-4.805763960E-1
2.782684475E1,-3.323752642E0,3.839724511E-2,-2.624277174E-1
2.784684475E1,-3.244863749E0,-5.520476401E-2,-5.556255579E-1
2.786684631E1,-2.634417534E0,1.207244247E-1,-6.595424414E-1
2.788884475E1,-1.888341546E0,5.708099008E-1,-4.132415950E-1
2.790884475E1,-1.549346209E0,8.862607479E-1,-3.479488492E-1
2.792884475E1,-1.540829062E0,1.100587130E0,-5.065643787E-1
2.794884475E1,-1.507999420E0,1.282083988E0,-5.635668039E-1
2.796884475E1,-1.702097416E0,1.648061991E0,-6.079156399E-1
2.798884475E1,-1.489516377E0,1.428045869E0,-4.586201608E-1
2.801085569E1,-9.290038347E-1,6.356314421E-1,-4.888667166E-1
2.803284475E1,-5.340009332E-1,1.452288479E-1,-5.272814035E-1
2.805284788E1,-4.436277747E-1,-1.603433937E-1,-6.089628339E-1
2.807484475E1,-7.864453793E-1,-5.957157612E-1,-6.541668773E-1
2.809484475E1,-1.070881724E0,-7.611206174E-1,-5.127079487E-1
2.811484475E1,-9.719564319E-1,-1.033217430E0,-3.737971783E-1
2.813484475E1,-6.158394217E-1,-1.314826369E0,-2.524269819E-1
2.815484475E1,-1.434311569E-1,-1.189860702E0,-6.082472578E-2
2.817484475E1,3.386811316E-1,-7.043799758E-1,2.179567218E-1
2.819484475E1,8.000938296E-1,-4.873308241E-1,5.223072171E-1
2.821484475E1,1.116172910E0,-7.481877208E-1,7.963588238E-1
2.823484475E1,1.040408254E0,-8.946034312E-1,8.351400495E-1
2.825484475E1,6.488435864E-1,-8.657531142E-1,1.357517093E-1
2.827484475E1,-5.743878707E-2,-8.594000936E-1,-5.533391833E-1
2.829484475E1,-4.845732152E-1,-5.068959594E-1,-9.028762579E-1
2.831484475E1,-2.897770107E-1,-3.389429301E-2,-1.111460567E0
2.833484475E1,8.930850029E-2,-8.112115860E-1,-1.168724775E0
2.835484631E1,-2.462484986E-1,-1.561074853E0,-1.118214965E0
2.837484631E1,-4.079183638E-1,-1.558771014E0,-8.072322011E-1
2.839684475E1,6.352126002E-1,-1.309764862E0,2.384992391E-1
2.841684475E1,-7.109075189E-1,5.216439962E-1,6.461383104E-1
2.843684475E1,-4.550946057E-1,-1.746690631E0,2.494424582E-1
2.845684475E1,1.461573601E0,-2.136125803E0,9.253910184E-1
2.847684475E1,2.206113577E0,2.767044902E-1,1.423804641E0
2.849684475E1,2.034059048E0,1.668185711E0,8.023104072E-1
2.851684475E1,1.652599931E0,2.409426928E0,1.517912894E-1
2.853684475E1,1.317461729E0,3.153391123E0,1.205673441E-1
2.855684475E1,2.411277056E0,2.183075190E0,5.164952874E-1
2.857684475E1,2.174470901E0,1.102280140E0,4.698600769E-1
2.859684475E1,1.219391704E0,-2.327745557E-1,4.593706504E-2
2.861684475E1,8.339357376E-1,-1.481173635E0,9.353219718E-2
2.863684475E1,1.059746504E0,-2.057795525E0,3.338116705E-1
2.865684475E1,1.067408442E0,-1.689286709E0,2.462659627E-1
2.867685100E1,8.911825418E-1,-7.105584145E-1,9.590584040E-2
2.869884475E1,8.842186928E-1,6.640279889E-1,2.708750963E-2
2.871884475E1,8.339008689E-1,1.419755578E0,-2.848377265E-2
2.873884475E1,6.265382767E-1,1.499517083E0,-8.185594343E-3
2.875884475E1,5.391147733E-1,9.544856548E-1,1.489114910E-1
2.877884475E1,8.341103196E-1,-3.209660575E-2,2.836334705E-1
2.879884475E1,1.053951979E0,-8.010362983E-1,3.862413764E-1
2.881884475E1,1.067443371E0,-8.355065584E-1,4.859171212E-1
2.883884475E1,1.007456422E0,-5.518556833E-1,4.723210037E-1
2.885886038E1,9.863728285E-1,-3.044552207E-1,4.046545923E-1
2.888085100E1,1.060654044E0,6.981316837E-4,2.184977680E-1
2.890088694E1,1.166473389E0,5.150291920E-1,1.935570128E-2
2.892284475E1,8.700815439E-1,1.184153557E0,-3.310889751E-2
2.894284475E1,4.087386429E-1,1.551423192E0,5.412266031E-2
2.896284631E1,-1.205848008E-1,1.501803398E0,9.749408811E-2
2.898484475E1,-7.707199454E-1,8.537278175E-1,-1.759990007E-1
2.900484475E1,-1.154448032E0,2.820452154E-1,-4.599989653E-1
2.902484475E1,-1.646735549E0,4.101523664E-3,-6.605896950E-1
2.904484475E1,-2.547953844E0,2.746799290E-1,-5.409299135E-1
2.906484475E1,-3.378556013E0,6.852861047E-1,-3.361853063E-1
2.908484475E1,-2.973831654E0,5.429893732E-1,-7.533190250E-1
2.910484475E1,-2.218784809E0,5.645092726E-1,-7.245036364E-1
2.912484631E1,-1.703825355E0,9.250070453E-1,-2.833716571E-1
2.914684475E1,-1.662478447E0,1.390556216E0,-5.011014938E-1
2.916684475E1,-1.744421721E0,1.859997392E0,-7.111518383E-1
2.918684475E1,-1.664433241E0,1.871289611E0,-6.061877608E-1
2.920684475E1,-1.379037023E0,1.316222548E0,-3.929608762E-1
2.922684475E1,-1.000073671E0,5.475272536E-1,-3.633426428E-1
2.924684475E1,-7.277848125E-1,7.747516781E-2,-5.634620786E-1
2.926684475E1,-7.182378769E-1,-1.794023961E-1,-7.408398986E-1
2.928684475E1,-9.822887778E-1,-2.668084800E-1,-8.268671632E-1
2.930684475E1,-1.017631650E0,-8.570439219E-1,-8.249472976E-1
2.932684475E1,-8.104959726E-1,-1.486182809E0,-7.867944241E-1
2.934684475E1,-6.242868304E-1,-1.771526694E0,-6.249325871E-1
2.936684475E1,-3.945491314E-1,-1.634832501E0,-3.999072909E-1
2.938684475E1,-2.719222941E-2,-1.122107029E0,-1.306727976E-1
2.940684475E1,3.654893935E-1,-6.199584007E-1,1.371130645E-1
2.942684475E1,5.745449066E-1,-5.959252119E-1,3.134436905E-1
2.944684475E1,5.919807553E-1,-7.318863869E-1,4.486019611E-1
2.946684475E1,5.320985317E-1,-9.126501083E-1,4.686907232E-1
2.948684475E1,4.026998281E-1,-1.202950716E0,1.689129621E-1
2.950684475E1,1.338492930E-1,-1.307007313E0,-2.893756032E-1
2.952684475E1,4.670501128E-2,-7.352374196E-1,-7.314325571E-1
2.954684475E1,1.419825405E-1,-4.239928424E-1,-1.109540701E0
2.956684475E1,-6.006550789E-1,-4.420569837E-1,-1.509954095E0
2.958684475E1,-2.318320870E-1,-8.897688389E-1,-1.532521248E0
2.960684475E1,1.049641013E0,-1.469933748E0,-9.342224002E-1
2.962684475E1,1.551074147E0,-9.349379539E-1,-7.311184406E-1
2.964684475E1,-1.207994699E0,-1.236059666E0,9.313076735E-2
2.966684475E1,5.006302595E-1,-3.052877665E0,1.126540184E0
2.968684475E1,2.615026712E0,6.394188404E-1,2.116438627E0
2.970684475E1,2.364554644E0,3.011583090E0,1.818545818E0
2.972684475E1,1.240335703E0,4.181163311E0,3.650705218E-1
2.974684631E1,1.896911144E0,2.250671864E0,3.416656554E-1
2.976884475E1,2.289959192E0,-5.094615817E-1,4.824090004E-1
2.978884475E1,1.451974273E0,-3.713886142E-1,2.234894037E-1
2.980884475E1,1.258050799E0,-8.873777390E-1,3.110351264E-1
2.982884475E1,1.336171746E0,-1.686651230E0,3.892607689E-1
2.984884475E1,1.382737041E0,-2.038213015E0,2.809107304E-1
2.986884475E1,1.173157930E0,-1.567113638E0,2.633876503E-1
2.988885256E1,9.989042878E-1,-7.686604261E-1,2.311863154E-1
2.991084631E1,1.179964781E0,2.705260366E-2,2.231577933E-1
2.993084631E1,1.418062568E0,5.377882719E-1,2.756572962E-1
2.995284631E1,1.529728770E0,7.795338631E-1,3.145083189E-1
2.997284631E1,1.837884068E0,6.266779304E-1,3.972194791E-1
2.999484475E1,2.042489052E0,2.512401342E-1,5.301088691E-1
3.001484475E1,1.665305853E0,2.306976169E-1,6.359805465E-1
3.003484475E1,1.133888006E0,4.877147973E-1,4.545710087E-1
3.005484475E1,5.827130675E-1,7.677004933E-1,-2.008873969E-2
3.007484475E1,6.230825558E-2,6.631029248E-1,-3.848276436E-1
3.009484475E1,-7.263013124E-1,1.987580955E-1,-5.971818566E-1
3.011484475E1,-1.565141439E0,-2.857627571E-1,-7.423757911E-1
3.013484475E1,-1.981402516E0,-4.773126543E-1,-6.516361237E-1
3.015484475E1,-2.714720011E0,-1.624552459E-1,-3.540749550E-1
3.017484475E1,-4.070648670E0,7.630056143E-1,8.040732145E-2
3.019484475E1,-3.976575613E0,9.641373158E-1,-3.265161812E-1
3.021484475E1,-2.992157459E0,1.026201248E0,-7.516958714E-1
3.023484475E1,-2.205171108E0,1.211555243E0,-4.147949517E-1
3.025484475E1,-1.682270527E0,1.330499411E0,-3.109478652E-1
3.027484475E1,-2.241700888E0,1.664555430E0,-6.455798149E-1
3.029484475E1,-2.673268557E0,1.375371814E0,-5.952619910E-1
3.031484475E1,-2.090956688E0,8.489106894E-1,-1.847780049E-1
3.033484475E1,-1.378111959E0,1.167031884E0,-9.992010146E-2
3.035484475E1,-1.282520294E0,2.081636667E0,-4.062428474E-1
3.037484475E1,-1.452585220E0,1.168323398E0,-4.838052690E-1
3.039484475E1,-1.426719427E0,-5.315400362E-1,-4.210606813E-1
3.041484475E1,-1.248207092E0,-1.145791173E0,-5.598841906E-1
3.043484475E1,-8.561712503E-1,-1.511332989E0,-5.796064138E-1
3.045484475E1,-3.709697425E-1,-1.631184697E0,-2.923251987E-1
3.047484475E1,1.329068244E-1,-1.328980923E0,6.682865322E-2
3.049484475E1,8.362395763E-1,-1.141515136E0,3.236538470E-1
3.051484475E1,1.666981459E0,-1.219845533E0,5.512447953E-1
3.053484475E1,2.307377577E0,-1.394465685E0,6.874328256E-1
3.055484475E1,1.310899377E0,-1.348912597E0,5.430068374E-1
3.057484475E1,-4.495793581E-1,-1.195515633E0,-2.965489030E-1
3.059484475E1,-8.073718548E-1,-2.561619878E-1,-6.438694000E-1
3.061484475E1,-4.634547234E-1,6.221225858E-1,-8.073893189E-1
3.063484475E1,-4.564559460E-1,9.919229746E-1,-4.883605838E-1
3.065484475E1,-3.220481575E-1,6.846926808E-1,-1.778665036E-1
3.067484475E1,4.236612320E-1,-4.226663709E-1,8.206538111E-2
3.069484475E1,2.703689635E-1,-1.263443828E0,2.807362080E-1
3.071484475E1,-3.453134000E-1,-7.015699744E-1,6.305001974E-1
3.073484475E1,8.403760195E-1,2.327047437E-1,1.023757815E0
3.075484475E1,2.188555717E0,8.193971515E-1,5.591336489E-1
3.077484475E1,2.494040489E0,1.929897785E0,-1.864709705E-1
3.079484475E1,2.372251511E0,3.632833004E0,9.243264049E-2
3.081484475E1,2.947250128E0,2.009781599E0,4.724606276E-1
3.083484475E1,2.077238560E0,9.857619554E-2,2.284286916E-1
3.085484475E1,1.321057200E0,-1.640696764E0,2.399304062E-1
3.087484475E1,1.116068244E0,-2.854468584E0,4.795117676E-1
3.089484475E1,1.047913074E0,-3.199572563E0,6.055768728E-1
3.091484475E1,1.197679877E0,-2.467930555E0,5.277352333E-1
3.093484475E1,1.349017382E0,-8.603426218E-1,3.750537932E-1
3.095484475E1,1.356784105E0,8.064293861E-1,2.720619142E-1
3.097484475E1,1.294720173E0,1.651430488E0,1.537635028E-1
3.099484475E1,1.207383871E0,1.545227289E0,1.325054020E-1
3.101484475E1,1.373835921E0,7.667231560E-1,2.201558352E-1
3.103484475E1,1.687087655E0,-1.889493465E-1,3.322932422E-1
3.105484475E1,1.498138309E0,-4.108155966E-1,4.532271028E-1
3.107484631E1,1.068839669E0,-8.115780540E-3,4.967207015E-1
3.109684475E1,7.078008056E-1,3.974638283E-1,2.823593616E-1
3.111684475E1,4.546059072E-1,4.949230254E-1,5.504768342E-2
3.113684475E1,2.590941191E-1,4.605923891E-1,-8.290313929E-2
3.115684475E1,-5.127777159E-2,4.409748912E-1,-2.241526395E-1
3.117684475E1,-7.180982828E-1,6.126629114E-1,-4.775046408E-1
3.119684475E1,-1.525400281E0,9.306968451E-1,-5.505990386E-1
3.121684475E1,-2.715069056E0,1.156402826E0,-3.426430523E-1
3.123684475E1,-3.648977280E0,1.009760261E0,-1.983392090E-1
3.125684475E1,-3.563159466E0,4.918686748E-1,-4.732111096E-1
3.127684475E1,-3.004357338E0,1.587726027E-1,-5.861688256E-1
3.129684475E1,-2.305143595E0,9.592329711E-2,-4.005181491E-1
3.131684475E1,-1.990460753E0,7.468089461E-1,-3.704112172E-1
3.133684475E1,-2.115915060E0,1.960406184E0,-3.750363588E-1
3.135684475E1,-2.276171207E0,2.719380140E0,-2.563888729E-1
3.137684631E1,-2.013883114E0,2.327047586E0,-1.631010175E-1
3.139884475E1,-1.494717479E0,1.008468747E0,-1.339365691E-1
3.141884475E1,-1.234052539E0,-6.201154739E-2,-2.102598101E-1
3.143884475E1,-1.304005265E0,-3.427128494E-1,-5.902878046E-1
3.145884475E1,-1.236583233E0,-3.338989317E-1,-7.978597879E-1
3.147884475E1,-9.145525098E-1,-3.002140820E-1,-9.718865752E-1
3.149884475E1,-5.568298697E-1,-5.663942695E-1,-1.060270071E0
3.151884475E1,-2.394940853E-1,-1.055697322E0,-9.579588771E-1
3.153884475E1,3.185226023E-2,-1.131898403E0,-7.221648693E-1
3.155884475E1,4.182507098E-1,-9.048485160E-1,-4.402942061E-1
3.157884475E1,9.655684829E-1,-7.169812322E-1,-1.102175415E-1
3.159884475E1,1.493705153E0,-6.896319389E-1,2.328967303E-1
3.161884475E1,1.745625973E0,-6.946933866E-1,5.670400262E-1
3.163884475E1,1.627851129E0,-7.870911360E-1,9.497557878E-1
3.165884475E1,1.354829311E0,-1.030913591E0,8.220849633E-1
3.167884475E1,3.378433883E-1,-7.165972590E-1,-2.162288427E-1
3.169884475E1,-1.127866626E0,-6.681295037E-1,-6.324025989E-1
3.171884475E1,-1.286883593E0,-6.645340919E-1,-8.137074113E-1
3.173884475E1,-5.649631023E-1,-6.256307364E-1,-1.158305168E0
3.175884475E1,5.425530672E-1,-9.304699302E-1,-9.391441941E-1
3.177884475E1,4.110948443E-1,-7.489033341E-1,-7.128797174E-1
3.179884475E1,8.623846173E-1,-1.330604076E0,-4.782900214E-1
3.181884475E1,-1.801354289E-1,7.971093059E-1,6.867870688E-2
3.183884475E1,-2.123297691E0,1.829698443E0,4.170289636E-1
3.185884475E1,1.284213215E-1,-3.613337755E0,5.132838488E-1
3.187884475E1,1.632598400E0,-2.847434759E0,9.223541617E-1
3.189884475E1,2.163091183E0,2.610838115E-1,9.833185077E-1
3.191884475E1,2.133996725E0,1.989326239E0,3.649483323E-1
3.193884475E1,2.259450912E0,2.439656019E0,3.916518763E-2
3.195884631E1,1.906754732E0,2.922222137E0,6.843435764E-2
3.198084475E1,2.245296240E0,2.583541155E0,3.547556102E-1
3.200085100E1,2.593105555E0,7.740535140E-1,4.726002514E-1
3.202086194E1,1.749186397E0,-5.800077915E-1,1.168672442E-1
3.204284631E1,1.137256503E0,-1.484786510E0,4.373795167E-2
3.206484475E1,1.269395471E0,-1.662164330E0,1.938013583E-1
3.208484631E1,1.353275895E0,-1.134324431E0,1.606226563E-1
3.210684475E1,1.190977812E0,-5.235987483E-4,1.838878840E-1
3.212684475E1,1.076693654E0,1.246304750E0,2.721142769E-1
3.214684475E1,1.054842114E0,2.049313307E0,2.800729871E-1
3.216684475E1,9.562309980E-1,1.972623467E0,1.895078421E-1
3.218684475E1,9.697398543E-1,1.062242270E0,1.781283021E-1
3.220684475E1,1.032693863E0,-2.149372995E-1,2.836160064E-1
3.222684475E1,1.062329531E0,-8.357683420E-1,4.124387503E-1
3.224684475E1,9.557946324E-1,-4.494048357E-1,4.530874789E-1
3.226684475E1,6.647610068E-1,1.077740788E-1,2.410125136E-1
3.228684475E1,6.440090537E-1,2.313433886E-1,-9.923942387E-2
3.230684475E1,6.219480634E-1,1.324006766E-1,-1.650383323E-1
3.232684475E1,5.029340982E-1,1.887748092E-1,-1.350361258E-1
3.234684475E1,2.469466329E-1,5.457644463E-1,-1.268679798E-1
3.236684475E1,-2.439097613E-1,1.060427189E0,-1.290670931E-1
3.238684631E1,-1.177189708E0,1.521054387E0,-1.245292425E-1
3.240884475E1,-3.112271070E0,2.035909176E0,-5.749114603E-2
3.242884475E1,-3.577157021E0,1.089853406E0,-2.772280872E-1
3.244884475E1,-3.351224184E0,-9.347983450E-2,-4.861963689E-1
3.246884475E1,-2.912535667E0,-7.201926708E-1,-4.844684899E-1
3.248885881E1,-2.342371464E0,-8.480031490E-1,-4.051258266E-1
3.251084475E1,-1.914521456E0,-6.357012987E-1,-5.514018536E-1
3.253084475E1,-1.703982353E0,-1.561546028E-1,-8.506734967E-1
3.255084475E1,-1.560586095E0,5.918062329E-1,-1.087898612E0
3.257084631E1,-1.635687709E0,1.978313208E0,-1.085123539E0
3.259084631E1,-1.290199757E0,2.641171932E0,-6.012310386E-1
3.261085100E1,-4.403989315E-1,1.799486756E0,-5.457121134E-1
3.263284475E1,-1.884955540E-2,8.662068844E-2,-1.008905053E0
3.265284631E1,-3.535687923E-1,-9.246580005E-1,-1.149700761E0
3.267484631E1,-9.773145914E-1,-1.572489262E0,-9.802117944E-1
3.269684475E1,-1.351705194E0,-1.714454412E0,-6.589664817E-1
3.271684475E1,-1.284981251E0,-1.713407159E0,-3.703239560E-1
3.273684475E1,-7.391818166E-1,-1.702987552E0,-2.595129907E-1
3.275684475E1,-7.567747682E-2,-1.285696745E0,-3.995058686E-2
3.277684475E1,4.518482983E-1,-9.583777189E-1,3.684389889E-1
3.279684475E1,8.110719323E-1,-1.025625229E0,6.843435764E-1
3.281684475E1,9.839119315E-1,-1.099138498E0,9.679770470E-1
3.283684475E1,9.286198616E-1,-7.468612790E-1,1.204905510E0
3.285684475E1,8.075813055E-1,-6.943618059E-1,9.475218058E-1
3.287684475E1,5.649805069E-1,-5.634446144E-1,9.808750823E-3
3.289684475E1,-3.232524395E-1,1.010545641E-1,-7.796036601E-1
3.291684475E1,-5.992239118E-1,-2.008350343E-1,-1.280268788E0
3.293684475E1,4.365068302E-2,-1.166822433E0,-1.458798528E0
3.295684475E1,3.871663809E-1,-9.065589309E-1,-1.320027471E0
3.297684475E1,2.188817412E-1,-6.066589952E-1,-7.126004696E-1
3.299684475E1,-9.920451790E-2,-1.908342987E-1,6.056292355E-2
3.301684475E1,-1.858077526E0,2.080659389E0,-4.071678519E-1
3.303684475E1,-4.937012792E-1,-3.414370060E0,-1.463807672E-1
3.305684475E1,5.099502802E-1,-1.599873543E0,9.088453054E-1
3.307684475E1,1.602805614E0,6.300464272E-1,1.382440448E0
3.309684475E1,1.842875719E0,9.404881001E-1,6.448293328E-1
3.311684475E1,1.897958279E0,-3.335324228E-1,1.420698036E-2
3.313684475E1,1.760757923E0,-1.329766393E0,3.391698301E-1
3.315684475E1,6.419320703E-1,1.592961997E-1,5.499358177E-1
3.317684475E1,1.740791440E0,-1.609193534E-2,2.864608765E-1
3.319684475E1,2.199027538E0,-9.503841400E-1,1.109854877E-1
3.321684475E1,1.656928301E0,-1.422460794E0,8.136724681E-2
3.323684475E1,1.447960019E0,-1.570866108E0,1.571494490E-1
3.325684475E1,1.665253520E0,-1.279605627E0,1.251750141E-1
3.327684475E1,1.450298786E0,-5.521174669E-1,1.214749143E-1
3.329684475E1,1.185829043E0,2.095442265E-1,1.425585002E-1
3.331684475E1,1.141951442E0,8.520174026E-1,2.256012559E-1
3.333884475E1,1.123695374E0,1.144639254E0,2.392497361E-1
3.335884475E1,1.002761483E0,8.465719223E-1,2.901086211E-1
3.337884631E1,1.272729039E0,1.793500334E-1,3.589967787E-1
3.340084475E1,1.603067517E0,-3.254340887E-1,4.466122985E-1
3.342086975E1,1.468886495E0,-6.658431143E-2,4.884129465E-1
3.344284475E1,1.000789285E0,4.648684561E-1,4.031884968E-1
3.346284475E1,6.277425885E-1,3.938335478E-1,2.059313953E-1
3.348284475E1,4.774522781E-1,-2.832494974E-1,2.740166849E-3
3.350284475E1,4.301189482E-1,-8.403585553E-1,-1.927890629E-1
3.352284475E1,2.942624986E-1,-5.399525166E-1,-3.054675162E-1
3.354284631E1,-3.111049235E-1,4.291590154E-1,-3.092897832E-1
3.356484475E1,-1.359611511E0,1.339767098E0,-3.962770104E-1
3.358484475E1,-2.740900040E0,1.609734654E0,-4.448320568E-1
3.360484475E1,-3.919922113E0,1.231713772E0,-3.599741459E-1
3.362484475E1,-3.536770105E0,-4.103269055E-2,-6.357187033E-1
3.364484631E1,-2.933392286E0,-6.676931381E-1,-6.601009965E-1
3.366684475E1,-2.444769859E0,-5.001240969E-1,-3.956835866E-1
3.368684475E1,-2.227144718E0,6.028017998E-1,-4.660901725E-1
3.370684475E1,-2.176722288E0,1.962936878E0,-7.427597642E-1
3.372684475E1,-2.146493196E0,2.705679178E0,-7.683986425E-1
3.374684475E1,-2.042087555E0,2.239292383E0,-5.986130238E-1
3.376684475E1,-1.539485097E0,1.024333715E0,-4.355818331E-1
3.378684475E1,-1.210944295E0,5.621181726E-1,-3.855955899E-1
3.380684475E1,-1.249812841E0,5.104564428E-1,-4.502076805E-1
3.382684475E1,-1.335421205E0,3.544589281E-1,-4.398229718E-1
3.384684475E1,-1.257108331E0,-3.514220417E-1,-4.197516739E-1
3.386684475E1,-1.152179122E0,-1.056831717E0,-4.185473919E-1
3.388684475E1,-8.769057989E-1,-1.523288488E0,-3.026400805E-1
3.390684475E1,-3.635171652E-1,-1.536221385E0,-1.222079545E-1
3.392684475E1,1.890540570E-1,-1.197191119E0,7.470009476E-2
3.394684475E1,7.308217287E-1,-1.110064268E0,2.834589183E-1
3.396684475E1,1.253041625E0,-1.311143637E0,5.564458966E-1
3.398684475E1,1.678186417E0,-1.785489321E0,7.138920426E-1
3.400684475E1,1.446843028E0,-2.003236532E0,4.699997008E-1
3.402684475E1,4.797910154E-2,-2.142670870E0,-2.139250040E-1
3.404684944E1,-1.435952187E0,-1.135581017E0,-5.638984442E-1
3.406884631E1,-1.313395143E0,1.254717261E-1,-8.035321236E-1
3.409084631E1,4.295604229E-1,1.758401752E0,-8.594350219E-1
3.411284475E1,9.451307058E-1,1.279239058E0,-8.137074113E-1
3.413284475E1,-1.031664088E-1,1.342507303E-1,-8.728391528E-1
3.415284475E1,4.358610809E-1,-7.972314954E-1,-8.566250205E-1
3.417284631E1,-1.334496140E0,9.901252985E-1,-3.238807619E-1
3.419484475E1,-1.568091035E0,-2.026781082E0,2.294409871E-1
3.421484475E1,2.922553718E-1,-2.853875160E0,5.551019907E-1
3.423484475E1,2.092894077E0,-5.592907667E-1,9.638580680E-1
3.425484475E1,2.625743151E0,1.763288736E0,7.531270385E-1
3.427484475E1,2.156895399E0,2.756572962E0,-3.170914054E-1
3.429484475E1,1.179615736E0,3.111799955E0,-4.176049232E-1
3.431484475E1,1.102856040E0,2.284112453E0,3.463082314E-1
3.433484475E1,2.111743689E0,-4.206767082E-1,5.088158250E-1
3.435484631E1,1.466879368E0,-1.679251075E0,2.571218908E-1
3.437684475E1,1.159928322E0,-2.872009039E0,2.560397983E-1
3.439684475E1,1.188028216E0,-3.247935534E0,3.748792708E-1
3.441684475E1,1.348877668E0,-2.899951696E0,3.163060248E-1
3.443684475E1,1.578318715E0,-1.855895877E0,1.093797833E-1
3.445684475E1,1.676126957E0,-5.825908780E-1,4.265584797E-2
3.447684475E1,1.652355552E0,6.564183235E-1,1.116138026E-1
3.449684475E1,1.489010215E0,1.379124284E0,1.432566196E-1
3.451684475E1,1.439373016E0,1.656998158E0,1.626821458E-1
3.453684475E1,1.462289214E0,1.428168058E0,1.554390192E-1
3.455684475E1,1.474419236E0,6.919707060E-1,1.754579544E-1
3.457684475E1,1.548002362E0,-7.833037525E-2,2.311339527E-1
3.459684475E1,1.382248402E0,-2.575756907E-1,3.143861592E-1
3.461684475E1,9.359677434E-1,1.905026883E-1,4.427551329E-1
3.463684475E1,6.427174807E-1,4.201007485E-1,3.209834993E-1
3.465684475E1,6.672568321E-1,1.646892726E-1,9.595820308E-2
3.467684475E1,6.867696047E-1,4.134684801E-2,-6.283185631E-2
3.469684475E1,5.192005634E-1,2.683094740E-1,-2.502802014E-1
3.471684475E1,2.151990868E-2,7.119721770E-1,-3.493625522E-1
3.473684475E1,-9.672265649E-1,1.204207420E0,-2.621135414E-1
3.475684475E1,-2.449028492E0,1.475134850E0,-1.618094742E-1
3.477684475E1,-3.262369394E0,8.613898158E-1,-3.804294169E-1
3.479684475E1,-3.077032804E0,1.426632106E-1,-5.490456820E-1
3.481684475E1,-2.613665342E0,-1.502902955E-1,-6.493497491E-1
3.483684475E1,-2.213025093E0,-1.272868663E-1,-6.867172718E-1
3.485684631E1,-1.856262326E0,2.628465928E-2,-4.910658300E-1
3.487884475E1,-1.948642612E0,1.190768361E0,-7.904945016E-1
3.489884475E1,-1.910332680E0,2.351708889E0,-8.027118444E-1
3.491884475E1,-1.680560112E0,2.530465603E0,-4.284259677E-1
3.493884475E1,-1.399998426E0,1.687506437E0,-3.148748577E-1
3.495884475E1,-1.116155505E0,5.739166141E-1,-4.596673548E-1
3.497884475E1,-1.023548365E0,3.747221828E-1,-3.513347805E-1
3.499884475E1,-8.966978192E-1,4.085466564E-1,-1.498016119E-1
3.501884475E1,-8.392066360E-1,-2.790781558E-1,-1.912880875E-2
3.503884475E1,-1.033130169E0,-8.315795660E-1,-1.308996975E-2
3.505884631E1,-1.182809591E0,-1.190960288E0,2.535963431E-2
3.508084475E1,-9.099448323E-1,-1.596958756E0,1.489638537E-1
3.510084475E1,-4.033455849E-1,-1.720353603E0,2.217266262E-1
3.512087756E1,1.729097664E-1,-1.612352610E0,3.416481912E-1
3.514284475E1,7.866199017E-1,-1.603591084E0,4.154058099E-1
3.516284475E1,1.221992254E0,-1.727125406E0,2.725331485E-1
3.518284475E1,1.143766642E0,-1.398514867E0,9.749408811E-2
3.520284631E1,4.012162983E-1,-7.927634716E-1,-2.295282483E-1
3.522484475E1,-7.094763517E-1,-7.945436835E-1,-3.411944211E-1
3.524484475E1,-8.326267600E-1,-7.192327380E-1,-6.265906692E-1
3.526484475E1,-2.434734255E-1,9.182177484E-2,-7.942818999E-1
3.528484475E1,2.746450007E-1,2.827782333E-1,-8.734849095E-1
3.530484475E1,-3.198141456E-1,-1.693492979E-1,-9.385159016E-1
3.532484475E1,-5.307371616E-1,-7.738789916E-2,-6.165724397E-1
3.534484631E1,1.488940418E-1,-3.950901926E-1,-1.432042718E-1
3.536684475E1,-4.036771953E-1,-6.827728152E-1,-2.759016454E-1
3.538684475E1,3.964864314E-1,-2.061007023E0,-5.881759338E-3
3.540684475E1,2.024337530E0,-1.401865959E0,1.038366199E0
3.542684475E1,2.261981726E0,-1.568701863E-1,6.854256988E-1
3.544684475E1,1.943092465E0,-1.419650763E-1,-1.138478294E-1
3.546684475E1,1.576782823E0,-2.261772156E-1,-3.609341010E-2
3.548684475E1,4.151265621E-1,1.389543891E0,1.685987972E-2
3.550684475E1,2.079542398E0,8.564330637E-2,3.824889064E-1
3.552684475E1,2.156825542E0,-8.112813830E-1,3.024830222E-1
3.554684475E1,1.516446710E0,-1.228188157E0,2.115339041E-2
3.556684475E1,1.275504112E0,-1.306728005E0,5.316272750E-2
3.558684475E1,1.407189131E0,-1.231242537E0,7.356562465E-2
3.560684475E1,1.321022272E0,-8.258374333E-1,2.094395086E-2
3.562684475E1,1.196178794E0,-1.037249193E-1,4.848524556E-2
3.564684475E1,1.126260996E0,8.735373020E-1,2.115688175E-1
3.566684475E1,9.109746218E-1,1.349715471E0,2.032086849E-1
3.568684475E1,6.733480096E-1,1.123311400E0,1.233424172E-1
3.570684475E1,8.463625312E-1,3.770609200E-1,1.638166010E-1
3.572684475E1,1.179964781E0,-5.483824611E-1,2.068564296E-1
3.574684475E1,1.325507760E0,-9.192125797E-1,2.427752912E-1
3.576684475E1,1.370223045E0,-5.200033784E-1,3.000046313E-1
3.578684475E1,1.255572438E0,2.544166446E-1,3.910759389E-1
3.580684475E1,1.042171001E0,9.070650339E-1,4.025602043E-1
3.582684475E1,7.092494369E-1,1.057564855E0,1.548106968E-1
3.584684475E1,4.029616117E-1,6.735399961E-1,-1.525766850E-1
3.586684475E1,4.382521659E-2,2.694962919E-1,-3.096563220E-1
3.588688850E1,-5.855928659E-1,2.107659578E-1,-4.296127856E-1
3.590884475E1,-1.232568979E0,4.078660011E-1,-4.605051279E-1
3.592884475E1,-2.161450624E0,5.218359828E-1,-4.074122012E-1
3.594884475E1,-3.609567881E0,7.376633883E-1,-1.462760419E-1
3.596884475E1,-3.613564491E0,2.052507252E-1,-3.520852625E-1
3.598884475E1,-2.993798256E0,-1.113345549E-1,-6.182654500E-1
3.600884475E1,-2.351255178E0,-3.923500329E-2,-5.559746027E-1
3.602884475E1,-1.898289919E0,4.850095510E-1,-4.469613731E-1
3.604884475E1,-1.853417516E0,1.331651330E0,-7.050606608E-1
3.606884631E1,-2.058598280E0,2.284513712E0,-8.899782896E-1
3.608884788E1,-2.225992918E0,2.538982868E0,-6.607292891E-1
3.611085100E1,-1.698170424E0,1.364690423E0,-4.140270054E-1
3.613284475E1,-1.022989869E0,3.169867098E-1,-4.256857932E-1
3.615284475E1,-7.131066322E-1,2.018996924E-1,-4.950800836E-1
3.617284475E1,-6.725975275E-1,2.393893600E-1,-5.339660048E-1
3.619284475E1,-8.620006442E-1,-3.278600872E-1,-4.942597747E-1
3.621284475E1,-1.015903831E0,-1.056482673E0,-4.639259577E-1
3.623284475E1,-8.245109916E-1,-1.450438380E0,-3.718249500E-1
3.625284475E1,-3.718947470E-1,-1.509395599E0,-1.673945338E-1
3.627284475E1,9.587093443E-2,-1.286325097E0,7.936012000E-2
3.629284475E1,5.600237846E-1,-1.016776443E0,2.869146764E-1
3.631284475E1,1.082383394E0,-1.066256523E0,6.541668773E-1
3.633284475E1,1.493076801E0,-1.302678823E0,1.090918064E0
3.635284475E1,1.483198285E0,-1.188063025E0,7.430390120E-1
3.637284475E1,5.748416185E-1,-1.035521269E0,-2.393719107E-1
3.639284475E1,-9.062622190E-1,-1.211555243E0,-4.831420481E-1
3.641284475E1,-1.344304919E0,-4.419871867E-1,-7.417649031E-1
3.643284475E1,-5.703561306E-1,6.180734634E-1,-9.228777289E-1
3.645284631E1,3.918787837E-1,-7.108726352E-2,-1.023146868E0
3.647484475E1,1.137431040E-1,-6.936985850E-1,-1.242691875E0
3.649484475E1,1.058699250E0,-1.220229506E0,-8.022754788E-1
3.651484475E1,8.978846073E-1,-3.038967252E-1,5.995205790E-2
3.653484475E1,-3.508652925E0,2.958333015E0,4.170638621E-1
3.655484475E1,-4.706454873E-1,-4.114980221E0,4.265933633E-1
3.657484475E1,1.551964164E0,-3.249192238E0,6.292610168E-1
3.659484475E1,2.285456181E0,-7.459886074E-1,3.704112172E-1
3.661484475E1,2.135794401E0,9.677501321E-1,7.339109480E-2
3.663484631E1,1.821128845E0,1.404414058E0,2.733185515E-2
3.665684475E1,1.374027848E0,1.388007998E0,9.761626273E-2
3.667684475E1,1.053794861E0,1.521194100E0,2.695660889E-1
3.669684475E1,2.112459183E0,-3.659606278E-1,4.946612120E-1
3.671684475E1,1.753445029E0,-1.283026457E0,3.418401778E-1
3.673684475E1,1.402703643E0,-1.688832879E0,1.444958150E-1
3.675684475E1,1.506690383E0,-1.674154758E0,2.053379864E-1
3.677684475E1,1.528943300E0,-1.062050343E0,1.719149351E-1
3.679684475E1,1.302417040E0,-1.285609454E-1,3.223622963E-2
3.681684475E1,1.122543454E0,8.603251576E-1,7.616616786E-2
3.683684475E1,1.030896187E0,1.347952724E0,1.144237816E-1
3.685684631E1,9.773319960E-1,1.124428391E0,1.158549562E-1
3.687684631E1,1.020144939E0,4.432438016E-1,1.827359647E-1
3.689884475E1,1.073133111E0,-3.641803861E-1,2.866179645E-1
3.691884475E1,1.058228016E0,-6.671171784E-1,3.888069987E-1
3.693884475E1,1.062050343E0,-4.509057999E-1,4.502425790E-1
3.695884475E1,9.236456752E-1,-5.068436265E-2,3.491531014E-1
3.697884475E1,7.177491784E-1,2.380629033E-1,1.403593719E-1
3.699884475E1,6.451784372E-1,1.498888731E-1,-1.169545129E-1
3.701884475E1,6.199933290E-1,-1.977458037E-2,-2.552020550E-1
3.703884475E1,4.727922380E-1,2.024756521E-1,-2.357939780E-1
3.705884475E1,1.287354827E-1,7.686778903E-1,-1.681275666E-1
3.707884475E1,-3.540749550E-1,1.238904476E0,-1.178446338E-1
3.709884475E1,-1.015031099E0,1.210612774E0,-2.511703372E-1
3.711884475E1,-2.187735319E0,1.183961511E0,-3.763802648E-1
3.713884475E1,-3.587471962E0,1.233179808E0,-2.590766847E-1
3.715884475E1,-3.531359673E0,2.918016016E-1,-4.719544947E-1
3.717884475E1,-2.935992956E0,-2.357939780E-1,-5.238256454E-1
3.719884475E1,-2.283379316E0,-6.623524427E-2,-4.624947906E-1
3.721884475E1,-1.836086392E0,5.285729766E-1,-3.497116268E-1
3.723884475E1,-1.818650484E0,1.343275189E0,-6.474822164E-1
3.725884788E1,-2.037794113E0,2.426478863E0,-8.977450132E-1
3.728085100E1,-1.908901453E0,2.753571033E0,-6.904348135E-1
3.730284475E1,-1.181273699E0,1.560813069E0,-3.849672675E-1
3.732284631E1,-7.336491346E-1,5.986304879E-1,-3.597472608E-1
3.734484631E1,-5.452234149E-1,2.129825205E-1,-6.741683483E-1
3.736684475E1,-6.280567050E-1,-1.503426582E-1,-8.435350657E-1
3.738684475E1,-8.170235157E-1,-8.937307596E-1,-8.356287479E-1
3.740684475E1,-8.624718785E-1,-1.561092257E0,-7.375063300E-1
3.742684475E1,-7.096508741E-1,-1.947386026E0,-5.200732350E-1
3.744684475E1,-4.643448591E-1,-1.828564048E0,-2.590592206E-1
3.746684475E1,-7.847000659E-2,-1.207558393E0,-4.225442186E-2
3.748684475E1,4.933522046E-1,-7.249399424E-1,2.402445674E-1
3.750684475E1,1.004018068E0,-5.772676468E-1,6.609387398E-1
3.752684475E1,1.147169948E0,-6.056467295E-1,1.048715949E0
3.754684475E1,9.865648150E-1,-7.067187428E-1,1.154221177E0
3.756684475E1,6.069731712E-1,-1.020476580E0,3.051533699E-1
3.758684475E1,-1.626472324E-1,-1.401743770E0,-5.329537392E-1
3.760684475E1,-5.265658498E-1,-2.038020939E-1,-9.246230721E-1
3.762684475E1,-2.731789351E-1,5.071752071E-1,-1.148740768E0
3.764684475E1,4.500680566E-1,-1.126924157E0,-1.134760737E0
3.766684475E1,6.128200293E-1,-1.820884585E0,-1.075297356E0
3.768684475E1,3.469539881E-1,-1.213667035E0,-5.351877809E-1
3.770684475E1,3.939906359E-1,1.681101173E-1,9.985028952E-2
3.772684475E1,-1.575334191E0,1.947665215E0,2.212553918E-1
3.774684475E1,-4.289495647E-1,-3.120282173E0,2.993239760E-1
3.776684475E1,1.269744515E0,-3.508425951E0,9.089674950E-1
3.778684475E1,2.604781628E0,-7.933743000E-1,1.407416105E0
3.780684475E1,2.430335999E0,1.554145932E0,8.371471763E-1
3.782684475E1,1.893507719E0,2.337519407E0,1.691573113E-1
3.784684475E1,1.527704120E0,2.580835819E0,1.277057379E-1
3.786684475E1,1.348179579E0,3.307782888E0,3.059387505E-1
3.788684475E1,2.714353561E0,1.694889188E0,6.412514448E-1
3.790684475E1,1.776500821E0,1.623156248E-3,2.076592743E-1
3.792684475E1,6.616194248E-1,-1.265311360E0,-1.352630183E-2
3.794684475E1,6.324025989E-1,-1.905986786E0,2.768441141E-1
3.796684475E1,1.123258948E0,-1.902199388E0,2.770710289E-1
3.798684475E1,1.073010921E0,-1.145861030E0,1.799434423E-1
3.800684475E1,9.351124763E-1,-4.237659276E-2,1.603259444E-1
3.802684475E1,9.366309643E-1,6.253340244E-1,1.203229949E-1
3.804684475E1,1.013617396E0,6.991788745E-1,1.716007739E-1
3.806684475E1,1.037702918E0,3.117681742E-1,2.700024247E-1
3.808684475E1,1.053184032E0,-2.540152073E-1,3.748443723E-1
3.810684475E1,1.295418262E0,-7.021633983E-1,3.716154993E-1
3.812684475E1,1.361531377E0,-5.697801709E-1,3.905174136E-1
3.814684475E1,1.046621561E0,5.579817668E-2,4.254065454E-1
3.816684475E1,7.721336484E-1,4.682543874E-1,2.063153684E-1
3.818684475E1,6.367310286E-1,3.813369870E-1,-6.063273922E-2
3.820684475E1,4.199436605E-1,-7.223917544E-2,-2.802824378E-1
3.822684475E1,2.273116857E-1,-2.201383710E-1,-3.323106766E-1
3.824684475E1,-1.028871611E-1,1.745154709E-1,-2.919761240E-1
3.826684475E1,-6.372545958E-1,7.872481942E-1,-3.600439727E-1
3.828684475E1,-1.291351676E0,1.114480019E0,-4.633849263E-1
3.830684475E1,-2.414191723E0,1.313133359E0,-4.542219341E-1
3.832684475E1,-3.738408089E0,1.381934285E0,-2.737897933E-1
3.834684475E1,-3.542110682E0,4.281641841E-1,-6.059783101E-1
3.836684475E1,-2.874871492E0,-4.279547185E-2,-7.235437036E-1
3.838684475E1,-2.259363651E0,2.134363204E-1,-5.433210135E-1
3.840684475E1,-2.033954382E0,1.171936274E0,-5.098804832E-1
3.842684475E1,-2.210965633E0,2.269660950E0,-6.754423976E-1
3.844684475E1,-2.246884584E0,2.776417494E0,-6.139544845E-1
3.846684475E1,-1.998489261E0,2.226429224E0,-4.055272639E-1
3.848684475E1,-1.432618618E0,1.057582259E0,-2.709099948E-1
3.850684475E1,-1.085228324E0,4.468566477E-1,-3.457846344E-1
3.852684475E1,-1.218623757E0,2.687632442E-1,-4.692492187E-1
3.854684475E1,-1.483564734E0,-5.155702680E-2,-4.355469048E-1
3.856684475E1,-1.614883304E0,-8.185419440E-1,-4.078660011E-1
3.858684475E1,-1.369908929E0,-1.126854420E0,-4.265933633E-1
3.860684475E1,-8.043698668E-1,-1.412948728E0,-3.112794757E-1
3.862684475E1,-1.980948746E-1,-1.359279871E0,-1.282118857E-1
3.864684475E1,4.297175109E-1,-1.018521786E0,3.108431399E-2
3.866684475E1,1.087270260E0,-8.413534164E-1,2.629862130E-1
3.868684475E1,1.661728024E0,-8.396604657E-1,6.024702191E-1
3.870684475E1,1.947298765E0,-1.013547659E0,9.897936583E-1
3.872684475E1,1.209897161E0,-1.459653735E0,8.103389144E-1
3.874684475E1,-7.962191850E-2,-2.010305166E0,-3.470587134E-1
3.876684475E1,-1.459007978E0,-1.560568690E0,-6.388603449E-1
3.878684475E1,-9.621651173E-1,-2.325825691E-1,-7.478212118E-1
3.880684475E1,1.089609042E-1,1.012221098E0,-8.324522376E-1
3.882684475E1,6.621255279E-1,2.357590795E-1,-6.217386127E-1
3.884684475E1,1.448099613E-1,6.042329967E-2,-5.697278380E-1
3.886684475E1,6.198886037E-1,-1.205848008E-1,-3.879866898E-1
3.888684475E1,-3.881786764E-1,1.321214199E0,-6.838200241E-2
3.890684475E1,-1.595143676E0,-2.357416153E-1,8.385434151E-1
3.892684475E1,2.833018303E-1,-3.446658850E0,1.248940110E0
3.894684475E1,2.050447702E0,-1.707176328E0,9.336987734E-1
3.896684475E1,2.458121777E0,-1.132893190E-1,1.861568242E-1
3.898684475E1,1.836313248E0,1.395879388E0,-4.162784815E-1
3.900684475E1,1.216005802E0,2.766660929E0,-3.639011383E-1
3.902684475E1,1.510756969E0,2.475697279E0,9.005898982E-2
3.904684475E1,2.574447870E0,1.250423670E0,3.688404262E-1
3.906684475E1,1.707403183E0,-9.210102260E-2,2.764950693E-1
3.908684475E1,8.744623065E-1,-1.599472046E0,1.516691130E-2
3.910684475E1,8.658753037E-1,-2.289976597E0,1.891064197E-1
3.912684475E1,1.134202242E0,-2.060465813E0,2.774724364E-1
3.914684475E1,1.037074685E0,-1.246165037E0,1.374097764E-1
3.916684475E1,8.983558416E-1,-2.221978605E-1,1.133242249E-1
3.918684475E1,1.003023267E0,4.612032473E-1,1.497841626E-1
3.920684475E1,1.177381635E0,5.605997443E-1,1.825090796E-1
3.922684475E1,1.264944792E0,3.234793246E-1,2.955366075E-1
3.924684475E1,1.407450914E0,1.666789502E-1,3.689276874E-1
3.926684475E1,1.410086393E0,3.047868609E-1,4.076041877E-1
3.928684475E1,1.203997970E0,5.056567788E-1,4.909960330E-1
3.930684475E1,9.336464405E-1,4.209385216E-1,4.926017225E-1
3.932684475E1,7.362846136E-1,8.820894361E-2,3.611086309E-1
3.934684475E1,6.965085268E-1,-1.517040133E-1,2.169444263E-1
3.936684475E1,5.632352233E-1,-6.234316155E-2,2.961823717E-2
3.938684475E1,1.147379428E-1,4.251272976E-1,-5.665338784E-2
3.940684475E1,-9.275028706E-1,1.101285338E0,-3.970624134E-2
3.942684475E1,-1.989867330E0,1.213265657E0,-1.519832760E-1
3.944684475E1,-2.695085049E0,6.244090199E-1,-2.961125672E-1
3.946684475E1,-2.969520569E0,-4.497713596E-2,-3.942175210E-1
3.948684475E1,-2.758091450E0,-4.836307466E-1,-4.909611046E-1
3.950684475E1,-2.363228083E0,-4.859520197E-1,-7.247304916E-1
3.952684475E1,-2.085877895E0,1.771160066E-1,-7.560766339E-1
3.954684475E1,-1.924103379E0,1.257055879E0,-8.358207345E-1
3.956684475E1,-1.804757714E0,2.135148525E0,-9.642071128E-1
3.958684475E1,-1.814706087E0,2.426461458E0,-9.007993340E-1
3.960684475E1,-1.637275934E0,1.969621539E0,-6.872757673E-1
3.962684475E1,-1.269674659E0,9.839119315E-1,-5.043128729E-1
3.964684475E1,-9.859190583E-1,1.390154809E-1,-4.782027602E-1
3.966684475E1,-6.844657660E-1,-1.804321408E-1,-5.947034955E-1
3.968684475E1,-5.890136957E-1,-6.219480634E-1,-7.438069582E-1
3.970684475E1,-7.150264978E-1,-1.063184738E0,-7.900407314E-1
3.972684475E1,-9.592503905E-1,-1.251540661E0,-7.385535240E-1
3.974684475E1,-1.015711784E0,-1.402895689E0,-4.844510257E-1
3.976684475E1,-7.773696184E-1,-1.370170712E0,-2.900213599E-1
3.978684475E1,-2.466324717E-1,-9.575923681E-1,-1.266759932E-1
3.980684475E1,3.907094002E-1,-3.744603992E-1,1.891762316E-1
3.982684475E1,9.925163984E-1,-5.391321778E-1,5.064771175E-1
3.984684475E1,1.349924922E0,-8.881282210E-1,8.032528758E-1
3.986684475E1,1.158689141E0,-8.248425722E-1,1.069712281E0
3.988684475E1,5.188165903E-1,-9.083566070E-1,3.584731817E-1
3.990684475E1,-5.499706864E-1,-1.443614125E0,-7.332302928E-1
3.992684475E1,-1.070794344E0,-7.856774330E-1,-1.185130954E0
3.994684475E1,-9.716771245E-1,2.590766847E-1,-1.446843028E0
3.996684475E1,-1.701172441E-1,-9.688322544E-1,-1.314529657E0
3.998684475E1,3.559424579E-1,-1.864203572E0,-1.112437963E0
4.000684475E1,-2.405412793E-1,-1.082732439E0,-1.137361288E0
4.002684475E1,4.013559222E-1,-1.122962236E0,-9.695304036E-1
4.004684475E1,-7.173478007E-1,4.845208526E-1,7.054620981E-2
4.006684475E1,-1.118773460E0,-2.101044893E0,5.193052888E-1
4.008684475E1,4.606622159E-1,-3.055006742E0,8.237255812E-1
4.010684475E1,2.100102425E0,2.375218570E-1,1.375755787E0
4.012684475E1,2.837591171E0,2.565180302E0,1.412407637E0
4.014684475E1,2.256082296E0,2.872078896E0,3.450166881E-1
4.016684475E1,1.194922209E0,3.017063379E0,-1.335525960E-1
4.018684475E1,1.494857073E0,1.946844935E0,4.617966712E-1
4.020684475E1,2.086488724E0,-3.288025856E-1,6.354219913E-1
4.022684475E1,1.434136987E0,-1.352019310E0,3.604104817E-1
4.024684475E1,1.281507969E0,-2.271039963E0,2.226516455E-1
4.026684475E1,1.477281570E0,-2.577223063E0,3.156777024E-1
4.028684475E1,1.569190621E0,-2.147051573E0,3.349461257E-1
4.030684475E1,1.525400281E0,-1.227961302E0,1.127657220E-1
4.032684475E1,1.608146310E0,-8.127998561E-2,3.344050795E-2
4.034684475E1,1.588685989E0,1.124428391E0,1.132369637E-1
4.036684475E1,1.420820236E0,1.858845472E0,1.108982190E-1
4.038684475E1,1.105543852E0,1.809557319E0,6.691592187E-2
4.040684475E1,8.992634416E-1,1.148391724E0,1.353677362E-1
4.042684475E1,1.078351617E0,9.569640458E-2,3.020292222E-1
4.044684475E1,1.220124722E0,-7.469660044E-1,3.891211450E-1
4.046684475E1,1.124218941E0,-6.994057894E-1,4.703836739E-1
4.048684475E1,1.006095052E0,-2.351656556E-1,4.088084698E-1
4.050684475E1,9.341002107E-1,2.066818923E-1,2.353751063E-1
4.052684475E1,7.809999585E-1,4.890063405E-1,5.653121322E-2
4.054684475E1,5.176297426E-1,3.839375377E-1,-1.033060402E-1
4.056684475E1,2.436654121E-1,2.988003753E-2,-2.268579006E-1
4.058684475E1,-3.322059810E-1,-6.026621908E-2,-2.452536672E-1
4.060684475E1,-9.874723554E-1,2.717826664E-1,-2.448522449E-1
4.062684475E1,-1.935814500E0,1.027475357E0,-2.693043053E-1
4.064684475E1,-3.196186543E0,1.386227727E0,-2.155132592E-1
4.066684475E1,-3.626131058E0,8.948128223E-1,-2.320764363E-1
4.068684475E1,-3.114749432E0,2.751336992E-1,-4.619188309E-1
4.070684475E1,-2.460093975E0,-1.143365204E-1,-5.529901385E-1
4.072684475E1,-2.035385609E0,-2.266833633E-1,-4.416730106E-1
4.074684475E1,-1.804844975E0,4.399451315E-1,-6.133959889E-1
4.076684475E1,-2.126352072E0,2.071950197E0,-8.783195019E-1
4.078684475E1,-1.982414722E0,2.494668961E0,-6.314949989E-1
4.080684475E1,-1.544441819E0,1.901606083E0,-3.386462331E-1
4.082684475E1,-1.241033792E0,1.331441879E0,-3.052231669E-1
4.084684475E1,-1.023478508E0,9.913993478E-1,-4.118453562E-1
4.086684475E1,-9.707695842E-1,6.130992770E-1,-4.091400802E-1
4.088684475E1,-1.102576852E0,-1.009498462E-1,-3.104940653E-1
4.090684475E1,-1.150817752E0,-6.187192202E-1,-3.739542365E-1
4.092684475E1,-9.530894160E-1,-1.174676418E0,-4.522148073E-1
