"Time (s)","Linear Acceleration x (m/s^2)","Linear Acceleration y (m/s^2)","Linear Acceleration z (m/s^2)"
7.995313000E-3,-1.282799959E0,8.721999526E-1,2.475499868E0
2.799531300E-2,-5.453000069E-1,3.585000038E-1,3.585199833E0
4.799531300E-2,3.701999784E-1,-5.340999961E-1,3.989799976E0
6.799531300E-2,2.052399874E0,-2.864300013E0,4.158800125E0
8.799531300E-2,2.991699934E0,-4.397699833E0,4.451699734E0
1.079953130E-1,1.759099960E0,-3.630899906E0,4.706799984E0
1.279953130E-1,1.964399934E0,-2.165400028E0,6.370999813E0
1.480000000E-1,4.699999988E-1,-1.655799985E0,1.513399959E0
1.779953130E-1,1.550499916E0,-3.265499830E0,9.398999810E-1
1.980031250E-1,6.590999961E-1,-2.729699850E0,-6.270999908E-1
2.279953130E-1,1.724799991E0,-1.388199925E0,-2.032199860E0
2.480015630E-1,1.643299937E0,-1.339699984E0,-2.847399950E0
2.779937500E-1,1.146399975E0,-2.228999883E-1,-1.960699916E0
2.979953130E-1,5.465999842E-1,-2.084699869E0,-1.072700024E0
3.279937500E-1,1.366999894E-1,4.160999954E-1,-9.084999561E-1
3.479937500E-1,-2.579999864E-1,-4.879999906E-2,-1.031700015E0
3.679953130E-1,-2.777000070E-1,1.134599924E0,-1.233399987E0
3.979937500E-1,-4.531999826E-1,3.759999871E-1,-3.166499853E0
4.179937500E-1,5.493000150E-1,1.920399904E0,-2.762099981E0
4.380000000E-1,2.401900053E0,1.602599978E0,-1.958299994E0
4.679937500E-1,1.929999888E-1,1.787099957E0,-2.211599827E0
4.880000000E-1,3.977999985E-1,2.093099833E0,2.845999897E-1
5.179937500E-1,2.137300014E0,2.085500002E0,1.102499962E0
5.380000000E-1,1.245899916E0,2.068199873E0,1.926199913E0
5.679937500E-1,-7.330999970E-1,1.699299932E0,1.166599989E0
5.879937500E-1,1.329999924E0,1.093400002E0,-3.024899960E0
6.079937500E-1,2.520999908E0,6.254000068E-1,1.398499966E0
6.279937500E-1,1.737299919E0,-1.235999987E-1,2.190799952E0
6.479937500E-1,4.378999770E-1,-6.240000129E-1,1.798200011E0
6.679937500E-1,1.043200016E0,-1.366999894E-1,1.580899954E0
6.879937500E-1,2.890899897E0,-1.575199962E0,-1.229999959E-1
7.079937500E-1,3.731699944E0,-2.443699837E0,-2.231999874E0
7.279937500E-1,2.252199888E0,-4.310299873E0,-6.235699654E0
7.479937500E-1,-3.744999766E-1,-2.775499821E0,-4.220200062E0
7.679937500E-1,-6.800199986E0,1.651799917E0,-3.415499926E0
7.879937500E-1,-5.546199799E0,-1.324999928E0,-3.320499897E0
8.079937500E-1,-6.260900021E0,-2.984499931E0,-4.198999882E0
8.279937500E-1,-7.514599800E0,-2.149099827E0,-6.837199688E0
8.479937500E-1,-6.996699810E0,-3.307399988E0,-5.885599613E0
8.679937500E-1,-5.153999805E0,-3.095399857E0,-3.572199821E0
8.879937500E-1,-2.875799894E0,-3.529899836E0,-1.486400008E0
9.079937500E-1,-1.913399935E0,-3.169799805E0,3.378999949E0
9.279937500E-1,-5.501999855E-1,-2.515100002E0,6.301899910E0
9.479937500E-1,1.842399955E0,-2.368199825E0,5.431999683E0
9.679937500E-1,3.439899921E0,-1.809599996E0,3.747999907E0
9.879937500E-1,2.555699825E0,-1.384999990E0,2.039599895E0
1.007993750E0,1.571999907E0,-1.320799947E0,1.764199972E0
1.027993750E0,3.209999800E0,-2.184900045E0,2.431200027E0
1.047993750E0,7.141099930E0,-3.415199995E0,3.840600014E0
1.067993750E0,1.008710003E1,-4.147200108E0,1.455999970E0
1.087993750E0,9.819199562E0,-2.942899942E0,-1.908999920E0
1.107993750E0,1.153299999E1,6.651799679E0,-3.314489746E1
1.127993750E0,1.125859928E1,-3.443199873E0,-1.615099907E0
1.147993750E0,7.023999691E0,-1.138700008E0,9.768400192E0
1.167993750E0,3.874599934E0,-3.974999785E-1,1.962799907E0
1.187993750E0,2.974499941E0,-1.035200000E0,-3.203699827E0
1.207995313E0,2.273599863E0,-1.337999940E0,4.238800049E0
1.237993750E0,4.619899750E0,-1.912999898E-1,8.060000092E-2
1.257995313E0,3.749799967E0,1.421599984E0,-7.119999886E0
1.287993750E0,1.180699944E0,3.728999794E-1,3.402999938E-1
1.308003125E0,-3.727999926E-1,-4.360000044E-2,-2.140000015E-1
1.337993750E0,-2.663999796E-1,9.369999915E-2,2.875599861E0
1.357993750E0,8.761000037E-1,1.067199945E0,8.588999510E-1
1.377993750E0,7.565000057E-1,2.434499979E0,-1.191399932E0
1.397993750E0,3.095999956E-1,3.235299826E0,-3.874999881E-1
1.417993750E0,2.227999926E0,3.507999897E0,-1.084800005E0
1.437993750E0,3.654599905E0,3.577199936E0,-2.112200022E0
1.457993750E0,4.502299786E0,3.129999876E0,-1.202999949E0
1.477995313E0,4.720299721E0,2.615299940E0,-2.016999960E0
1.507995313E0,9.064999819E-1,1.505100012E0,1.207899928E0
1.527995313E0,-4.156300068E0,3.619999886E-1,3.042599916E0
1.547995313E0,-3.772199869E0,3.612000048E-1,2.232100010E0
1.567995313E0,4.095000029E-1,2.161599874E0,-8.241999745E-1
1.597993750E0,2.954099894E0,3.978699923E0,-9.185000062E-1
1.617993750E0,7.347999811E-1,2.978299856E0,7.481999993E-1
1.637993750E0,-1.924499989E0,2.038899899E0,2.574000061E-1
1.657993750E0,-3.896099806E0,1.508999914E-1,-5.306000113E-1
1.677993750E0,-3.734399796E0,9.734999537E-1,-2.218699932E0
1.697995313E0,-3.201399803E0,1.968999982E0,-2.219799995E0
1.727995313E0,-3.967099905E0,2.296299934E0,-2.024100065E0
1.757995313E0,2.865999937E-1,-2.576999962E-1,1.425999999E-1
1.787993750E0,3.493700027E0,-2.254899979E0,-1.881299973E0
1.807995313E0,4.440599918E0,-3.576499939E0,-6.850000024E-1
1.827995313E0,4.476799965E0,-3.187399864E0,-9.549999982E-2
1.847995313E0,3.069299936E0,-4.878900051E0,-1.437199950E0
1.867995313E0,-4.987999797E-1,-8.154000044E-1,1.219099998E0
1.897993750E0,-6.401399612E0,9.932999611E-1,-3.746999800E-1
1.917993750E0,-4.361199856E0,2.352399826E0,8.027999997E-1
1.937993750E0,-4.171799660E0,1.203099966E0,-4.526999891E-1
1.957993750E0,-1.157299995E0,5.672000051E-1,6.154999733E-1
1.977993750E0,-2.723000050E0,6.734200001E0,1.777999997E0
1.997995313E0,-3.385599852E0,7.204599857E0,1.996399999E0
2.027993750E0,-1.977299929E0,6.051899910E0,-2.161099911E0
2.047993750E0,-1.539600015E0,5.660999775E0,-1.665000021E-1
2.067993750E0,-7.664799690E0,-2.065899849E0,3.194599867E0
2.087993750E0,-1.297439957E1,-2.256889915E1,3.782099962E0
2.107993750E0,8.637299538E0,-3.895199966E1,-7.320799828E0
2.127995313E0,-3.286299944E0,-2.207799911E0,-1.164399981E0
2.147995313E0,-2.128599882E0,8.062399864E0,2.457900047E0
2.177993750E0,2.323400021E0,7.167899609E0,-1.645599961E0
2.197993750E0,2.893599987E0,3.367899895E0,-9.580999613E-1
2.217995313E0,2.555099964E0,1.875999928E0,-6.814999580E-1
2.247995313E0,2.817800045E0,-2.525999844E-1,-1.395900011E0
2.267995313E0,1.703099966E0,-6.557999849E-1,-3.805599928E0
2.287995313E0,1.006399989E0,9.566999674E-1,-6.242199898E0
2.308003125E0,1.868799925E0,1.599999905E0,-7.511999607E0
2.337993750E0,-1.304799914E0,-1.214299917E0,5.234999657E0
2.357993750E0,-8.683699608E0,-1.112699986E1,3.853899956E0
2.377995313E0,-8.468599319E0,-1.051919937E1,7.033899784E0
2.397995313E0,-4.521699905E0,3.714399815E0,6.088599682E0
2.417995313E0,-1.211499929E0,4.869599819E0,6.639599800E0
2.447993750E0,-2.073499918E0,-4.254300117E0,5.689300060E0
2.467993750E0,-6.646999717E-1,-5.887899876E0,5.941400051E0
2.487993750E0,3.467899799E0,-4.120899677E0,-1.806499958E0
2.507993750E0,3.042199850E0,-6.036999822E-1,9.315999746E-1
2.527993750E0,3.209499836E0,2.306200027E0,2.243900061E0
2.547993750E0,2.697499990E0,1.906799912E0,-6.119999662E-2
2.567993750E0,1.299000025E0,1.324899912E0,-1.008999944E-1
2.587993750E0,1.596999913E-1,1.596300006E0,-2.861000001E-1
2.607993750E0,-1.855999976E-1,2.281899929E0,-1.020399928E0
2.627993750E0,5.658999681E-1,1.503199935E0,-8.725000024E-1
2.647995313E0,4.607999921E-1,1.429499984E0,-1.339200020E0
2.677993750E0,2.962000072E-1,1.627499938E0,-1.003999949E0
2.697993750E0,5.403999686E-1,1.842899919E0,-6.844999790E-1
2.717993750E0,7.910999656E-1,1.074499965E0,-7.466999888E-1
2.737993750E0,1.027599931E0,-8.955000043E-1,-1.700199962E0
2.757995313E0,1.540699959E0,-1.982399940E0,-3.626199961E0
2.787993750E0,3.152599812E0,-2.258800030E0,-5.774199963E0
2.807993750E0,4.305900097E0,-3.313400030E0,-5.490900040E0
2.827993750E0,4.230000019E0,-3.089999914E0,-4.195699692E0
2.847993750E0,1.893099904E0,-3.305399895E0,-4.603600025E0
2.867993750E0,-4.758999944E-1,-4.184099674E0,-7.802899837E0
2.887995313E0,-7.275999784E-1,-4.129399776E0,-8.517000198E0
2.907995313E0,-8.962999582E-1,-2.748299837E0,-4.255300045E0
2.937993750E0,1.386999935E-1,-1.680199981E0,2.762199879E0
2.957993750E0,-5.595999956E-1,-3.581599951E0,2.241400003E0
2.977993750E0,-2.254999876E-1,-6.608299732E0,2.725899935E0
2.997993750E0,-3.090600014E0,-7.208099842E0,4.275999963E-1
3.017993750E0,-4.460499763E0,-4.598000050E0,-3.178499937E0
3.037993750E0,-3.910799980E0,-1.097599983E0,-1.449999958E-1
3.057993750E0,-3.448099852E0,1.411899924E0,2.892699957E0
3.077996875E0,-3.336899996E0,1.893999934E0,3.331799984E0
3.107993750E0,-2.542099953E0,1.538999915E0,3.574499846E0
3.127993750E0,-1.509299994E0,2.033699989E0,4.674399853E0
3.147993750E0,-1.739999950E-1,2.206599951E0,5.884599686E0
3.167993750E0,9.594999552E-1,2.358899832E0,5.300399780E0
3.187993750E0,1.216599941E0,2.372400045E0,5.386899948E0
3.207993750E0,4.206999838E-1,3.368599892E0,5.264899731E0
3.227993750E0,3.744999766E-1,4.478399754E0,4.917699814E0
3.247993750E0,8.746999502E-1,4.918900013E0,3.962599993E0
3.267993750E0,6.466999650E-1,4.539199829E0,1.873399973E0
3.287993750E0,-9.039999843E-1,3.121799946E0,-3.622499943E0
3.308003125E0,-1.337700009E0,-1.938699961E0,-7.644799709E0
3.337993750E0,1.336300015E0,-9.401599884E0,-9.223799706E0
3.357993750E0,-7.216999531E-1,-5.328999758E-1,-1.052779961E1
3.377993750E0,7.556999922E-1,4.446499825E0,-6.529500008E0
3.397993750E0,2.105099916E0,3.156199932E0,-3.384399891E0
3.417993750E0,3.995699883E0,-2.957799911E0,-2.995999813E0
3.437993750E0,-7.337999940E-1,-4.423599720E0,1.039060020E1
3.457993750E0,-5.349400043E0,-7.001699924E0,4.987799644E0
3.477993750E0,-7.136999607E0,-1.540199995E0,6.604300022E0
3.497993750E0,-4.626399994E0,3.345799923E0,7.056699753E0
3.517993750E0,-3.874899864E0,2.151099920E0,8.571599960E0
3.537993750E0,-2.673399925E0,-2.048399925E0,5.536999702E0
3.557993750E0,-6.996999979E-1,-5.784499645E0,5.393399715E0
3.577993750E0,3.046900034E0,-5.564499855E0,-1.421100020E0
3.597993750E0,1.821799994E0,-1.946099997E0,3.942600012E0
3.617993750E0,3.637499809E0,1.253000021E0,3.663800001E0
3.637993750E0,3.714599848E0,2.440899849E0,-2.096000016E-1
3.657993750E0,1.347000003E0,1.470099926E0,1.228000000E-1
3.677993750E0,7.524999976E-1,1.567999959E0,1.413999945E-1
3.697993750E0,4.916999936E-1,2.555299997E0,-1.473500013E0
3.717993750E0,1.056800008E0,2.050299883E0,-2.965799809E0
3.737993750E0,1.648899913E0,1.461199999E0,-2.822000027E0
3.757993750E0,1.851300001E0,1.117399931E0,-8.093000054E-1
3.777993750E0,1.611599922E0,1.663899899E0,1.210600019E0
3.797993750E0,1.402300000E0,1.834699988E0,2.011399984E0
3.817993750E0,9.312999845E-1,-5.813999772E-1,1.701900005E0
3.837993750E0,7.764999866E-1,-2.340499878E0,-1.381799936E0
3.857995313E0,8.044999838E-1,-6.377999783E-1,-5.534299850E0
3.877995313E0,1.894299984E0,-7.195999622E-1,-8.404199600E0
3.907993750E0,4.904099941E0,-4.812799931E0,-4.680399895E0
3.927993750E0,4.733500004E0,-3.540299892E0,-2.699699879E0
3.947993750E0,3.986499786E0,-4.943599701E0,-5.341499805E0
3.967993750E0,1.866199970E0,-5.867199898E0,-5.484999657E0
3.987993750E0,-1.532299995E0,-3.264499903E0,-3.197099924E0
4.007993750E0,-2.489099979E0,-2.404399872E0,2.857999802E-1
4.027993750E0,-2.839799881E0,-3.750599861E0,1.338500023E0
4.047993750E0,-3.170799971E0,-7.426799774E0,2.728399992E0
4.067993750E0,-2.765499830E0,-6.591099739E0,2.965499878E0
4.087993750E0,-3.586099863E0,-2.938799858E0,2.991499901E0
4.107993750E0,-5.935699940E0,-6.692000031E-1,4.890999794E-1
4.127993750E0,-5.464699745E0,4.790999889E-1,1.994699955E0
4.147993750E0,-4.361700058E0,1.468799949E0,3.205699921E0
4.167993750E0,-2.886899948E0,2.226500034E0,2.424199820E0
4.187993750E0,-2.386899948E0,3.252499819E0,2.970999956E0
4.207993750E0,-1.883999944E0,3.629599810E0,4.586800098E0
4.227993750E0,-9.384999871E-1,3.444199800E0,6.574699879E0
4.247993750E0,6.186999679E-1,2.786700010E0,5.813099861E0
4.267993750E0,1.388499975E0,2.873600006E0,5.857800007E0
4.288003125E0,1.849599957E0,3.177699804E0,5.029799938E0
4.308003125E0,1.854699969E0,3.876699924E0,4.373699665E0
4.337993750E0,1.343699932E0,4.554299831E0,4.163199902E0
4.357995313E0,8.790999651E-1,3.360800028E0,1.759699941E0
4.387993750E0,3.883999884E-1,-3.491299868E0,-1.220379925E1
4.407993750E0,9.308999777E-1,-1.085169983E1,-1.973900032E1
4.427993750E0,2.624699831E0,-6.843699932E0,-1.011849976E1
4.447993750E0,1.737699986E0,1.987999916E0,-5.782799721E0
4.467993750E0,1.541799903E0,5.316799641E0,-5.046499729E0
4.487993750E0,2.415799856E0,2.837699890E0,1.817999959E0
4.507993750E0,-4.895800114E0,-7.185999751E-1,1.672130013E1
4.527993750E0,-8.023499489E0,-9.467499733E0,-1.024779987E1
4.547993750E0,-9.555199623E0,-7.271599770E0,7.060499668E0
4.567993750E0,-5.117000103E0,3.642899990E0,1.526159954E1
4.587993750E0,-3.606400013E0,2.198199987E0,7.728899956E0
4.607993750E0,-3.291299820E0,-3.973099947E0,4.759799957E0
4.627993750E0,-1.827699900E0,-7.613699913E0,4.741899967E0
4.647993750E0,-1.409000009E-1,-6.110599995E0,2.780299902E0
4.667993750E0,1.018499970E0,-3.039899826E0,3.434999943E0
4.687993750E0,2.275599957E0,-3.659999967E-1,3.710299969E0
4.707993750E0,3.787699938E0,2.500799894E0,7.198999524E-1
4.727993750E0,2.183699846E0,1.263700008E0,-1.715799928E0
4.747993750E0,1.300400019E0,3.746999800E-1,1.612999886E-1
4.767993750E0,7.630999684E-1,2.113299847E0,-9.129999578E-2
4.787993750E0,5.410999656E-1,3.841899872E0,-1.810199976E0
4.807993750E0,3.115999997E-1,4.072599888E0,-3.239300013E0
4.827993750E0,9.510000050E-2,2.673799992E0,-2.879899979E0
4.847993750E0,1.794999987E-1,1.804799914E0,-8.337999582E-1
4.867993750E0,6.589999795E-1,8.933999538E-1,1.188300014E0
4.887993750E0,1.582000017E0,-6.258999705E-1,1.093599916E0
4.907993750E0,2.626799822E0,-3.841999769E-1,-1.871899962E0
4.927993750E0,3.255100012E0,-3.729999810E-2,-4.875400066E0
4.948037500E0,3.805499792E0,-3.281899929E0,-5.667200089E0
4.977993750E0,2.435799837E0,-3.714399815E0,-3.964900017E0
4.997993750E0,8.364999890E-1,-2.864599943E0,-4.063300133E0
5.017993750E0,-6.297999620E-1,-3.260299921E0,-6.286099911E0
5.037993750E0,-1.098099947E0,-4.530999660E0,-8.384699821E0
5.057993750E0,-8.515999913E-1,-4.531399727E0,-4.975500107E0
5.077995313E0,9.603999853E-1,-3.571199894E0,2.834899902E0
5.107993750E0,-4.127999842E-1,-4.432099819E0,3.129899979E0
5.127993750E0,-9.778999686E-1,-8.444799423E0,3.165699959E0
5.147993750E0,-1.389799953E0,-8.338899612E0,3.230799913E0
5.167993750E0,-2.365999937E0,-4.626599789E0,-9.803999662E-1
5.187993750E0,-3.162799835E0,-1.283800006E0,-2.276900053E0
5.207993750E0,-3.545399904E0,1.488999963E0,1.875599980E0
5.227993750E0,-3.510599852E0,2.177399874E0,4.638499737E0
5.247993750E0,-2.839399815E0,1.323199987E0,5.421999931E0
5.267993750E0,-2.743099928E0,2.313799858E0,6.512899876E0
5.287993750E0,-6.423999667E-1,2.598899841E0,5.994899750E0
5.308003125E0,7.536999583E-1,3.124899864E0,5.949199677E0
5.337993750E0,1.364199996E0,3.469799995E0,5.851099968E0
5.357995313E0,-2.970999777E-1,4.590099812E0,6.132099628E0
5.387993750E0,-5.752999783E-1,4.847399712E0,5.049200058E0
5.407993750E0,-6.363999844E-1,4.865499973E0,3.858699799E0
5.427993750E0,-1.075399995E0,4.527199745E0,1.370899916E0
5.447993750E0,-1.938299894E0,1.607800007E0,-4.026700020E0
5.467993750E0,2.020200014E0,-7.616799831E0,-1.100839996E1
5.487993750E0,2.063799858E0,-1.039739990E1,-1.309149933E1
5.507993750E0,1.129899979E0,-3.917399883E0,-9.513099670E0
5.527993750E0,2.058199883E0,3.107599974E0,-7.657699585E0
5.548000000E0,2.920699835E0,3.258800030E0,-6.603899956E0
5.577993750E0,-2.335299969E0,-5.499899864E0,1.203119946E1
5.597993750E0,-6.174799919E0,-7.189899921E0,1.525799942E1
5.617993750E0,-3.274499893E0,4.072999954E-1,3.465399981E0
5.637993750E0,-1.321599960E0,5.506700039E0,8.335499763E0
5.657993750E0,-1.295199990E0,2.762899876E0,8.512700081E0
5.677993750E0,-2.398599863E0,-6.236399651E0,6.655099869E0
5.697993750E0,5.576999784E-1,-9.260499954E0,5.798099995E0
5.717993750E0,3.167299986E0,-3.999099970E0,-3.074599981E0
5.737993750E0,2.315899849E0,-4.862999916E-1,2.522399902E0
5.757993750E0,1.353799939E0,-4.429999739E-2,2.377799988E0
5.777993750E0,4.285999835E-1,1.231599927E0,2.064499855E0
5.807993750E0,-4.892999828E-1,1.842000008E0,2.141399860E0
5.827993750E0,-7.628999949E-1,2.198099852E0,7.040999532E-1
5.847993750E0,-8.736999631E-1,2.385200024E0,-1.692999959E0
5.867993750E0,-8.738999963E-1,2.317899942E0,-3.068799973E0
5.887993750E0,-2.782000005E-1,1.646999955E0,-2.721499920E0
5.907993750E0,7.681999803E-1,1.339399934E0,-2.976000011E-1
5.927993750E0,1.337799907E0,1.730899930E0,1.785299897E0
5.947993750E0,1.554999948E0,1.920399904E0,2.703799963E0
5.967993750E0,1.738899946E0,-9.200000204E-3,1.881699920E0
5.987993750E0,1.961999893E0,-1.448199987E0,-1.676999927E0
6.007993750E0,2.143899918E0,-5.868999958E-1,-4.200900078E0
6.027993750E0,2.810999870E0,-5.288999677E-1,-3.757599831E0
6.047993750E0,3.647399902E0,-1.878499985E0,-1.144999981E0
6.067993750E0,3.903499842E0,-2.362299919E0,-3.969999775E-2
6.087993750E0,3.443199873E0,-3.152699947E0,-2.524299860E0
6.107993750E0,2.069700003E0,-4.439199924E0,-5.542500019E0
6.127993750E0,1.391799927E0,-5.318699837E0,-6.028500080E0
6.147993750E0,3.373999894E-1,-4.249399662E0,-5.465899944E0
6.167993750E0,-2.093799829E0,-1.909299970E0,-6.286299706E0
6.187993750E0,-2.281699896E0,-1.270399928E0,-2.295300007E0
6.207993750E0,-1.036299944E0,-2.128799915E0,1.757200003E0
6.227993750E0,-1.907099962E0,-4.758800030E0,2.128999949E0
6.247993750E0,-2.049999952E0,-6.104300022E0,2.528399944E0
6.267993750E0,-7.140000165E-2,-4.582200050E0,9.029999971E-1
6.287993750E0,8.569999784E-2,-2.369699955E0,-3.464999795E-1
6.308003125E0,-9.046999812E-1,-6.478999853E-1,7.760999799E-1
6.337993750E0,-1.663599968E0,5.430999994E-1,5.389199734E0
6.357993750E0,-1.711699963E0,9.010999799E-1,5.189799786E0
6.377993750E0,-1.384199977E0,1.544099927E0,4.964499950E0
6.397993750E0,-1.297599912E0,2.167500019E0,4.398900032E0
6.417993750E0,-6.765999794E-1,2.539399862E0,5.201299667E0
6.437993750E0,4.106999934E-1,2.399399996E0,5.760299683E0
6.457993750E0,-2.099999925E-3,2.839900017E0,5.694299698E0
6.477993750E0,-1.645200014E0,4.301099777E0,5.858599663E0
6.497993750E0,-2.440399885E0,5.086299896E0,4.904900074E0
6.517993750E0,-1.879199982E0,5.384599686E0,3.930799961E0
6.537993750E0,-1.389199972E0,4.939799786E0,2.750000000E0
6.557993750E0,-1.407499909E0,3.566399813E0,-6.241999865E-1
6.577993750E0,4.580000043E-2,-2.105599880E0,-6.760499954E0
6.597993750E0,3.444299936E0,-1.059999943E1,-1.246500015E1
6.617993750E0,2.978999853E0,-1.013649940E1,-1.397129917E1
6.637993750E0,3.131599903E0,-3.602899790E0,-6.686800003E0
6.657995313E0,3.386799812E0,7.217999697E-1,-3.813599825E0
6.687993750E0,1.305000037E-1,-1.276600003E0,-2.959800005E0
6.707993750E0,6.793000102E-1,-8.491700172E0,-2.101500034E0
6.727993750E0,-4.546999931E0,-5.855499744E0,1.106040001E1
6.747993750E0,-6.987599850E0,2.850100040E0,1.207870007E1
6.767993750E0,-7.039899826E0,9.544300079E0,3.641399860E0
6.787993750E0,-5.456599712E0,8.742699623E0,1.725399971E0
6.807993750E0,-5.187799931E0,1.667599916E0,5.376999855E0
6.827993750E0,-3.395599842E0,-4.154500008E0,7.749899864E0
6.857993750E0,2.664999962E0,-1.083920002E1,3.352699995E0
6.877993750E0,2.691999912E0,-2.947199821E0,3.621000051E-1
6.897993750E0,4.030299664E0,6.908999681E-1,2.325199842E0
6.917993750E0,3.728199959E0,7.554000020E-1,1.620599985E0
6.937993750E0,2.247400045E0,1.568099976E0,2.873100042E0
6.957993750E0,1.009400010E0,2.821599960E0,1.744799972E0
6.987993750E0,3.904999793E-1,1.392799973E0,-1.539199948E0
7.007993750E0,5.273000002E-1,1.083999991E0,-1.654299974E0
7.027993750E0,8.255999684E-1,1.693699956E0,-1.473899961E0
7.047993750E0,1.056699991E0,2.171200037E0,-7.229999900E-1
7.067993750E0,8.007000089E-1,2.282999992E0,2.084999979E-1
7.087993750E0,3.208000064E-1,1.596300006E0,6.308000088E-1
7.107993750E0,3.648999929E-1,6.459999830E-2,1.234799981E0
7.127995313E0,7.709999681E-1,-1.119899988E0,1.826999933E-1
7.147995313E0,1.832699895E0,-9.344999790E-1,-2.352999926E0
7.177995313E0,3.257999897E0,-3.097899914E0,-5.721099854E0
7.197995313E0,3.286099911E0,-3.735799789E0,-4.412199974E0
7.217995313E0,2.371399879E0,-3.110899925E0,-2.588799953E0
7.247993750E0,1.310400009E0,-4.397299767E0,-3.410199881E0
7.267993750E0,1.720699906E0,-5.216700077E0,-3.413399935E0
7.287993750E0,1.180099964E0,-5.128900051E0,-2.753799915E0
7.308003125E0,-1.782599926E0,-2.394099951E0,-5.658199787E0
7.337993750E0,-1.496699929E0,-2.570299864E0,-2.759999931E-1
7.357993750E0,-1.658199906E0,-4.319099903E0,2.228399992E0
7.377995313E0,-2.652600050E0,-5.624899864E0,2.979399920E0
7.407993750E0,-1.995299935E0,-2.233599901E0,2.029700041E0
7.427993750E0,-1.131799936E0,-5.475000143E-1,-1.134199977E0
7.447993750E0,-1.423099995E0,8.096999526E-1,-5.284000039E-1
7.467993750E0,-2.435600042E0,1.460899949E0,3.410799980E0
7.487993750E0,-1.873399973E0,1.303099990E0,6.172599792E0
7.507993750E0,-1.389199972E0,2.592399836E0,6.957399845E0
7.527993750E0,1.090000011E-2,2.839399815E0,8.115300179E0
7.548001563E0,2.749599934E0,1.169000030E0,4.475100040E0
7.577993750E0,2.634899855E0,3.170999885E-1,5.807799816E0
7.597993750E0,-2.999999851E-4,2.665199995E0,6.437900066E0
7.617993750E0,-1.706399918E0,4.141099930E0,5.561599731E0
7.637993750E0,-2.308199883E0,4.680699825E0,4.196099758E0
7.657993750E0,-2.279000044E0,5.594899654E0,3.096199989E0
7.678000000E0,-2.311899900E0,5.658099651E0,6.524999738E-1
7.707993750E0,1.040999964E-1,-4.179399967E0,-1.072279930E1
7.727993750E0,4.182099819E0,-1.250570011E1,-8.137000084E0
7.747993750E0,3.414999962E0,-7.744899750E0,-1.189039993E1
7.767993750E0,2.365399837E0,4.190999866E-1,-8.079199791E0
7.787993750E0,-7.999999798E-4,-6.279000044E-1,-3.057899952E0
7.807993750E0,-1.451200008E0,-9.475500107E0,-4.518899918E0
7.827993750E0,-5.153999925E-1,-5.346399784E0,1.683020020E1
7.847993750E0,-3.343199968E0,2.995100021E0,1.403849983E1
7.867993750E0,-5.056799889E0,8.024199486E0,-9.656999707E-1
7.887993750E0,-4.902100086E0,7.306099892E0,-4.007000029E-1
7.907993750E0,-4.778800011E0,-5.521999598E-1,9.702099800E0
7.927993750E0,-2.326900005E0,-7.174999714E0,8.113200188E0
7.947993750E0,2.326999903E0,-8.699899673E0,2.136199951E0
7.967993750E0,3.240599871E0,-2.481600046E0,-1.698199987E0
7.987995313E0,3.072299957E0,5.759999752E-1,3.349200010E0
8.017993750E0,1.087999940E0,2.479999959E-1,1.647399902E0
8.037993750E0,3.082999885E-1,1.048499942E0,3.180699825E0
8.057993750E0,-1.881999969E-1,2.099799871E0,2.231600046E0
8.077993750E0,-5.841000080E-1,2.504799843E0,-7.549999654E-2
8.097993750E0,-3.249000013E-1,1.906499982E0,-1.929999948E0
8.117993750E0,3.303000033E-1,1.109300017E0,-1.804199934E0
8.137995313E0,1.034099936E0,1.157400012E0,-2.802999914E-1
8.167995313E0,1.313799977E0,1.497999907E0,1.188899994E0
8.197993750E0,1.209999919E0,7.094999552E-1,1.360999942E-1
8.217995313E0,1.534500003E0,-1.061900020E0,-1.486199975E0
8.247995313E0,2.394700050E0,-8.246999979E-1,-2.801899910E0
8.277993750E0,3.725699902E0,-1.727599978E0,-2.260099888E0
8.297995313E0,4.304500103E0,-3.069200039E0,-2.568199873E0
8.327993750E0,3.355099916E0,-4.540899754E0,-4.184299946E0
8.347993750E0,2.017999887E0,-5.300600052E0,-4.143700123E0
8.367993750E0,1.375000030E-1,-3.695899963E0,-3.207399845E0
8.387993750E0,-1.636099935E0,-1.543299913E0,-5.080199718E0
8.407993750E0,-3.160199881E0,-8.750000000E-1,-4.509500027E0
8.427993750E0,-1.603899956E0,-3.564999819E0,3.337000012E-1
8.447993750E0,-9.029999971E-1,-5.700599670E0,2.855499983E0
8.467995313E0,-7.401999831E-1,-5.201200008E0,2.856699944E0
8.487995313E0,5.771999955E-1,-3.202299833E0,6.424999833E-1
8.517993750E0,-6.098999977E-1,-5.670999885E-1,9.299999475E-2
8.537993750E0,-1.453799963E0,4.964999855E-1,3.555799961E0
8.557993750E0,-1.599799991E0,8.714999557E-1,5.096699715E0
8.577993750E0,-1.259599924E0,1.266699910E0,4.675600052E0
8.597993750E0,-1.392599940E0,1.841599941E0,4.230899811E0
8.617993750E0,-1.257099986E0,1.927799940E0,4.940899849E0
8.637993750E0,-9.777999520E-1,1.756299973E0,5.954699993E0
8.657993750E0,-6.492999792E-1,1.932999969E0,5.829400063E0
8.677993750E0,-1.190099955E0,3.355299950E0,5.450599670E0
8.697993750E0,-2.400699854E0,5.144899845E0,4.730299950E0
8.717993750E0,-2.408499956E0,5.825599670E0,4.211699963E0
8.737993750E0,-1.781899929E0,5.824599743E0,3.756199837E0
8.757993750E0,-1.445899963E0,5.182899952E0,2.686100006E0
8.777995313E0,-1.376500010E0,2.093899965E0,-2.450999975E0
8.797995313E0,2.233999968E0,-8.631500244E0,-1.142640018E1
8.817995313E0,5.037699699E0,-1.435669994E1,-1.269559956E1
8.837995313E0,5.404399872E0,-8.121500015E0,-1.039139938E1
8.867995313E0,1.376500010E0,-1.026199937E0,-4.199699879E0
8.887995313E0,-1.824000001E0,-9.289500237E0,-6.136899948E0
8.907995313E0,1.370800018E0,-7.190099716E0,1.144349957E1
8.927995313E0,-5.508899689E0,4.063799858E0,2.182929993E1
8.957993750E0,-1.106639957E1,1.146850014E1,-9.307700157E0
8.977993750E0,-1.089849949E1,5.993499756E0,-1.198899984E0
8.997993750E0,-6.987999916E0,-6.976999640E-1,1.087759972E1
9.017993750E0,-4.280399799E0,-5.502799988E0,8.066599846E0
9.037993750E0,-1.826999933E-1,-1.047159958E1,4.631299973E0
9.057993750E0,1.888899922E0,-4.363999844E0,-9.528999925E-1
9.077993750E0,3.282299995E0,-9.824000001E-1,4.284199715E0
9.097993750E0,4.950500011E0,-1.458599925E0,3.732999861E-1
9.117993750E0,4.364900112E0,6.585999727E-1,1.459100008E0
9.137993750E0,3.511899948E0,3.434000015E0,5.719000101E-1
9.157993750E0,2.339299917E0,2.901299953E0,-1.080899954E0
9.177993750E0,1.085399985E0,2.997999787E-1,-1.041800022E0
9.197993750E0,1.622999907E-1,3.384000063E-1,-1.389500022E0
9.217993750E0,6.560000032E-2,1.335600019E0,-1.642099977E0
9.237993750E0,-1.577999890E-1,1.544999957E0,-1.973399997E0
9.257998438E0,-1.335999966E-1,9.377999902E-1,-1.892399907E0
9.287993750E0,1.252399921E0,4.982999861E-1,-5.969999731E-2
9.308003125E0,2.286499977E0,3.234999776E-1,1.045899987E0
9.337993750E0,4.046400070E0,-2.145099878E0,-1.497200012E0
9.357993750E0,5.273399830E0,-3.702499866E0,-5.370699883E0
9.377993750E0,4.274799824E0,-2.490999937E0,-8.285799980E0
9.397993750E0,1.424700022E0,-1.756199956E0,-6.603499889E0
9.417993750E0,4.616999924E-1,-2.538899899E0,-5.246900082E0
9.437993750E0,1.333799958E0,-4.397399902E0,-3.748999834E0
9.457993750E0,1.675699949E0,-4.058300018E0,-1.024899960E0
9.477993750E0,5.095999837E-1,-2.175799847E0,-1.062099934E0
9.497993750E0,-9.602999687E-1,-3.606299877E0,-2.686100006E0
9.517993750E0,-1.477999985E-1,-6.509599686E0,1.544099927E0
9.537993750E0,-2.908999920E-1,-5.948899746E0,3.749699831E0
9.557993750E0,-5.073999763E-1,-3.295199871E0,3.174899817E0
9.577993750E0,-1.271799922E0,-1.087599993E0,-6.729999781E-1
9.597993750E0,-1.958599925E0,5.155000091E-1,-6.129999831E-2
9.617993750E0,-1.964100003E0,1.492499948E0,3.103899956E0
9.637993750E0,-2.015300035E0,1.080600023E0,4.106699944E0
9.657993750E0,-2.208099842E0,1.069399953E0,4.435899734E0
9.678000000E0,-1.853500009E0,1.851599932E0,4.749899864E0
9.707993750E0,-8.739999533E-1,3.164899826E0,5.249099731E0
9.727993750E0,-9.687999487E-1,3.143299818E0,4.635699749E0
9.747993750E0,-1.098799944E0,2.945899963E0,5.040100098E0
9.767993750E0,-1.251999974E0,3.398599863E0,5.080699921E0
9.787993750E0,-1.164399981E0,4.054899693E0,3.533299923E0
9.807993750E0,-8.906999826E-1,4.833600044E0,2.686199903E0
9.827993750E0,-1.115899920E0,5.373600006E0,2.075399876E0
9.847993750E0,-5.776000023E-1,3.365399837E0,-8.066999912E-1
9.867993750E0,1.318799973E0,-3.226699829E0,-8.055799484E0
9.887993750E0,2.901499987E0,-1.221129990E1,-1.392959976E1
9.907993750E0,3.187599897E0,-9.074199677E0,-1.314109993E1
9.927993750E0,4.777699947E0,-2.309599876E0,-4.887399673E0
9.947993750E0,3.276799917E0,-3.208499908E0,-4.979300022E0
9.967993750E0,-4.726699829E0,-3.486999989E0,1.515919971E1
9.987993750E0,-7.775399685E0,-3.130800009E0,1.459659958E1
1.000799375E1,-7.614699841E0,5.561500072E0,-2.098700047E0
1.002799375E1,-5.171700001E0,7.729899883E0,1.235199928E0
1.004799375E1,-5.896499634E0,1.604999900E0,7.551799774E0
1.006799375E1,-4.001899719E0,-6.491199970E0,6.457699776E0
1.008800938E1,3.194299936E0,-7.761999607E0,-2.914399862E0
1.011799375E1,2.978299856E0,-3.394699812E0,3.698899984E0
1.013799375E1,3.751199961E0,-7.067999840E-1,1.871899962E0
1.015799375E1,2.706300020E0,2.439199924E0,2.355200052E0
1.017799375E1,1.071300030E0,3.323599815E0,2.150599957E0
1.019799375E1,-1.791999936E-1,1.868699908E0,1.178200006E0
1.021799375E1,-4.007999897E-1,9.860000014E-1,-4.676999748E-1
1.023799375E1,-2.660000026E-1,1.203299999E0,-1.631599903E0
1.025799375E1,1.116999984E-1,1.824899912E0,-1.859999895E0
1.027799844E1,4.226999879E-1,2.303699970E0,-1.048200011E0
1.030800312E1,4.539999962E-1,1.986199975E0,6.189000010E-1
1.033799375E1,2.938999832E-1,2.981999815E-1,1.097899914E0
1.035799531E1,3.994999826E-1,-7.242999673E-1,-4.047999978E-1
1.037799531E1,1.538100004E0,-1.943999976E-1,-2.710500002E0
1.040799375E1,3.888899803E0,-2.335500002E0,-4.611599922E0
1.042799375E1,4.601399899E0,-3.885399818E0,-3.691900015E0
1.044799375E1,4.304800034E0,-3.078500032E0,-2.540299892E0
1.046799375E1,2.686800003E0,-2.628799915E0,-3.784899950E0
1.048799375E1,9.851999879E-1,-3.262199879E0,-6.454099655E0
1.050799375E1,5.153999925E-1,-3.806199789E0,-7.867300034E0
1.052799375E1,6.290999651E-1,-2.885599852E0,-6.150499821E0
1.054799375E1,1.102100015E0,-2.300899982E0,1.067000031E0
1.056799375E1,1.285399914E0,-3.885599852E0,3.131299973E0
1.058799375E1,4.847999811E-1,-7.437799931E0,2.904299974E0
1.060799375E1,-8.427999616E-1,-8.145999908E0,2.853799820E0
1.062799375E1,-4.299999680E-3,-5.155799866E0,1.636500001E0
1.064799375E1,4.621999860E-1,-2.195299864E0,-2.796099901E0
1.066799375E1,-1.625899911E0,-2.131999880E-1,-1.157699943E0
1.068799375E1,-2.983099937E0,1.324599981E0,3.131899834E0
1.070799375E1,-2.839200020E0,1.225799918E0,4.955999851E0
1.072799375E1,-3.050400019E0,1.776099920E0,4.449999809E0
1.074799375E1,-2.210500002E0,2.488299847E0,5.085000038E0
1.076799375E1,-7.645999789E-1,3.589900017E0,7.064799786E0
1.078799375E1,-9.219999611E-2,3.884299994E0,6.943799973E0
1.080799375E1,-6.749999523E-2,3.399199963E0,5.211999893E0
1.082799375E1,-1.102399945E0,2.808599949E0,5.455399990E0
1.084799375E1,-2.203500032E0,2.973500013E0,5.746699810E0
1.086799375E1,-2.177599907E0,3.717700005E0,4.452899933E0
1.088799375E1,-2.110399961E0,5.051199913E0,2.848299980E0
1.090799375E1,-2.454799891E0,5.928799629E0,6.254000068E-1
1.092799375E1,-1.214200020E0,2.172600031E0,-2.851899862E0
1.094799375E1,2.279899836E0,-6.313399792E0,-9.363299370E0
1.096799375E1,3.929199934E0,-1.055609989E1,-1.480589962E1
1.098799375E1,6.648599625E0,-6.225299835E0,-1.074030018E1
1.100799375E1,7.766399860E0,-1.845299959E0,-4.481299877E0
1.102799375E1,6.126599789E0,1.572899938E0,-6.284699917E0
1.104799375E1,5.666500092E0,-9.800999761E-1,3.727199793E0
1.106799375E1,-7.563199997E0,5.656999946E-1,1.985389900E1
1.108799375E1,-1.276769924E1,-7.864099979E0,-2.278419876E1
1.110799375E1,-9.545399666E0,-2.699999837E-3,1.342759991E1
1.112799375E1,-4.991899967E0,6.328999996E0,1.168519974E1
1.114799375E1,-3.414799929E0,1.575299978E0,5.206999779E0
1.116799375E1,-3.388799906E0,-5.726799965E0,4.012899876E0
1.118799375E1,-5.511999726E-1,-9.889699936E0,3.926999867E-1
1.120799375E1,-5.659999698E-2,-6.140799999E0,7.880699635E0
1.122799375E1,3.332299948E0,-4.811299801E0,3.553900003E0
1.124799375E1,3.175400019E0,-9.070000052E-1,2.180999994E0
1.126799531E1,1.391199946E0,2.250299931E0,3.545599937E0
1.129799375E1,-3.650999963E-1,2.059000015E0,1.508000016E0
1.131799375E1,-3.935999870E-1,1.352699995E0,6.740000099E-2
1.133799375E1,-5.447999835E-1,2.349900007E0,-1.573899984E0
1.135799531E1,-5.157999992E-1,3.315999985E0,-2.363899946E0
1.138799375E1,1.453000009E-1,3.161999941E0,-1.534099936E0
1.140799375E1,4.571999907E-1,3.375099897E0,-4.707999825E-1
1.142799531E1,7.066000104E-1,2.994499922E0,6.297000051E-1
1.145799375E1,1.672299981E0,-7.469999790E-2,-3.319999874E-1
1.147799375E1,2.832299948E0,-5.600000024E-1,-2.039399862E0
1.149799375E1,3.594099998E0,-4.317999780E-1,-2.384500027E0
1.151799375E1,4.168799877E0,-2.237099886E0,-2.568399906E0
1.153799375E1,3.653999805E0,-4.279299736E0,-3.224999905E0
1.155799375E1,1.606299996E0,-3.195600033E0,-4.408800125E0
1.157799375E1,5.680000037E-2,-3.529699802E0,-5.878999710E0
1.159799375E1,-7.310000062E-2,-5.183599949E0,-7.465600014E0
1.161799375E1,1.375000000E0,-6.536799908E0,-7.305500031E0
1.163799375E1,1.867999882E-1,-3.943300009E0,-6.578700066E0
1.165799375E1,3.913999796E-1,-2.826200008E0,7.858999968E-1
1.167799375E1,9.886999726E-1,-3.369199991E0,3.721999884E0
1.169799375E1,-5.625000000E-1,-6.701499939E0,3.325599909E0
1.171799375E1,-2.450999975E0,-9.789299965E0,2.593299866E0
1.173799375E1,-1.263899922E0,-6.885900021E0,8.795999885E-1
1.175799375E1,-2.413999885E-1,-2.335299969E0,-1.207799911E0
1.177799531E1,-7.099999785E-1,1.384000033E-1,-7.017999887E-1
1.180799375E1,-3.213799953E0,1.842899919E0,4.644499779E0
1.182799375E1,-2.910300016E0,1.199299932E0,6.447099686E0
1.184799375E1,-1.803900003E0,1.757399917E0,5.822099686E0
1.186799375E1,-7.810999751E-1,2.848599911E0,5.299799919E0
1.188799375E1,-2.626999915E-1,3.266499996E0,6.524299622E0
1.190799375E1,2.827999890E-1,3.064699888E0,6.574199677E0
1.192799375E1,-4.784999788E-1,3.778800011E0,6.924999714E0
1.194799375E1,-2.274999857E0,5.165199757E0,6.713899612E0
1.196799375E1,-2.924799919E0,5.351599693E0,5.420799732E0
1.198799375E1,-2.181999922E0,4.874000072E0,4.394299984E0
1.200799375E1,-1.562500000E0,4.862299919E0,2.754799843E0
1.202799375E1,-1.713400006E0,4.408099651E0,3.766999841E-1
1.204799375E1,-1.748899937E0,1.809999906E-2,-3.734299898E0
1.206799375E1,2.423399925E0,-1.082459927E1,-8.925399780E0
1.208799375E1,3.762699842E0,-1.198549938E1,-1.721870041E1
1.210799375E1,4.698699951E0,-5.427199841E0,-1.106739998E1
1.212799375E1,3.604199886E0,6.186000109E-1,-5.651499748E0
1.214799375E1,3.504400015E0,2.701999903E0,-2.591300011E0
1.216799531E1,2.411000013E0,-1.606699944E0,-5.457299709E0
1.219799375E1,-6.079099655E0,-3.112499952E0,1.736989975E1
1.221799375E1,-9.463299751E0,-2.399899960E0,2.848999798E-1
1.223799375E1,-6.387599945E0,4.421599865E0,5.552299976E0
1.225799375E1,-3.314899921E0,4.300300121E0,9.644000053E0
1.227799375E1,-3.785499811E0,-1.892799973E0,7.466899872E0
1.229799375E1,-1.814000010E0,-9.295899391E0,6.646999836E0
1.231799375E1,-9.460999966E-1,-6.778800011E0,5.655799866E0
1.233799375E1,2.507999897E0,-2.485999823E0,-4.039899826E0
1.235799375E1,2.066499949E0,1.499899983E0,3.632799864E0
1.237799375E1,2.649999857E0,1.833099961E0,3.142299891E0
1.239799375E1,1.604299903E0,1.046499968E0,1.410200000E0
1.241799375E1,7.786999941E-1,6.694999933E-1,2.023699999E0
1.243799375E1,7.360000163E-2,1.848299980E0,3.741999865E-1
1.245799531E1,1.174999997E-1,2.394799948E0,-2.296099901E0
1.248799375E1,6.579999924E-1,1.989499927E0,-1.726999998E0
1.250799375E1,9.472000003E-1,1.977899909E0,-1.105499983E0
1.252799375E1,1.119899988E0,2.194399834E0,-4.671999812E-1
1.254799375E1,1.417500019E0,1.658100009E0,4.066999853E-1
1.256799375E1,1.541700006E0,5.289999843E-1,7.861999869E-1
1.258799375E1,2.293499947E0,3.423999846E-1,-5.138999820E-1
1.260799375E1,3.334499836E0,1.456999928E-1,-2.366499901E0
1.262799375E1,4.247499943E0,-2.632599831E0,-4.355400085E0
1.264799375E1,4.235799789E0,-4.093100071E0,-5.553499699E0
1.266799375E1,2.714999914E0,-2.462800026E0,-4.243999958E0
1.268799375E1,5.162999630E-1,-2.882799864E0,-3.158499956E0
1.270799375E1,-4.430999756E-1,-5.055900097E0,-4.183899879E0
1.272799375E1,-6.152999997E-1,-6.256299973E0,-5.983200073E0
1.274799375E1,-1.752599955E0,-3.354799986E0,-1.093340015E1
1.276799375E1,1.066999957E-1,-2.898699999E0,1.100399971E0
1.278799375E1,7.709999681E-1,-2.788199902E0,3.863699913E0
1.280799375E1,4.822999835E-1,-5.754099846E0,3.963199854E0
1.282799375E1,4.270000011E-2,-8.229899406E0,4.108699799E0
1.284799375E1,7.881999612E-1,-5.342299938E0,1.417199969E0
1.286799375E1,8.098999858E-1,-1.768899918E0,-2.919699907E0
1.288799375E1,-1.661000013E0,9.799999744E-2,1.489000022E-1
1.290799375E1,-3.348599911E0,1.145499945E0,4.281599998E0
1.292799375E1,-3.216399908E0,5.554000139E-1,5.959799767E0
1.294799375E1,-3.068499804E0,8.495999575E-1,3.269699812E0
1.296799375E1,-1.970699906E0,1.400499940E0,3.634500027E0
1.298799375E1,-1.160200000E0,2.267199993E0,5.810599804E0
1.300799375E1,-3.677999973E-1,2.644999981E0,5.773599625E0
1.302799375E1,-4.034999907E-1,3.244299889E0,5.123099804E0
1.304799375E1,-2.578299999E0,5.296999931E0,5.664199829E0
1.306799375E1,-3.419299841E0,6.105399609E0,4.727699757E0
1.308799375E1,-2.897599936E0,6.140299797E0,3.809499979E0
1.310799375E1,-2.418099880E0,5.931200027E0,3.534999847E0
1.312799375E1,-1.504199982E0,4.827899933E0,1.684299946E0
1.314799375E1,5.760999918E-1,-2.976999879E-1,-4.257800102E0
1.317799375E1,6.156799793E0,-1.268879986E1,-1.543549919E1
1.319799375E1,4.342799664E0,-7.507999897E0,-1.048189926E1
1.321799375E1,2.475999832E0,-6.625999808E-1,-5.384299755E0
1.324799375E1,-2.019199848E0,-1.084819984E1,-1.509639931E1
1.326799375E1,-7.117999792E-1,-8.226200104E0,1.774580002E1
1.329799375E1,-4.616499901E0,5.893300056E0,1.610309982E1
1.331799375E1,-4.449100018E0,1.077429962E1,-5.053699970E0
1.333799375E1,-4.578499794E0,6.932399750E0,1.408499956E0
1.335799531E1,-7.098799706E0,4.037999809E-1,8.209099770E0
1.338799375E1,3.927999973E0,-1.722789955E1,2.288300037E0
1.340799375E1,5.521999598E-1,-6.351500034E0,2.450099945E0
1.342799375E1,-7.716000080E-1,-8.690999746E-1,3.903199911E0
1.344799375E1,8.779999614E-1,1.810599923E0,2.013999939E0
1.346799375E1,1.162699938E0,1.857899904E0,1.668399930E0
1.348799375E1,9.152999520E-1,1.202099919E0,1.811299920E0
1.350799375E1,7.098000050E-1,1.364300013E0,9.099999815E-2
1.352799375E1,6.457999945E-1,8.542000055E-1,-1.362800002E0
1.354799375E1,6.631000042E-1,2.899999917E-1,-1.325699925E0
1.356799375E1,6.581999660E-1,9.046999812E-1,-8.458999991E-1
1.358799375E1,5.882999897E-1,2.281100035E0,-3.556999862E-1
1.360799375E1,5.444999933E-1,2.725600004E0,2.506999969E-1
1.362799375E1,7.455999851E-1,2.473700047E0,5.737999678E-1
1.364799375E1,9.077000022E-1,2.166899920E0,9.862999916E-1
1.366799375E1,1.264199972E0,4.952999949E-1,1.259500027E0
1.368799375E1,2.026499987E0,-9.957999587E-1,1.105999947E-1
1.370799375E1,2.664899826E0,-1.303499937E0,-1.879699945E0
1.372799375E1,3.315599918E0,-2.141700029E0,-4.084599972E0
1.374799375E1,3.450999975E0,-2.991600037E0,-5.905399799E0
1.376799375E1,2.533999920E0,-2.543799877E0,-5.841599941E0
1.378799375E1,1.656999946E0,-2.216099977E0,-5.337199688E0
1.380799375E1,1.655099988E0,-2.614300013E0,-5.176199913E0
1.382799375E1,2.343999863E0,-3.372699976E0,-5.042699814E0
1.384799375E1,2.560400009E0,-3.289899826E0,-3.752099991E0
1.386799375E1,1.298900008E0,-2.111099958E0,-1.890799999E0
1.388799375E1,1.112100005E0,-3.291800022E0,2.165400028E0
1.390799375E1,9.465000033E-1,-6.375499725E0,3.592999935E0
1.392799375E1,-6.955999732E-1,-9.973899841E0,3.747299910E0
1.394799531E1,-2.197999954E-1,-8.142999649E0,3.165699959E0
1.396799531E1,9.888999462E-1,-3.460099936E0,8.808999658E-1
1.399799375E1,-1.844900012E0,-3.709999844E-2,-2.671000063E-1
1.401799531E1,-3.782599926E0,1.316699982E0,3.527499914E0
1.404799531E1,-2.938099861E0,1.072099924E0,5.909299850E0
1.407799375E1,-1.710399985E0,2.348599911E0,5.920399666E0
1.409799375E1,-5.342000127E-1,2.610299826E0,5.845200062E0
1.411799375E1,-3.574000001E-1,2.656299829E0,3.802500010E0
1.413799375E1,-9.856999516E-1,2.478299856E0,3.958299875E0
1.415799375E1,-2.204400063E0,3.308099985E0,5.034399986E0
1.417799375E1,-2.654399872E0,3.919799805E0,3.525899887E0
1.419799375E1,-2.695999861E0,4.015999794E0,2.000200033E0
1.421799375E1,-2.733999968E0,4.227200031E0,1.092999950E-1
1.423799375E1,-2.278699875E0,4.008899689E0,-4.894999862E-1
1.425799375E1,-1.901899934E0,2.820699930E0,-6.050999761E-1
1.427799375E1,4.136999846E-1,3.766999841E-1,-3.854999840E-1
1.429799375E1,2.755599976E0,-1.549199939E0,-2.119899988E0
1.431799375E1,4.709399700E0,-2.988799810E0,-5.604599953E0
1.433799375E1,6.154999733E0,-5.282199860E0,-8.834899902E0
1.435799531E1,7.487799644E0,-5.463299751E0,-4.522599697E0
1.438799375E1,5.345699787E0,8.636999726E-1,-1.290399909E0
1.440799375E1,4.748300076E0,3.687899828E0,-7.854999900E-1
1.442799375E1,8.440999985E-1,2.199800014E0,7.221499920E0
1.444799375E1,-6.383299828E0,8.100000024E-2,1.056879997E1
1.446799375E1,-1.527219963E1,-1.607519913E1,-4.211629868E1
1.448799375E1,-1.375809956E1,-1.184939957E1,2.010330009E1
1.450799375E1,-5.102200031E0,4.526499748E0,1.118060017E1
1.452799375E1,-5.860999823E-1,8.265399933E0,7.906499863E0
1.454799375E1,-1.277599931E0,6.295199871E0,5.557799816E0
1.456799375E1,-2.249500036E0,-1.876399994E0,5.569399834E0
1.458799375E1,-1.196399927E0,-1.154249954E1,5.893499851E0
1.460799375E1,3.996999860E-1,-8.261499405E0,2.019700050E0
1.462799375E1,1.780399919E0,-1.028399944E0,7.013999820E-1
1.464799375E1,2.481699944E0,1.506099939E0,6.557999849E-1
1.466799375E1,1.364799976E0,1.454000026E-1,1.351599932E0
1.468799375E1,1.063699961E0,1.144199967E0,2.345299959E0
1.470799375E1,8.825999498E-1,2.920099974E0,1.142599940E0
1.472799375E1,1.676899910E0,2.948899984E0,-7.954999804E-1
1.474799531E1,2.081399918E0,2.103999853E0,-1.250299931E0
1.477799375E1,1.849200010E0,1.343599916E0,-1.586699963E0
1.479799375E1,1.603899956E0,1.277699947E0,-2.617000043E-1
1.481799375E1,8.933999538E-1,1.781799912E0,8.254999518E-1
1.483799375E1,2.619999945E-1,1.396099925E0,1.146099925E0
1.485799531E1,2.620999813E-1,1.803999990E-1,3.928000033E-1
1.488799375E1,1.797399998E0,-1.128600001E0,-2.402899981E0
1.490799375E1,2.415999889E0,-2.703500032E0,-4.317299843E0
1.492803750E1,2.442199945E0,-3.224200010E0,-5.362199783E0
1.495799375E1,2.375999928E0,-2.974599838E0,-2.175999880E0
1.497799375E1,2.185099840E0,-3.149199963E0,-1.532499909E0
1.499799375E1,2.294399977E0,-4.086899757E0,-2.696599960E0
1.501799375E1,2.097300053E0,-4.207699776E0,-3.521899939E0
1.503799375E1,1.307199955E0,-3.497699976E0,-3.355199814E0
1.505799375E1,5.260000005E-2,-1.957499981E0,-3.507900000E0
1.507799844E1,-3.006299973E0,4.539999738E-2,-6.407899857E0
1.510799375E1,-7.587999701E-1,-2.907500029E0,1.787499905E0
1.512799375E1,-5.286999941E-1,-5.151899815E0,3.365399837E0
1.514799375E1,-2.560999990E-1,-5.473199844E0,2.846699953E0
1.516799375E1,1.243600011E0,-4.400599957E0,-6.231999993E-1
1.518799375E1,4.054999948E-1,-2.206599951E0,-2.257999927E-1
1.520799375E1,-9.437999725E-1,-1.014299989E0,1.698300004E0
1.522799375E1,-1.505699992E0,-1.989999972E-2,3.678499937E0
1.524799375E1,-1.377599955E0,9.359999895E-1,5.308499813E0
1.526799375E1,-1.238699913E0,1.315999985E0,6.121999741E0
1.528799375E1,-6.911999583E-1,1.164199948E0,5.882899761E0
1.530800312E1,1.989999972E-2,7.899000049E-1,4.112299919E0
1.533799375E1,-2.199999988E-2,1.237900019E0,5.488699913E0
1.535799375E1,-2.266499996E0,3.569199800E0,5.667200089E0
1.537799375E1,-3.972399950E0,4.704599857E0,5.054299831E0
1.539799375E1,-4.533999920E0,5.189300060E0,4.114999771E0
1.541799375E1,-4.172599792E0,5.930999756E0,2.805999994E0
1.543799375E1,-3.943199873E0,7.017600060E0,1.584599972E0
1.545799688E1,-3.297399998E0,6.596600056E0,-2.619000077E-1
1.548799375E1,1.293999910E0,-7.718999982E-1,-3.911499977E0
1.550799375E1,4.696499825E0,-9.149600029E0,-8.901100159E0
1.552799375E1,8.112500191E0,-1.239059925E1,-1.574129963E1
1.554799375E1,9.855199814E0,-6.318299770E0,-7.502199650E0
1.556799375E1,8.693900108E0,-1.384199977E0,-3.097399950E0
1.558799375E1,5.277699947E0,-1.940299988E0,1.153100014E0
1.560799375E1,-5.094899654E0,-1.818499923E0,1.376760006E1
1.562799375E1,-1.090199947E1,-7.236299992E0,-6.796799660E0
1.564799375E1,-1.030070019E1,-6.419000030E-1,9.071199417E0
1.566799375E1,-7.700299740E0,7.203699589E0,9.735699654E0
1.568800781E1,-5.732500076E0,3.864899874E0,5.616899967E0
1.571799375E1,-3.506399870E0,-7.583699703E0,4.913599968E0
1.573799375E1,-1.916700006E0,-8.374199867E0,7.136699677E0
1.575799375E1,-1.279999971E0,-3.798399925E0,6.778999805E0
1.577799375E1,4.227999747E-1,-4.849999845E-1,4.621500015E0
1.579799375E1,3.100299835E0,4.893199921E0,-5.173899651E0
1.581799375E1,1.310799956E0,1.955799937E0,1.586300015E0
1.583799375E1,1.271899939E0,-9.237999916E-1,2.279899836E0
1.585799531E1,1.257099986E0,1.012499928E0,4.511999786E-1
1.587799531E1,1.727499962E0,2.963199854E0,-1.286499977E0
1.590799375E1,1.857599974E0,2.552099943E0,-1.178599954E0
1.592799375E1,8.356999755E-1,1.262399912E0,-1.669299960E0
1.594799375E1,3.339999914E-1,7.929999828E-1,-1.332000017E0
1.596799375E1,1.569999903E-1,8.881999850E-1,-2.273999900E-1
1.598799375E1,4.226000011E-1,8.170999885E-1,1.177799940E0
1.600799375E1,1.190299988E0,1.640000008E-2,1.146399975E0
1.602799375E1,1.754899979E0,-1.035300016E0,-1.147699952E0
1.604799375E1,2.422199965E0,-2.681099892E0,-4.200699806E0
1.606799375E1,3.120899916E0,-3.791800022E0,-6.086199760E0
1.608799375E1,3.411799908E0,-3.126399994E0,-4.387399673E0
1.610799375E1,2.561399937E0,-2.610999823E0,-1.937299967E0
1.612799375E1,1.075600028E0,-2.481099844E0,-2.576200008E0
1.614799375E1,5.995999575E-1,-3.119199991E0,-4.474800110E0
1.616799375E1,1.169399977E0,-3.368700027E0,-5.303099632E0
1.618799375E1,1.179899931E0,-2.853399992E0,-5.363999844E0
1.620799375E1,-2.534999847E-1,-1.661799908E0,-5.107599735E0
1.622799375E1,-3.152000010E-1,-1.722000003E0,1.130800009E0
1.624799375E1,5.460000038E-2,-3.979599953E0,3.138099909E0
1.626799375E1,-1.350600004E0,-6.913699627E0,2.361999989E0
1.628799375E1,-1.755299926E0,-6.445099831E0,1.523699999E0
1.630800313E1,-9.659999609E-2,-3.606999874E0,1.446999907E-1
1.633799375E1,-1.075600028E0,-1.118000031E0,3.680000082E-2
1.635799531E1,-2.564100027E0,-3.725000024E-1,2.439399958E0
1.637799531E1,-2.450399876E0,3.130999804E-1,5.923699856E0
1.640799375E1,-1.399299979E0,9.011999965E-1,3.975999832E0
1.642799375E1,-6.904000044E-1,1.499799967E0,4.170399666E0
1.644799375E1,-3.838999867E-1,2.354500055E0,5.481699944E0
1.646799375E1,1.389999967E-2,2.756799936E0,5.575999737E0
1.648799375E1,-1.355899930E0,4.077499866E0,5.878099918E0
1.650799375E1,-3.081499815E0,5.155200005E0,5.254099846E0
1.652799375E1,-3.546499968E0,5.335999966E0,4.363399982E0
1.654799375E1,-3.277999878E0,5.528999805E0,3.508800030E0
1.656799375E1,-2.689499855E0,5.330899715E0,2.234799862E0
1.658799531E1,-1.559599996E0,3.756999969E0,-1.035300016E0
1.661799375E1,4.302599907E0,-3.425299883E0,-8.307199478E0
1.663799375E1,7.105799675E0,-9.159199715E0,-5.380499840E0
1.665799375E1,6.163599968E0,-8.673099518E0,-7.784299850E0
1.667799375E1,6.182299614E0,-4.657000065E0,-6.218299866E0
1.669799375E1,-1.241799951E0,-6.406099796E0,-3.789399862E0
1.671799375E1,-5.143599987E0,-1.076709938E1,-8.535399437E0
1.673799375E1,-6.216099739E0,-9.188999534E-1,1.848929977E1
1.675799375E1,-6.394700050E0,7.111199856E0,1.178590012E1
1.677799375E1,-6.837100029E0,1.104979992E1,2.048599958E0
1.679799375E1,-4.941699982E0,6.409199715E0,4.399600029E0
1.681799375E1,-5.449899673E0,1.063599944E0,5.711499691E0
1.683799375E1,-2.486199856E0,-9.406999588E0,6.589599609E0
1.685799375E1,1.799399972E0,-1.145870018E1,3.744999886E0
1.687799375E1,1.419399977E0,-1.503399968E0,5.391900063E0
1.689799531E1,2.337699890E0,3.407999873E-1,-2.310299873E0
1.692799375E1,2.616199970E0,6.700000167E-2,2.559900045E0
1.694799375E1,2.173599958E0,1.889799953E0,3.315699816E0
1.696799375E1,1.068499923E0,3.597599983E0,4.196999967E-1
1.698799375E1,3.841999769E-1,2.415999889E0,-1.651999950E0
1.700799375E1,-1.090000011E-2,1.489899993E0,-1.938699961E0
1.702799375E1,-7.440000027E-2,1.527899981E0,-1.261899948E0
1.704799375E1,5.089999735E-2,1.462000012E0,-2.266999930E-1
1.706799375E1,1.621999890E-1,8.200999498E-1,5.939999819E-1
1.708799531E1,2.690999806E-1,-4.799000025E-1,7.293999791E-1
1.710799531E1,1.022899985E0,-8.068000078E-1,-7.330999970E-1
1.712799531E1,2.755199909E0,-8.965999484E-1,-3.389699936E0
1.715799375E1,3.803799868E0,-2.406399965E0,-5.003999710E0
1.717799375E1,3.057799816E0,-2.516899824E0,-5.345900059E0
1.719799375E1,3.136499882E0,-2.160199881E0,-5.035899639E0
1.721799375E1,3.293900013E0,-2.229599953E0,-3.945499897E0
1.723799375E1,2.617699862E0,-3.620800018E0,-3.419799805E0
1.725799375E1,1.683000028E-1,-2.486999989E0,-4.790400028E0
1.727799375E1,8.488999605E-1,-2.331699848E0,1.509599924E0
1.729799375E1,-5.170999765E-1,-1.403599977E0,1.714599967E0
1.731799375E1,-1.211499929E0,-4.463500023E0,1.195500016E0
1.733799375E1,-2.953799963E0,-9.136899948E0,1.424700022E0
1.735799531E1,-4.300199986E0,-7.549399853E0,7.529000044E-1
1.737799531E1,-2.277999878E0,-2.645599842E0,-5.245000124E-1
1.740799375E1,-2.741099834E0,4.123999774E-1,9.995999932E-1
1.742799375E1,-3.156800032E0,1.141499996E0,3.981599808E0
1.744799375E1,-2.741099834E0,9.879999757E-1,6.229899883E0
1.746799375E1,-2.101599932E0,1.186499953E0,6.376800060E0
1.748799375E1,-8.101999760E-1,1.965899944E0,5.348199844E0
1.750799375E1,8.879999816E-2,1.801599979E0,3.593899965E0
1.752799375E1,7.788999677E-1,1.835299969E0,4.524300098E0
1.754799375E1,-6.275999546E-1,3.275199890E0,6.103499889E0
1.756799531E1,-2.117799997E0,4.899699688E0,5.753399849E0
1.759799375E1,-1.916000009E0,5.750899792E0,4.316100121E0
1.761799375E1,-1.111799955E0,5.400000095E0,3.055500031E0
1.763799375E1,-7.748999596E-1,4.708799839E0,2.206899881E0
1.765799375E1,-7.120999694E-1,3.472299814E0,2.263999879E-1
1.767799844E1,4.943999946E-1,-8.938999772E-1,-4.637300014E0
1.770799375E1,3.182899952E0,-1.128450012E1,-1.402899933E1
1.772799375E1,4.218100071E0,-8.384900093E0,-1.095660019E1
1.774799375E1,3.338299990E0,-1.869499922E0,-5.068399906E0
1.776799375E1,2.453699827E0,2.220599890E0,-1.791499972E0
1.778799375E1,-9.024999738E-1,-1.727699995E0,-3.540499926E0
1.780799375E1,-3.598099947E0,-6.755699635E0,1.684899926E0
1.782799375E1,-7.851500034E0,-5.165599823E0,7.288699627E0
1.784799375E1,-9.606599808E0,1.535300016E0,5.735799789E0
1.786799375E1,-6.708999634E0,8.437799454E0,9.128699303E0
1.788799375E1,-4.160799980E0,6.187999725E0,4.902199745E0
1.790799375E1,-2.673300028E0,-1.923999935E-1,5.062099934E0
1.792799375E1,7.149999589E-2,-9.583799362E0,7.253200054E0
1.794799375E1,1.202899933E0,-9.994999886E0,3.817199945E0
1.796799375E1,4.896999896E-1,-3.540299892E0,3.795799971E0
1.798799375E1,1.928999901E0,8.144999743E-1,1.653699994E0
1.800799375E1,4.579599857E0,3.329599857E0,-1.325799942E0
1.802799375E1,2.158099890E0,3.664999902E-1,-4.999999702E-2
1.804799375E1,1.742799997E0,-4.820000008E-2,3.146799803E0
1.806799375E1,1.237900019E0,2.107599974E0,2.071399927E0
1.808799375E1,1.058099985E0,2.627799988E0,-1.485700011E0
1.810799375E1,1.429199934E0,1.317099929E0,-2.791399956E0
1.812799375E1,1.381999969E0,1.081399918E0,-2.659099817E0
1.814799375E1,1.286499977E0,1.100600004E0,-5.713999867E-1
1.816799375E1,7.572999597E-1,1.669999957E0,6.644999981E-1
1.818799375E1,5.771999955E-1,1.676999927E0,1.446599960E0
1.820799531E1,4.684999883E-1,3.313999772E-1,1.914099932E0
1.822799531E1,3.321999907E-1,-1.138999939E0,5.473999977E-1
1.824799531E1,5.196999907E-1,-1.754499912E0,-1.788399935E0
1.826799531E1,8.131999969E-1,-2.314399958E0,-4.859999657E0
1.828799531E1,1.588400006E0,-2.842799902E0,-8.130399704E0
1.830800469E1,2.751499891E0,-3.079699993E0,-6.442899704E0
1.833799531E1,2.386600018E0,-2.215600014E0,-2.470000029E0
1.835799531E1,1.585199952E0,-2.476699829E0,-4.289499760E0
1.837799531E1,9.460999966E-1,-2.836199999E0,-6.518399715E0
1.840799531E1,1.323400021E0,-2.434900045E0,2.705000043E-1
1.842799531E1,1.455799937E0,-2.217599869E0,3.351300001E0
1.844799531E1,1.396299958E0,-4.651599884E0,3.666199923E0
1.846799531E1,-1.849000007E-1,-8.493499756E0,3.526599884E0
1.848799531E1,-1.662400007E0,-7.723599911E0,2.321300030E0
1.850799531E1,-5.938000083E-1,-3.627399921E0,-1.653299928E0
1.852799531E1,-2.253999949E0,-7.430999875E-1,-1.722299933E0
1.854799531E1,-3.711499929E0,1.060299993E0,1.207999945E0
1.856799531E1,-4.082200050E0,1.692999959E0,4.016799927E0
1.858799531E1,-3.687500000E0,1.296599984E0,4.920199871E0
1.860799531E1,-2.501199961E0,1.584800005E0,4.022200108E0
1.862799531E1,-1.386799932E0,2.389899969E0,5.365399837E0
1.864799531E1,-5.803999901E-1,3.020900011E0,4.768099785E0
1.866799531E1,-4.070999920E-1,2.779000044E0,3.959699869E0
1.868799531E1,-1.152999997E0,2.901099920E0,5.201399803E0
1.870799531E1,-2.430099964E0,4.000400066E0,4.823499680E0
1.872799531E1,-2.649699926E0,4.776199818E0,3.793900013E0
1.874799531E1,-2.110599995E0,5.209300041E0,3.638000011E0
1.876799531E1,-1.346699953E0,4.859299660E0,3.232800007E0
1.878799531E1,-1.088899970E0,4.281599998E0,2.346099854E0
1.880799531E1,-6.484000087E-1,2.290699959E0,-4.797999859E-1
1.882799531E1,1.292500019E0,-2.785399914E0,-6.170000076E0
1.884799531E1,4.280799866E0,-1.032339954E1,-1.336049938E1
1.886799531E1,5.322099686E0,-9.064599991E0,-1.161380005E1
1.888799531E1,2.799999952E0,-2.942799807E0,-5.307799816E0
1.890799531E1,1.514699936E0,1.904699922E0,-3.040499926E0
1.892799531E1,-1.401999891E-1,2.773999929E0,-9.863999486E-1
1.894799531E1,-3.206099987E0,-1.127699971E0,-7.369999886E-1
1.896799531E1,-6.221899986E0,-5.276400089E0,8.399999619E0
1.898799531E1,-5.479599953E0,-1.132409954E1,-2.448699951E0
1.900799531E1,-5.315299988E0,4.351299763E0,1.165520000E1
1.902799531E1,-3.758299828E0,8.294199944E0,6.937999725E0
1.904799531E1,-2.886899948E0,4.976799965E0,5.102399826E0
1.906799531E1,-3.220199823E0,-5.595900059E0,5.827499866E0
1.908799531E1,-1.695699930E0,-1.214839935E1,7.809999943E0
1.910799531E1,-2.518000007E-1,-6.907299995E0,1.436399937E0
1.912799531E1,1.590399981E0,-1.089100003E0,5.112000108E-1
1.914799531E1,2.823999882E0,1.728999972E0,1.940999985E0
1.916799531E1,1.526700020E0,1.766299963E0,-1.194999963E-1
1.918799531E1,5.629999936E-2,1.591399908E0,1.203899980E0
1.920799531E1,-4.240999818E-1,1.588099957E0,1.329999924E0
1.922799531E1,-4.111999869E-1,2.669699907E0,-1.770000011E-1
1.924799531E1,2.838999927E-1,3.041699886E0,-1.737199903E0
1.926799531E1,7.766000032E-1,2.676899910E0,-2.507999897E0
1.928799531E1,9.734999537E-1,1.880299926E0,-1.507399917E0
1.930800469E1,9.883999825E-1,2.001999855E0,1.640999913E-1
1.933799531E1,8.665999770E-1,1.269500017E0,1.906099916E0
1.935799531E1,7.968999743E-1,1.860000007E-2,7.250999808E-1
1.937799531E1,1.245100021E0,-1.612000018E-1,-2.278599977E0
1.939799531E1,1.634799957E0,-1.494300008E0,-4.546299934E0
1.941799531E1,1.441299915E0,-2.276099920E0,-5.033199787E0
1.943799531E1,7.279999852E-1,-2.286200047E0,-3.398999929E0
1.945799531E1,-4.303999841E-1,-2.270400047E0,-2.149800062E0
1.947799531E1,-1.115399957E0,-1.969899893E0,-3.317399979E0
1.949799531E1,-1.638999939E0,-2.478999853E0,-4.885900021E0
1.951799531E1,-1.967899919E0,-3.406899929E0,-5.736999989E0
1.953799531E1,-1.483999938E-1,-3.839299917E0,-6.301399708E0
1.955799531E1,1.779699922E0,-4.327799797E0,-9.446000099E0
1.957799531E1,8.489999771E-1,-3.622399807E0,1.076399922E0
1.959799531E1,-6.165999770E-1,-3.451499939E0,4.463999748E0
1.961799531E1,-1.612100005E0,-4.684299946E0,2.771600008E0
1.963799531E1,3.269999847E-2,-6.718800068E0,2.354300022E0
1.965799531E1,1.955299973E0,-6.585799694E0,7.608000040E-1
1.967799688E1,3.347599983E0,-3.887399912E0,-9.732999802E-1
1.970799531E1,4.244999886E-1,1.989999972E-2,5.048999786E-1
1.972799531E1,-1.783100009E0,1.749099970E0,3.984799862E0
1.974799531E1,-2.608099937E0,2.600899935E0,6.421400070E0
1.976799531E1,-9.846999645E-1,1.667899966E0,7.228199959E0
1.978799531E1,-1.834999919E-1,1.625499964E0,6.037099838E0
1.980799531E1,-4.145999849E-1,2.044399977E0,5.072799683E0
1.982799531E1,-3.824999928E-1,1.736299992E0,5.307499886E0
1.984799531E1,-1.165599942E0,1.424399972E0,6.396399975E0
1.986799531E1,-3.813299894E0,3.327699900E0,5.325200081E0
1.988799531E1,-5.462199688E0,4.239500046E0,4.018000126E0
1.991803438E1,-5.976999760E0,5.310100079E0,1.621799946E0
1.994799375E1,-2.366199970E0,4.512700081E0,-9.284999967E-1
1.996799375E1,6.624000072E-1,2.418499947E0,-1.867499948E0
1.998799375E1,3.801399946E0,-1.489499927E0,-4.234799862E0
2.000799375E1,7.523999691E0,-9.124499321E0,-1.132329941E1
2.002799375E1,4.899300098E0,-1.124969959E1,-1.150969982E1
2.004799375E1,4.848099709E0,-7.221399784E0,-3.185400009E0
2.006799375E1,4.108399868E0,7.436000109E-1,-3.945499897E0
2.008799375E1,3.249999881E-2,-1.955399990E0,-4.222999811E-1
2.010799375E1,-5.425299644E0,-1.991199970E0,1.092700005E1
2.012799375E1,-6.577699661E0,-6.624399662E0,-1.127900004E0
2.014799375E1,-6.958799839E0,4.015699863E0,1.030539989E1
2.016799375E1,-6.906399727E0,8.643300056E0,3.035599947E0
2.018799375E1,-4.262399673E0,1.790199995E0,3.279500008E0
2.020799375E1,-2.421599865E0,-5.625799656E0,5.806799889E0
2.022799375E1,-5.295999646E-1,-7.427899837E0,6.564099789E0
2.024799375E1,1.230299950E0,-3.303900003E0,-1.281000018E0
2.026799375E1,1.798200011E0,8.519999981E-1,3.180699825E0
2.028799375E1,2.732199907E0,2.021800041E0,1.394400001E0
2.030800313E1,1.218899965E0,1.512599945E0,1.041999981E-1
2.033799375E1,-3.409999982E-2,2.046099901E0,1.868799925E0
2.035799375E1,-2.609999850E-2,1.817899942E0,8.539999723E-1
2.037799531E1,6.977999806E-1,1.351499915E0,-1.289999962E0
2.040799375E1,1.964899898E0,9.265999794E-1,-1.921099901E0
2.042799375E1,1.932599902E0,1.153599977E0,-1.529699922E0
2.044799375E1,1.414899945E0,1.132900000E0,7.599999662E-3
2.046799375E1,8.143999577E-1,1.091300011E0,1.553900003E0
2.048799375E1,8.296999931E-1,7.224999666E-1,3.015100002E0
2.050799375E1,8.599999547E-1,-5.041999817E-1,3.071199894E0
2.052799375E1,9.230999947E-1,-1.477699995E0,1.344900012E0
2.054799375E1,6.477999687E-1,-1.541099906E0,-1.015200019E0
2.056799375E1,7.400000002E-3,-2.097100019E0,-4.065400124E0
2.058799375E1,-3.425000012E-1,-3.111399889E0,-7.591799736E0
2.060799375E1,1.093599916E0,-3.274999857E0,-7.171399593E0
2.062799375E1,2.170899868E0,-3.378999949E0,-3.306699991E0
2.064799375E1,2.702999830E0,-3.352699995E0,-1.318599939E0
2.066799375E1,2.594699860E0,-3.735199928E0,-1.630800009E0
2.068799375E1,1.813899994E0,-3.690399885E0,-1.817199945E0
2.070799375E1,-6.889999658E-2,-1.979299903E0,-2.296099901E0
2.072799375E1,-3.170599937E0,4.311999977E-1,-6.730599880E0
2.074799375E1,-1.495899916E0,-1.742900014E0,-1.740000024E-2
2.076799375E1,-5.026999712E-1,-4.081599712E0,2.690199852E0
2.079799375E1,-6.363999844E-1,-4.943500042E0,3.937199831E0
2.081799375E1,-1.065999940E-1,-3.190699816E0,3.414399862E0
2.083799375E1,2.583000064E-1,-2.031599998E0,-1.845299959E0
2.085800469E1,-1.987299919E0,-2.284999937E-1,4.279999807E-2
2.088799375E1,-3.215299845E0,1.647499919E0,4.211599827E0
2.090799375E1,-2.520200014E0,1.597099900E0,3.861299992E0
2.092799375E1,-1.994300008E0,1.729399920E0,2.713299990E0
2.094799375E1,-2.293099880E0,2.143499851E0,4.328700066E0
2.096799375E1,-1.428399920E0,2.165600061E0,6.377899647E0
2.098799375E1,-4.287999868E-1,1.605899930E0,4.079199791E0
2.100799375E1,-1.365099907E0,2.501699924E0,3.016399860E0
2.102799375E1,-2.429899931E0,4.028100014E0,3.180999994E0
2.104799375E1,-2.223599911E0,4.553800106E0,2.909099817E0
2.106799375E1,-1.559899926E0,4.293600082E0,2.333899975E0
2.108799375E1,-9.461999536E-1,3.360699892E0,1.544499993E0
2.110799375E1,-3.211999834E-1,2.195199966E0,-7.421999574E-1
2.112799375E1,1.390399933E0,1.447999924E-1,-2.646199942E0
2.115799375E1,5.061899662E0,-5.473099709E0,-7.016599655E0
2.117799375E1,5.680199623E0,-7.033499718E0,-9.060099602E0
2.119799375E1,3.748299837E0,-5.046400070E0,-4.255399704E0
2.121799375E1,1.809999943E0,-1.104599953E0,-1.410599947E0
2.123799375E1,1.027400017E0,2.823899984E0,-3.799999952E-1
2.125799375E1,-8.375999928E-1,4.087199688E0,1.065699935E0
2.127801875E1,-3.648399830E0,1.237599969E0,4.122099876E0
2.130800313E1,-1.038119984E1,-7.094699860E0,-5.991600037E0
2.133799375E1,-6.785199642E0,-1.110299945E0,1.068519974E1
2.135799375E1,-2.699199915E0,7.225100040E0,1.133339977E1
2.137799375E1,-1.470699906E0,7.484099865E0,7.757499695E0
2.139799375E1,-1.473500013E0,1.848199964E0,1.692499995E0
2.141799375E1,-1.299499989E0,-7.571899891E0,3.530799866E0
2.143799375E1,4.495999813E-1,-9.871399879E0,5.639199734E0
2.145799375E1,3.931199789E0,-3.211199999E0,3.292699814E0
2.147799375E1,4.612099648E0,4.143999815E-1,-3.416299820E0
2.149799375E1,8.100999594E-1,8.775999546E-1,1.957699895E0
2.151799375E1,2.089999914E-1,1.615799904E0,3.769799948E0
2.153799375E1,-3.746999800E-1,2.750200033E0,2.390499830E0
2.155799375E1,-2.897000015E-1,2.283799887E0,9.278999567E-1
2.157799375E1,6.799999624E-2,1.296299934E0,-4.148999751E-1
2.159799375E1,4.409999847E-1,3.653999865E-1,-1.349299908E0
2.161799375E1,6.064999700E-1,3.084999919E-1,-1.901299953E0
2.163799375E1,2.664999962E-1,1.315599918E0,-2.374399900E0
2.165799375E1,1.639999896E-1,1.803999901E0,-1.479499936E0
2.167799375E1,1.603000015E-1,1.779299974E0,3.270999789E-1
2.169799375E1,1.036999971E-1,1.439999938E0,2.072399855E0
2.171799375E1,4.179999828E-1,4.055999815E-1,2.576999903E0
2.173799375E1,1.048300028E0,-3.737999797E-1,7.453999519E-1
2.175799375E1,2.016299963E0,-7.889999747E-1,-1.281000018E0
2.177799375E1,2.400799990E0,-1.516999960E0,-2.197000027E0
2.179799375E1,1.689199924E0,-3.445099831E0,-2.315500021E0
2.181799375E1,2.454999983E-1,-3.601499796E0,-3.037999868E0
2.183799375E1,-2.795000076E-1,-3.559099913E0,-3.625199795E0
2.185800625E1,5.089999735E-2,-4.809299946E0,-2.744899988E0
2.188799375E1,6.330999732E-1,-5.403500080E0,-1.789899945E0
2.190799375E1,-1.349000037E-1,-2.871699810E0,-2.971400023E0
2.192799375E1,-9.136999846E-1,-5.956000090E-1,-3.922999859E0
2.194799375E1,-2.713899851E0,1.931499958E0,-8.585800171E0
2.196799375E1,-2.352699995E0,5.885999799E-1,-3.074999809E0
2.198799375E1,-8.513999581E-1,-2.162899971E0,2.075899839E0
2.200799375E1,9.409999847E-2,-3.101899862E0,3.233500004E0
2.202799375E1,6.951000094E-1,-3.124399900E0,3.508899927E0
2.204799375E1,9.894999862E-1,-2.386199951E0,3.409600019E0
2.206799375E1,1.007599950E0,-1.164799929E0,1.903199911E0
2.208799375E1,6.771999598E-1,-1.447699904E0,-1.462299943E0
2.210799375E1,-1.015499949E0,-9.556999803E-1,1.733599901E0
2.212799375E1,-1.827499986E0,-5.119999871E-2,3.919299841E0
2.214799375E1,-1.452099919E0,1.673000008E-1,3.483299971E0
2.216799375E1,-1.651600003E0,-2.230999917E-1,4.022900105E0
2.218799375E1,-1.591399908E0,-2.296999991E-1,4.589499950E0
2.220799375E1,-1.304999948E0,7.991999984E-1,4.611299992E0
2.222799375E1,-2.723599911E0,2.950099945E0,4.001800060E0
2.224799375E1,-3.926699877E0,4.233599663E0,3.887199879E0
2.226799375E1,-4.377999783E0,4.665699959E0,3.512899876E0
2.228799375E1,-3.608699799E0,4.737499714E0,2.889299870E0
2.230800313E1,-2.923699856E0,4.452699661E0,2.373699903E0
2.233799375E1,-2.376999855E0,3.397399902E0,6.511999965E-1
2.235799531E1,-1.970699906E0,2.100999832E0,-1.142300010E0
2.238799375E1,3.313899994E0,-4.810599804E0,-4.806900024E0
2.240799375E1,6.107800007E0,-9.248000145E0,-1.213849926E1
2.242799375E1,6.649199963E0,-6.927399635E0,-1.055119991E1
2.244799531E1,6.146499634E0,-2.821300030E0,-2.430699825E0
2.247799375E1,3.745999813E0,1.417699933E0,3.786999881E-1
2.249799375E1,4.249999821E-1,8.699999750E-2,2.508800030E0
2.251799375E1,-3.731699944E0,-1.958499908E0,1.141279984E1
2.253799375E1,-7.574800014E0,-5.590300083E0,7.718999982E-1
2.255799375E1,-9.744299889E0,-1.872999907E0,-1.942699909E0
2.257799375E1,-7.519399643E0,7.356199741E0,8.620599747E0
2.259799375E1,-5.178099632E0,5.670599937E0,4.342700005E0
2.261799375E1,-3.882699966E0,6.777999997E-1,2.613100052E0
2.263799375E1,-1.630699992E0,-4.614699841E0,4.546299934E0
2.265799531E1,1.528800011E0,-6.148900032E0,6.136899948E0
2.268799375E1,5.024099827E0,-3.977999985E-1,1.049000025E0
2.270799375E1,4.918499947E0,9.983999729E-1,-2.853799820E0
2.272799375E1,2.224599838E0,-4.149999842E-2,1.080699921E0
2.274799375E1,1.191900015E0,7.461999655E-1,3.335399866E0
2.276799375E1,-3.559999913E-2,2.281800032E0,2.214499950E0
2.278799375E1,-2.423999906E-1,1.974999905E0,1.266999990E-1
2.280799375E1,1.335999966E-1,9.461999536E-1,-6.320999861E-1
2.282799375E1,1.396999955E-1,4.535999894E-1,-1.339499950E0
2.284799375E1,1.701999903E-1,6.243000031E-1,-1.533499956E0
2.286799375E1,2.230999917E-1,1.193300009E0,-7.720999718E-1
2.288799375E1,2.976999879E-1,1.308399916E0,3.729999959E-1
2.290799375E1,3.671000004E-1,7.742999792E-1,1.532400012E0
2.292799375E1,5.048999786E-1,3.152999878E-1,2.401200056E0
2.294799375E1,5.514999628E-1,-9.049999714E-2,2.379600048E0
2.296799375E1,3.513999879E-1,-5.339999795E-1,1.543099999E0
2.298799375E1,4.279999807E-2,-1.557799935E0,7.019999623E-2
2.300799375E1,-2.094999999E-1,-2.730599880E0,-2.553499937E0
2.302799375E1,-4.109999835E-1,-3.533099890E0,-6.095699787E0
2.304799375E1,-2.199999988E-1,-3.886499882E0,-9.145400047E0
2.306799375E1,8.355000019E-1,-3.531799793E0,-7.222799778E0
2.308799375E1,1.315099955E0,-3.198400021E0,-2.965899944E0
2.310799375E1,1.088099957E0,-3.034699917E0,-1.987999916E0
2.312799375E1,6.488999724E-1,-2.244799852E0,-2.070699930E0
2.314799375E1,1.185999960E-1,-9.115999937E-1,-3.343699932E0
2.316799375E1,-9.642999768E-1,4.890999794E-1,-7.667099953E0
2.318799531E1,-1.982000023E-1,-1.227699995E0,-3.535999954E-1
2.321799375E1,1.937000006E-1,-4.028299809E0,3.727499962E0
2.323799375E1,-5.139999986E-1,-5.123499870E0,3.960699797E0
2.325799375E1,1.771999896E-1,-4.348099709E0,3.583799839E0
2.327799375E1,1.900900006E0,-2.849900007E0,-7.806999683E-1
2.329799375E1,8.419999480E-2,-9.524999857E-1,-3.876899958E0
2.331799375E1,-2.668999910E0,1.205600023E0,2.495199919E0
2.333799375E1,-3.402999878E0,2.095499992E0,5.436999798E0
2.335799531E1,-2.958499908E0,1.928200006E0,5.276599884E0
2.338799375E1,-1.639299989E0,1.565699935E0,3.726699829E0
2.340799375E1,-1.064199924E0,1.821299911E0,4.378900051E0
2.342799375E1,-7.167999744E-1,1.657799959E0,4.419099808E0
2.344799375E1,-1.508899927E0,2.264400005E0,4.497200012E0
2.346799375E1,-3.023599863E0,3.774099827E0,3.073099852E0
2.348799375E1,-3.208499908E0,4.261199951E0,2.441299915E0
2.350799375E1,-2.471099854E0,4.173799992E0,1.490700006E0
2.352799375E1,-1.462199926E0,3.421799898E0,7.030999660E-1
2.354799375E1,-1.045499921E0,2.172899961E0,-5.700000003E-2
2.356799375E1,-9.495999813E-1,2.143999934E-1,-1.483299971E0
2.358799375E1,1.511399984E0,-3.207999945E0,-1.861699939E0
2.360799375E1,4.248300076E0,-6.067699909E0,-4.203700066E0
2.362799375E1,5.172999859E0,-5.984999657E0,-6.484200001E0
2.364799375E1,4.573199749E0,-2.639799833E0,-4.272999763E0
2.366799375E1,2.934700012E0,-7.270999551E-1,-1.704599977E0
2.368799375E1,1.699899912E0,-4.090999961E-1,-8.976999521E-1
2.370799375E1,1.217599988E0,-2.729799986E0,-1.785099983E0
2.372799375E1,-3.308699846E0,-4.696099758E0,3.634399891E0
2.374799375E1,-8.635399818E0,-3.492699862E0,4.188499928E0
2.376799375E1,-1.140649986E1,4.072199821E0,-5.101000071E-1
2.378799375E1,-8.439999580E0,8.177700043E0,6.456299782E0
2.380799375E1,-5.778800011E0,5.819200039E0,4.240399837E0
2.382799375E1,-2.853799820E0,2.173999995E-1,4.330199718E0
2.385799375E1,1.962599993E0,-8.536700249E0,5.833600044E0
2.387799375E1,3.212899923E0,-5.530200005E0,1.232399940E0
2.389799375E1,2.961400032E0,-1.121999994E-1,8.342999816E-1
2.391799375E1,4.944299698E0,2.273599863E0,-1.385100007E0
2.393799375E1,2.728699923E0,-3.333999813E-1,-3.581999838E-1
2.396799375E1,6.808999777E-1,9.296000004E-1,3.002699852E0
2.398799375E1,-8.179999888E-2,2.022500038E0,1.379299998E0
2.400799375E1,1.590999961E-1,1.368699908E0,-5.428000093E-1
2.403799375E1,3.994999826E-1,1.055899978E0,-1.367599964E0
2.405799375E1,5.904999971E-1,1.063899994E0,-7.803999782E-1
2.407799375E1,5.336999893E-1,1.218299985E0,3.010999858E-1
2.409799375E1,6.729999781E-1,1.213199973E0,1.648399949E0
2.411799375E1,5.773000121E-1,1.018499970E0,2.263200045E0
2.413799375E1,3.440999985E-1,2.699999884E-2,2.369600058E0
2.415799375E1,-1.754999906E-1,-1.535799980E0,1.525299907E0
2.417799375E1,-7.476999760E-1,-1.824799895E0,-7.810999751E-1
2.419799375E1,-6.597999930E-1,-1.513799906E0,-3.369400024E0
2.421799375E1,-1.647000015E-1,-1.581699967E0,-5.224499702E0
2.423799375E1,9.039999843E-1,-2.845399857E0,-6.101199627E0
2.425800313E1,2.065500021E0,-3.100999832E0,-4.744899750E0
2.428799375E1,1.326599956E0,-2.522199869E0,-3.073099852E0
2.430800313E1,1.125599980E0,-3.105599880E0,-2.941599846E0
2.433799375E1,1.058699965E0,-1.965399981E0,-2.131299973E0
2.435799375E1,2.340999991E-1,-9.824000001E-1,-1.668999910E0
2.437799375E1,-1.009099960E0,-3.322999775E-1,-4.944999695E0
2.439799375E1,-2.048399925E0,-1.964100003E0,-5.375499725E0
2.441799375E1,-1.105000019E0,-3.068399906E0,1.818599939E0
2.443799375E1,-4.860000014E-1,-3.049499989E0,3.989599943E0
2.445799375E1,-3.612000048E-1,-3.322000027E0,3.641799927E0
2.447799375E1,-7.924999595E-1,-2.067499876E0,3.152999878E0
2.449799375E1,-1.653800011E0,-1.561199903E0,-2.837899923E0
2.451799375E1,-3.134899855E0,-5.572000146E-1,-1.451699972E0
2.453799375E1,-3.416800022E0,9.560999870E-1,3.280599833E0
2.455799375E1,-2.816599846E0,1.735799909E0,3.829699993E0
2.457799375E1,-1.546700001E0,1.527799964E0,2.200500011E0
2.459799375E1,-6.776999831E-1,1.078099966E0,2.808599949E0
2.461799375E1,2.300000004E-2,4.266999960E-1,3.897699833E0
2.463799375E1,-1.179999951E-2,5.223999619E-1,5.130199909E0
2.465799375E1,-1.638700008E0,2.495100021E0,3.974699974E0
2.467799375E1,-2.532199860E0,4.012399673E0,3.185999870E0
2.469799375E1,-2.335999966E0,4.573299885E0,2.516799927E0
2.472799375E1,-7.459999919E-1,3.809599876E0,1.803399920E0
2.474799375E1,-1.042999998E-1,2.301300049E0,-1.300000004E-3
2.476799375E1,-7.580000162E-2,-1.270999908E-1,-3.846999884E0
2.478799375E1,1.478799939E0,-3.967599869E0,-5.385399818E0
2.480799375E1,3.586699963E0,-6.668599606E0,-5.951999664E0
2.482799375E1,4.262199879E0,-5.514400005E0,-6.295399666E0
2.484799375E1,2.711799860E0,3.498999774E-1,-4.257999897E0
2.486799375E1,2.923099995E0,9.679999948E-1,-5.291999817E0
2.488799375E1,1.956499934E0,-3.643999815E0,5.097300053E0
2.490803750E1,-6.875899792E0,-2.481400013E0,8.007399559E0
2.493799375E1,-1.016239929E1,5.494699955E0,1.781299949E0
2.495799375E1,-7.886899948E0,8.271499634E0,1.772599936E0
2.497799375E1,-3.316900015E0,8.472999930E-1,3.636600018E0
2.499799375E1,-6.822999716E-1,-3.809499979E0,5.245899677E0
2.501799375E1,2.557699919E0,-8.961799622E0,2.460299969E0
2.503799375E1,2.436899900E0,-5.176199913E0,4.426199913E0
2.505799375E1,4.180699825E0,-2.206399918E0,1.340799928E0
2.507799531E1,2.879199982E0,-6.596999764E-1,1.564599991E0
2.510799375E1,2.990999818E-1,1.119199991E0,2.804499865E0
2.512799375E1,-9.474999905E-1,2.095099926E0,1.602199912E0
2.514799375E1,-1.440699935E0,1.709800005E0,6.250000000E-2
2.516799375E1,-7.791000009E-1,7.091999650E-1,1.222999990E-1
2.518799375E1,-3.361999989E-1,7.666999698E-1,-5.681999922E-1
2.520799375E1,1.833999902E-1,1.084499955E0,-1.080399990E0
2.522799375E1,4.754000008E-1,1.401899934E0,-9.936999679E-1
2.524799375E1,5.981000066E-1,1.780799985E0,-6.103999615E-1
2.526799375E1,6.265999675E-1,1.624199986E0,1.444000006E-1
2.528799375E1,5.790000036E-2,9.655999541E-1,1.131399989E0
2.530800313E1,-2.965999842E-1,-3.238999844E-1,1.698799968E0
2.533799375E1,1.613799930E0,-1.822899938E0,-1.179099917E0
2.535799531E1,2.452600002E0,-1.572299957E0,-2.699899912E0
2.537799531E1,2.686300039E0,-2.531199932E0,-4.277499676E0
2.540799375E1,2.309299946E0,-3.997900009E0,-5.839900017E0
2.542799375E1,1.581099987E0,-3.402599812E0,-4.305500031E0
2.544799375E1,6.363999844E-1,-2.642499924E0,-3.689899921E0
2.546799375E1,3.294000030E-1,-2.051199913E0,-4.234799862E0
2.548799531E1,5.788999796E-1,-1.389799953E0,-4.593699932E0
2.551799375E1,-1.039899945E0,1.495999992E-1,-4.489399910E0
2.553799375E1,-1.071999967E-1,-2.143300056E0,2.303999960E-1
2.555799375E1,6.342999935E-1,-4.143700123E0,2.353899956E0
2.557799375E1,4.129999876E-2,-4.490099907E0,2.702299833E0
2.559799375E1,-4.319999740E-2,-3.997900009E0,2.722299814E0
2.561799375E1,7.037000060E-1,-3.348199844E0,-5.978999734E-1
2.563799375E1,-6.108999848E-1,-1.730199933E0,-3.316900015E0
2.565799375E1,-2.843400002E0,2.635000050E-1,3.488000035E-1
2.567799375E1,-3.959100008E0,1.128099918E0,3.324199915E0
2.569799375E1,-3.748600006E0,5.392999649E-1,4.721299648E0
2.571799375E1,-3.569000006E0,2.856999934E-1,2.480900049E0
2.573799375E1,-2.350999832E0,2.735999823E-1,1.724699974E0
2.575799375E1,-1.058300018E0,6.649000049E-1,4.012000084E0
2.577799375E1,-2.193000019E-1,9.581999779E-1,4.471300125E0
2.579799375E1,-1.046499968E0,2.001999855E0,4.383899689E0
2.581799375E1,-2.915400028E0,4.195600033E0,3.771499872E0
2.583799375E1,-3.042199850E0,4.981199741E0,3.388499975E0
2.585799375E1,-2.464999914E0,4.898399830E0,2.849799871E0
2.587799531E1,-1.193799973E0,4.286600113E0,2.610800028E0
2.590799375E1,8.297999501E-1,1.526899934E0,-7.732999921E-1
2.592799375E1,1.510100007E0,-1.760100007E0,-4.010099888E0
2.594799375E1,3.341599941E0,-6.392099857E0,-6.416899681E0
2.596799375E1,3.731299877E0,-6.973299980E0,-7.657499790E0
2.598799375E1,2.442600012E0,-5.045999885E-1,-5.023200035E0
2.600799375E1,1.988199949E0,3.099799871E0,-3.417799950E0
2.602799375E1,3.043299913E0,2.951799870E0,-3.972699881E0
2.604799375E1,3.859799862E0,-1.484499931E0,3.643899918E0
2.606799375E1,-5.583699703E0,-4.249700069E0,7.632599831E0
2.608799375E1,-9.782699585E0,-7.230099678E0,-6.708799839E0
2.610799375E1,-6.807499886E0,3.493599892E0,1.074800014E1
2.612799375E1,-4.362599850E0,8.310299873E0,4.254799843E0
2.614799375E1,-2.419699907E0,4.819799900E0,3.203999996E-1
2.616799375E1,-1.417599916E0,-1.561100006E0,3.458599806E0
2.618799375E1,2.705999911E-1,-9.652099609E0,8.238699913E0
2.620799375E1,3.389199972E0,-9.079099655E0,2.809700012E0
2.622799375E1,2.682799816E0,-3.416299820E0,2.871199846E0
2.624799375E1,2.036900043E0,-1.275999993E-1,3.261699915E0
2.626799375E1,1.463199973E0,1.469699979E0,2.502199888E0
2.628799375E1,-9.420000017E-2,1.600899935E0,2.240799904E0
2.630800313E1,-1.424999952E0,1.077000022E0,9.343000054E-1
2.633799375E1,-8.826999664E-1,5.557000041E-1,2.494999915E-1
2.635799375E1,-6.868000031E-1,1.555199981E0,-9.438999891E-1
2.637799375E1,-4.105999768E-1,2.201900005E0,-1.682999969E0
2.639799375E1,1.929999888E-2,2.298799992E0,-1.679499984E0
2.641799375E1,5.989999697E-2,2.075099945E0,-1.662099957E0
2.643799375E1,-9.510000050E-2,1.000299931E0,-6.100999713E-1
2.645799375E1,-2.499999851E-2,2.554000020E-1,8.249999881E-1
2.647799375E1,7.079999894E-2,-4.449999928E-1,1.693199992E0
2.649799375E1,5.000000000E-1,-7.888999581E-1,-8.562999964E-1
2.651799375E1,2.133899927E0,-1.354900002E0,-4.716499805E0
2.653799375E1,3.435499907E0,-2.667299986E0,-7.001599789E0
2.655799375E1,2.699100018E0,-3.193899870E0,-5.154099941E0
2.657799375E1,1.498699903E0,-3.233999968E0,-3.630800009E0
2.659799375E1,6.291999817E-1,-3.240399837E0,-4.897699833E0
2.661799375E1,1.260000002E-2,-2.859099865E0,-6.926799774E0
2.663799375E1,-7.562999725E-1,-2.004699945E0,-7.640699863E0
2.665799375E1,-2.841999829E-1,-1.627299905E0,-3.018899918E0
2.667799375E1,1.250399947E0,-1.584699988E0,3.228699923E0
2.669799375E1,9.941999912E-1,-2.712699890E0,3.573999882E0
2.671799375E1,1.279999912E-1,-5.794399738E0,3.326799870E0
2.673799375E1,-1.003399968E0,-6.853799820E0,2.554999828E0
2.675799375E1,1.038499951E0,-4.657099724E0,-2.301300049E0
2.677799375E1,-9.757999778E-1,-1.809999943E0,-3.903299809E0
2.679799375E1,-3.347199917E0,2.293999940E-1,6.359999627E-2
2.681799375E1,-3.966499805E0,1.040499926E0,3.381899834E0
2.683799375E1,-4.045099735E0,5.346999764E-1,4.736499786E0
2.685799375E1,-4.977499962E0,1.111999989E0,2.757900000E0
2.687800781E1,-3.598699808E0,1.630399942E0,3.090600014E0
2.690799375E1,-1.489699960E0,3.320299864E0,5.561299801E0
2.692799375E1,-4.282999933E-1,3.149199963E0,5.188999653E0
2.694799375E1,-4.327999949E-1,2.622400045E0,4.366399765E0
2.696799375E1,-1.236699939E0,2.846599817E0,4.571899891E0
2.698799375E1,-1.624899983E0,3.596499920E0,4.590199947E0
2.700799375E1,-1.512799978E0,4.383800030E0,4.352399826E0
2.702799375E1,-1.019099951E0,4.328999996E0,2.327100039E0
2.704799375E1,-2.525999844E-1,2.801299810E0,-2.592000067E-1
2.706799375E1,1.752599955E0,-1.473399997E0,-5.956399918E0
2.708799375E1,4.554999828E0,-8.094300270E0,-1.183500004E1
2.710799375E1,5.586099625E0,-7.232399940E0,-9.912799835E0
2.712799375E1,4.394700050E0,-5.970999599E-1,-6.120100021E0
2.714799375E1,1.989699960E0,2.488999844E0,-1.927299976E0
2.716799375E1,2.276200056E0,8.586999774E-1,-2.437999964E0
2.718799375E1,-4.588999748E-1,-2.859499931E0,5.537299633E0
2.720799375E1,-8.305899620E0,-3.097199917E0,1.006709957E1
2.722799375E1,-8.743999481E0,-7.433399677E0,-9.310799599E0
2.724799375E1,-6.618000031E0,4.992899895E0,1.389120007E1
2.726799375E1,-3.500900030E0,6.047999859E0,7.012099743E0
2.728799375E1,-2.720700026E0,-9.256999493E-1,4.037199974E0
2.730800313E1,-1.202499986E0,-9.482699394E0,5.127599716E0
2.733799375E1,8.429999948E-1,-5.327699661E0,1.499400020E0
2.735799375E1,2.257299900E0,-8.021000028E-1,1.128299952E0
2.737799375E1,3.542099953E0,1.392699957E0,1.613299966E0
2.739799375E1,1.444199920E0,9.467999935E-1,6.850000024E-1
2.741799375E1,-2.450999916E-1,1.026199937E0,2.095499992E0
2.743799375E1,-9.496999979E-1,2.535599947E0,1.682299972E0
2.745799375E1,-6.392999887E-1,3.223099947E0,6.000999808E-1
2.747799375E1,-1.354999989E-1,2.961999893E0,-7.342000008E-1
2.749799375E1,1.240999997E-1,2.312899828E0,-2.093099833E0
2.751799375E1,8.763999939E-1,1.461399913E0,-1.871899962E0
2.753799375E1,1.327700019E0,9.691999555E-1,-4.124999940E-1
2.755799375E1,1.127699971E0,7.698000073E-1,4.181999862E-1
2.757799375E1,4.834999740E-1,2.804999948E-1,3.237999976E-1
2.759799375E1,4.673999846E-1,-3.085999787E-1,-1.601400018E0
2.761799375E1,1.240800023E0,-3.531000018E-1,-2.094199896E0
2.763799375E1,1.841300011E0,-2.067999989E-1,-1.325599909E0
2.765799375E1,2.305199862E0,-1.588299990E0,-8.958999515E-1
2.767799375E1,2.227200031E0,-3.143699884E0,-8.398000002E-1
2.769799375E1,1.208599925E0,-2.536000013E0,-1.929999948E0
2.771799375E1,4.605999887E-1,-1.855999947E0,-4.313499928E0
2.773799375E1,6.936999559E-1,-2.944200039E0,-5.630699635E0
2.775799375E1,2.293200016E0,-4.615200043E0,-4.650599957E0
2.777799375E1,2.941099882E0,-4.687099934E0,-2.193799973E0
2.779799375E1,1.166199923E0,-3.891199827E0,-2.004299879E0
2.781799375E1,-2.391399860E0,-1.318599939E0,-6.515599728E0
2.783799375E1,-9.316999912E-1,-1.531999946E0,5.787000060E-1
2.785799531E1,-1.216799974E0,-2.309099913E0,1.752900004E0
2.788799375E1,-1.257900000E0,-5.108299732E0,2.512199879E0
2.790799375E1,1.748999953E-1,-2.959399939E0,2.793799877E0
2.792799375E1,1.557999998E-1,-6.110999584E-1,3.060299873E0
2.794799375E1,1.167999953E-1,5.131999850E-1,1.820999980E0
2.796799375E1,-3.319999874E-1,4.298999906E-1,2.308999896E-1
2.798799375E1,-2.023900032E0,9.074999690E-1,1.513000011E0
2.801799375E1,-2.477200031E0,1.977199912E0,3.703099966E0
2.803799375E1,-1.807899952E0,2.071300030E0,4.569999695E0
2.805799375E1,-9.959999919E-1,2.110800028E0,4.480400085E0
2.807799375E1,-1.119899988E0,2.907399893E0,4.046099663E0
2.809799375E1,-1.414600015E0,2.987499952E0,4.039000034E0
2.811799375E1,-1.804299951E0,2.708899975E0,4.161399841E0
2.813799375E1,-1.975299954E0,2.918900013E0,3.185799837E0
2.815799375E1,-1.993499994E0,3.226899862E0,1.699099898E0
2.817799375E1,-2.093499899E0,3.214999914E0,1.048200011E0
2.819799375E1,-2.407699823E0,3.013900042E0,9.330999851E-1
2.821799375E1,-1.978299975E0,2.073299885E0,-2.868999839E-1
2.823799375E1,5.827000141E-1,-1.808099985E0,-2.495499849E0
2.825799375E1,4.213099957E0,-6.816799641E0,-6.687799931E0
2.827799375E1,5.911399841E0,-6.561800003E0,-1.001389980E1
2.829799375E1,6.098399639E0,-3.582399845E0,-7.916399956E0
2.831799375E1,3.771799803E0,-1.357800007E0,-3.363799810E0
2.833799375E1,2.430500031E0,-1.144799948E0,-2.405999899E-1
2.835799375E1,9.873999953E-1,-2.533599854E0,-1.401600003E0
2.837799531E1,-3.676800013E0,-1.524199963E0,8.713999748E0
2.840799375E1,-1.033239937E1,-9.474999905E-1,-1.394299984E0
2.842799375E1,-9.085100174E0,3.672399998E0,4.358200073E0
2.844799375E1,-6.421499729E0,5.126999855E0,7.063599586E0
2.846799375E1,-3.435400009E0,1.510999948E-1,3.437299967E0
2.848799375E1,-5.101999640E-1,-6.494899750E0,4.323299885E0
2.850799375E1,1.845099926E0,-6.500599861E0,4.344699860E0
2.852799375E1,2.242399931E0,-1.964599967E0,2.182399988E0
2.854799375E1,3.526799917E0,2.687299967E0,9.677999616E-1
2.856799375E1,3.050599813E0,1.543499947E0,-1.793299913E0
2.858799375E1,1.257900000E0,-1.216099977E0,1.555999994E0
2.860800000E1,4.598999918E-1,7.781999707E-1,3.225800037E0
2.863799375E1,2.339999974E-1,2.665899992E0,9.950999618E-1
2.865801094E1,3.500999808E-1,1.588899970E0,-1.104300022E0
2.868799375E1,-6.529999524E-2,7.822999954E-1,-2.385400057E0
2.870800000E1,-3.519999981E-2,2.974999845E-1,-1.908299923E0
2.873799375E1,3.066999912E-1,6.818000078E-1,-4.939999804E-2
2.875799375E1,2.990999818E-1,1.410200000E0,1.600099921E0
2.877799375E1,2.951999903E-1,1.134500027E0,2.644399881E0
2.879799375E1,1.167999953E-1,2.806999981E-1,1.331099987E0
2.881799375E1,2.800000012E-1,-4.940999746E-1,-1.213999987E-1
2.883799375E1,6.911000013E-1,-9.126999974E-1,-3.319000006E-1
2.885800938E1,8.639999628E-1,-1.412999988E0,-4.101999998E-1
2.888799531E1,1.003299952E0,-2.589099884E0,-1.951900005E0
2.891799375E1,8.320999742E-1,-1.465199947E0,-4.875499725E0
2.893799375E1,9.695000052E-1,-1.372900009E0,-5.487799644E0
2.895799375E1,1.914799929E0,-2.508899927E0,-4.755000114E0
2.897799375E1,3.281599998E0,-4.005099773E0,-2.881599903E0
2.899799375E1,3.046200037E0,-3.623099804E0,-1.884400010E0
2.901799375E1,1.528399944E0,-2.747699976E0,-2.013700008E0
2.903799375E1,-6.563999653E-1,-1.090399981E0,-4.211800098E0
2.905799375E1,-2.706699848E0,-8.352999687E-1,-3.820999861E0
2.907799375E1,-5.974999666E-1,-2.367399931E0,1.506099939E0
2.909799375E1,-1.638199925E0,-4.213999748E0,2.186800003E0
2.911799375E1,-1.787799954E0,-4.467299938E0,1.758799911E0
2.913799375E1,6.728999615E-1,-2.688699961E0,7.292999625E-1
2.915799375E1,9.113000035E-1,-5.950999856E-1,-1.632999927E-1
2.917799375E1,-2.805999815E-1,8.973000050E-1,2.639999986E-1
2.919799375E1,-1.797299981E0,1.935499907E0,2.534800053E0
2.921799375E1,-2.556099892E0,2.021199942E0,4.693599701E0
2.923799375E1,-2.145699978E0,1.676199913E0,4.892099857E0
2.925799375E1,-1.224399924E0,1.626999974E0,3.680299997E0
2.927799375E1,-3.411999941E-1,1.772499919E0,2.539199829E0
2.929799375E1,1.232999936E-1,1.641099930E0,3.326599836E0
2.932799375E1,-1.026600003E0,1.972999930E0,3.648899794E0
2.934799375E1,-2.376299858E0,2.954900026E0,3.080799818E0
2.936799375E1,-2.846199989E0,3.138499975E0,1.919699907E0
2.938799375E1,-2.591699839E0,2.676800013E0,8.382999897E-1
2.940799375E1,-1.897399902E0,1.861999989E0,1.647000015E-1
2.942799375E1,-1.374599934E0,1.284899950E0,-3.595999777E-1
2.944799375E1,-1.283399940E0,5.922999978E-1,-2.192100048E0
2.946799375E1,1.370000001E-2,-1.800899982E0,-3.021299839E0
2.948799375E1,2.420500040E0,-4.435199738E0,-4.422399998E0
2.950799375E1,3.587599993E0,-5.464399815E0,-6.633999825E0
2.952799375E1,4.346399784E0,-3.465399981E0,-6.559499741E0
2.954799375E1,4.240900040E0,-4.583399773E0,-5.010299683E0
2.956799375E1,3.871099949E0,-9.388099670E0,-5.647199631E0
2.958800312E1,-5.720999837E-1,-4.455199718E0,1.166020012E1
2.961799375E1,-5.463599682E0,6.626299858E0,8.634799957E0
2.963799375E1,-1.289709949E1,1.151249981E1,-8.407799721E0
2.965799375E1,-1.300699997E1,6.416399956E0,4.611099720E0
2.967799375E1,-5.564399719E0,9.017999768E-1,2.685199976E0
2.969799375E1,-1.653699994E0,-4.897999763E-1,2.557299852E0
2.971799375E1,2.574100018E0,-8.129300117E0,5.429999903E-2
2.973799375E1,1.095499992E0,-5.905999660E0,5.295899868E0
2.975799375E1,3.549099922E0,-2.762399912E0,4.039999962E0
2.977799375E1,4.291699886E0,-1.912599921E0,-1.677199960E0
2.979799375E1,2.444299936E0,2.768000066E-1,2.230099916E0
2.981799375E1,1.607499957E0,1.683599949E0,2.953399897E0
2.983799375E1,5.285999775E-1,1.532699943E0,1.118899941E0
2.985799375E1,-7.884999514E-1,9.041999578E-1,-8.958999515E-1
2.987799375E1,-7.906999588E-1,5.432999730E-1,-1.396600008E0
2.989803750E1,-5.543999672E-1,9.529999495E-1,-9.056999683E-1
2.992799375E1,-1.403999925E-1,1.494799972E0,-9.719999880E-2
2.994799375E1,5.069999769E-2,1.448499918E0,-9.860000014E-2
2.996799375E1,-1.414999962E-1,1.069599986E0,-3.140999973E-1
2.998799375E1,9.219999611E-2,1.385999918E-1,-1.594099998E0
3.000799375E1,1.687799931E0,-2.518000007E-1,-3.447099924E0
3.002799375E1,3.484599829E0,-1.295099974E0,-4.972599983E0
3.004799375E1,4.581299782E0,-3.521799803E0,-6.170099735E0
3.006799375E1,3.720699787E0,-3.594199896E0,-5.615499973E0
3.008799375E1,1.979099989E0,-3.345599890E0,-4.598199844E0
3.010799375E1,8.332999945E-1,-4.600299835E0,-2.974799871E0
3.012799375E1,-3.294000030E-1,-3.801399946E0,-2.422600031E0
3.014799375E1,-1.260900021E0,-1.642799973E0,-4.297999859E0
3.016799375E1,-3.422299862E0,-4.459999874E-2,-7.564099789E0
3.018799375E1,-2.411200047E0,-2.932799816E0,-8.956999779E-1
3.020799375E1,-9.178999662E-1,-4.072000027E0,3.231099844E0
3.022799375E1,-1.753899932E0,-4.458099842E0,3.508800030E0
3.024799375E1,-1.386699915E0,-4.284100056E0,3.179699898E0
3.026799375E1,-1.252000034E-1,-3.828799963E0,-3.489300013E0
3.028799375E1,-1.792400002E0,-1.995099902E0,-2.710799932E0
3.030800313E1,-3.405900002E0,2.949000001E-1,2.995899916E0
3.033799375E1,-2.795599937E0,4.061999917E-1,3.860399961E0
3.035799531E1,-2.030299902E0,3.909999877E-2,3.669600010E0
3.037799531E1,-1.451299906E0,7.669000030E-1,6.717299938E0
3.040799375E1,6.979999542E-1,4.640999734E-1,4.263099670E0
3.042799375E1,-1.308999956E-1,2.731600046E0,4.935299873E0
3.044799375E1,-2.138700008E0,5.505300045E0,5.680500031E0
3.046799375E1,-3.063699961E0,6.858599663E0,4.920399666E0
3.048799375E1,-2.290400028E0,7.022500038E0,3.969299793E0
3.050799375E1,-1.225399971E0,6.431999683E0,2.590100050E0
3.052799375E1,-1.009199977E0,5.164700031E0,-7.419999689E-2
3.054799375E1,-6.581999660E-1,-1.453699946E0,-9.597700119E0
3.056799375E1,3.029700041E0,-1.340989971E1,-1.461240005E1
3.058799375E1,1.538999975E-1,-8.967499733E0,-1.052589989E1
3.060799375E1,6.096999645E-1,1.810899973E0,-6.132999897E0
3.062799375E1,-1.935999990E-1,1.747999936E-1,-5.679399967E0
3.064799375E1,-1.184599996E0,-8.324999809E0,3.944000006E0
3.066799375E1,-4.243400097E0,-3.630399942E0,1.564479923E1
3.068799375E1,-2.892899990E0,3.965799809E0,7.783999920E0
3.070799375E1,-2.296700001E0,6.678699970E0,2.301100016E0
3.072799375E1,-2.430699825E0,-1.334999949E-1,7.228899956E0
3.074799375E1,-1.452499986E0,-8.666999817E0,8.048299789E0
3.076799375E1,1.538699985E0,-7.517499924E0,3.542199850E0
3.079799375E1,2.571699858E0,-5.217999816E-1,1.880800009E0
3.081799375E1,2.019999981E0,-6.146999598E-1,2.588399887E0
3.083799375E1,-2.737999856E-1,1.160300016E0,2.183300018E0
3.085799375E1,-1.561599970E0,2.656899929E0,2.835299969E0
3.087799375E1,-1.913599968E0,2.688099861E0,2.097599983E0
3.089799375E1,-1.534500003E0,2.197099924E0,7.270000130E-2
3.091799375E1,-2.642000020E-1,1.680099964E0,-2.348700047E0
3.093799375E1,9.649999738E-1,9.921000004E-1,-2.850699902E0
3.095799375E1,1.634199977E0,8.377999663E-1,-1.428399920E0
3.097799375E1,1.510699987E0,1.337899923E0,4.227999747E-1
3.099799375E1,8.883000016E-1,1.655699968E0,1.032599926E0
3.101799375E1,3.460000083E-2,5.367000103E-1,8.783999681E-1
3.103799375E1,-1.437000036E-1,-7.242000103E-1,-1.050999999E0
3.105799375E1,7.870999575E-1,-7.689999938E-1,-3.452899933E0
3.107799531E1,2.050699949E0,-1.062299967E0,-4.046899796E0
3.110799531E1,2.890899897E0,-1.835199952E0,-3.160799980E0
3.113799375E1,2.336299896E0,-2.148699999E0,-2.896499872E0
3.115799375E1,1.622399926E0,-3.857399940E0,-3.620599985E0
3.117799375E1,1.107999921E0,-5.845900059E0,-4.579199791E0
3.119799375E1,-8.349999785E-2,-4.272399902E0,-4.328700066E0
3.121799375E1,-2.103499889E0,-1.716599941E0,-6.089999676E0
3.123799375E1,-1.554000020E0,-1.818399906E0,-9.124999642E-1
3.125799375E1,-1.268800020E0,-2.938299894E0,1.723399997E0
3.127799375E1,-2.549999952E0,-5.464299679E0,1.535300016E0
3.129799375E1,-2.643999815E0,-6.067899704E0,1.364199996E0
3.131799375E1,-1.762199998E0,-3.525599957E0,-3.329999745E-2
3.133799375E1,-1.728399992E0,-8.615999818E-1,-1.853999943E-1
3.135799375E1,-1.718599916E0,4.163999856E-1,1.258999944E0
3.137799375E1,-1.439199924E0,1.287400007E0,4.935800076E0
3.139799375E1,-1.408999920E0,2.053699970E0,6.466099739E0
3.141799375E1,-6.850000024E-1,1.848499894E0,5.952300072E0
3.143799375E1,5.700000003E-2,1.022099972E0,4.086199760E0
3.145799375E1,1.911000013E-1,9.897999763E-1,3.799599886E0
3.147799375E1,5.869999900E-2,1.141099930E0,4.139400005E0
3.149799375E1,-9.302999973E-1,2.365900040E0,4.927700043E0
3.151799375E1,-2.156699896E0,4.027899742E0,5.020999908E0
3.153799375E1,-2.421599865E0,4.825299740E0,4.295499802E0
3.155799375E1,-1.937399983E0,5.050399780E0,3.276700020E0
3.157799375E1,-1.275599957E0,4.471600056E0,2.574800014E0
3.159799375E1,-9.584999681E-1,3.805699825E0,1.798599958E0
3.161799375E1,-1.561299920E0,3.316299915E0,2.504999936E-1
3.163799375E1,-2.637399912E0,1.892799973E0,-2.429600000E0
3.165799375E1,-4.171999991E-1,-4.239299774E0,-5.143899918E0
3.167799375E1,1.904199958E0,-1.137549973E1,-1.398399925E1
3.169799375E1,3.657599926E0,-8.125199318E0,-1.257929993E1
3.171799375E1,4.469899654E0,-3.940599918E0,-6.679499626E0
3.173799375E1,4.489299774E0,7.915999889E-1,-2.021299839E0
3.175799375E1,2.488899946E0,3.489599943E0,-1.156399965E0
3.177799375E1,9.409999847E-2,8.763999939E-1,1.469399929E0
3.179799375E1,-4.350199699E0,-2.290199995E0,1.427619934E1
3.181799375E1,-8.708899498E0,-7.788699627E0,-7.929199696E0
3.183799375E1,-1.048180008E1,-4.240999818E-1,5.337199688E0
3.185799375E1,-6.400099754E0,7.399600029E0,9.658199310E0
3.187799375E1,-3.286000013E0,3.557699919E0,3.329799891E0
3.189799375E1,-1.609799981E0,-4.652299881E0,3.332700014E0
3.191799375E1,8.587999940E-1,-7.921599865E0,5.999899864E0
3.193799375E1,1.110100031E0,-4.797100067E0,5.662299633E0
3.195799531E1,2.342000008E0,-1.475099921E0,8.611999750E-1
3.198799375E1,3.316599846E0,3.006799936E0,5.313000083E-1
3.200799375E1,1.483999968E0,-5.909999833E-2,5.501999855E-1
3.202799531E1,6.825000048E-1,-3.838999867E-1,2.973799944E0
3.205799375E1,-8.889999986E-1,2.835899830E0,1.161100030E0
3.207800312E1,-1.097199917E0,2.427700043E0,-1.041299939E0
3.210799375E1,-8.914999962E-1,1.901899934E0,-2.545799971E0
3.212799375E1,1.145999953E-1,1.527199984E0,-2.507999897E0
3.214799375E1,1.041599989E0,8.726999760E-1,-1.486899972E0
3.216799375E1,1.329399943E0,5.976999998E-1,-2.182999998E-1
3.218799375E1,1.022199988E0,9.006999731E-1,1.120499969E0
3.220799375E1,7.285000086E-1,9.703999758E-1,9.520999789E-1
3.222799375E1,1.015299916E0,2.594999969E-1,-1.065699935E0
3.224799375E1,2.011399984E0,-3.070999980E-1,-2.989199877E0
3.226799375E1,2.502499819E0,-1.575799942E0,-2.656800032E0
3.228799375E1,1.381600022E0,-2.178999901E0,-1.982399940E0
3.230800312E1,4.397999942E-1,-2.153100014E0,-2.411900043E0
3.233799375E1,-3.452999890E-1,-3.396299839E0,-4.406399727E0
3.235799531E1,-4.679999948E-1,-4.605400085E0,-5.660500050E0
3.238799375E1,-1.308999956E-1,-4.237299919E0,-8.660599709E0
3.240799375E1,-2.021999955E-1,-3.090499878E0,-6.680699825E0
3.242799375E1,7.558000088E-1,-2.595899820E0,1.373199940E0
3.244799375E1,3.116999865E-1,-2.990000010E0,2.778699875E0
3.246799375E1,9.230999947E-1,-5.791800022E0,2.900899887E0
3.248800781E1,1.636999965E0,-6.973499775E0,3.702399969E0
3.251799375E1,2.365399837E0,-3.130800009E0,2.938599825E0
3.253799375E1,1.924600005E0,1.836999953E-1,2.924999952E0
3.255799375E1,1.711799979E0,1.014799953E0,-5.985999703E-1
3.257799375E1,-1.840499997E0,2.145699978E0,8.122999668E-1
3.259799375E1,-4.017499924E0,1.910899997E0,3.382499933E0
3.261799375E1,-2.979099989E0,8.714999557E-1,5.091799736E0
3.264799219E1,-9.878999591E-1,1.434399962E0,3.987599850E0
3.266799375E1,-7.038999796E-1,2.361399889E0,4.207299709E0
3.268799375E1,-1.584699988E0,2.793399811E0,4.071899891E0
3.270799375E1,-2.997499943E0,2.992100000E0,4.032799721E0
3.272799375E1,-3.640699863E0,3.137799978E0,3.689299822E0
3.274799375E1,-3.865700006E0,3.509999990E0,2.269799948E0
3.276799375E1,-3.560899973E0,3.571499825E0,1.371299982E0
3.278799375E1,-2.432600021E0,3.246500015E0,1.446099997E0
3.280799375E1,-1.702999949E0,3.473299980E0,1.521399975E0
3.282799375E1,-1.209599972E0,2.867499828E0,3.362999856E-1
3.284799375E1,3.030999899E-1,-6.804999709E-1,-1.160099983E0
3.286799375E1,4.001899719E0,-6.986399651E0,-6.089200020E0
3.288799375E1,8.098099709E0,-8.197299957E0,-1.522719955E1
3.290799375E1,8.431599617E0,-5.151899815E0,-8.174699783E0
3.292799375E1,7.272399902E0,-1.619699955E0,1.834999919E-1
3.294799375E1,4.837500095E0,3.163000047E-1,-4.815999866E-1
3.296799375E1,-9.499999881E-1,-2.122699976E0,1.799999952E0
3.298799375E1,-6.592499733E0,-3.744099855E0,8.230199814E0
3.300799375E1,-7.891199589E0,-6.844699860E0,-4.806699753E0
3.302799375E1,-1.141979980E1,7.346899986E0,6.773399830E0
3.304799375E1,-6.335899830E0,8.406899452E0,1.964899898E0
3.306799375E1,-3.344699860E0,2.160399914E0,5.769899845E0
3.308799375E1,-5.959999561E-1,-7.603299618E0,8.044300079E0
3.310799375E1,1.047899961E0,-8.058199883E0,9.668899536E0
3.312799375E1,1.362999976E-1,-3.934599876E0,7.005599976E0
3.314799375E1,1.841599941E0,-2.635000050E-1,-2.366699934E0
3.316799375E1,2.475399971E0,2.409899950E0,-1.897199988E0
3.318799375E1,2.082999945E-1,-4.368000031E-1,1.413100004E0
3.320799375E1,9.739999473E-2,-1.789199948E0,2.153399944E0
3.322799375E1,-7.319999486E-2,6.985999942E-1,1.804999948E0
3.324799375E1,-3.563999832E-1,2.688199997E0,7.939999551E-2
3.326799375E1,-3.775999844E-1,2.553099871E0,-1.558699965E0
3.328799375E1,-1.704999954E-1,2.367100000E0,-1.370700002E0
3.330800312E1,-2.638999820E-1,2.351099968E0,-1.099599957E0
3.333799375E1,2.488999963E-1,1.631199956E0,-2.919999957E-1
3.335799375E1,3.814999759E-1,1.551399946E0,8.416000009E-1
3.337799531E1,1.283999979E-1,1.015799999E0,1.017199993E0
3.340799375E1,1.272699952E0,2.199999988E-2,-2.212300062E0
3.342799375E1,2.179499865E0,-9.699999541E-2,-4.026599884E0
3.344799375E1,2.795300007E0,-1.409999967E0,-3.745699883E0
3.346799375E1,2.791299820E0,-2.591300011E0,-2.125000000E0
3.348799375E1,2.283599854E0,-2.646499872E0,-1.488499999E0
3.350799375E1,1.119599938E0,-2.916199923E0,-3.142799854E0
3.352799375E1,2.214999944E-1,-3.956099987E0,-5.699699879E0
3.354799375E1,3.612000048E-1,-5.163799763E0,-7.020199776E0
3.356799375E1,7.250999808E-1,-5.228699684E0,-6.509799957E0
3.358799375E1,-1.201300025E0,-3.304499865E0,-7.358899593E0
3.360799375E1,-1.161700010E0,-2.290899992E0,-2.647999823E-1
3.362799375E1,-3.262999952E-1,-2.240999937E0,3.151299953E0
3.364799375E1,-3.206999898E-1,-3.104499817E0,2.881899834E0
3.366799375E1,-3.261999786E-1,-5.769099712E0,1.439799905E0
3.368799375E1,6.333000064E-1,-5.505599976E0,-1.551000029E-1
3.370799375E1,-1.529999916E-2,-2.686899900E0,1.503999978E-1
3.372799375E1,-1.703099966E0,-1.062600017E0,7.532999516E-1
3.374799375E1,-3.364899874E0,-2.064999938E-1,2.862099886E0
3.376799375E1,-3.810899973E0,2.599000037E-1,4.668799877E0
3.378799375E1,-3.327600002E0,5.085999966E-1,3.525399923E0
3.380799375E1,-2.481899977E0,7.676999569E-1,2.943099976E0
3.382799375E1,-1.367100000E0,1.503299952E0,4.547599792E0
3.384799375E1,-2.567999959E-1,2.085999966E0,5.990900040E0
3.386799375E1,-4.306999743E-1,3.015399933E0,5.345200062E0
3.388800781E1,-2.029599905E0,4.500099659E0,5.733900070E0
3.391799375E1,-2.706499815E0,5.446300030E0,4.949399948E0
3.393799375E1,-2.078399897E0,5.169799805E0,4.643499851E0
3.395799375E1,-1.743999958E0,4.831699848E0,4.134399891E0
3.397799375E1,-1.718299985E0,4.235099792E0,3.045500040E0
3.399799375E1,-1.768499970E0,-1.416999996E-1,-1.046199918E0
3.401799375E1,-6.019999832E-2,-7.463299751E0,-9.440299988E0
3.403799375E1,2.174599886E0,-1.012109947E1,-1.419909954E1
3.405799375E1,1.715600014E0,-4.268700123E0,-1.186219978E1
3.407799375E1,1.003000021E0,2.596099854E0,-6.304800034E0
3.409799375E1,2.082999945E0,3.760299921E0,-1.534099936E0
3.411799375E1,2.295599937E0,3.400999904E-1,-1.186900020E0
3.413799375E1,2.697299957E0,-4.195600033E0,3.457199812E0
3.415799375E1,-2.708299875E0,-4.495599747E0,8.074500084E0
3.417799375E1,-9.059700012E0,-4.882899761E0,-8.205999374E0
3.419799375E1,-8.287799835E0,5.834899902E0,1.092109966E1
3.421799375E1,-4.110899925E0,7.878499985E0,4.461699963E0
3.423799375E1,-9.748999476E-1,2.805999994E0,4.640500069E0
3.425800469E1,1.136999965E0,-8.397699356E0,6.293099880E0
3.428799375E1,1.797199965E0,-7.879799843E0,3.337299824E0
3.430800312E1,6.115999818E-1,-2.474299908E0,3.923399925E0
3.433799375E1,2.493000031E0,1.533000022E-1,-1.142599940E0
3.435799375E1,1.191999987E-1,-1.491999984E0,3.788999796E0
3.437799375E1,-7.874000072E-1,4.479999840E-2,4.042299747E0
3.439799375E1,-1.630399942E0,1.461799979E0,1.554799914E0
3.441799375E1,-1.664099932E0,1.743299961E0,-7.770000100E-1
3.443799375E1,-1.337599993E0,1.939899921E0,-1.512099981E0
3.445799375E1,-8.736000061E-1,2.224699974E0,-1.283999920E0
3.447799375E1,-2.586999834E-1,2.139899969E0,-1.029500008E0
3.449799375E1,2.437999994E-1,1.777399898E0,-6.334999800E-1
3.451799375E1,4.298999906E-1,1.248399973E0,-7.658999562E-1
3.453799375E1,6.001999974E-1,5.473999977E-1,-1.669999957E-2
3.455799375E1,3.682000041E-1,4.916999936E-1,-6.260000169E-2
3.457799375E1,1.946000010E-1,5.494999886E-1,-1.280399919E0
3.459799375E1,3.795999885E-1,5.302999616E-1,-3.296199799E0
3.461799375E1,1.625100017E0,-2.312999964E-1,-3.718999863E0
3.463799375E1,2.649600029E0,-1.699999928E0,-2.146600008E0
3.465799375E1,2.735800028E0,-2.082399845E0,-1.760100007E0
3.467799844E1,2.225199938E0,-2.189499855E0,-3.370899916E0
3.470799375E1,6.007999778E-1,-2.984699965E0,-6.052799702E0
3.472799375E1,-4.301999807E-1,-3.589999914E0,-7.415199757E0
3.474799375E1,-1.071499944E0,-3.897499800E0,-8.250899315E0
3.476799375E1,-2.080000006E-2,-4.137300014E0,-1.965699911E0
3.478799375E1,1.860999912E-1,-3.260499954E0,2.258899927E0
3.480799375E1,3.413999975E-1,-3.250799894E0,3.396399975E0
3.482799531E1,3.800999820E-1,-5.118000031E0,3.359099865E0
3.485799531E1,2.060000040E-2,-6.097899914E0,2.078899860E0
3.488803750E1,-1.085999981E-1,-1.881699920E0,-2.070899963E0
3.491799375E1,-3.523000002E0,1.434000015E0,1.407199979E0
3.493799375E1,-4.052199841E0,1.269199967E0,3.745499849E0
3.495799375E1,-4.400099754E0,1.618799925E0,3.763499975E0
3.497799375E1,-4.224100113E0,2.570600033E0,2.976099968E0
3.499799375E1,-2.819200039E0,3.219599962E0,4.042200089E0
3.501799375E1,-1.277799964E0,3.373600006E0,5.859099865E0
3.503799375E1,-2.195999920E-1,3.034199953E0,4.496500015E0
3.505799531E1,-3.552999794E-1,2.569200039E0,4.039000034E0
3.508799375E1,-6.664999723E-1,2.981199980E0,4.238100052E0
3.510799375E1,-6.606999636E-1,3.476599932E0,3.651299953E0
3.512799375E1,-6.783999801E-1,3.600099802E0,2.556900024E0
3.514799375E1,-9.467999935E-1,2.325799942E0,9.941999912E-1
3.516799375E1,-1.444899917E0,-3.552999794E-1,-2.005699873E0
3.518799375E1,-3.073999882E-1,-3.525499821E0,-5.707799911E0
3.520799375E1,1.885199904E0,-4.855400085E0,-8.728599548E0
3.522799375E1,2.786599874E0,-3.300999880E0,-9.368399620E0
3.524799375E1,2.474499941E0,-8.277999759E-1,-7.459699631E0
3.526799375E1,2.645999908E0,-2.026999891E-1,-3.573899984E0
3.528799375E1,3.447799921E0,-1.464599967E0,-8.923999667E-1
3.530800312E1,1.428799987E0,-5.365699768E0,-8.101999760E-1
3.533799375E1,-6.202199936E0,-3.647599936E0,1.065419960E1
3.535799531E1,-7.450799942E0,2.670500040E0,3.017799854E0
3.537799531E1,-5.066599846E0,7.306799889E0,6.801499844E0
3.540799375E1,-3.804099798E0,-2.736999989E-1,5.495299816E0
3.542799375E1,-3.671999872E-1,-8.615099907E0,5.684400082E0
3.544799375E1,2.144999951E-1,-6.306200027E0,6.306599617E0
3.546799375E1,1.606699944E0,-1.776799917E0,1.120000005E0
3.548799375E1,2.784299850E0,1.752900004E0,-3.211799860E0
3.550799375E1,1.060799956E0,2.136299849E0,5.938999653E-1
3.552799375E1,3.215000033E-1,-1.495499969E0,9.939999878E-2
3.554799375E1,7.164999843E-1,-2.329999954E-1,2.198199987E0
3.556799375E1,3.403999805E-1,3.145499945E0,1.661899924E0
3.558799375E1,-6.799999624E-3,3.647399902E0,3.709999919E-1
3.560799375E1,-6.172999740E-1,2.447299957E0,-9.492999911E-1
3.562799375E1,-1.467399955E0,1.014799953E0,-2.405599833E0
3.564799375E1,-5.256000161E-1,4.578000009E-1,-2.495499849E0
3.566799375E1,1.068199992E0,1.985999942E-1,-9.422000051E-1
3.568799375E1,1.286399961E0,7.437999845E-1,6.571999788E-1
3.570799375E1,7.419999838E-1,8.664999604E-1,1.880499959E0
3.572799375E1,1.662999988E-1,1.215999946E-1,1.368899941E0
3.574799375E1,-2.082999945E-1,-3.854999840E-1,-4.148999751E-1
3.576799375E1,-2.812999785E-1,-3.585999906E-1,-2.189899921E0
3.578799375E1,3.552999794E-1,-1.021899939E0,-3.201999903E0
3.580799375E1,1.997899890E0,-2.653800011E0,-3.750599861E0
3.582799375E1,3.226399899E0,-2.934399843E0,-3.531199932E0
3.584799375E1,3.019899845E0,-2.182499886E0,-3.418999910E0
3.586799375E1,1.879899979E0,-3.375699997E0,-4.208499908E0
3.588799375E1,1.235099912E0,-4.939300060E0,-4.658899784E0
3.590799375E1,1.133099914E0,-4.598499775E0,-4.481199741E0
3.592799375E1,-1.043999940E-1,-3.100899935E0,-6.159699917E0
3.594799375E1,-1.908299923E0,-1.443399906E0,-4.508999825E0
3.596799375E1,-3.766999841E-1,-2.023599863E0,1.982999921E0
3.598799375E1,-5.266999602E-1,-3.043099880E0,2.977399826E0
3.600799375E1,-8.798999786E-1,-5.080999851E0,2.533099890E0
3.602799375E1,1.445999891E-1,-4.011099815E0,1.872900009E0
3.604799375E1,1.457899928E0,-2.392699957E0,1.647000015E-1
3.606799531E1,1.500999928E-1,-1.274299979E0,-1.970999986E-1
3.608799688E1,-2.024999857E0,-4.927999973E-1,7.743999958E-1
3.611799375E1,-3.503099918E0,5.297999978E-1,4.597399712E0
3.613799375E1,-3.608799934E0,1.636500001E0,4.725699902E0
3.615799375E1,-2.763099909E0,1.773299932E0,3.901999950E0
3.617799375E1,-1.815999985E0,2.024699926E0,4.609499931E0
3.619799375E1,-6.721000075E-1,2.207099915E0,5.313600063E0
3.621799375E1,-1.009999961E-1,1.934399962E0,5.048500061E0
3.623799375E1,-9.193999767E-1,2.538300037E0,5.064399719E0
3.625799375E1,-2.425499916E0,3.776499987E0,4.836699963E0
3.627799375E1,-2.949699879E0,4.414899826E0,3.916299820E0
3.629799375E1,-3.057199955E0,4.729099751E0,3.023499966E0
3.631799375E1,-3.391499996E0,4.798399925E0,1.808599949E0
3.633799375E1,-2.709899902E0,1.728399992E0,-1.194899917E0
3.635799375E1,1.437999964E0,-7.067899704E0,-6.060400009E0
3.637799375E1,3.175599813E0,-7.235899925E0,-1.140139961E1
3.639799375E1,5.179299831E0,-5.150399685E0,-1.285139942E1
3.641799375E1,5.241600037E0,-1.803799987E0,-7.945299625E0
3.643799375E1,5.249099731E0,-9.829999506E-2,-2.801599979E0
3.645799375E1,4.792900085E0,8.533999920E-1,-3.242999911E-1
3.647799375E1,2.760999918E0,-2.427999973E-1,5.132400036E0
3.649799375E1,-5.539999962E0,2.216999978E-1,1.522489929E1
3.651799375E1,-9.180600166E0,-5.344699860E0,-1.512239933E1
3.653799375E1,-9.717199326E0,-9.826999903E-1,9.023200035E0
3.655799375E1,-5.487999916E0,5.548999786E0,1.056979942E1
3.657799375E1,-2.214599848E0,5.669999719E-1,5.104300022E0
3.659799375E1,-1.496699929E0,-6.638799667E0,3.797399998E0
3.661799375E1,5.779999867E-2,-6.835599899E0,4.941400051E0
3.663799375E1,8.752999902E-1,-2.983299971E0,4.977699757E0
3.665800469E1,1.802899957E0,-7.159999758E-2,2.305699825E0
3.668799375E1,8.269999623E-1,2.918699980E0,7.730999589E-1
3.670799375E1,-2.096000016E-1,-6.769999862E-1,2.080000006E-2
3.672799375E1,4.111999869E-1,-1.658699989E0,2.121299982E0
3.674799375E1,8.679999411E-2,1.680400014E0,1.497200012E0
3.676799375E1,5.429999903E-2,3.053200006E0,-8.113999963E-1
3.678799375E1,1.899999976E-1,2.631399870E0,-1.508499980E0
3.680799375E1,5.299999844E-3,2.230999947E0,-1.869799972E0
3.682799531E1,3.642999828E-1,1.520499945E0,-1.198499918E0
3.685799531E1,5.252000093E-1,1.114799976E0,3.740999997E-1
3.687799531E1,6.799999624E-3,1.128700018E0,7.200999856E-1
3.690799375E1,-1.738999933E-1,3.621999919E-1,1.190999970E-1
3.692799375E1,6.085000038E-1,-4.079999775E-2,-8.834999800E-1
3.694799375E1,1.631299973E0,-9.217000008E-1,-1.680699944E0
3.696799375E1,2.051699877E0,-2.268599987E0,-2.048399925E0
3.698799375E1,2.062099934E0,-2.698599815E0,-1.697699904E0
3.700799375E1,1.033499956E0,-2.084100008E0,-1.798399925E0
3.702799375E1,-9.879999608E-2,-1.828499913E0,-3.007599831E0
3.704799375E1,-5.153999925E-1,-2.962699890E0,-4.304399967E0
3.706799375E1,1.130999997E-1,-3.840899944E0,-4.677000046E0
3.708799375E1,1.265999913E0,-4.183000088E0,-4.132599831E0
3.710799375E1,1.108600020E0,-3.591599941E0,-4.451299667E0
3.712799375E1,-1.993799925E0,-1.374899983E0,-7.979099751E0
3.714799375E1,-6.908000112E-1,-1.743299961E0,1.344099998E0
3.716799375E1,-8.637999892E-1,-1.645999908E0,2.468799829E0
3.718799375E1,-6.915999651E-1,-4.253699780E0,2.439199924E0
3.720799375E1,-4.809999838E-2,-5.073699951E0,2.779199839E0
3.722799375E1,1.235700011E0,-3.395399809E0,1.583299994E0
3.724799375E1,1.585899949E0,-1.867899895E0,-6.089999676E-1
3.726799375E1,-5.184000134E-1,-2.798999846E-1,-4.827999771E-1
3.728799375E1,-2.129699945E0,9.559999704E-1,3.251799822E0
3.730800312E1,-2.908599854E0,1.935499907E0,4.246200085E0
3.733799375E1,-2.151099920E0,1.605799913E0,4.145599842E0
3.735799531E1,-1.371299982E0,1.867899895E0,4.218899727E0
3.737799531E1,-5.047000051E-1,2.061399937E0,4.841399670E0
3.740799375E1,-7.124999762E-1,2.030599833E0,4.756899834E0
3.742799375E1,-2.484200001E0,3.186399937E0,4.741199970E0
3.744799375E1,-3.384099960E0,3.845399857E0,3.729199886E0
3.746799375E1,-3.605399847E0,3.855199814E0,2.576900005E0
3.748799375E1,-3.276299953E0,3.913199902E0,1.518000007E0
3.750799375E1,-3.098599911E0,3.503199816E0,-5.399999768E-2
3.752799375E1,-2.823499918E0,2.181400061E0,-2.122699976E0
3.754799375E1,1.249999925E-2,-2.330100060E0,-3.109899998E0
3.756799375E1,4.259999752E0,-7.767399788E0,-5.536900043E0
3.758799375E1,6.403199673E0,-6.635799885E0,-9.714799881E0
3.760799375E1,6.647399902E0,-4.012000084E0,-8.381500244E0
3.762799375E1,5.437500000E0,-2.361599922E0,-3.530799866E0
3.764799375E1,3.766599894E0,-1.088500023E0,-7.950999737E-1
3.766799375E1,5.838999748E-1,-1.187399983E0,8.438999653E-1
3.768799375E1,-4.012000084E0,-1.151899934E0,6.644999981E0
3.770799375E1,-8.432499886E0,-3.655999899E0,2.024299860E0
3.772799375E1,-1.286219978E1,5.410999656E-1,-3.596299887E0
3.774799375E1,-8.366099358E0,7.390199661E0,9.138999939E0
3.776799375E1,-4.794099808E0,5.305699825E0,4.312399864E0
3.778799375E1,-2.130699873E0,-2.259299994E0,3.644399881E0
3.780799375E1,1.334399939E0,-8.757999420E0,4.150599957E0
3.782799375E1,2.061100006E0,-5.264599800E0,5.472599983E0
3.784799375E1,2.525099993E0,-2.266999930E-1,1.982499957E0
3.786799375E1,3.891899824E0,4.169199944E0,-2.406499863E0
3.788799375E1,2.963299990E0,1.967399955E0,-1.016899943E0
3.790799375E1,1.618299961E0,-1.986099958E0,1.602199912E0
3.792799375E1,4.018999934E-1,6.352999806E-1,2.815699816E0
3.794799375E1,-2.366999984E-1,3.148000002E0,1.958099961E0
3.796799375E1,-1.491999924E-1,1.959299922E0,-2.040999979E-1
3.798799375E1,-2.624000013E-1,1.522300005E0,-1.581799984E0
3.800799375E1,2.239999920E-2,1.473799944E0,-1.392899990E0
3.802799375E1,1.700999886E-1,1.354099989E0,-4.822999835E-1
3.804799375E1,1.754999906E-1,1.329100013E0,1.287000030E-1
3.806799375E1,2.644999921E-1,1.111299992E0,7.626000047E-1
3.808800000E1,2.356999964E-1,3.840000033E-1,1.211499929E0
3.811799375E1,2.640999854E-1,-9.323999882E-1,-9.199000001E-1
3.813799375E1,1.018299937E0,-6.672999859E-1,-2.982300043E0
3.815799375E1,2.145499945E0,-2.077999830E0,-3.243399858E0
3.817799375E1,2.473099947E0,-2.833199978E0,-2.892899990E0
3.819799375E1,1.924699903E0,-2.370800018E0,-2.672499895E0
3.821799375E1,4.618999958E-1,-1.943199992E0,-3.217900038E0
3.823799375E1,-4.528999925E-1,-2.672999859E0,-4.252500057E0
3.825799375E1,-2.182999998E-1,-3.908299923E0,-4.815599918E0
3.827799375E1,9.200000018E-2,-4.343699932E0,-4.315899849E0
3.829799375E1,-1.340999901E-1,-3.123999834E0,-4.676399708E0
3.831799375E1,-2.156699896E0,-1.355899930E0,-6.249399662E0
3.833799375E1,-6.833999753E-1,-2.468699932E0,1.626500010E0
3.835799531E1,-8.423999548E-1,-3.231999874E0,2.621599913E0
3.837799531E1,-1.438799977E0,-5.377599716E0,2.109699965E0
3.840799375E1,-5.891999602E-1,-3.642799854E0,-6.231999993E-1
3.842799375E1,-7.213999629E-1,-1.726300001E0,-8.227999806E-1
3.844799375E1,-1.947999954E0,-4.199000001E-1,-8.299999870E-3
3.846799375E1,-3.172600031E0,3.576999903E-1,3.256899834E0
3.848799375E1,-3.638000011E0,1.047299981E0,5.280099869E0
3.850799375E1,-2.715399981E0,1.180499911E0,4.326299667E0
3.852799375E1,-1.460199952E0,1.803699970E0,3.282399893E0
3.854799375E1,-8.357999921E-1,2.332099915E0,4.883199692E0
3.856799375E1,1.679999977E-1,2.090499878E0,5.275599957E0
3.858799375E1,-4.721999764E-1,2.484599829E0,5.283599854E0
3.860799375E1,-2.278199911E0,4.372200012E0,5.646399975E0
3.862799375E1,-2.962999821E0,5.094500065E0,5.222099781E0
3.864799375E1,-2.739300013E0,4.928199768E0,4.444399834E0
3.866799375E1,-2.041300058E0,4.343999863E0,3.437599897E0
3.868799375E1,-1.895199895E0,4.137300014E0,1.708199978E0
3.870799375E1,-2.192499876E0,1.987199903E0,-1.676599979E0
3.872799375E1,3.587999940E-1,-7.862899780E0,-7.519799709E0
3.874799375E1,3.071599960E0,-1.205490017E1,-1.259759998E1
3.876799375E1,2.508999825E0,-6.633999825E0,-1.312010002E1
3.878799375E1,2.234899998E0,-7.000000030E-2,-7.206899643E0
3.880799375E1,3.124500036E0,2.535899878E0,-2.523499966E0
3.882799375E1,1.878699899E0,1.026299953E0,-2.352999896E-1
3.884799375E1,-3.154000044E-1,-3.701099873E0,3.048799992E0
3.886799375E1,-6.061599731E0,-3.825500011E0,1.225399971E1
3.888799375E1,-1.065759945E1,3.460000083E-2,-2.984299898E0
3.890799375E1,-8.162300110E0,7.468400002E0,8.338199615E0
3.892799375E1,-3.429999828E0,3.667599916E0,5.472699642E0
3.894799375E1,9.889999777E-2,-5.757099628E0,5.120500088E0
3.896799375E1,1.909699917E0,-8.131699562E0,5.547699928E0
3.898799375E1,4.141799927E0,-4.657899857E0,-4.223999977E-1
3.900799375E1,2.521699905E0,2.461999953E-1,3.193499804E0
3.902799375E1,2.962100029E0,2.809099913E0,2.561100006E0
3.904799375E1,2.219599962E0,2.407099962E0,-2.351199865E0
3.906799375E1,-7.799999788E-3,-9.377999902E-1,3.971999884E-1
3.908799375E1,-2.215999961E-1,-7.193999887E-1,3.017699957E0
3.910799375E1,-9.519000053E-1,1.872200012E0,1.719699979E0
3.912799375E1,-4.853999913E-1,2.296399832E0,-3.308999836E-1
3.914799375E1,1.031999961E-1,2.080100060E0,-7.035999894E-1
3.916799375E1,1.433999985E-1,2.261499882E0,-2.425999939E-1
3.918799375E1,3.009999916E-2,2.105299950E0,4.614000022E-1
3.920799375E1,-1.701999903E-1,1.552099943E0,6.826999784E-1
3.922799375E1,-3.163999915E-1,8.271999955E-1,1.440999955E-1
3.924799375E1,-3.687999845E-1,-4.073999822E-1,-1.106599927E0
3.926799375E1,-2.669999935E-2,-1.132699966E0,-2.244299889E0
3.928799375E1,9.573999643E-1,-4.184999764E-1,-2.446300030E0
3.930800312E1,2.089200020E0,-7.526999712E-1,-1.734399915E0
3.933799375E1,2.527699947E0,-1.802199960E0,-1.740000010E0
3.935799531E1,2.214400053E0,-2.041699886E0,-3.245499849E0
3.937799531E1,1.359499931E0,-2.131199837E0,-5.576399803E0
3.940799375E1,4.014999866E-1,-4.964600086E0,-8.043999672E0
3.942799375E1,4.884999990E-1,-5.086299896E0,-4.676499844E0
3.944799375E1,4.305000007E-1,-2.776499987E0,-1.277999997E0
3.946799375E1,4.129999876E-1,-1.387699962E0,1.613199949E0
3.948799375E1,4.807999730E-1,-2.635900021E0,2.673300028E0
3.950799375E1,4.138999879E-1,-5.697400093E0,1.993399978E0
3.952799375E1,-3.139999881E-2,-6.587199688E0,-1.331000030E-1
3.954799375E1,8.481000066E-1,-4.226699829E0,-6.227999926E-1
3.956799375E1,-3.628000021E-1,-1.555099964E0,2.847000062E-1
3.958799375E1,-1.596300006E0,-4.476999938E-1,1.096300006E0
3.960799375E1,-2.685600042E0,3.680999875E-1,3.631199837E0
3.962799375E1,-3.128499985E0,8.779000044E-1,4.686100006E0
3.964799375E1,-3.104899883E0,1.547299981E0,4.815099716E0
3.966799375E1,-1.868999958E0,1.984099984E0,4.499000072E0
3.968799375E1,-1.154500008E0,2.579200029E0,5.086299896E0
3.970799375E1,-5.584999919E-1,2.572700024E0,4.435999870E0
3.972799375E1,-1.212000012E0,2.684499979E0,4.419399738E0
3.974799375E1,-2.725299835E0,3.416100025E0,4.291999817E0
3.976799375E1,-3.243799925E0,3.927999973E0,3.764599800E0
3.978799375E1,-3.268599987E0,4.547599792E0,2.954999924E0
3.980799375E1,-2.664899826E0,4.905900002E0,2.637799978E0
3.982799375E1,-2.544800043E0,4.435100079E0,2.115599871E0
3.984799375E1,-2.614300013E0,3.398699999E0,-2.782000005E-1
3.986799375E1,-8.689999580E-1,-3.867000043E-1,-2.736099958E0
3.988799375E1,4.413799763E0,-8.999599457E0,-6.628099918E0
3.990799375E1,6.794499874E0,-9.058699608E0,-1.254319954E1
3.992799375E1,6.897399902E0,-4.756299973E0,-9.795499802E0
3.994799375E1,5.219999790E0,-2.121899843E0,-3.593799829E0
3.996799375E1,3.229199886E0,4.312999845E-1,-4.957999885E-1
3.998799375E1,1.252200007E0,-3.559999764E-1,-3.116999865E-1
4.000799375E1,-2.578999996E-1,-2.241499901E0,6.435999870E-1
4.002799375E1,-3.993299961E0,-2.465600014E0,8.729899406E0
4.004799375E1,-1.236950016E1,-2.071500063E0,-4.467899799E0
4.006799375E1,-1.251599979E1,4.968999863E0,8.432600021E0
4.008799375E1,-7.203599930E0,7.865299702E0,2.930699825E0
4.010799375E1,-1.676800013E0,3.137099981E0,3.481199980E0
4.012799375E1,-3.234999776E-1,-4.172199726E0,8.431099892E0
4.014799375E1,2.640799999E0,-1.157139969E1,4.758699894E0
4.016799375E1,9.607999921E-1,-6.277499676E0,3.838799953E0
4.018799375E1,2.645200014E0,4.411999881E-1,4.090199947E0
4.020799375E1,2.460299969E0,1.263999939E-1,-2.955399990E0
4.022799375E1,2.773000002E-1,-1.480399966E0,3.440199852E0
4.024799375E1,-3.680999875E-1,6.010999680E-1,4.209499836E0
4.026799375E1,-7.845000029E-1,2.755499840E0,2.435799837E0
4.028799375E1,-8.003000021E-1,2.997699976E0,-1.149099946E0
4.030800312E1,-5.539000034E-1,1.653399944E0,-1.525699973E0
4.033799375E1,-4.928999841E-1,1.469099998E0,-1.730999947E0
4.035799531E1,2.538000047E-1,1.719499946E0,-1.466499925E0
4.037799531E1,7.857999802E-1,1.845399976E0,-5.442999601E-1
4.040799375E1,4.684000015E-1,2.293499947E0,9.862999916E-1
4.042799375E1,-1.278000027E-1,1.254799962E0,1.309599996E0
4.044799375E1,1.481000036E-1,5.790000036E-2,-2.800999880E-1
4.046799375E1,1.401299953E0,-2.105000019E-1,-1.846799970E0
4.048801719E1,2.201599836E0,-1.032999992E0,-2.327499866E0
4.051799375E1,2.268300056E0,-3.461899996E0,-3.347899914E0
4.053799375E1,1.917699933E0,-2.956199884E0,-3.392499924E0
4.055799375E1,8.305000067E-1,-2.928400040E0,-3.516099930E0
4.057799375E1,-5.590000004E-2,-3.768800020E0,-4.395899773E0
4.059799375E1,-1.209999993E-2,-5.486399651E0,-4.951799870E0
4.061799375E1,-1.146999970E-1,-4.605400085E0,-7.591399670E0
4.063799375E1,-1.086799979E0,-1.735299945E0,-7.167699814E0
4.065799375E1,-1.494499922E0,-1.668999940E-1,-1.691900015E0
4.067799375E1,-1.116699934E0,-1.058599949E0,2.293099880E0
4.069799375E1,1.282999963E-1,-3.318799973E0,3.882699966E0
4.071799375E1,1.583999991E-1,-5.772500038E0,3.719499826E0
4.073799375E1,9.065999985E-1,-5.755799770E0,1.796700001E0
4.075799375E1,9.652999640E-1,-3.744799852E0,-3.929899931E0
4.077799375E1,-2.398000002E0,-5.076000094E-1,-1.314499974E0
4.079799375E1,-3.457399845E0,7.400000095E-1,2.726899862E0
4.081799375E1,-3.451200008E0,8.452999592E-1,4.380700111E0
4.083799375E1,-3.733199835E0,4.391999841E-1,4.752399921E0
4.085800938E1,-3.603799820E0,4.510999918E-1,4.277100086E0
4.088799375E1,-1.708799958E0,1.495599985E0,4.086400032E0
4.090799375E1,-3.797999918E-1,2.201799870E0,4.668399811E0
4.092799375E1,-1.343799949E0,3.738600016E0,5.153999805E0
4.094799375E1,-2.584399939E0,5.085799694E0,5.199199677E0
4.096799375E1,-3.004999876E0,5.699699879E0,4.767899990E0
4.098799375E1,-2.773099899E0,5.950799942E0,4.130700111E0
4.100799375E1,-2.382799864E0,5.748099804E0,2.683099985E0
4.102799375E1,-2.164599895E0,4.218800068E0,-8.603000045E-1
4.104799375E1,-3.147999942E-1,-3.113499880E0,-7.936999798E0
4.106799531E1,4.878499985E0,-1.173009968E1,-1.130760002E1
4.109799375E1,3.356999874E0,-3.833199978E0,-9.527099609E0
4.111799375E1,2.059799910E0,1.486400008E0,-3.788499832E0
4.113799375E1,1.523999929E0,3.505699873E0,-3.458999991E-1
4.115799375E1,1.335999966E-1,-2.716999948E-1,-1.789999902E-1
4.117799531E1,-1.014099956E0,-6.224899769E0,5.074199677E0
4.120799531E1,-8.543600082E0,-5.521800041E0,2.125200033E0
4.122799531E1,-7.251099586E0,6.104699612E0,1.166259956E1
4.124799531E1,-5.658599854E0,8.551400185E0,3.118499994E0
4.127799375E1,-3.463799953E0,-2.679399967E0,4.286299706E0
4.129799531E1,2.329999954E-1,-1.148159981E1,7.645299911E0
4.131799531E1,1.022300005E0,-7.512699604E0,3.626099825E0
4.133799531E1,1.578299999E0,-1.246999979E0,-1.404599905E0
4.136799375E1,2.383599997E0,2.259799957E0,-4.777999818E-1
4.138799531E1,6.172999740E-1,3.799999831E-3,1.599999905E0
4.141799375E1,-2.208999991E-1,1.509799957E0,2.760200024E0
4.143799375E1,-6.134999990E-1,3.108999968E0,8.416000009E-1
4.145799844E1,-4.093999863E-1,2.805899858E0,-1.827899933E0
4.148799531E1,2.538999915E-1,1.259199977E0,-2.681499958E0
4.151799375E1,1.168499947E0,9.720999599E-1,-1.373799920E0
4.153799375E1,9.797999859E-1,1.432099938E0,5.680000037E-2
4.155799375E1,2.502999902E-1,1.397099972E0,9.437999725E-1
4.157799375E1,-3.765999973E-1,3.463000059E-1,6.272999644E-1
4.159799375E1,-1.578999907E-1,1.280999929E-1,-1.418299913E0
4.161799531E1,1.472299933E0,-6.782000065E-1,-2.637500048E0
4.164799531E1,2.811699867E0,-3.129499912E0,-3.165199995E0
4.167799375E1,9.993999600E-1,-2.666599989E0,-4.075799942E0
4.169799375E1,-3.680000007E-1,-2.009199858E0,-4.912499905E0
4.171799375E1,-6.455999613E-1,-2.796900034E0,-6.194099903E0
4.173799375E1,2.989999950E-2,-4.559700012E0,-7.239999771E0
4.175799375E1,-1.398100019E0,-3.324299812E0,-8.646699905E0
4.177799375E1,-3.949999809E-2,-2.212800026E0,3.822000027E-1
4.179799375E1,7.084000111E-1,-1.792499900E0,3.957599878E0
4.181799375E1,1.116699934E0,-3.286999941E0,4.674099922E0
4.183799375E1,5.371999741E-1,-6.949599743E0,4.378099918E0
4.185799375E1,-6.399999838E-3,-7.751599789E0,4.047299862E0
4.187800156E1,2.463099957E0,-5.797199726E0,-3.473999977E0
4.190799375E1,-2.011499882E0,-3.280999959E-1,-3.772999942E-1
4.192799375E1,-3.630899906E0,1.279699922E0,3.478999853E0
4.194799375E1,-4.058300018E0,1.488899946E0,5.265999794E0
4.196799375E1,-4.205399990E0,1.476300001E0,5.175299644E0
4.198799375E1,-3.679799795E0,2.432800055E0,3.894500017E0
4.200799375E1,-2.923899889E0,3.804600000E0,4.116199970E0
4.202799375E1,-2.012300014E0,4.322299957E0,4.435299873E0
4.204799375E1,-1.705999970E0,4.076200008E0,3.771399975E0
4.206799375E1,-2.578699827E0,3.982299805E0,3.829499960E0
4.208799375E1,-3.464900017E0,4.234999657E0,2.914099932E0
4.210799531E1,-3.770900011E0,4.602900028E0,2.487799883E0
4.212799531E1,-3.220000029E0,4.671299934E0,2.403599977E0
4.215799375E1,-2.788599968E0,3.739699841E0,1.086799979E0
4.217799375E1,-2.594499826E0,6.840999722E-1,-1.157299995E0
4.219799375E1,1.059800029E0,-8.783899307E0,-3.757900000E0
4.221799375E1,2.742799997E0,-9.887399673E0,-1.139589977E1
4.223799375E1,5.888400078E0,-6.089799881E0,-1.364459991E1
4.225799375E1,6.012199879E0,-1.883299947E0,-5.606699944E0
4.227799375E1,4.525799751E0,-7.651999593E-1,-1.556699991E0
4.229799375E1,2.203500032E0,-2.165499926E0,-7.561999559E-1
4.231799375E1,-1.627900004E0,-3.510699987E0,1.577999890E-1
4.233799375E1,-5.106599808E0,-3.517999887E0,7.429299831E0
4.235799375E1,-9.837200165E0,9.209999442E-2,1.934599996E0
4.237799531E1,-8.621799469E0,6.440199852E0,6.261499882E0
4.240799375E1,-6.007599831E0,5.588599682E0,3.003000021E0
4.242799375E1,-3.535499811E0,-1.859200001E0,2.488999844E0
4.244799375E1,6.293999553E-1,-8.939700127E0,4.027299881E0
4.246799375E1,1.345399976E0,-5.155799866E0,5.688799858E0
4.248799375E1,9.702999592E-1,1.944999993E-1,4.943900108E0
4.250799375E1,3.461799860E0,3.286299944E0,-3.141899824E0
4.252799375E1,3.555499792E0,2.278399944E0,-2.565199852E0
4.254799375E1,2.150099993E0,-1.469200015E0,2.027899981E0
4.256799375E1,8.833000064E-1,3.465999961E-1,2.660599947E0
4.258799375E1,-5.549999699E-2,2.438099861E0,1.209699988E0
4.260799375E1,7.449999452E-2,1.707799911E0,-3.297999799E-1
4.262799375E1,-7.159999758E-2,1.727800012E0,-1.185199976E0
4.264799375E1,-3.529999778E-2,1.481499910E0,-1.141299963E0
4.266799375E1,-9.860000014E-2,1.316999912E0,-1.116199970E0
4.268799375E1,-5.137000084E-1,1.510599971E0,-5.669000149E-1
4.270799375E1,-9.555999637E-1,8.550999761E-1,1.853999943E-1
4.272799375E1,-5.837999582E-1,-6.847999692E-1,3.276999891E-1
4.274799375E1,-1.595000029E-1,-1.083299994E0,-1.231099963E0
4.276799375E1,1.295300007E0,-8.593999743E-1,-3.364399910E0
4.278799375E1,3.012199879E0,-2.877499819E0,-3.951900005E0
4.280799375E1,3.336400032E0,-3.862599850E0,-4.081399918E0
4.282799375E1,2.077299833E0,-3.179899931E0,-4.904500008E0
4.284799375E1,9.277999997E-1,-2.854099989E0,-5.587100029E0
4.286799375E1,1.062199950E0,-4.257800102E0,-4.416100025E0
4.288799375E1,1.151999950E0,-4.829400063E0,-2.923799992E0
4.290799375E1,-2.777000070E-1,-2.470199823E0,-5.112299919E0
4.292799375E1,-2.662600040E0,-7.635999918E-1,-4.957799911E0
4.294799375E1,-8.991000056E-1,-2.448999882E0,2.193399906E0
4.296799375E1,-8.500999808E-1,-4.163300037E0,3.361099958E0
4.298799375E1,-1.559700012E0,-4.537300110E0,3.068799973E0
4.300799375E1,-5.243999958E-1,-3.022500038E0,1.600600004E0
4.302799375E1,-3.872999847E-1,-1.507699966E0,-3.904199839E0
4.304799375E1,-2.486699820E0,5.493999720E-1,-2.999999933E-2
4.306799375E1,-3.637799978E0,2.142400026E0,3.867999792E0
