"Time (s)","Acceleration x (m/s^2)","Acceleration y (m/s^2)","Acceleration z (m/s^2)"
0.000000000E0,-2.259350538E0,4.443207741E0,8.710316658E0
2.199218800E-2,-1.935577989E0,4.369312763E0,8.750405312E0
4.199531300E-2,-1.836850762E0,4.312991619E0,8.522247314E0
6.399843800E-2,-1.787807822E0,4.315653801E0,8.423213959E0
8.599218800E-2,-1.667753100E0,4.217951298E0,8.408541679E0
1.059921880E-1,-1.585469127E0,4.049284458E0,8.353694916E0
1.259921880E-1,-1.557610154E0,4.102206230E0,8.553035736E0
1.459984380E-1,-1.708952427E0,4.214704514E0,8.507652283E0
1.679921880E-1,-1.671832800E0,4.108325481E0,8.644973755E0
1.879921880E-1,-1.576294541E0,4.035905838E0,8.857339859E0
2.079921880E-1,-1.538159609E0,4.096115112E0,8.972079277E0
2.279921880E-1,-1.596310019E0,4.046066761E0,8.983437538E0
2.479921880E-1,-1.605676174E0,4.092313290E0,9.061058044E0
2.679921880E-1,-1.556853652E0,4.117777824E0,9.049191475E0
2.879921880E-1,-1.504104495E0,4.069951534E0,9.004592896E0
3.079921880E-1,-1.291260004E0,3.874824047E0,8.848567009E0
3.279921880E-1,-1.149025321E0,3.792319775E0,8.776310921E0
3.479921880E-1,-1.190684438E0,3.752470732E0,8.822901726E0
3.679921880E-1,-1.200261235E0,3.801063299E0,8.691105843E0
3.879921880E-1,-1.252416492E0,3.865812302E0,8.654857635E0
4.079921880E-1,-1.438828945E0,3.918551445E0,8.867979050E0
4.279921880E-1,-1.402609468E0,3.876260519E0,9.201885223E0
4.479921880E-1,-1.338368297E0,3.807738304E0,9.231007576E0
4.679921880E-1,-1.255423546E0,3.878712177E0,8.738319397E0
4.879953130E-1,-1.368171334E0,3.942589283E0,8.961736679E0
5.099921880E-1,-1.326014280E0,3.981049776E0,8.908604622E0
5.300171880E-1,-1.221492887E0,3.966943026E0,8.783551216E0
5.519921880E-1,-1.053582788E0,3.886718273E0,8.460371017E0
5.719921880E-1,-6.895109415E-1,3.820255280E0,8.614242554E0
5.919921880E-1,-6.436476111E-1,3.885693550E0,9.293275833E0
6.119921880E-1,-1.372289419E0,3.928626537E0,9.263415337E0
6.319921880E-1,-1.783737659E0,4.155625343E0,8.555412292E0
6.519921880E-1,-1.389470220E0,4.168247700E0,8.382675171E0
6.719921880E-1,-1.657074809E0,4.210606098E0,8.855309486E0
6.919921880E-1,-1.760389566E0,4.095981121E0,9.056834221E0
7.139921880E-1,-1.147665381E0,3.992197275E0,9.587111473E0
7.339921880E-1,-4.684399366E-1,3.856388569E0,9.037642479E0
7.539921880E-1,-4.956763685E-1,3.669162035E0,8.692972183E0
7.739921880E-1,-2.490544468E-1,3.614564657E0,9.264076233E0
7.939921880E-1,1.543015093E-1,3.763637304E0,9.090142250E0
8.139921880E-1,-1.566478312E-1,3.782685518E0,8.654483795E0
8.339921880E-1,-5.254027843E-1,3.639607906E0,8.126801491E0
8.539921880E-1,-1.116847247E-1,3.456662178E0,8.689784050E0
8.739921880E-1,7.948749699E-4,3.424196720E0,9.035582542E0
8.939921880E-1,-4.101938009E-1,3.541340351E0,8.897658348E0
9.139921880E-1,-7.317063808E-1,3.787512302E0,8.845148087E0
9.339921880E-1,3.696647286E-2,3.548408031E0,9.144997597E0
9.539921880E-1,8.449904323E-1,3.175362825E0,9.315532684E0
9.739921880E-1,8.420886099E-2,3.374014378E0,8.956948280E0
9.939921880E-1,-4.514506832E-2,3.289968252E0,9.129636765E0
1.013992188E0,2.456642389E-1,3.266428471E0,9.748298645E0
1.033992188E0,4.311478138E-1,3.192955256E0,9.766591072E0
1.053992188E0,3.780252934E-1,3.259399176E0,9.352632523E0
1.073992188E0,2.388072461E-1,3.197590351E0,9.117742538E0
1.093992188E0,1.724591404E-1,3.011637688E0,1.012086487E1
1.113992188E0,5.134126171E-2,3.114166975E0,9.092900276E0
1.133992188E0,-3.804003298E-1,2.547086000E0,9.191321373E0
1.153992188E0,-1.830348015E0,1.807220101E0,1.007587337E1
1.173992188E0,-2.287899256E0,3.983338594E0,9.567268372E0
1.193992188E0,-2.550495267E-1,3.793679714E0,9.939901352E0
1.213992188E0,2.026078939E0,3.464055538E0,7.678022861E0
1.233992188E0,2.038327456E0,4.734103203E0,7.584208488E0
1.253992188E0,2.078205347E0,4.548101902E0,7.998845577E0
1.273992188E0,1.677971482E0,4.654654026E0,8.868324280E0
1.293992188E0,1.210623264E0,4.534311295E0,8.970977783E0
1.313992188E0,8.782793283E-1,4.378066063E0,8.666090965E0
1.333992188E0,7.972787619E-1,4.138980865E0,8.647684097E0
1.353992188E0,5.795692205E-1,3.821605682E0,8.819205284E0
1.373992188E0,2.049724013E-1,3.725100040E0,8.814742088E0
1.393992188E0,1.524436027E-1,3.757211208E0,8.856582642E0
1.413992188E0,3.351403475E-1,3.723175287E0,9.290834427E0
1.433992188E0,4.511633515E-1,3.716595888E0,9.550662041E0
1.453992188E0,6.456969976E-1,3.820580721E0,9.493258476E0
1.473993750E0,9.248801470E-1,3.770063162E0,9.455038071E0
1.495992188E0,1.040520072E0,3.789571285E0,9.474239349E0
1.515992188E0,1.130542040E0,3.812469244E0,9.376536369E0
1.535992188E0,1.097511649E0,3.817161798E0,9.038647652E0
1.555992188E0,9.907972813E-1,3.692912340E0,8.685981750E0
1.575992188E0,6.849715710E-1,3.665810108E0,8.298389435E0
1.595992188E0,5.883989930E-1,3.770216465E0,8.283439636E0
1.615992188E0,9.296301603E-1,3.636409521E0,8.468253136E0
1.635992188E0,1.012124777E0,3.340830803E0,8.645672798E0
1.655992188E0,7.123516202E-1,3.086662292E0,8.910462379E0
1.675993750E0,5.810631514E-1,2.990396261E0,9.260561943E0
1.697992188E0,9.973191023E-1,2.861051798E0,9.828130722E0
1.717992188E0,1.340111375E0,2.765293360E0,9.691355705E0
1.737992188E0,1.394900322E0,2.695219994E0,9.677114487E0
1.757992188E0,1.426264286E0,2.604345560E0,9.915987968E0
1.777992188E0,1.477538466E0,2.556078434E0,9.977854729E0
1.799992188E0,1.058687210E0,2.627674580E0,9.968440056E0
1.821992188E0,8.816503882E-1,2.679274321E0,9.691077232E0
1.841992188E0,9.075078368E-1,2.775492668E0,9.451139450E0
1.861992188E0,5.727122426E-1,2.908007145E0,9.334255219E0
1.881992188E0,6.073419452E-1,2.976031065E0,9.282061577E0
1.901992188E0,5.221466422E-1,3.225765467E0,9.230011940E0
1.921992188E0,5.070727468E-1,3.264350414E0,9.314727783E0
1.941992188E0,5.396339297E-1,3.236979723E0,9.571022034E0
1.961992188E0,6.065183282E-1,3.243118763E0,9.520351410E0
1.981992188E0,7.100148797E-1,3.259341717E0,9.470523834E0
2.001992188E0,9.793242812E-1,3.190063000E0,9.426642418E0
2.021992188E0,6.193416715E-1,3.260270834E0,9.639611244E0
2.041992188E0,2.757833004E-1,3.249247789E0,9.576337814E0
2.061992188E0,2.977907956E-1,3.128771544E0,9.455028534E0
2.081992188E0,2.746723890E-1,2.961694479E0,9.471040726E0
2.103992188E0,1.885385960E-1,2.812344313E0,9.364948273E0
2.123992188E0,5.184883252E-2,2.812085629E0,9.292614937E0
2.144000000E0,-3.456269577E-2,2.872208834E0,9.321393967E0
2.165992188E0,-2.134478688E-1,3.041766167E0,9.356664658E0
2.185992188E0,-3.107386529E-1,2.963753700E0,9.512498856E0
2.205992188E0,-1.895250194E-2,2.704509258E0,9.964667320E0
2.225995313E0,2.438733876E-1,2.473928690E0,1.014159870E1
2.247992188E0,2.599624395E-1,2.474512577E0,9.888082504E0
2.267992188E0,2.141086757E-1,2.612725258E0,9.454291344E0
2.287992188E0,8.417055756E-2,2.739320993E0,8.971361160E0
2.307992188E0,6.455725431E-2,2.829553604E0,8.552499771E0
2.327992188E0,1.035923138E-1,2.924431086E0,8.337529182E0
2.347992188E0,-4.004063085E-2,2.964663267E0,8.503830910E0
2.369992188E0,-2.810984254E-1,2.976318359E0,8.751477242E0
2.389992188E0,-2.981643081E-1,2.924661160E0,8.681882858E0
2.409992188E0,-2.134574503E-1,2.874804258E0,8.874750137E0
2.430010938E0,-2.492842823E-1,2.881278038E0,9.321355820E0
2.451992188E0,-4.881777465E-1,2.843487978E0,9.934194565E0
2.471992188E0,-5.938386321E-1,2.800727606E0,1.002619839E1
2.491992188E0,-5.509250164E-1,2.942167521E0,9.786021233E0
2.511992188E0,-5.129241943E-1,3.153949022E0,9.409317970E0
2.531992188E0,-4.970362782E-1,3.335678577E0,9.208167076E0
2.551993750E0,-4.089583755E-1,3.311841726E0,9.166555405E0
2.573992188E0,-1.457015425E-1,3.014003277E0,9.392012596E0
2.593992188E0,-2.618203163E-1,2.808101892E0,9.748883247E0
2.613992188E0,-5.438860059E-1,2.728087425E0,9.869799614E0
2.633992188E0,-6.990110874E-1,2.748399973E0,9.625341415E0
2.653992188E0,-4.562007785E-1,2.712831497E0,9.307929039E0
2.673992188E0,-4.260433912E-1,2.764115572E0,9.181447029E0
2.693992188E0,-4.530212581E-1,2.760073900E0,9.268040657E0
2.713992188E0,-2.727282941E-1,2.745115042E0,9.478836060E0
2.733992188E0,-6.815813482E-2,2.769344568E0,9.461434364E0
2.753992188E0,-1.839704439E-2,2.830530405E0,9.478596687E0
2.773992188E0,-2.216073126E-2,3.002491713E0,9.485463142E0
2.793992188E0,-3.629322648E-1,3.576171160E0,9.336745262E0
2.813992188E0,3.795671761E-1,3.292831898E0,9.331275940E0
2.833992188E0,7.544225454E-1,3.104034662E0,9.682132721E0
2.853992188E0,4.341262281E-1,2.979057312E0,1.042026424E1
2.873992188E0,2.867583334E-1,2.587691307E0,1.074568462E1
2.893992188E0,4.303050935E-1,2.520021677E0,1.078730583E1
2.913992188E0,2.938355803E-1,2.677129507E0,1.053712082E1
2.933992188E0,9.173622727E-2,2.959223747E0,9.705883026E0
2.953992188E0,1.376091242E-1,3.224405527E0,8.780773163E0
2.973992188E0,5.214571208E-2,3.381474495E0,8.021916389E0
2.993992188E0,-1.007671580E-1,3.388082743E0,7.567046642E0
3.013992188E0,-9.511684626E-2,3.183464527E0,7.678166389E0
3.033992188E0,-1.148259174E-2,2.835213661E0,8.317734718E0
3.053992188E0,-4.975150898E-2,2.699740171E0,8.946241379E0
3.073992188E0,6.350380927E-2,2.679561853E0,9.405859947E0
3.093992188E0,3.033549190E-1,2.758742809E0,9.499387741E0
3.113992188E0,3.840299249E-1,2.772083282E0,9.538518906E0
3.133992188E0,2.864039838E-1,2.741150141E0,9.484323502E0
3.153992188E0,3.359735310E-1,2.703417778E0,9.399482727E0
3.173992188E0,3.869700432E-1,2.689033270E0,9.434476852E0
3.193992188E0,4.163038135E-1,2.747997522E0,9.307967186E0
3.213992188E0,5.767536163E-1,2.721019745E0,9.145802498E0
3.233992188E0,6.698401570E-1,2.693811893E0,9.146328926E0
3.253992188E0,7.227328420E-1,2.594395161E0,9.253887177E0
3.273992188E0,8.482273817E-1,2.540382147E0,9.369392395E0
3.293992188E0,8.284704089E-1,2.518230915E0,9.334293365E0
3.313992188E0,7.152438164E-1,2.574082851E0,9.194318771E0
3.333992188E0,6.234022379E-1,2.700918198E0,9.335547447E0
3.353992188E0,6.091232300E-1,2.879314899E0,9.687006950E0
3.373992188E0,7.284502387E-1,2.974096537E0,9.898463249E0
3.393992188E0,7.726854682E-1,2.970897913E0,1.006497478E1
3.413992188E0,6.417801380E-1,2.917909384E0,1.008707809E1
3.433992188E0,4.172423184E-1,2.925541878E0,9.986454964E0
3.453992188E0,3.330813348E-1,2.882609367E0,9.726645470E0
3.473992188E0,5.137765408E-1,2.829247236E0,9.452988625E0
3.493992188E0,6.775878072E-1,2.832666159E0,9.229763031E0
3.513992188E0,6.760842204E-1,2.753695726E0,9.304308891E0
3.533992188E0,6.847799420E-1,2.698571682E0,9.391332626E0
3.553992188E0,7.367054224E-1,2.680107594E0,9.305400848E0
3.573992188E0,7.900483012E-1,2.714277744E0,9.248609543E0
3.593992188E0,7.742369175E-1,2.774104118E0,9.204862595E0
3.613992188E0,9.158396125E-1,2.741705894E0,9.152334213E0
3.633993750E0,1.026547432E0,2.704758406E0,9.147775650E0
3.655992188E0,8.350496888E-1,2.700688124E0,9.152870178E0
3.675992188E0,7.373375297E-1,2.693811893E0,9.205858231E0
3.695992188E0,7.783645391E-1,2.740728855E0,9.126111984E0
3.715992188E0,8.107628822E-1,2.777628422E0,9.019819260E0
3.735992188E0,8.695549369E-1,2.814968348E0,9.157342911E0
3.755992188E0,1.063159704E0,2.920073748E0,9.601408958E0
3.775992188E0,1.455789566E0,3.030609131E0,9.793539047E0
3.795992188E0,1.657917619E0,3.189067125E0,9.617278099E0
3.815992188E0,1.816241503E0,3.239642143E0,9.509242058E0
3.835992188E0,2.092436552E0,3.308240891E0,9.705711365E0
3.855992188E0,2.098249674E0,3.527951956E0,1.003582287E1
3.875992188E0,2.205404520E0,3.436043501E0,9.781319618E0
3.895992188E0,2.162577152E0,3.496616602E0,9.160531044E0
3.917990625E0,1.867295384E0,3.451481104E0,8.856534958E0
3.937990625E0,1.422989011E0,3.398301363E0,8.758343697E0
3.957990625E0,9.431239367E-1,3.390811920E0,8.616847038E0
3.977992188E0,6.611922979E-1,3.207732201E0,8.782133102E0
3.999990625E0,6.093817949E-1,3.001457453E0,9.007283211E0
4.019990625E0,3.733613789E-1,2.890883446E0,9.039701462E0
4.039990625E0,3.352456987E-1,2.773012161E0,9.147249222E0
4.059990625E0,3.473507762E-1,2.678355217E0,9.441457748E0
4.079990625E0,2.188874930E-1,2.791964769E0,9.436774254E0
4.099990625E0,2.672407925E-1,2.843478441E0,9.231169701E0
4.119990625E0,8.944737166E-2,3.000557184E0,9.194337845E0
4.139990625E0,-7.920019329E-3,3.100223064E0,9.013126373E0
4.159990625E0,1.375325173E-1,3.335228205E0,8.740253448E0
4.179990625E0,3.717141747E-1,3.398320198E0,8.671195030E0
4.199990625E0,5.804502368E-1,3.327039957E0,8.813391685E0
4.219990625E0,6.455630064E-1,3.199678183E0,9.163998604E0
4.239990625E0,7.164409161E-1,3.061283588E0,9.403983116E0
4.259990625E0,6.983599067E-1,3.031241179E0,9.414786339E0
4.279990625E0,7.055616379E-1,3.060488701E0,9.151511192E0
4.299990625E0,6.230766177E-1,3.184250116E0,8.955041885E0
4.319990625E0,3.404171765E-1,3.108392000E0,8.827374458E0
4.339990625E0,-1.953094006E-1,2.860553980E0,8.684957504E0
4.359990625E0,-1.093853235E0,2.760610342E0,8.713055611E0
4.379992188E0,-1.733641505E0,2.778164625E0,8.389589310E0
4.401990625E0,-1.866203666E0,2.938135386E0,7.866025448E0
4.421990625E0,-1.491568446E0,2.919728994E0,7.784104824E0
4.441990625E0,-6.129634976E-1,2.736170292E0,8.127606392E0
4.461992188E0,4.502535760E-1,2.618605375E0,8.977825165E0
4.483992188E0,1.572913885E0,2.763109922E0,9.840580940E0
4.503992188E0,2.480584383E0,2.914978743E0,1.010273647E1
4.525992188E0,2.748850107E0,3.183301687E0,9.892563820E0
4.545992188E0,2.802403450E0,3.483592272E0,9.632965088E0
4.565992188E0,2.923042536E0,3.722093105E0,9.315561295E0
4.587990625E0,2.953276634E0,3.921558857E0,8.935534477E0
4.607990625E0,2.782866955E0,4.174616337E0,8.669633865E0
4.627990625E0,2.581811190E0,4.252169609E0,8.636699677E0
4.647990625E0,2.156505346E0,4.178973675E0,8.927365303E0
4.667992188E0,1.650246620E0,4.072805405E0,9.289167404E0
4.689990625E0,1.215421319E0,3.769632339E0,9.554847717E0
4.709990625E0,6.341282129E-1,3.371083975E0,9.953969955E0
4.730010938E0,-1.003840864E-1,2.813062429E0,1.038291550E1
4.751990625E0,-7.160578370E-1,2.232784748E0,1.043268585E1
4.771990625E0,-7.571423054E-1,2.156706572E0,1.032016754E1
4.791990625E0,-3.110738397E-1,2.014021635E0,1.045303726E1
4.811990625E0,2.885683179E-1,1.356947422E0,1.099291992E1
4.831990625E0,1.406258196E-1,6.408128738E-1,1.179638481E1
4.851990625E0,-3.397755325E-1,2.315288782E-1,1.253083992E1
4.871990625E0,-3.996784687E-1,2.960669994E-1,1.238849068E1
4.891990625E0,3.033166230E-1,3.267893791E-1,1.167704868E1
4.911990625E0,6.210559234E-2,3.464601338E-1,1.105356979E1
4.931990625E0,-9.907685518E-1,3.518327475E-1,1.014174175E1
4.951990625E0,-1.403442740E0,3.496587873E-1,8.884490013E0
4.971990625E0,-9.802148938E-1,3.728155196E-1,8.398619652E0
4.991990625E0,-4.127795398E-1,3.520721495E-1,8.888463974E0
5.011990625E0,-7.090667635E-2,2.809547782E-1,9.487379074E0
5.031990625E0,7.077259943E-3,3.450427949E-1,9.947333336E0
5.051990625E0,-2.623757720E-1,4.391348958E-1,1.015188503E1
5.071990625E0,-6.774249673E-1,6.046699882E-1,1.014670277E1
5.091990625E0,-9.653804302E-1,7.930074930E-1,9.858317375E0
5.111990625E0,-9.073449969E-1,9.926456213E-1,9.468023300E0
5.131990625E0,-7.482358813E-1,1.220228910E0,9.198522568E0
5.151990625E0,-6.408224702E-1,1.403892875E0,9.077002525E0
5.171990625E0,-6.179721951E-1,1.603578806E0,8.979357719E0
5.191990625E0,-4.026089609E-1,1.735642910E0,8.946260452E0
5.211990625E0,-1.568968147E-1,1.735202551E0,9.343218803E0
5.231990625E0,8.669883013E-2,1.698149800E0,9.868142128E0
5.251990625E0,2.127774954E-1,1.759556293E0,1.009112930E1
5.271990625E0,2.664171755E-1,1.934045672E0,9.811831474E0
5.291990625E0,3.618596494E-1,2.119586706E0,9.398458481E0
5.311990625E0,4.496981204E-1,2.240876913E0,9.123832703E0
5.331990625E0,3.944973946E-1,2.320364475E0,9.163011551E0
5.351992188E0,-5.369715393E-2,2.635786057E0,8.911487579E0
5.373990625E0,5.539225042E-2,2.438053846E0,9.276190758E0
5.393992188E0,4.111419022E-1,2.436828136E0,1.022223568E1
5.415990625E0,5.951315165E-1,2.450321674E0,1.088173294E1
5.435990625E0,5.685271621E-1,2.303087950E0,1.090303135E1
5.455992188E0,-6.079356745E-2,2.390725374E0,1.055295086E1
5.477992188E0,-1.483255774E-1,2.288866520E0,9.539849281E0
5.499990625E0,6.965211630E-1,1.513604760E0,8.627468109E0
5.519990625E0,7.847331762E-1,2.342486829E-1,9.684535980E0
5.539990625E0,-1.174212247E-1,-7.277032733E-1,1.144142056E1
5.559990625E0,-2.432509065E-1,-1.148057938E0,1.247739124E1
5.579992188E0,6.427378058E-1,-9.508140683E-1,1.190473747E1
5.601990625E0,1.567694545E0,-2.900336087E-1,1.018075848E1
5.621990625E0,1.943325639E0,2.805908620E-1,9.310647964E0
5.641990625E0,1.716412663E0,5.675024390E-1,9.221297264E0
5.661990625E0,1.005507231E0,7.451809049E-1,9.293026924E0
5.681990625E0,4.672524035E-1,9.629095793E-1,9.300641060E0
5.701990625E0,2.099523246E-1,1.268582106E0,9.245822906E0
5.721990625E0,4.426399991E-2,1.535142899E0,9.028132439E0
5.741990625E0,-1.955583878E-2,1.670444131E0,8.727401733E0
5.761990625E0,-1.371207088E-1,1.655226588E0,8.640980721E0
5.781990625E0,-3.249219060E-1,1.425392866E0,8.868218422E0
5.801990625E0,-4.430805445E-1,1.309925199E0,9.271306992E0
5.821990625E0,-5.709213018E-1,1.308900476E0,9.534505844E0
5.841990625E0,-6.933991313E-1,1.395292878E0,9.698777199E0
5.861990625E0,-7.358244061E-1,1.495284319E0,9.533260345E0
5.881990625E0,-8.992717266E-1,1.629072309E0,9.215368271E0
5.901990625E0,-1.360481143E0,1.727656007E0,9.160512924E0
5.921990625E0,-1.797911406E0,1.717657685E0,9.387549400E0
5.941990625E0,-2.032581329E0,1.589797854E0,9.738655090E0
5.961990625E0,-2.747231483E0,1.021931410E0,1.157077408E1
5.981990625E0,-3.875417709E0,3.368546069E-1,1.246103382E1
6.001990625E0,-3.972172022E0,8.521442115E-2,1.130362988E1
6.021990625E0,-2.920073748E0,-3.733422160E-1,9.486114502E0
6.041990625E0,-3.134574890E0,-1.067038178E0,8.671836853E0
6.061990625E0,-4.040426254E0,-1.496203780E0,9.296168327E0
6.081990625E0,-4.241586685E0,-1.666364431E0,9.933552742E0
6.101990625E0,-4.159245491E0,-1.780883789E0,9.509050369E0
6.121990625E0,-3.439538717E0,-2.027505636E0,9.356808662E0
6.141990625E0,-7.484083176E-1,-2.986383438E0,9.969905853E0
6.161990625E0,1.034975052E0,-3.443790913E0,1.180498505E1
6.181992188E0,1.226252675E0,-3.984947443E0,1.429046249E1
6.203990625E0,-5.770026147E-2,-3.708216190E0,1.443846321E1
6.223998438E0,-5.415683985E-1,-3.149782896E0,1.285418129E1
6.245992188E0,-8.029577732E-1,-2.705294609E0,1.255886173E1
6.267992188E0,-1.621985435E0,-2.417693615E0,1.279409695E1
6.289990625E0,-1.760897040E0,-2.283158779E0,1.146388817E1
6.309990625E0,-1.746321201E0,-2.045816660E0,9.869828224E0
6.330009375E0,-1.889092207E0,-1.954185843E0,8.868593216E0
6.351990625E0,-2.006915569E0,-1.857929230E0,8.721713066E0
6.371992188E0,-1.899760723E0,-1.849434614E0,8.817145348E0
6.393992188E0,-1.797490001E0,-1.844607949E0,8.570945740E0
6.413992188E0,-2.799281597E0,-2.007202864E0,8.864933968E0
6.433992188E0,-3.738900423E0,-2.117345810E0,1.004160786E1
6.455992188E0,-2.459017515E0,-2.260423422E0,1.077075672E1
6.477992188E0,-1.692221873E-2,-1.533610702E0,1.008185005E1
6.499990625E0,8.752818704E-1,-2.525882721E-1,8.624804497E0
6.519990625E0,5.516240373E-3,9.543958306E-1,8.297595024E0
6.539990625E0,2.431455553E-1,9.499521852E-1,8.532628059E0
6.559990625E0,3.640527427E-1,7.363128066E-1,9.940514565E0
6.579992188E0,-1.107318282E0,2.685911357E-1,1.169194984E1
6.601990625E0,-3.174165487E0,3.429454565E-2,1.203418636E1
6.621990625E0,-3.132554531E0,-1.903869212E-1,1.115218163E1
6.641990625E0,-2.563950777E0,-1.999541521E-1,1.057513142E1
6.661992188E0,-2.170851231E0,-1.186949462E-1,1.036728573E1
6.681993750E0,-2.092053413E0,4.112280533E-2,9.724836349E0
6.703993750E0,-1.814622879E0,3.196642399E-1,8.776041985E0
6.725990625E0,-7.356041074E-1,8.492808342E-1,8.376880646E0
6.745992188E0,3.736869991E-1,1.081451297E0,8.878284454E0
6.765992188E0,8.303282857E-1,1.953476965E-1,9.983408928E0
6.787990625E0,5.850758553E-1,-1.041458607E0,1.087010670E1
6.807990625E0,7.523922920E-1,-1.619581699E0,1.099901104E1
6.827990625E0,1.213314295E0,-1.155661941E0,1.030061245E1
6.847992188E0,2.414839506E0,-5.461174250E-1,9.346330643E0
6.867992188E0,4.046200752E0,2.713205218E-1,8.241646767E0
6.889990625E0,5.391607761E0,9.929137826E-1,7.948873997E0
6.909990625E0,5.115394115E0,1.068283200E0,8.359077454E0
6.930014063E0,3.921165943E0,7.177050710E-1,9.570179939E0
6.951990625E0,2.864997625E0,2.776603699E-1,1.045572758E1
6.971990625E0,1.720636129E0,3.181798458E-1,1.101469707E1
6.991990625E0,1.006838441E0,4.689762294E-1,1.080270481E1
7.011990625E0,7.109725475E-1,1.053515792E0,1.018835258E1
7.031990625E0,7.743327022E-1,1.411420107E0,9.349625587E0
7.051990625E0,8.489072919E-1,1.512532115E0,8.950694084E0
7.071990625E0,7.021906376E-1,1.425124645E0,9.330175400E0
7.091990625E0,4.036432505E-1,1.456009746E0,9.680198669E0
7.111992188E0,4.468346536E-1,1.363402128E0,1.018372726E1
7.133990625E0,3.734188676E-1,1.339747429E0,1.051703835E1
7.153992188E0,2.765015662E-1,1.534328938E0,1.014022923E1
7.175992188E0,2.154111117E-1,1.866433501E0,8.908785820E0
7.197990625E0,1.291911211E-2,2.127880335E0,8.714463234E0
7.217990625E0,-9.207142144E-2,2.085618019E0,9.109793663E0
7.237990625E0,-2.778231502E-1,1.960851192E0,8.814377785E0
7.257990625E0,-5.612966418E-1,2.157137394E0,8.576815605E0
7.277990625E0,-8.898481727E-1,2.599538088E0,9.202640533E0
7.297990625E0,-1.292581677E0,2.836046934E0,9.745320320E0
7.317990625E0,-1.503491521E0,2.868674994E0,9.940361023E0
7.337990625E0,-1.506862640E0,2.425661564E0,1.032705402E1
7.357990625E0,-1.415193439E0,2.400033951E0,1.164434338E1
7.377992188E0,-8.766992092E-1,2.331779957E0,1.143336582E1
7.397992188E0,-5.148299336E-1,2.062231302E0,9.865691185E0
7.419990625E0,1.140693426E-1,1.623584867E0,9.887124062E0
7.439990625E0,6.235554814E-1,1.734963059E0,1.058336735E1
7.459990625E0,2.523488551E-2,1.686935425E0,1.030587959E1
7.479990625E0,-3.837618232E-1,1.996323705E0,9.779289246E0
7.499990625E0,1.587164104E-1,2.635996819E0,9.097718239E0
7.519990625E0,3.731507063E-1,5.306413174E-1,1.182192707E1
7.539990625E0,-8.338717222E-1,-1.562772036E0,1.486143303E1
7.559990625E0,-3.055049419E0,-2.088385582E0,1.762880516E1
7.579992188E0,-2.704020977E0,-1.905688882E0,1.725804710E1
7.601990625E0,5.777687579E-2,-1.000249624E0,1.324820042E1
7.621990625E0,1.520768166E0,2.723069191E-1,9.887755394E0
7.641990625E0,5.205568671E-1,5.711128712E-1,8.673426628E0
7.661990625E0,-1.173015118E0,5.426985025E-1,9.438698769E0
7.681992188E0,-1.083500743E0,6.920775175E-1,9.458983421E0
7.703990625E0,-3.218764812E-2,1.246277690E0,8.257543564E0
7.723992188E0,2.022870541E0,1.454726577E0,8.414977074E0
7.745992188E0,7.731739283E-1,2.698648453E0,8.115069389E0
7.767992188E0,-1.422490954E0,4.127976894E0,6.839180470E0
7.789990625E0,-9.345718622E-1,1.784637928E0,2.875369072E0
7.809995313E0,5.485020280E-1,3.051553667E-1,3.065401793E0
7.830009375E0,-2.288358927E0,3.496128082E0,1.263225746E1
7.851990625E0,-1.684818864E0,2.828165054E0,1.033691788E1
7.871990625E0,1.145386100E0,1.406344533E0,7.475943089E0
7.891992188E0,2.642930508E0,1.567378521E0,4.667477131E0
7.913992188E0,2.773270845E0,2.764057875E0,6.508244514E0
7.933992188E0,1.036105156E0,2.702594042E0,7.241550446E0
7.953992188E0,-1.276032805E0,3.902184725E0,7.741603374E0
7.973992188E0,-7.898375988E-1,5.279971123E0,1.373723984E1
7.993992188E0,-1.359676719E0,3.364935637E0,1.086903381E1
8.013992188E0,-1.422347426E-1,3.033367395E0,6.873897076E0
8.035990625E0,1.398644805E0,3.268937826E0,3.907452106E0
8.055990625E0,6.586449146E-1,1.158525467E0,7.181187630E0
8.075990625E0,8.634736538E-1,1.058773398E0,1.659938240E1
8.095992188E0,8.487636447E-1,2.103650808E0,1.017305851E1
8.117990625E0,1.611824512E0,1.897500634E0,9.072511673E0
8.137990625E0,5.510016084E-1,1.293280721E0,1.758511543E1
8.157990625E0,-1.033337489E-1,3.026778460E0,9.172694206E0
8.177990625E0,6.358999759E-3,4.028512478E0,1.150900364E1
8.197990625E0,-3.716375828E-1,3.129068375E0,1.151338100E1
8.217990625E0,-5.919424444E-2,2.313488245E0,1.097666836E1
8.237990625E0,3.230161071E-1,2.258431435E0,1.040420532E1
8.257990625E0,-4.929182306E-2,2.484980106E0,9.355228424E0
8.277990625E0,-5.883415341E-1,3.017201662E0,9.038858414E0
8.297990625E0,-4.873541296E-1,3.007174730E0,8.617986679E0
8.317990625E0,-4.376600683E-2,2.774458408E0,7.983494282E0
8.337990625E0,1.921873689E-1,2.604048491E0,7.879471302E0
8.357992188E0,5.323842764E-1,2.074997187E0,8.569393158E0
8.377992188E0,6.126378775E-1,1.954223990E0,8.804417610E0
8.399990625E0,9.134645462E-1,1.840729237E0,8.431803703E0
8.419990625E0,1.143001437E0,1.973923564E0,7.891202450E0
8.439990625E0,7.904695868E-1,2.253652573E0,7.827057362E0
8.459990625E0,3.962691128E-1,2.142035007E0,8.849581718E0
8.479990625E0,5.603677034E-1,1.746484041E0,9.185603142E0
8.499990625E0,6.806619763E-1,1.572588205E0,9.030508041E0
8.519992188E0,4.425059259E-1,1.592182517E0,9.469527245E0
8.541992188E0,8.215846419E-1,1.832828522E0,1.012777901E1
8.563992188E0,1.072209716E0,2.767725945E0,9.711360931E0
8.583992188E0,-3.843651414E-1,2.916482449E0,8.108270645E0
8.603992188E0,-1.367663860E0,1.763070941E0,1.037649918E1
8.623998438E0,-3.873914182E-1,-5.548131466E-1,1.415188694E1
8.645992188E0,1.476983070E0,-1.112757921E0,1.366728115E1
8.665992188E0,2.052376747E0,3.296049535E-1,1.061702061E1
8.687990625E0,7.120739222E-1,8.496830463E-1,9.286466599E0
8.707990625E0,-9.904716611E-1,1.376522303E0,1.024745083E1
8.727990625E0,-1.739502430E0,1.337458491E0,1.191386318E1
8.747990625E0,-1.465203643E0,9.798222780E-1,1.264866352E1
8.767990625E0,-4.583747089E-1,8.793807626E-1,1.127580833E1
8.787990625E0,1.990251988E-1,1.591856837E0,9.274361610E0
8.807990625E0,3.442766368E-1,2.134095669E0,8.274935722E0
8.827990625E0,4.703265727E-1,2.613711596E0,7.674029350E0
8.847990625E0,6.958795190E-1,2.715685606E0,7.447719574E0
8.867990625E0,1.047721744E0,2.771211863E0,7.229895592E0
8.887990625E0,1.091813445E0,3.045395851E0,7.199661732E0
8.907990625E0,7.018841505E-1,3.252341032E0,7.810336113E0
8.927990625E0,5.660755038E-1,3.043815613E0,8.854782104E0
8.947992188E0,6.947398782E-1,2.669324160E0,9.333794594E0
8.969990625E0,6.757490635E-1,2.629494429E0,9.602089882E0
8.989992188E0,2.839618921E-1,2.781277180E0,1.011089516E1
9.009992188E0,-4.672523960E-2,3.081500530E0,1.033713913E1
9.030009375E0,-3.505111486E-2,3.141029835E0,1.038675594E1
9.051990625E0,2.545228004E-1,3.024508715E0,1.017163181E1
9.071990625E0,4.522168264E-2,3.321868658E0,1.000414371E1
9.091990625E0,-1.998679526E-2,3.523537159E0,9.894306183E0
9.111992188E0,4.337336123E-2,3.326877356E0,9.832555771E0
9.131992188E0,7.601111382E-2,3.074825525E0,9.936827660E0
9.151992188E0,2.723643929E-2,3.008965492E0,9.616560936E0
9.171992188E0,-2.875340581E-1,2.868521690E0,9.571022034E0
9.191992188E0,-7.024108768E-1,2.887454987E0,9.440021515E0
9.213992188E0,-1.085090518E0,2.080130339E0,9.300525665E0
9.233992188E0,-2.037053823E0,1.270162344E0,9.165061951E0
9.253992188E0,-2.793870687E0,2.811079919E-1,1.108569050E1
9.273992188E0,-3.059875965E0,-9.371097088E-1,1.382087421E1
9.293998438E0,-2.283742905E0,-1.616679907E0,1.386064625E1
9.315992188E0,-1.538150191E0,-7.395018935E-1,1.086691761E1
9.335992188E0,-1.673834324E0,-6.546705216E-2,9.452326775E0
9.355992188E0,-2.114750385E0,1.050384119E-1,1.010845375E1
9.375992188E0,-1.721727848E0,-2.310596108E-1,1.110318661E1
9.395992188E0,-8.091348410E-1,-4.401308894E-1,1.111988831E1
9.415992188E0,2.718663812E-1,-5.070536137E-1,9.837525368E0
9.435992188E0,1.042770624E0,2.484989762E-1,8.381152153E0
9.455992188E0,1.511382937E0,9.365734458E-1,7.109361649E0
9.475992188E0,1.664238334E0,1.728249788E0,6.745337963E0
9.495992188E0,1.488456011E0,1.965400100E0,7.422954082E0
9.515992188E0,1.398328781E0,2.143509626E0,8.049640656E0
9.535992188E0,1.393645644E0,2.156696796E0,8.546658516E0
9.555992188E0,1.842041373E0,2.318228960E0,8.778502464E0
9.575992188E0,2.500532866E0,2.252148867E0,8.719768524E0
9.595992188E0,2.778653145E0,2.189468861E0,8.353705406E0
9.615992188E0,2.286252022E0,2.574542522E0,8.831444740E0
9.635992188E0,1.701425076E0,2.496472359E0,9.108481407E0
9.655992188E0,1.249907374E0,2.113878965E0,9.549253464E0
9.675992188E0,9.345526695E-1,2.003429651E0,1.011264801E1
9.697990625E0,6.055510640E-1,1.702564716E0,9.904928207E0
9.717990625E0,1.524340361E-1,1.523210287E0,9.863583565E0
9.737990625E0,-6.742072105E-2,1.330630302E0,1.000285053E1
9.757990625E0,-1.877245605E-1,1.029573679E0,1.024967289E1
9.777990625E0,-3.543705642E-1,9.384504557E-1,1.080067444E1
9.797990625E0,-8.305389881E-1,1.380314708E0,1.116073418E1
9.817990625E0,-9.333747625E-1,1.497467756E0,1.098069954E1
9.837992188E0,-1.047511101E0,1.304657936E0,1.049588394E1
9.859990625E0,-1.341787219E0,1.352704883E0,9.095552444E0
9.879990625E0,-1.670731425E0,2.144697189E0,7.668762207E0
9.899990625E0,-1.614055872E0,2.166197062E0,7.766502857E0
9.919990625E0,-7.249355316E-1,6.709223390E-1,9.977663040E0
9.939990625E0,2.301019430E-1,-8.551705480E-1,1.244773197E1
9.959990625E0,6.055702567E-1,-1.309341073E0,1.356573868E1
9.979990625E0,5.466824174E-1,-4.762163162E-1,1.298915768E1
9.999990625E0,5.982056856E-1,2.074815184E-1,1.118472385E1
1.001999062E1,1.041592598E0,1.011349082E0,9.755682945E0
1.003999063E1,1.468028665E0,1.337975740E0,8.943846703E0
1.005999063E1,1.695659757E0,1.463498950E0,8.174263954E0
1.007999062E1,1.690268040E0,1.733028531E0,7.444741249E0
1.009999062E1,1.426781416E0,1.892846346E0,7.232768536E0
1.011999219E1,7.370406389E-1,1.698734045E0,7.749485016E0
1.013999219E1,4.796831012E-1,1.610273123E0,8.331017494E0
1.015999375E1,6.123601794E-1,1.740086675E0,8.729805946E0
1.018199375E1,1.005200863E0,1.664793849E0,8.809359550E0
1.020400312E1,7.456406355E-1,9.060521126E-1,8.813995361E0
1.022599219E1,4.135073423E-1,-2.850823998E-1,1.150704098E1
1.024599219E1,9.580733180E-1,-1.405463338E0,1.408678436E1
1.026599219E1,2.368411303E0,-1.511660695E0,1.414218521E1
1.028599219E1,3.075792789E0,-4.137180448E-1,1.051542950E1
1.030599219E1,3.021683693E0,7.821282148E-1,6.547356606E0
1.032599219E1,2.619572639E0,7.254047990E-1,6.176714897E0
1.034599219E1,1.779763341E0,3.006734252E-1,7.019215107E0
1.036599219E1,3.353318870E-1,9.553822130E-2,8.263616562E0
1.038599219E1,-1.085052252E0,-9.374736547E-1,9.390643120E0
1.040599219E1,-2.101582289E0,-1.749031425E0,9.938350677E0
1.042599219E1,-2.107108116E0,-7.592109442E-1,9.169715881E0
1.044599688E1,-1.922697186E0,-2.222968489E-1,7.823092461E0
1.046799219E1,-2.783125401E0,-6.460130811E-1,7.283113956E0
1.048799219E1,-4.379033089E0,-7.777898908E-1,8.600566864E0
1.050799219E1,-5.203385830E0,-3.978780210E-1,1.000531197E1
1.052799219E1,-4.246748924E0,9.383355081E-2,1.004782295E1
1.054799219E1,-2.751962423E0,-1.662820876E-1,9.965423584E0
1.056799219E1,-1.938958645E0,-3.888566494E-1,1.033412075E1
1.058799219E1,-1.922697186E0,-5.069099665E-1,1.114225101E1
1.060799219E1,-2.190866947E0,-4.919222593E-1,1.154764652E1
1.062799219E1,-2.725348711E0,-2.864231169E-1,1.176438904E1
1.064799219E1,-2.610015154E0,-5.668224692E-1,1.212739754E1
1.066800000E1,-2.123350382E0,-1.157347560E0,1.209324741E1
1.068999062E1,-1.658530474E0,-1.662294149E0,1.113764477E1
1.070999063E1,-1.287065387E0,-1.713549376E0,1.005407619E1
1.073001094E1,-1.115209579E0,-1.568633080E0,8.948701859E0
1.075199063E1,-8.806927204E-1,-1.496251583E0,7.506961823E0
1.077199062E1,-8.922806382E-1,-1.869833231E0,6.425683022E0
1.079199062E1,-1.298413992E0,-3.130380392E0,6.475166321E0
1.081199062E1,-2.254265308E0,-3.686821461E0,7.499214172E0
1.083199063E1,-3.400369883E0,-3.934066057E0,9.430683136E0
1.085199063E1,-4.309313774E0,-3.477702379E0,9.806984901E0
1.087199062E1,-4.979441643E0,-2.298347473E0,8.614816666E0
1.089199062E1,-5.459842682E0,-1.523995638E0,8.480683327E0
1.091199063E1,-5.351902962E0,-1.435094118E0,9.912110329E0
1.093199063E1,-4.691083908E0,-1.770579219E0,1.088148403E1
1.095199062E1,-4.134316921E0,-1.925991535E0,1.084840488E1
1.097199062E1,-4.012260914E0,-2.077956200E0,1.083733463E1
1.099199063E1,-3.791563272E0,-2.351661682E0,1.161318111E1
1.101199063E1,-3.146900415E0,-2.721833706E0,1.194098568E1
1.103199062E1,-2.420892239E0,-2.961158276E0,1.184900951E1
1.105199062E1,-1.767074108E0,-2.771786451E0,1.146981525E1
1.107199063E1,-1.355003238E0,-2.238118887E0,1.023906231E1
1.109199063E1,-1.274893284E0,-1.849358082E0,9.470379829E0
1.111199219E1,-1.232908607E0,-2.209407806E0,1.011806870E1
1.113399219E1,-4.680185616E-1,-3.483218670E0,1.050315189E1
1.115399219E1,7.489541769E-1,-4.076903820E0,8.689419746E0
1.117599219E1,1.017822981E0,-3.575270891E0,6.840760708E0
1.119799219E1,-1.174346328E0,-3.370298624E0,7.585846424E0
1.121999063E1,-3.926902533E0,-2.743803024E0,9.036712646E0
1.123999062E1,-5.181109905E0,-1.695410848E0,8.965145111E0
1.125999062E1,-4.938337803E0,-6.056755781E-1,8.431487083E0
1.127999062E1,-4.170392990E0,3.747308552E-1,7.815038204E0
1.129999219E1,-3.870428324E0,9.052955508E-1,7.687848568E0
1.132199219E1,-3.744847298E0,1.290790796E0,7.332118034E0
1.134399062E1,-3.726373672E0,1.712467194E0,6.486715794E0
1.136399219E1,-3.300684929E0,1.689482808E0,5.462438107E0
1.138399688E1,-3.028042793E0,1.293721318E0,4.915027618E0
1.140599063E1,-3.839475870E0,1.977993548E-1,5.722965717E0
1.142599219E1,-4.484694481E0,-6.053499579E-1,7.394884586E0
1.144799063E1,-3.848918676E0,-1.434011817E0,7.955769539E0
1.146799062E1,-2.700056076E0,-1.829399943E0,8.231456757E0
1.148799219E1,-1.965227842E0,-2.038404226E0,9.864829063E0
1.150999062E1,-1.386156559E0,-2.870475292E0,1.197439861E1
1.153001094E1,-4.673481733E-2,-3.251651525E0,1.225328541E1
1.155199375E1,9.503544569E-1,-3.715542555E0,1.165725327E1
1.157399375E1,6.589130163E-1,-3.826221704E0,1.159240818E1
1.159399375E1,1.098555550E-1,-3.692567587E0,1.109621525E1
1.161599219E1,-4.255166948E-1,-3.879382610E0,9.871839523E0
1.163599219E1,-9.046347737E-1,-4.064770222E0,9.332196236E0
1.165599219E1,-1.078702807E0,-3.996142864E0,8.985754967E0
1.167599219E1,-6.826443672E-1,-3.704079151E0,7.495000362E0
1.169799219E1,-6.677524447E-1,-2.846677065E0,6.463827610E0
1.171999063E1,1.659852117E-1,-3.689053059E0,7.120729446E0
1.173999062E1,-6.317723393E-1,-3.791611195E0,8.223162651E0
1.175999062E1,-6.450745463E-1,-4.275891304E0,9.043072701E0
1.177999062E1,-2.722590268E-1,-4.707795620E0,8.852799416E0
1.179999063E1,-8.415427208E-1,-4.215365887E0,8.188514709E0
1.181999062E1,-1.799395800E0,-3.471678734E0,7.242469788E0
1.183999062E1,-3.055796146E0,-3.025964499E0,6.848930359E0
1.185999062E1,-4.443255424E0,-2.987120867E0,7.033561230E0
1.187999219E1,-5.595814228E0,-2.807259083E0,6.624727726E0
1.190199063E1,-6.004964352E0,-2.325918913E0,6.715304852E0
1.192199063E1,-5.672850132E0,-2.540707827E0,7.332481861E0
1.194199062E1,-5.364965439E0,-1.872361422E0,7.416116238E0
1.196199062E1,-5.215107441E0,-1.113897562E0,7.898011684E0
1.198199062E1,-4.651311398E0,-3.879277110E-1,8.784048080E0
1.200199063E1,-4.314476013E0,2.633909285E-1,8.799064636E0
1.202199062E1,-3.595707655E0,3.441329598E-1,8.408599854E0
1.204199219E1,-3.165172815E0,-7.093923688E-1,9.744467735E0
1.206399219E1,-2.972975969E0,-2.041124105E0,1.123240757E1
1.208399219E1,-2.050863504E0,-3.371064663E0,1.183896351E1
1.210599219E1,-1.634847164E0,-4.731948376E0,1.190773392E1
1.212799219E1,-2.052299976E0,-5.282642841E0,1.126953602E1
1.214799219E1,-3.226148367E0,-5.217521191E0,1.023764420E1
1.216799219E1,-4.179988861E0,-4.657728195E0,9.717643738E0
1.218999062E1,-4.635586262E0,-4.943307877E0,9.729825020E0
1.220999063E1,-5.178983688E0,-5.333189487E0,1.008748055E1
1.223000938E1,-5.425462246E0,-5.376314163E0,1.153089619E1
1.225199063E1,-5.685855389E0,-5.672170639E0,1.224057579E1
1.227199062E1,-5.559863091E0,-4.969510078E0,1.124251938E1
1.229199062E1,-5.139767170E0,-4.462313175E0,9.767461777E0
1.231199062E1,-5.043491364E0,-4.077430725E0,9.594331741E0
1.233199063E1,-5.418126583E0,-4.178294182E0,9.431698799E0
1.235199063E1,-5.963573456E0,-4.093347549E0,9.722833633E0
1.237199062E1,-6.585557938E0,-4.409899235E0,1.054281902E1
1.239199062E1,-6.786412716E0,-4.032831669E0,1.050930119E1
1.241199063E1,-6.754550934E0,-3.090569496E0,9.526309013E0
1.243199063E1,-7.251586914E0,-2.461794853E0,9.562604904E0
1.245199062E1,-6.450975418E0,-2.716125965E0,1.207650661E1
1.247199219E1,-4.044994354E0,-9.707434773E-1,1.198201275E1
1.249399219E1,-1.858551741E0,1.029899359E0,7.768322945E0
1.251399688E1,-1.683382273E0,-8.339483291E-2,5.590834618E0
1.253599375E1,-2.174155474E0,-2.959367514E0,1.127267742E1
1.255599375E1,-2.325430632E0,-3.367377758E0,1.614217758E1
1.257799219E1,-2.103191137E0,-2.246163368E0,1.695539284E1
1.259999219E1,-1.961014032E0,1.600092947E-1,1.228069305E1
1.262199062E1,-1.926585317E0,3.567743540E0,6.396799088E0
1.264199062E1,-1.853265405E0,5.626307011E0,3.096957207E0
1.266199063E1,-1.589778662E0,5.367254257E0,3.666604996E0
1.268199063E1,-1.545332670E0,2.945299149E0,6.858861446E0
1.270199062E1,-1.134392023E0,9.734058380E-1,9.727708817E0
1.272199062E1,-9.192298055E-1,-2.299199849E-1,1.127504253E1
1.274199063E1,-1.008878350E0,-6.720045209E-1,1.080412197E1
1.276199063E1,-1.038528085E0,-4.807365537E-1,9.640473366E0
1.278199062E1,-1.084037066E0,-5.464717150E-1,8.734516144E0
1.280199062E1,-1.152578235E0,-6.272808313E-1,8.458657265E0
1.282199063E1,-1.431598544E0,-7.833061814E-1,9.043120384E0
1.284199063E1,-1.539739847E0,-1.128607512E0,9.612576485E0
1.286199062E1,-1.195434451E0,-1.066051841E0,9.045916557E0
1.288199062E1,-9.919847846E-1,-8.936597109E-1,7.567870617E0
1.290199063E1,-1.278618693E0,-7.733271718E-1,7.410092831E0
1.292199063E1,-2.051620007E0,-9.677171707E-1,8.367801666E0
1.294199062E1,-2.484510899E0,-1.172363997E0,8.889240265E0
1.296199062E1,-2.659766674E0,-9.661753178E-1,8.547999382E0
1.298199219E1,-2.970878601E0,-4.691773355E-1,8.660737038E0
1.300199219E1,-3.214761734E0,-5.830168724E-1,9.518004417E0
1.302199219E1,-3.527961731E0,-4.831786156E-1,1.016249466E1
1.304399063E1,-3.753093004E0,-4.409162104E-1,1.028876591E1
1.306399062E1,-3.853065491E0,-3.456940055E-1,1.036781216E1
1.308399062E1,-3.966627121E0,5.548801646E-2,1.031825256E1
1.310400312E1,-3.964175463E0,3.538534343E-1,9.835830688E0
1.312599219E1,-3.468690634E0,-2.219329178E-1,9.370771408E0
1.314599219E1,-3.136509418E0,-8.157141209E-1,9.775572777E0
1.316599219E1,-2.989352226E0,-1.363526583E0,1.011546421E1
1.318600938E1,-3.081404448E0,-1.720358372E0,9.952658653E0
1.320799062E1,-3.451011896E0,-1.991784334E0,9.829883575E0
1.322799062E1,-3.641791582E0,-1.967449546E0,9.989298820E0
1.324799063E1,-3.476428747E0,-1.897701740E0,9.823103905E0
1.326799219E1,-3.693956375E0,-1.341739416E0,9.513762474E0
1.328799219E1,-4.510293007E0,-6.056085229E-1,9.398601532E0
1.330999063E1,-4.561701298E0,-7.233361900E-2,8.626959801E0
1.333000938E1,-4.078953743E0,1.920149624E-1,7.702213764E0
1.335199063E1,-3.829448938E0,7.919061184E-2,8.661695480E0
1.337199062E1,-3.657756090E0,-4.745116234E-1,9.888809204E0
1.339199062E1,-3.119424582E0,-1.018139005E0,1.012541389E1
1.341199063E1,-2.317893744E0,-1.266436934E0,9.912234306E0
1.343199063E1,-1.835193992E0,-1.187255859E0,1.041475773E1
1.345199062E1,-2.109933376E0,-1.090032101E0,1.085464001E1
1.347199219E1,-2.033951044E0,-9.545969367E-1,1.101018620E1
1.349399062E1,-1.360069394E0,-9.030641317E-1,1.005129910E1
1.351399219E1,-1.037139416E0,-8.290641308E-1,9.485606194E0
1.353599375E1,-1.252598405E0,-1.159540653E0,9.968277931E0
1.355799219E1,-1.650457263E0,-1.107777953E0,1.018344021E1
1.357799375E1,-1.770129085E0,-7.900769711E-1,9.778637886E0
1.359999219E1,-2.212682962E0,-2.901485264E-1,9.278048515E0
1.362199219E1,-2.602238655E0,2.993422449E-1,8.452843666E0
1.364199219E1,-2.817745686E0,8.018181920E-1,7.759234428E0
1.366199219E1,-2.995778322E0,8.796009421E-1,7.965968609E0
1.368199219E1,-2.947175980E0,3.909539878E-1,8.663667679E0
1.370199219E1,-2.810132027E0,9.463800490E-2,8.967349052E0
1.372199219E1,-2.600696802E0,-1.524627674E-2,9.086723328E0
1.374199219E1,-2.299295664E0,-2.598666251E-1,9.340010643E0
1.376199219E1,-2.134583950E0,-2.448693663E-1,9.428385735E0
1.378399844E1,-1.958907127E0,-1.372164935E-1,9.266182899E0
1.380599063E1,-1.781209469E0,-2.090904266E-1,9.283613205E0
1.382599219E1,-1.944513202E0,-2.697307765E-1,9.283047676E0
1.384799219E1,-2.163123131E0,-3.920744732E-2,9.417860031E0
1.386999063E1,-2.082495928E0,7.596418858E-1,8.841719627E0
1.388999063E1,-2.898726940E0,1.021433473E0,9.012608528E0
1.390999062E1,-3.560551405E0,7.512334585E-1,9.719108582E0
1.393000938E1,-3.065229416E0,2.690125108E-1,1.039811325E1
1.395199062E1,-2.512254953E0,-1.747096926E-1,1.132081032E1
1.397199062E1,-2.096592665E0,-3.496204913E-1,1.133053112E1
1.399199063E1,-2.178235054E0,-1.630930230E-2,1.078940296E1
1.401199063E1,-2.732071638E0,4.414429069E-1,1.018996239E1
1.403199062E1,-2.738698483E0,3.264637887E-1,9.620075226E0
1.405199062E1,-2.640670300E0,4.672523960E-2,8.975498199E0
1.407199063E1,-2.446941137E0,-4.456184208E-1,8.354327202E0
1.409199063E1,-2.192475796E0,-1.153095484E0,8.157571793E0
1.411199062E1,-2.326513052E0,-1.627559185E0,8.363989830E0
1.413199062E1,-2.872936726E0,-1.456277966E0,8.766877174E0
1.415199063E1,-3.123781919E0,-1.145654321E0,8.721846581E0
1.417199063E1,-2.743937016E0,-5.800672174E-1,8.441936493E0
1.419199062E1,-2.795479536E0,7.964072376E-2,8.636182785E0
1.421199062E1,-3.168658972E0,6.148022413E-1,9.413952827E0
1.423199063E1,-2.922592640E0,1.236126304E0,9.024847984E0
1.425199063E1,-2.621267796E0,1.785796762E0,8.740090370E0
1.427199062E1,-2.229921103E0,1.845556021E0,9.272838593E0
1.429199062E1,-1.940280199E0,1.268821478E0,1.046044922E1
1.431199063E1,-1.802565694E0,8.181657791E-1,1.092793179E1
1.433199063E1,-2.001073837E0,7.910730243E-1,1.094129086E1
1.435199063E1,-2.070065260E0,4.607593417E-1,1.072074699E1
1.437199062E1,-2.253460884E0,-2.059013350E-3,1.046225834E1
1.439199062E1,-2.509449005E0,-5.329396725E-1,1.021670055E1
1.441199063E1,-2.822629690E0,-7.922317386E-1,9.913421631E0
1.443199063E1,-2.878577471E0,-1.041209579E0,9.831578255E0
1.445199219E1,-2.625778675E0,-8.915241361E-1,9.102812767E0
1.447199375E1,-2.665704012E0,-5.374407768E-1,8.451272964E0
1.449399375E1,-2.993709803E0,-2.204676718E-1,8.927173615E0
1.451399531E1,-3.077219486E0,-1.636963636E-1,9.299194336E0
1.453400000E1,-3.160413265E0,1.354160458E-1,9.149106026E0
1.455599219E1,-3.260060072E0,4.219157994E-1,9.043819427E0
1.457599375E1,-3.549030542E0,4.726441205E-1,9.252632141E0
1.459799219E1,-3.590699196E0,4.330727756E-1,9.187231064E0
1.461799219E1,-3.592020750E0,2.706788778E-1,9.241665840E0
1.463799219E1,-3.595564127E0,-7.031290978E-2,9.350698471E0
1.465999219E1,-3.517915487E0,-3.805727363E-1,9.107791901E0
1.468199063E1,-3.637501001E0,-6.975075603E-1,9.383144379E0
1.470199062E1,-3.677599192E0,-8.312860131E-1,9.917626381E0
1.472199062E1,-3.527339220E0,-7.326831818E-1,1.018893719E1
1.474199063E1,-3.705304861E0,-1.818252504E-1,1.003933811E1
1.476199063E1,-3.886488438E0,5.006754398E-1,9.732564926E0
1.478199062E1,-3.643448353E0,9.837391973E-1,9.235775948E0
1.480199062E1,-3.488399744E0,1.209416628E0,9.051652908E0
1.482199063E1,-3.389002085E0,1.141488314E0,9.138476372E0
1.484199063E1,-3.153336048E0,9.913335443E-1,9.158550262E0
1.486199062E1,-2.835654259E0,7.580617070E-1,8.816810608E0
1.488199062E1,-2.535804510E0,4.064492583E-1,8.618618011E0
1.490199063E1,-2.243434191E0,1.003936678E-1,8.618446350E0
1.492199063E1,-2.262731314E0,2.364513651E-2,8.771080971E0
1.494199062E1,-2.535268068E0,1.599805653E-1,8.954198837E0
1.496199062E1,-2.696675539E0,2.259360254E-1,9.252804756E0
1.498199219E1,-2.723711014E0,2.659191787E-1,9.473041534E0
1.500399688E1,-2.615617514E0,4.146470129E-1,9.243447304E0
1.502599219E1,-2.627042770E0,6.637971997E-1,8.892868996E0
1.504599219E1,-2.865035772E0,9.031407237E-1,8.862798691E0
1.506799219E1,-3.265700579E0,1.093384027E0,9.024550438E0
1.508999219E1,-3.500370741E0,1.084496737E0,9.266260147E0
1.511199219E1,-3.646014929E0,9.200821519E-1,9.679450989E0
1.513399063E1,-3.534799337E0,5.618425012E-1,1.023266506E1
1.515399062E1,-3.368977070E0,5.054447055E-1,1.032482243E1
1.517399219E1,-3.114492416E0,6.667564511E-1,9.786117554E0
1.519599062E1,-2.986508131E0,8.015978932E-1,9.386621475E0
1.521599219E1,-2.923741817E0,8.935735226E-1,9.420828819E0
1.523799062E1,-3.025370836E0,8.825315237E-1,9.674413681E0
1.525799063E1,-3.305042267E0,7.538862228E-1,9.888588905E0
1.527799219E1,-3.541225433E0,7.146883607E-1,9.931684494E0
1.529999063E1,-3.496472836E0,8.355668187E-1,9.495068550E0
1.531999062E1,-3.502573490E0,9.752349854E-1,9.103808403E0
1.533999062E1,-3.820896864E0,1.131154895E0,8.880075455E0
1.535999063E1,-3.910488129E0,1.169126987E0,8.917079926E0
1.537999219E1,-3.641475439E0,1.132246733E0,8.726530075E0
1.539999219E1,-3.232603312E0,1.078329325E0,8.246320724E0
1.541999219E1,-3.028330088E0,1.084975600E0,7.923897743E0
1.543999219E1,-2.926432610E0,8.811619878E-1,8.205561638E0
1.546199062E1,-2.862267971E0,9.771215916E-1,8.718197823E0
1.548199219E1,-2.871117115E0,1.048229337E0,9.341150284E0
1.550400781E1,-2.752891302E0,1.222220778E0,9.262687683E0
1.552599219E1,-2.735701084E0,1.590171218E0,8.965806961E0
1.554599219E1,-2.696167946E0,1.733880877E0,9.088552475E0
1.556799219E1,-2.647402763E0,1.930713058E0,8.918889999E0
1.558999219E1,-1.992349386E0,2.332996368E0,8.042506218E0
1.561199219E1,-1.049914956E0,2.269846916E0,7.435432434E0
1.563399063E1,-8.352603912E-1,2.089850903E0,7.332424641E0
1.565399219E1,-1.085349083E0,1.836151600E0,7.959724426E0
1.567599219E1,-1.263879895E0,1.544978380E0,9.105848312E0
1.569599219E1,-1.008600593E0,1.876900911E0,9.021773338E0
1.571799062E1,-7.712202668E-1,2.424359083E0,8.004755020E0
1.573799062E1,-8.367064595E-1,3.257187128E0,6.956315041E0
1.575800469E1,-1.304466486E0,3.261161327E0,7.508206844E0
1.577999063E1,-1.004568696E0,2.617312431E0,8.743011475E0
1.579999063E1,-8.742762208E-1,2.564314365E0,8.891729355E0
1.581999062E1,-2.351307154E0,2.155375242E0,8.778780937E0
1.583999062E1,-4.331407547E0,2.349889994E0,1.020613670E1
1.585999063E1,-5.471517086E0,2.194391012E0,1.080931377E1
1.587999063E1,-5.217836857E0,1.068522573E0,9.956527710E0
1.589999063E1,-5.077450752E0,-9.310380220E-1,1.026398182E1
1.591999062E1,-5.616500378E0,-2.563328028E0,1.132390308E1
1.593999063E1,-6.139652252E0,-2.921787977E0,1.174256325E1
1.595999063E1,-5.651666641E0,-3.062681913E0,1.231537151E1
1.597999063E1,-5.607661247E0,-2.684330940E0,1.284064960E1
1.599999062E1,-5.547250271E0,-1.387162089E0,1.257215405E1
1.601999063E1,-5.006869793E0,-4.103470147E-1,1.239622879E1
1.603999062E1,-4.620704174E0,-4.730942547E-1,1.389297771E1
1.605999062E1,-4.894762993E0,-1.201247573E0,1.626131248E1
1.607999062E1,-5.230736732E0,-2.257071257E0,1.769924164E1
1.609999062E1,-4.619440079E0,-2.789034128E0,1.678288460E1
1.611999062E1,-4.891986370E0,-2.367415190E0,1.523582840E1
1.613999062E1,-5.660869598E0,-1.749012232E0,1.402023411E1
1.615999219E1,-5.756455421E0,-9.495308399E-1,1.250635147E1
1.618199219E1,-5.137516022E0,-7.821665406E-1,1.136540031E1
1.620399062E1,-4.831594944E0,-9.920422435E-1,1.062316895E1
1.622400469E1,-4.961140156E0,-7.679737210E-1,9.931138992E0
1.624599219E1,-4.774526596E0,-4.270202219E-1,8.609195709E0
1.626799219E1,-4.116312504E0,-8.797829747E-1,9.001958847E0
1.628999062E1,-3.032696962E0,-1.538341641E0,8.776376724E0
1.630999062E1,-2.470174551E0,-1.388675332E0,8.116717339E0
1.633000938E1,-2.149064302E0,-1.086479068E0,8.205780983E0
1.635199063E1,-2.034180880E0,-1.193969250E0,8.589303970E0
1.637199063E1,-1.914748430E0,-9.770449996E-1,8.224149704E0
1.639199063E1,-1.893669963E0,-4.561624825E-1,7.620169640E0
1.641199062E1,-1.823969841E0,-5.213804841E-1,7.951718330E0
1.643199062E1,-1.898247600E0,-7.014149427E-1,8.669777870E0
1.645199062E1,-2.067067623E0,-8.878561854E-1,8.935295105E0
1.647199219E1,-2.235762835E0,-7.431889772E-1,9.082509995E0
1.649399219E1,-2.226042509E0,-5.386092067E-1,9.261633873E0
1.651399219E1,-2.236835718E0,-7.419439554E-1,9.447481155E0
1.653600000E1,-1.594643712E0,-5.621489882E-1,8.265186310E0
1.655799219E1,-1.324395776E0,-3.361363411E-1,7.582695484E0
1.657999219E1,-9.228498340E-1,-4.024653137E-1,7.146280289E0
1.659999219E1,-2.681505978E-1,-4.435306489E-1,6.301375866E0
1.662199219E1,-4.727111757E-2,8.736921102E-2,6.208998203E0
1.664399219E1,1.721718311E-1,5.161994696E-1,6.147160530E0
1.666399531E1,8.407957554E-1,8.841116428E-1,5.663704395E0
1.668599219E1,1.698312640E0,1.293711662E0,5.485460758E0
1.670799219E1,2.073666096E0,1.413871884E0,5.909273148E0
1.673001094E1,2.373822212E0,1.303757668E0,6.688595295E0
1.675199062E1,2.879353285E0,1.213639975E0,7.188810825E0
1.677199062E1,2.874813795E0,1.278791070E0,7.704454899E0
1.679199062E1,2.776622772E0,1.273705721E0,8.415753365E0
1.681199062E1,3.087275028E0,9.809427261E-1,8.850808144E0
1.683199062E1,3.309045315E0,1.131174088E0,9.101892471E0
1.685199063E1,3.146775961E0,1.434193850E0,8.876195908E0
1.687199063E1,3.144640446E0,1.599221468E0,8.649494171E0
1.689199063E1,2.934276104E0,1.909088492E0,8.588604927E0
1.691199062E1,2.826814651E0,2.184718609E0,8.590050697E0
1.693199062E1,2.860917807E0,2.423439741E0,8.321890831E0
1.695199062E1,2.849895000E0,2.574762583E0,8.405352592E0
1.697199219E1,2.679207563E0,2.600122213E0,8.594216347E0
1.699399063E1,2.434807301E0,2.846255541E0,8.838990211E0
1.701399375E1,2.467215300E0,2.856675386E0,8.851037979E0
1.703399688E1,2.195875406E0,3.077459097E0,8.848011971E0
1.705599219E1,2.017019272E0,3.317338943E0,8.904438019E0
1.707599219E1,2.182161570E0,3.253317833E0,8.623445511E0
1.709599219E1,2.196545839E0,3.347821712E0,8.562306404E0
1.711599219E1,2.265757561E0,3.301766872E0,8.567363739E0
1.713799219E1,2.329653978E0,3.014548779E0,8.834422112E0
1.715799844E1,2.057653666E0,2.595898867E0,9.268596649E0
1.717999063E1,1.905152440E0,2.423056602E0,9.386707306E0
1.719999062E1,1.949435711E0,2.438255072E0,9.537273407E0
1.721999062E1,1.883374929E0,2.594165564E0,9.419460297E0
1.723999062E1,1.499220371E0,3.034468651E0,8.625724792E0
1.725999062E1,7.273010015E-1,2.953535080E0,8.661914825E0
1.727999219E1,6.833913326E-1,1.855209470E0,9.716033936E0
1.729999219E1,8.667201400E-1,4.680472612E-1,1.085326099E1
1.732199062E1,8.699858189E-1,-5.779123902E-1,1.160415936E1
1.734199062E1,2.441032231E-1,-1.022668839E0,1.241286373E1
1.736199062E1,-1.885577589E-1,-1.070007086E0,1.272293186E1
1.738199062E1,-6.446340084E-1,-6.055606604E-1,1.204210663E1
1.740199062E1,-1.246421337E0,1.720664799E-1,1.040723991E1
1.742199062E1,-1.597239017E0,1.065199494E0,9.044987679E0
1.744199063E1,-1.480890393E0,1.426427126E0,8.620639801E0
1.746199063E1,-1.201525450E0,1.435362220E0,8.808498383E0
1.748199062E1,-8.812865019E-1,1.419148684E0,8.960481644E0
1.750199062E1,-5.277012587E-1,1.414618850E0,8.867577553E0
1.752199062E1,-3.725377843E-3,1.260020494E0,8.941357613E0
1.754199219E1,4.915200174E-1,1.039543271E0,9.174312592E0
1.756399219E1,8.594705462E-1,1.171051860E0,9.089999199E0
1.758400938E1,1.604316235E0,1.210335970E0,8.229550362E0
1.760599219E1,2.387287378E0,1.579426169E0,7.167253494E0
1.762799219E1,2.429339170E0,2.004693747E0,7.515858650E0
1.764799219E1,1.759431720E0,1.603827834E0,9.147392273E0
1.766799219E1,1.120170355E0,1.304973960E0,9.777900696E0
1.768799219E1,7.045082450E-1,9.628042579E-1,1.116347313E1
1.770799219E1,5.831030011E-1,3.920553327E-1,1.264088631E1
1.773001094E1,7.861217856E-1,3.921989799E-1,1.286588478E1
1.775199062E1,1.174729347E0,1.698973417E0,1.122850037E1
1.777199219E1,1.687548399E0,2.818348885E0,9.768860817E0
1.779399219E1,2.131500244E0,3.298060894E0,8.396742821E0
1.781399219E1,2.213305473E0,3.435756207E0,8.108557701E0
1.783399375E1,2.877341986E0,3.392392397E0,8.001910210E0
1.785399688E1,3.199055672E0,3.349516869E0,7.637522697E0
1.787400312E1,2.642422915E0,3.622829437E0,8.227971077E0
1.789599219E1,2.145626307E0,3.437077522E0,9.440672874E0
1.791799219E1,2.420336962E0,3.312521696E0,1.029095936E1
1.793999062E1,2.395053864E0,3.090828180E0,1.065688896E1
1.795999219E1,1.766681433E0,2.796389103E0,1.193877316E1
1.797999219E1,1.590631008E0,2.549786568E0,1.254006290E1
1.800199062E1,1.429041505E0,2.093949795E0,1.253836727E1
1.802199062E1,9.059850574E-1,1.615319967E0,1.243282127E1
1.804199062E1,1.335773110E0,6.940599084E-1,1.137731361E1
1.806199062E1,1.316408634E0,-4.584608972E-1,1.101437187E1
1.808199062E1,-7.518559694E-1,-1.744271755E0,1.139467621E1
1.810199063E1,-2.649232149E0,-2.083453417E0,1.298412037E1
1.812199219E1,-2.325152874E0,-2.556365728E0,1.298874474E1
1.814399219E1,-1.353461385E0,-2.578392267E0,1.024251938E1
1.816399219E1,-6.083092093E-1,-1.272384167E0,8.530914307E0
1.818599219E1,8.344271779E-2,-5.780560523E-2,5.374063492E0
1.820799219E1,1.045116931E-1,1.594059467E-1,6.533948898E0
1.823001094E1,-4.581544399E-1,-5.814079195E-2,9.872280121E0
1.825199062E1,1.069652677E0,-1.021749496E0,8.359460831E0
1.827199062E1,1.415892601E0,2.073742628E0,5.968026161E0
1.829199062E1,1.858475208E-1,5.439434648E-1,8.088025093E0
1.831199062E1,6.954676658E-2,1.397390127E0,9.077519417E0
1.833199219E1,1.128530875E-1,1.522520781E0,8.334675789E0
1.835199219E1,7.277415693E-2,1.749127150E0,8.801401138E0
1.837199219E1,-3.286855817E-1,1.782885432E0,9.051240921E0
1.839199219E1,-5.848172903E-1,1.615099788E0,9.704235077E0
1.841199219E1,-5.186990499E-1,1.356056690E0,9.772652626E0
1.843199219E1,-5.109609365E-1,1.087944508E0,1.004998684E1
1.845199219E1,-1.266188025E0,1.393262625E0,1.056738377E1
1.847199219E1,-1.888316393E0,1.608290672E0,1.090059948E1
1.849199219E1,-2.031461000E0,1.818329096E0,1.098591900E1
1.851199219E1,-1.285245776E0,1.797173977E0,1.061040211E1
1.853199219E1,-4.974672198E-1,1.877102017E0,1.002147770E1
1.855199219E1,2.416611463E-1,2.065851212E0,9.246761322E0
1.857199219E1,8.613476157E-1,2.342936993E0,9.196540833E0
1.859199219E1,5.133743286E-1,1.691503525E0,1.033473396E1
1.861199375E1,5.913965702E-1,5.881692171E-1,1.217643070E1
1.863399375E1,1.597928524E0,1.987666339E-1,1.327596283E1
1.865399375E1,2.031757832E0,9.106873274E-1,1.221457481E1
1.867399844E1,8.536957502E-1,1.131509304E0,1.119910812E1
1.869599219E1,2.640134096E-1,4.011150002E-1,1.203444576E1
1.871599219E1,5.217157006E-1,-5.288887620E-1,1.393713665E1
1.873799063E1,4.279874861E-1,-1.743361950E0,1.288770962E1
1.875799062E1,4.315692186E-1,-8.588192463E-1,1.099538040E1
1.877799062E1,2.342678457E-1,2.299008220E-1,8.595481873E0
1.879799062E1,-9.195362329E-1,6.327491999E-1,7.813563347E0
1.881799062E1,-4.589014351E-1,1.709546208E0,7.881127834E0
1.883800312E1,-6.776452661E-1,1.554468989E0,7.800356865E0
1.885999063E1,-3.599826097E-1,2.000345945E0,7.760268688E0
1.887999219E1,-8.687121421E-2,2.457619429E0,7.626787186E0
1.890199219E1,-6.317819655E-2,2.226052284E0,7.690875053E0
1.892399063E1,3.086796403E-1,2.081662655E0,8.141109467E0
1.894400000E1,7.905175090E-1,2.114941835E0,7.858305931E0
1.896599219E1,1.244094253E0,2.623824596E0,6.794533730E0
1.898599219E1,1.647210836E0,3.152014494E0,5.549874306E0
1.900599219E1,1.823280454E0,3.435554981E0,5.246002674E0
1.902599219E1,1.836055756E0,3.553790331E0,5.366449833E0
1.904600313E1,1.349295378E0,3.605562449E0,5.929489613E0
1.906799219E1,6.282864213E-1,2.961761475E0,7.947227001E0
1.908799219E1,-5.800767541E-1,3.111743927E0,9.912291527E0
1.910799219E1,-9.516952038E-1,3.395859241E0,1.088713360E1
1.912799219E1,-7.912070155E-1,3.400724173E0,1.083273792E1
1.914799219E1,-6.175891161E-1,3.046573639E0,1.138667011E1
1.916799219E1,-6.055510640E-1,2.537394047E0,1.168464279E1
1.918799219E1,-2.423794121E-1,2.658531189E0,1.159506130E1
1.920799219E1,5.426123142E-1,2.971194744E0,1.084965038E1
1.922799219E1,8.985342979E-1,2.883576393E0,9.642340660E0
1.924799219E1,4.271734655E-1,1.927686810E0,9.540511131E0
1.926799219E1,2.824487686E-1,4.593611062E-1,1.196388340E1
1.928799219E1,1.708875895E0,-1.222900748E0,1.317094421E1
1.930799219E1,2.751349688E0,-1.808369279E0,1.234165955E1
1.932799219E1,2.407609224E0,-1.023703218E0,1.080695724E1
1.934799219E1,1.993124962E0,5.397488549E-2,9.845148087E0
1.936999062E1,1.814230204E0,3.085455596E-1,9.516079903E0
1.938999063E1,1.376646876E0,-2.100481093E-1,1.063506317E1
1.940999063E1,5.812642574E-1,-2.290963680E-1,1.163469982E1
1.943001094E1,1.291528195E-1,2.982983589E-1,1.198941517E1
1.945199062E1,-5.891651660E-2,1.070868969E0,1.136459541E1
1.947199219E1,-2.909721136E-1,1.603712916E0,1.044417763E1
1.949199219E1,-2.047329694E-1,1.894119978E0,9.813220024E0
1.951199219E1,1.735030115E-1,1.780673146E0,9.702876091E0
1.953199219E1,5.944419503E-1,1.330907941E0,9.515840530E0
1.955199219E1,7.003040314E-1,1.222421885E0,9.044326782E0
1.957399219E1,5.794447064E-1,1.343635678E0,8.901182175E0
1.959399219E1,1.513710022E-1,1.351593852E0,9.198225975E0
1.961399219E1,-7.995675504E-2,1.314445376E0,9.047669411E0
1.963399219E1,-2.570414916E-2,1.278503656E0,8.587791443E0
1.965399844E1,1.881076396E-1,1.224892735E0,8.417170525E0
1.967599219E1,6.606081724E-1,1.386453509E0,8.058643341E0
1.969599219E1,1.148852944E0,2.054579258E0,7.836394310E0
1.971599219E1,1.548694253E0,2.870638132E0,7.713954926E0
1.973599219E1,1.465136528E0,3.414658546E0,7.942371368E0
1.975600625E1,1.608012915E0,3.156410217E0,8.789679527E0
1.977799219E1,2.315307856E0,2.568336725E0,1.039351654E1
1.979799219E1,2.843698740E0,2.276359081E0,1.198486614E1
1.981799219E1,3.402831078E0,2.500935316E0,1.268184662E1
1.983799219E1,3.700449467E0,3.503550291E0,1.254069424E1
1.985799219E1,3.458031654E0,4.210002422E0,1.214309406E1
1.987799219E1,2.202301741E0,4.261027813E0,1.129118919E1
1.989799219E1,-3.037763014E-2,2.823510647E0,1.160166931E1
1.991799219E1,-2.158985853E0,-3.324301243E-1,1.495837879E1
1.993799219E1,-2.089132547E0,-2.334471226E0,1.503663921E1
1.995799219E1,-1.368458629E0,-2.653292656E0,1.138834572E1
1.997799375E1,-2.324827433E0,-1.462273121E0,8.902388573E0
1.999999063E1,-3.630347252E0,4.307647794E-2,8.368395805E0
2.001999063E1,-4.089056969E0,2.597900331E-1,8.506608009E0
2.003999062E1,-3.933836222E0,1.943134218E-1,8.064083099E0
2.005999062E1,-3.662410498E0,8.159152269E-1,7.163211823E0
2.007999375E1,-3.539674044E0,1.485755324E0,6.620992184E0
2.010199219E1,-3.492345572E0,1.705543041E0,6.546474934E0
2.012199219E1,-3.376293659E0,1.651386261E0,6.655449867E0
2.014199219E1,-3.267903328E0,1.570462227E0,6.862251282E0
2.016199219E1,-3.584177494E0,1.409131289E0,7.437510967E0
2.018199219E1,-3.391712427E0,1.383120775E0,8.030258179E0
2.020399063E1,-2.188568592E0,1.504870772E0,7.468127728E0
2.022401875E1,-1.803035021E0,2.351498842E0,6.229291439E0
2.024599219E1,-2.266801596E0,3.322337866E0,5.881921291E0
2.026599219E1,-2.808934927E0,3.202359676E0,6.758898258E0
2.028599219E1,-2.667447329E0,2.330008268E0,8.266287804E0
2.030799063E1,-1.926231027E0,1.702028394E0,9.449310303E0
2.032799062E1,-1.256448388E0,1.307760835E0,9.878227234E0
2.034799531E1,-7.113173008E-1,1.166215658E0,1.021403790E1
2.036999219E1,-1.159176677E-1,1.044226289E0,1.054538536E1
2.039199063E1,4.775666296E-1,1.127075195E0,1.078307247E1
2.041199062E1,1.046390653E0,1.070476294E0,1.032150841E1
2.043199062E1,1.270229340E0,1.075197577E0,9.603688240E0
2.045199062E1,9.597109556E-1,1.170295358E0,9.394110680E0
2.047199219E1,6.715544462E-1,1.085358620E0,9.662528038E0
2.049399375E1,5.723770261E-1,9.244779348E-1,9.899517059E0
2.051599062E1,5.950261950E-1,7.861695886E-1,9.744754791E0
2.053599219E1,6.158556938E-1,7.249738574E-1,9.384648323E0
2.055799219E1,9.780218005E-1,9.015414715E-1,9.019685745E0
2.057799219E1,1.214358330E0,1.096084714E0,8.099584579E0
2.059799219E1,1.348433614E0,1.235206962E0,7.940542698E0
2.061799219E1,1.333474636E0,5.445276499E-1,8.691766739E0
2.063799219E1,7.674565315E-1,-3.676536307E-2,9.351503372E0
2.065799219E1,3.278907239E-1,-4.435593784E-1,9.556120872E0
2.067799219E1,5.189001560E-1,-1.227765799E0,1.029098701E1
2.069799219E1,1.204609036E0,-1.619734883E0,1.181597996E1
2.071799219E1,1.718720794E0,-4.485584795E-1,1.084151936E1
2.073799219E1,-1.158793643E-1,-5.067088455E-2,9.999297142E0
2.075799219E1,-1.300875068E0,-8.308071494E-1,1.372527790E1
2.077799219E1,-1.271167874E0,-1.996745110E0,1.696160698E1
2.079799219E1,-8.274744153E-1,-3.522435904E0,1.834305191E1
2.081799219E1,-5.894141197E-1,-3.664316177E0,1.760082054E1
2.083799219E1,-7.184903622E-1,-1.618547320E0,1.509822845E1
2.085799219E1,-9.158492088E-1,8.051700592E-1,1.150310421E1
2.087799219E1,-8.264305592E-1,2.261026621E0,8.369257927E0
2.089799219E1,-4.030399024E-1,2.956053734E0,6.138177872E0
2.091799219E1,8.935160935E-2,2.873453856E0,5.031864643E0
2.093799219E1,2.083721608E-1,2.614238501E0,4.683719158E0
2.095799219E1,1.657553762E-1,2.375402451E0,4.620320797E0
2.097799219E1,-7.017884403E-2,2.315020800E0,5.304688931E0
2.099799219E1,-1.773050129E-1,2.348635197E0,5.992390156E0
2.101799219E1,-3.107961118E-1,2.422424555E0,6.792474747E0
2.103799219E1,-4.751437008E-1,2.931163549E0,8.110109329E0
2.105799219E1,-3.013437986E-1,3.309476376E0,9.346225739E0
2.107799219E1,-1.414685994E-1,2.870264530E0,9.291963577E0
2.109799219E1,-2.781775296E-1,2.336999416E0,1.014636803E1
2.111799219E1,-4.121378660E-1,1.481876850E0,1.206398964E1
2.113799219E1,-2.186193317E-1,7.878168225E-1,1.320718288E1
2.115799219E1,-1.293060482E-1,5.064215660E-1,1.290733337E1
2.117799219E1,6.038176641E-2,5.075803399E-1,1.173792744E1
2.119799219E1,3.721834421E-1,8.529295921E-1,1.093894386E1
2.121799219E1,7.167569399E-1,1.441472173E0,1.001932240E1
2.123799219E1,9.490807056E-1,1.766767621E0,8.778656006E0
2.125799219E1,1.029315233E0,1.792050362E0,8.603353500E0
2.127799219E1,1.430477977E0,1.742643714E0,8.884193420E0
2.129799219E1,1.870072603E0,1.919249535E0,9.269467354E0
2.131799219E1,2.050470829E0,2.201880455E0,9.525647163E0
2.133799219E1,1.904348016E0,2.447458267E0,9.780121803E0
2.135799219E1,1.858609200E0,1.956436276E0,1.009136772E1
2.137799219E1,9.622583985E-1,9.244874716E-1,1.093250847E1
2.139799219E1,-9.996270388E-2,-1.240388006E-1,1.201118374E1
2.141799219E1,-9.233095050E-1,-1.438417196E0,1.364625072E1
2.143799219E1,-1.616306424E0,-2.779227495E0,1.504838085E1
2.145799219E1,-1.855927706E0,-3.475068808E0,1.395425987E1
2.147799219E1,-2.809863806E0,-3.446989775E0,1.189779377E1
2.149799219E1,-4.085053921E0,-2.615521669E0,1.006076050E1
2.151799219E1,-4.752969265E0,-1.297542334E0,9.053396225E0
2.153799219E1,-4.600717068E0,-5.705861449E-1,8.599062920E0
2.155799219E1,-4.102818966E0,-2.674706280E-1,8.010759354E0
2.157799219E1,-3.617303371E0,-1.463527679E-1,7.388468266E0
2.159799219E1,-3.388743401E0,6.572562456E-2,7.302411079E0
2.161799219E1,-3.260270834E0,2.682559192E-1,7.458761692E0
2.163799219E1,-3.101257324E0,4.399010241E-1,7.650393963E0
2.165799219E1,-2.890653849E0,5.125219822E-1,8.014005661E0
2.167799219E1,-2.386205196E0,5.269350410E-1,7.934231281E0
2.169799219E1,-1.692154646E0,5.503311753E-1,7.823829651E0
2.171799219E1,-8.602845669E-1,6.033005118E-1,7.917232513E0
2.173799219E1,1.184267923E-1,4.310808182E-1,8.097716331E0
2.175799219E1,8.943204880E-1,3.796629310E-1,8.387894630E0
2.177799219E1,1.490936399E0,3.232651055E-1,8.375137329E0
2.179799219E1,1.903591394E0,8.400775492E-2,8.808382988E0
2.181799219E1,2.177162647E0,-1.129105538E-1,9.545786858E0
2.183799219E1,1.949110031E0,1.018589139E-1,1.025697041E1
2.185799219E1,1.046572685E0,1.240129352E0,1.036557102E1
2.187799219E1,-9.276095033E-2,2.514160872E0,9.727133751E0
2.189799219E1,-9.975680709E-1,3.551673889E0,9.433145523E0
2.191799219E1,-1.118369818E0,3.755046844E0,1.016487122E1
2.193799219E1,-8.275222778E-1,3.064702749E0,1.118758678E1
2.195799219E1,-7.788434029E-1,2.677416563E0,1.158935356E1
2.197799219E1,-1.168686509E0,3.429291725E0,1.201236153E1
2.199799219E1,-1.230112076E0,2.802202463E0,1.284826279E1
2.201799219E1,-2.793937624E-1,1.191172838E0,1.283565044E1
2.203799219E1,1.227229476E0,-1.366639018E0,1.396066666E1
2.205799219E1,2.171703815E0,-2.934352875E0,1.456678295E1
2.207799219E1,2.278743744E0,-2.763521671E0,1.330976963E1
2.209799219E1,1.804873824E0,-2.006848574E0,1.209735584E1
2.211799219E1,1.606442213E0,-1.563413739E0,1.163280392E1
2.213799219E1,1.253853083E0,-1.152214408E0,1.081008911E1
2.215799219E1,7.140275836E-1,-6.004753709E-1,9.726109505E0
2.217799219E1,2.247580737E-1,-1.322461218E-1,8.640454292E0
2.219799219E1,-2.665416896E-1,2.871797085E-1,7.800375938E0
2.221799219E1,-7.506301403E-1,6.377099752E-1,7.148492813E0
2.223999219E1,-1.193519115E0,1.160096049E0,6.512582779E0
2.225999219E1,-1.703033924E0,1.396681547E0,6.388620377E0
2.227999219E1,-2.012001038E0,1.405769944E0,6.486515045E0
2.229999219E1,-2.231760025E0,1.259761810E0,7.082633018E0
2.231999219E1,-2.524819851E0,1.392850876E0,7.774260044E0
2.233999531E1,-2.451853991E0,1.284508467E0,7.612460136E0
2.236199219E1,-2.561815023E0,1.254350901E0,7.420234203E0
2.238199219E1,-2.700247765E0,6.520943642E-1,6.969559669E0
2.240199219E1,-2.305271387E0,-1.943325698E-1,6.501454353E0
2.242199219E1,-1.432881832E0,1.199495122E-1,7.551791191E0
2.244200313E1,-3.060364425E-1,1.140961528E0,8.319774628E0
2.246399531E1,-7.178295255E-1,2.150740147E0,9.043924332E0
2.248599219E1,-1.839560866E0,1.086364269E0,1.397969627E1
2.250599219E1,3.616489470E-1,-1.269683480E0,1.647755623E1
2.252599219E1,2.020045519E0,-2.854261875E0,1.578319073E1
2.254599219E1,4.707958400E-1,-2.339297771E0,1.407974529E1
2.256600156E1,-1.827407956E0,-6.884287596E-1,1.361852551E1
2.258799219E1,-2.700209379E0,8.506502509E-1,1.404509544E1
2.260799219E1,-1.827158928E0,6.198492646E-1,1.371670723E1
2.262799219E1,-5.743881464E-1,6.662871838E-1,1.163230610E1
2.264799219E1,3.163985312E-1,1.469398141E0,9.189693451E0
2.266799219E1,1.053410411E0,2.234441519E0,7.707643986E0
2.268799219E1,1.767524123E0,2.699108124E0,7.091289997E0
2.270799219E1,2.224021673E0,2.417798996E0,7.147687912E0
2.272799219E1,2.321647644E0,2.016674519E0,7.828072071E0
2.274799219E1,1.896399260E0,1.795402169E0,8.166555405E0
2.276799375E1,1.333455443E0,1.697469831E0,8.538795471E0
2.278999219E1,8.426823616E-1,1.275745630E0,9.291695595E0
2.280999219E1,7.414938211E-1,8.818514943E-1,9.571826935E0
2.283001094E1,6.520943642E-1,4.961360395E-1,9.368444443E0
2.285199063E1,2.532107830E-1,5.162664652E-1,8.888435364E0
2.287199063E1,-6.167463586E-2,4.346146584E-1,9.596257210E0
2.289199219E1,7.911399752E-2,5.122538209E-1,9.617067337E0
2.291199219E1,3.598580956E-1,1.160546184E0,8.606245041E0
2.293199219E1,2.113505602E-1,1.905535579E0,8.241925240E0
2.295199219E1,-3.099150360E-1,1.723997593E0,9.719012260E0
2.297199375E1,-4.122240543E-1,7.338611484E-1,1.197241592E1
2.299399219E1,3.452438861E-2,6.033483744E-1,1.259810734E1
2.301399844E1,7.044890523E-1,1.115152121E0,1.078394413E1
2.303599219E1,1.247695088E0,1.185397983E0,9.677468300E0
2.305599219E1,1.242657661E0,1.032456398E0,9.918277740E0
2.307799219E1,1.079765916E0,5.656923652E-1,9.935276031E0
2.309799219E1,1.133347988E0,-1.419857293E-1,1.021689129E1
2.311799219E1,1.212538719E0,-6.887831092E-1,1.075100040E1
2.313799219E1,1.108994246E0,-6.251165271E-1,1.120089912E1
2.315799219E1,9.412947297E-1,4.339251295E-2,1.090571308E1
2.317799219E1,1.111062884E0,4.618415236E-1,9.708162308E0
2.319799219E1,1.273791909E0,5.972384214E-1,9.314526558E0
2.321799219E1,1.246220350E0,6.472484469E-1,9.133123398E0
2.323799219E1,9.944077134E-1,5.203940868E-1,9.448505402E0
2.325799219E1,8.630139232E-1,3.287717998E-1,9.942104340E0
2.327799219E1,7.341292500E-1,3.303232193E-1,1.008394623E1
2.329799219E1,5.701072812E-1,4.802097976E-1,1.000438309E1
2.331799219E1,4.519773722E-1,5.883415341E-1,1.034276009E1
2.333799219E1,7.798489332E-1,6.635482311E-1,1.009891510E1
2.335799219E1,1.237505317E0,7.867634296E-1,9.321604729E0
2.337799219E1,1.161139846E0,1.014509439E0,9.134243011E0
2.339799219E1,8.168633580E-1,1.038777113E0,9.879078865E0
2.341799219E1,5.929575562E-1,5.932736397E-1,1.038667870E1
2.343799219E1,7.229435444E-1,3.033740819E-1,1.059823990E1
2.345799219E1,4.420079291E-1,3.964893818E-1,1.104384899E1
2.347799219E1,-4.295772314E-1,1.146219254E0,1.086325836E1
2.349799219E1,-3.678738773E-1,1.790010452E0,1.032170963E1
2.351799219E1,3.708330989E-1,1.573555589E0,1.044011688E1
2.353799219E1,3.308786750E-1,1.793917894E0,1.024550819E1
2.355799219E1,7.177817076E-2,2.368736982E0,9.902609825E0
2.357799219E1,-1.706108153E-1,2.838517666E0,9.540596962E0
2.359999062E1,-4.404565096E-1,3.794206381E0,9.511866570E0
2.361999062E1,-3.873243630E-1,4.226465225E0,8.818725586E0
2.363999063E1,-2.985473573E-1,4.247208595E0,8.318863869E0
2.365999219E1,-2.709182799E-1,4.036757946E0,8.600757599E0
2.368199062E1,-6.496905684E-1,4.083464146E0,9.319688797E0
2.370199219E1,-1.129526854E0,4.107962132E0,8.453379631E0
2.372199219E1,-1.469944119E0,4.005135536E0,7.656369686E0
2.374400469E1,-1.854625225E0,3.945558071E0,7.272253513E0
2.376599062E1,-2.104110479E0,3.432835102E0,7.380347252E0
2.378599062E1,-2.192178965E0,3.039228201E0,7.423691273E0
2.380599062E1,-2.086287975E0,3.196201801E0,6.839238167E0
2.382599219E1,-1.484299660E0,3.707028627E0,6.329167843E0
2.384599219E1,-8.896566033E-1,4.596551418E0,4.821606159E0
2.386599219E1,-2.863063097E0,5.578145027E0,4.155654430E0
2.388599219E1,-5.278056145E0,5.023782253E0,6.844199181E0
2.390599219E1,-5.835847855E0,2.945509672E0,1.131949806E1
2.392799219E1,-4.474475384E0,1.826411963E0,1.264096355E1
2.394999219E1,-2.773883820E0,2.813704014E0,1.443816566E1
2.397199219E1,-4.308854580E0,5.566921234E0,3.220775843E0
2.399399688E1,-2.761242390E0,8.410668373E0,3.165977240E0
2.401599062E1,-3.846236944E0,7.868620396E0,3.366420031E0
2.403599219E1,-4.809299946E0,8.120404243E0,4.884563923E0
2.405799063E1,-5.178141117E0,7.497615337E0,6.870132923E0
2.407799062E1,-5.223995209E0,6.733290195E0,7.207495213E0
2.409799062E1,-4.741975307E0,6.237719059E0,6.733663559E0
2.411799062E1,-4.302753925E0,5.892877579E0,6.531745911E0
2.413799219E1,-4.281847477E0,5.601550579E0,6.849485397E0
2.415799844E1,-4.233216763E0,5.063660145E0,7.839726925E0
2.417999063E1,-3.743113995E0,4.244124413E0,8.299882889E0
2.419999062E1,-3.485392570E0,3.670129061E0,8.659665108E0
2.421999062E1,-3.000681639E0,3.145550013E0,9.271085739E0
2.423999062E1,-2.661949873E0,2.853074551E0,9.629162788E0
2.425999062E1,-2.758589506E0,2.960497618E0,9.365101814E0
2.427999062E1,-2.790643215E0,3.062155247E0,8.944957733E0
2.429999219E1,-2.967526913E0,3.128244877E0,8.823246002E0
2.432199062E1,-3.271714926E0,3.322673082E0,8.799083710E0
2.434199062E1,-3.523958445E0,3.425614357E0,8.889039040E0
2.436199062E1,-3.537174225E0,3.454392672E0,9.148253441E0
2.438199062E1,-3.366017818E0,3.543897390E0,9.145390511E0
2.440199219E1,-3.024345875E0,3.590804338E0,9.172560692E0
2.442399219E1,-2.240225792E0,3.666911364E0,8.828801155E0
2.444399219E1,-2.044562101E0,4.191481113E0,8.788434982E0
2.446599219E1,-2.619821787E0,4.289432526E0,9.310389519E0
2.448799219E1,-3.229059696E0,3.302983046E0,1.015046692E1
2.450999062E1,-2.697623730E0,1.812286139E0,1.124632263E1
2.453001094E1,-1.269951701E0,1.443617463E0,1.017885208E1
2.455199063E1,-9.728407860E-1,2.357148886E0,8.337271690E0
2.457199062E1,-2.077774525E0,2.558290720E0,8.013804436E0
2.459199062E1,-4.114847660E0,2.516641140E0,9.792160034E0
2.461199219E1,-5.050827026E0,2.423813343E0,1.140925217E1
2.463199219E1,-4.226637840E0,2.291615009E0,1.109997845E1
2.465199219E1,-2.988183975E0,2.107136965E0,9.877211571E0
2.467199219E1,-1.660685301E0,2.455483675E0,8.640731812E0
2.469199219E1,-8.141914010E-1,3.177431107E0,7.736335754E0
2.471199219E1,5.716396123E-2,3.142830372E0,6.781892776E0
2.473199219E1,3.258125186E-1,2.166445971E0,7.119283199E0
2.475199219E1,-3.547536731E-1,1.324529767E0,8.444206238E0
2.477199219E1,-1.024459720E0,1.412990808E0,1.011324215E1
2.479199219E1,-1.466515660E0,1.781199813E0,1.036981487E1
2.481399219E1,-1.777608514E0,2.305482149E0,9.238869667E0
2.483399531E1,-1.306333899E0,2.629216671E0,8.086359024E0
2.485599219E1,-8.345420957E-1,2.844512701E0,7.051153660E0
2.487599219E1,-4.892024398E-1,3.422932625E0,6.856916904E0
2.489599219E1,-3.511048853E-1,3.657631636E0,7.053069115E0
2.491599219E1,-6.225020289E-1,3.243731499E0,8.146156311E0
2.493599219E1,-1.081527948E0,2.713598013E0,9.406617165E0
2.495599531E1,-1.165047288E0,2.144879103E0,1.030089951E1
2.497799219E1,-9.205322266E-1,1.614697456E0,1.081858253E1
2.499799219E1,-6.709128022E-1,1.502792478E0,1.048696804E1
2.501799219E1,-4.158057868E-1,1.722819686E0,9.354049683E0
2.503799219E1,-4.901793003E-1,1.766987920E0,8.610660553E0
2.505799219E1,-8.673905730E-1,1.572214842E0,8.603065491E0
2.507799219E1,-1.526878119E0,8.226476908E-1,8.631030083E0
2.509799219E1,-2.291988611E0,4.244440794E-2,8.790291786E0
2.511799219E1,-2.549250126E0,-3.687453568E-1,9.158137321E0
2.513799219E1,-2.307416677E0,-1.193567038E0,9.920269966E0
2.515799219E1,-1.951006174E0,-1.838689446E0,1.115571594E1
2.517799219E1,-1.448645234E0,-2.109339714E0,1.196931362E1
2.519799219E1,-1.618767738E0,-1.327010274E0,1.219264412E1
2.521799219E1,-2.940654278E0,4.855536819E-1,1.233114433E1
2.523999062E1,-4.059579372E0,1.633123279E0,1.213095951E1
2.525999062E1,-4.494778156E0,1.671420932E0,1.215389633E1
2.527999062E1,-4.214685440E0,1.639223814E0,1.161509609E1
2.529999063E1,-3.370155096E0,1.361055732E0,1.053376007E1
2.531999219E1,-2.542527437E0,1.060075879E0,9.914418221E0
2.534199219E1,-2.305482149E0,6.524869800E-1,9.296589851E0
2.536399219E1,-2.065133095E0,2.053363174E-1,9.406550407E0
2.538399219E1,-1.821135163E0,-3.795767426E-1,9.632716179E0
2.540399219E1,-1.627539992E0,-7.460236549E-1,9.145936966E0
2.542599062E1,-1.784647584E0,-7.657614946E-1,8.523731232E0
2.544599219E1,-2.024010181E0,-5.295686722E-1,8.176715851E0
2.546599219E1,-2.248231888E0,-3.908773661E-1,8.558054924E0
2.548799219E1,-2.144160986E0,-5.563645363E-1,8.808075905E0
2.550999219E1,-2.154685736E0,-7.825592160E-1,8.899937630E0
2.553001094E1,-2.387708664E0,-7.224072814E-1,9.230414391E0
2.555199219E1,-2.635431767E0,-9.593566060E-1,9.781510353E0
2.557399219E1,-3.077171564E0,-1.193011642E0,1.054307842E1
2.559399219E1,-3.368009806E0,-1.418803930E0,1.124304676E1
2.561399219E1,-3.636859417E0,-1.353624105E0,1.178658772E1
2.563399531E1,-3.872075558E0,-1.066568971E0,1.160919666E1
2.565599219E1,-4.127747536E0,-5.908219814E-1,1.060002136E1
2.567599219E1,-3.839542866E0,-2.609966993E-1,9.452059746E0
2.569599219E1,-3.229251385E0,-5.405149981E-2,8.301549911E0
2.571799063E1,-2.660915852E0,4.811387509E-2,7.095973015E0
2.573799063E1,-3.580404043E0,2.054512352E-1,7.608964443E0
2.575799062E1,-5.127671242E0,1.203967452E0,9.929281235E0
2.577799219E1,-5.089047909E0,1.377661943E0,1.092982769E1
2.579799219E1,-3.311784267E0,1.100020766E0,1.058219910E1
2.581799219E1,-8.194298744E-1,1.270507097E0,9.386391640E0
2.583999063E1,1.379625201E0,1.232994795E0,8.828340530E0
2.585999063E1,2.173829794E0,3.964510858E-1,9.304298401E0
2.587999062E1,2.317663908E0,-8.438699245E-1,1.102482891E1
2.589999062E1,2.653493643E0,-1.899358511E0,1.323542500E1
2.591999062E1,2.704298496E0,-1.532585979E0,1.394831276E1
2.593999062E1,2.613146782E0,-2.158899605E-1,1.203530788E1
2.595999219E1,2.457389355E0,1.066626430E0,9.720295906E0
2.598199062E1,2.445552588E0,1.870264173E0,8.542003632E0
2.600199062E1,2.324741125E0,1.938106298E0,8.403810501E0
2.602199219E1,2.328935862E0,1.473477960E0,9.051299095E0
2.604399063E1,2.192226887E0,1.058131814E0,9.371795654E0
2.606399063E1,2.037149668E0,8.170069456E-1,9.572937965E0
2.608399219E1,1.774572730E0,8.482657075E-1,9.552347183E0
2.610399375E1,1.388828516E0,1.178387761E0,9.611982346E0
2.612599219E1,1.254322290E0,1.494288325E0,8.934978485E0
2.614599219E1,1.063245893E0,1.965974689E0,8.200408936E0
2.616599219E1,8.285183311E-1,2.379807949E0,8.043081284E0
2.618599219E1,6.994804144E-1,2.624657869E0,8.663495064E0
2.620799219E1,2.835980058E-1,2.903649330E0,9.094911575E0
2.623001094E1,-2.405981123E-1,3.182842016E0,9.875861168E0
2.625199062E1,-2.276311219E-1,3.315299034E0,1.015168381E1
2.627199062E1,2.997253239E-1,3.326446295E0,1.003546906E1
2.629199062E1,7.057915330E-1,3.352782726E0,9.897974968E0
2.631199062E1,5.352860093E-1,3.147360086E0,1.021098328E1
2.633199219E1,2.306286693E-1,2.671593904E0,1.103443527E1
2.635399219E1,3.547153175E-1,2.144074678E0,1.174036980E1
2.637400000E1,7.662020326E-1,1.733861685E0,1.127778244E1
2.639599219E1,1.394641638E0,1.346307516E0,1.070099926E1
2.641599219E1,1.731065273E0,1.135780573E0,1.028752041E1
2.643599219E1,1.625452280E0,1.429443717E0,9.709024429E0
2.645599219E1,8.410064578E-1,1.973166943E0,9.534591675E0
2.647599219E1,5.045828223E-1,2.095845938E0,9.255811691E0
2.649599219E1,3.252666593E-1,2.106083393E0,9.194290161E0
2.651599375E1,1.054980978E-1,1.697259188E0,9.401263237E0
2.653799219E1,-6.289471984E-1,9.034089446E-1,1.021294594E1
2.655799219E1,-1.372394800E0,4.369418025E-1,1.087156296E1
2.657799219E1,-1.839043856E0,-4.341166839E-2,1.165508842E1
2.659799219E1,-2.127391815E0,-6.526019573E-1,1.221636581E1
2.661799219E1,-2.428237677E0,-1.203795075E0,1.219609165E1
2.663799219E1,-2.808772087E0,-1.360998273E0,1.151292133E1
2.665999219E1,-3.078158140E0,-1.159827828E0,1.049889088E1
2.668199062E1,-2.735930920E0,-1.097425461E0,9.316480637E0
2.670199062E1,-2.344105482E0,-1.040069938E0,8.485759735E0
2.672199062E1,-2.117259502E0,-8.438985944E-1,7.477858067E0
2.674199063E1,-2.201372862E0,-4.401117265E-1,6.822603703E0
2.676199219E1,-2.336233377E0,-6.329311430E-2,6.942112446E0
2.678399688E1,-2.398913622E0,-3.620032920E-3,7.918094158E0
2.680599219E1,-1.955363631E0,-2.013906687E-1,8.765172958E0
2.682599219E1,-1.552687764E0,-3.719727397E-1,9.232894897E0
2.684599219E1,-1.336701870E0,-3.883969784E-1,9.801622391E0
2.686599219E1,-1.203450322E0,-4.945271611E-1,1.039073086E1
2.688799062E1,-9.558227658E-1,-5.308519602E-1,1.090143299E1
2.690799062E1,-6.252122521E-1,-4.971033037E-1,1.098105335E1
2.692799219E1,-3.560656682E-2,-4.442393482E-1,1.052484417E1
2.694999219E1,4.979269207E-1,-2.747873366E-1,9.308406830E0
2.697199062E1,9.521165490E-1,1.220085099E-2,8.093704224E0
2.699199063E1,1.369598269E0,1.361821890E-1,7.269581318E0
2.701199219E1,1.546453118E0,1.667992473E-1,7.243044376E0
2.703199219E1,1.668940544E0,2.742510140E-1,8.168700218E0
2.705199219E1,2.066789865E0,6.536840796E-1,9.080633163E0
2.707399844E1,3.364619732E0,1.794798970E0,9.537542343E0
2.709599219E1,3.861492872E0,2.839437008E0,9.081810951E0
2.711599375E1,2.628699541E0,2.715187550E0,9.638989449E0
2.713799219E1,3.517560959E-1,2.707095146E0,1.178340816E1
2.715799219E1,-4.015267491E-1,1.748724937E0,1.465073299E1
2.717799219E1,-1.310298741E-1,2.201037407E-1,1.706491280E1
2.719799219E1,9.004592896E-1,-7.361021042E-1,1.632946014E1
2.721799375E1,1.201774240E0,1.619437896E-2,1.293912792E1
2.723999375E1,7.086454034E-1,1.176146865E0,9.687390327E0
2.726199375E1,1.664353162E-1,1.911741376E0,7.731001854E0
2.728400000E1,-1.709555835E-1,1.859863758E0,6.446407318E0
2.730599063E1,-7.662498951E-1,1.881038070E0,5.982324600E0
2.732599219E1,-1.658530474E0,1.574896216E0,7.088436604E0
2.734799219E1,-2.546520710E0,2.715407610E-1,9.257363319E0
2.736799219E1,-2.806454659E0,-6.589992046E-1,1.103985500E1
2.738999063E1,-2.124490023E0,-2.646454871E-1,1.052086926E1
2.740999063E1,-2.795853138E0,2.351393402E-1,9.306290627E0
2.743001094E1,-3.675760508E0,1.829648912E-1,1.121548462E1
2.745199062E1,-4.252801418E0,-1.909883380E0,1.555748463E1
2.747199062E1,-3.078579426E0,-3.336243391E0,1.548335934E1
2.749199063E1,-2.367597342E0,-3.130361319E0,1.227032185E1
2.751199063E1,-3.103842974E0,-1.453404903E0,9.921638489E0
2.753199063E1,-4.150635719E0,-3.727293015E-1,1.032176781E1
2.755199219E1,-4.497057438E0,-6.227797270E-1,1.091180325E1
2.757399219E1,-4.200828075E0,-6.283438802E-1,9.663898468E0
2.759399219E1,-4.192505836E0,-3.457418680E-1,8.313741684E0
2.761399219E1,-4.306374073E0,-2.431168258E-1,7.252717018E0
2.763400313E1,-3.949360132E0,-5.505897999E-1,7.110501289E0
2.765599219E1,-3.579820156E0,-1.150021195E0,7.313146591E0
2.767599219E1,-3.375106096E0,-1.320411921E0,7.852043152E0
2.769599219E1,-3.056227207E0,-1.141038179E0,7.959226608E0
2.771799219E1,-3.250329733E0,-1.158898950E0,8.343812943E0
2.773999062E1,-3.367291451E0,-1.200672984E0,8.928620338E0
2.775999062E1,-3.279433727E0,-1.198489547E0,9.405258179E0
2.777999219E1,-2.907039881E0,-1.209359169E0,9.541210175E0
2.780199063E1,-2.235370398E0,-1.131672144E0,9.108443260E0
2.782199062E1,-1.834552288E0,-9.951164126E-1,8.981771469E0
2.784199219E1,-1.766355872E0,-8.415714502E-1,9.364152908E0
2.786399531E1,-1.756731033E0,-5.562113523E-1,9.689094543E0
2.788599219E1,-1.527088881E0,-6.461471319E-2,9.221516609E0
2.790599219E1,-9.534860253E-1,1.905497313E-1,8.675427437E0
2.792599219E1,-5.657019615E-1,2.385391146E-1,8.510266304E0
2.794599219E1,-7.290344238E-1,2.807536721E-1,8.791096687E0
2.796599219E1,-1.035549641E0,5.494118333E-1,9.156087875E0
2.798599219E1,-1.075360417E0,5.408884883E-1,9.086082458E0
2.800599219E1,-7.670543194E-1,7.924711704E-1,9.019552231E0
2.802599219E1,-7.916188240E-1,1.298681974E0,8.737092972E0
2.804599219E1,-1.399621606E0,1.050977945E0,9.511790276E0
2.806599219E1,-1.777570367E0,-3.823348582E-1,1.184233475E1
2.808599219E1,-1.645123005E0,-1.250252128E0,1.478834152E1
2.810599219E1,-7.295611501E-1,-1.237562895E0,1.587782860E1
2.812599219E1,-1.987762004E-1,-5.006946325E-1,1.435192680E1
2.814599219E1,-1.697201729E-1,6.072940826E-1,1.222989845E1
2.816599219E1,-1.043488830E-1,9.195458293E-1,1.149594116E1
2.818599219E1,1.488139927E-1,8.895129561E-1,1.000367355E1
2.820599219E1,1.283464432E0,4.157100320E-1,1.079358768E1
2.822599219E1,9.030929208E-1,-1.110765934E0,1.169368362E1
2.824599219E1,9.302048087E-1,-2.683038414E-1,1.077956772E1
2.826599219E1,-7.756543159E-1,2.213515997E0,8.012301445E0
2.828599219E1,-1.916922331E0,3.327260494E0,7.389483452E0
2.830599219E1,-1.868329763E0,1.457704902E0,6.738471031E0
2.832599219E1,-1.206706405E0,1.044140100E0,6.408473492E0
2.834599219E1,7.020757347E-2,8.384685516E-1,6.965001106E0
2.836599219E1,-6.835637093E-1,1.438991785E0,8.302583694E0
2.838799062E1,-5.743077278E0,5.675311565E0,1.415761375E1
2.840799062E1,-5.593917847E0,7.624709129E0,1.031894207E1
2.842799219E1,-1.127218843E0,-4.070238769E-1,7.807261944E0
2.844999219E1,-2.280534744E0,3.124634266E0,8.032690048E0
2.847199062E1,1.098181963E0,4.349431038E0,1.107566261E1
2.849199063E1,1.871317625E0,3.396826506E0,8.784670830E0
2.851199063E1,6.736517549E-1,3.101707458E0,6.716741085E0
2.853199063E1,-3.448512256E-1,2.583171129E0,7.758458614E0
2.855199219E1,-1.379414558E0,3.355167150E0,8.599454880E0
2.857399219E1,-1.470930576E0,5.103672028E0,8.546648026E0
2.859399219E1,-4.465090334E-1,5.580424309E0,7.874462605E0
2.861399844E1,4.322970659E-2,4.432165623E0,1.014982510E1
2.863599062E1,8.492233157E-1,4.476716995E0,8.467170715E0
2.865599219E1,1.269281268E0,3.160758018E0,6.371018410E0
2.867599219E1,-9.872155786E-1,2.069164753E0,7.263548374E0
2.869799063E1,-6.038636208E0,2.263775110E0,1.235770988E1
2.871799219E1,-8.166871071E0,5.144277215E-1,1.216004467E1
2.873999062E1,-6.790319920E0,1.078769803E0,1.229306698E1
2.875999062E1,-2.549968481E0,9.008040428E-1,1.425646591E1
2.877999063E1,7.141807675E-1,-3.849493265E-1,1.588829613E1
2.879999063E1,-8.446360230E-1,2.424464375E-1,1.203954029E1
2.881999063E1,-1.068857789E0,1.180829883E0,8.436266899E0
2.883999219E1,-1.488570929E0,1.955497861E0,5.131425381E0
2.885999219E1,-1.010544658E0,2.283503532E0,5.564871788E0
2.887999219E1,-7.127921581E-1,2.134459496E0,6.544195652E0
2.889999219E1,-1.072755575E0,1.582960010E0,5.349527836E0
2.891999219E1,-1.538772583E0,1.798792481E0,8.022049904E0
2.893999219E1,-1.115640521E0,1.608549237E0,6.288505077E0
2.895999219E1,-4.087572694E-1,1.645908356E0,7.113795757E0
2.897999219E1,-4.861186817E-2,2.086201906E0,8.758871078E0
2.900199062E1,-4.656434953E-1,2.258747339E0,9.657271385E0
2.902199062E1,-4.468442500E-1,2.020936012E0,1.055967522E1
2.904199062E1,-3.243185878E-1,1.952615142E0,1.017558670E1
2.906199063E1,-8.375396132E-1,2.556595802E0,9.165349007E0
2.908199063E1,-4.817804396E-1,2.795824289E0,7.916294098E0
2.910199063E1,5.161899142E-3,2.636753321E0,9.202660561E0
2.912199219E1,2.539386153E-1,2.320335627E0,1.019941425E1
2.914399844E1,-3.805918992E-1,2.211945534E0,1.134329700E1
2.916599219E1,-8.379705548E-1,3.014539242E0,1.160125828E1
2.918599219E1,4.263029099E0,8.960730433E-1,1.025005627E1
2.920799219E1,2.710331976E-1,5.145015240E0,1.043569374E1
2.923001094E1,-1.079698682E0,2.944647789E0,9.993273735E0
2.925199062E1,-1.143719673E0,1.236404061E0,8.918248177E0
2.927199219E1,-5.896440148E-2,-8.017894030E-1,9.711983681E0
2.929199219E1,1.286155462E0,-1.189353228E0,1.356072903E1
2.931199219E1,1.901340961E0,-1.925704360E0,1.606659698E1
2.933199219E1,7.799447179E-1,-8.112130165E-1,1.351393795E1
2.935199219E1,-3.272682130E-1,5.943749547E-1,1.072820663E1
2.937199219E1,-3.139373064E-1,1.222000480E0,9.327043533E0
2.939199219E1,7.752425224E-2,1.631207943E0,8.426900864E0
2.941199219E1,-3.185628951E-1,2.183243990E0,8.134300232E0
2.943199219E1,-5.065652132E-1,2.409811974E0,8.185813904E0
2.945199219E1,9.293045998E-1,2.300914049E0,7.408684731E0
2.947399219E1,1.747096926E-1,2.008945942E0,7.137086391E0
2.949399219E1,-1.822744012E0,2.748782873E0,6.994440079E0
2.951399219E1,-2.697853565E0,2.328179121E0,6.858219624E0
2.953399219E1,-2.448013783E0,2.412790298E0,7.496657372E0
2.955399219E1,-8.453159928E-1,2.619524956E0,7.987085342E0
2.957399219E1,4.526956379E-1,2.137332439E0,6.919894218E0
2.959399688E1,6.976703554E-2,2.691082716E0,7.496169090E0
2.961599375E1,-3.535661399E-1,2.754327774E0,8.265206337E0
2.963799219E1,-2.064472139E-1,2.938260078E0,8.523941994E0
2.965799219E1,-3.172221482E-1,3.027266741E0,1.006332779E1
2.967799219E1,-2.654690854E-2,2.317874432E0,1.098616791E1
2.969799219E1,-2.797385305E-2,2.690881491E0,1.209067059E1
2.971799219E1,1.196813583E-1,2.798486471E0,1.138812637E1
2.973799219E1,-7.067683339E-2,3.355598211E0,1.090477467E1
2.975799219E1,1.878969558E-2,3.104082584E0,1.058779240E1
2.977799219E1,6.615658104E-2,2.411909103E0,1.091714764E1
2.979799219E1,-3.581725657E-1,2.095462799E0,1.231490231E1
2.981799219E1,-9.200438261E-1,1.706452847E0,1.280114555E1
2.983799219E1,-9.933639169E-1,1.680758357E0,1.204551601E1
2.985799219E1,-2.155451924E-1,1.371848822E0,1.157537079E1
2.987799219E1,7.138743401E-1,9.899736643E-1,1.136430836E1
2.989799375E1,9.749380946E-1,7.831721306E-1,1.113595867E1
2.991999219E1,2.977907956E-1,8.905185461E-1,1.035388756E1
2.993999219E1,-3.789446652E-1,1.162250876E0,9.457461357E0
2.995999219E1,-5.678855181E-1,1.429999232E0,8.347709656E0
2.997999219E1,-4.615924954E-1,1.675031424E0,7.490805626E0
3.000199062E1,-1.691015124E0,1.659363747E0,7.046978474E0
3.002199219E1,1.755811721E-1,2.221905231E0,7.235469341E0
3.004399063E1,5.039123893E-1,1.435199499E0,6.783357620E0
3.006400625E1,5.450735688E-1,1.698044419E0,6.234931946E0
3.008599219E1,1.761921763E0,1.797748566E0,6.541888237E0
3.010599219E1,1.150289416E0,2.349334478E0,6.626010895E0
3.012599219E1,4.623873830E-1,2.674438238E0,5.845520020E0
3.014599219E1,3.648763299E-1,2.693764210E0,6.840588570E0
3.016799062E1,9.395039082E-1,2.983768940E0,7.601120949E0
3.018799062E1,2.628354430E-1,3.309485912E0,7.793136120E0
3.020799219E1,1.540908217E-1,3.550696850E0,8.871973038E0
3.023000938E1,6.318776608E-1,3.611327648E0,1.004807186E1
3.025199062E1,1.014193416E0,2.164683819E0,9.241887093E0
3.027199219E1,5.442595482E-1,3.249257326E0,1.323114395E1
3.029199219E1,-8.588576317E-1,2.724400282E0,1.438787937E1
3.031199219E1,-2.123848438E0,3.367751122E0,1.419953156E1
3.033199219E1,-2.045261145E0,3.809136629E0,1.429729080E1
3.035199219E1,-1.389451027E0,3.406680822E0,1.311706543E1
3.037199219E1,8.322724104E-1,1.775233507E0,1.327348328E1
3.039199219E1,1.987369418E0,5.422770977E-1,1.300304413E1
3.041199219E1,1.037216067E0,2.383858860E-1,1.291785717E1
3.043199219E1,-8.496543020E-2,5.561060309E-1,1.072677040E1
3.045199219E1,-1.930301189E0,1.245004058E0,8.303637505E0
3.047199219E1,1.916558504E0,7.940418124E-1,1.142985153E1
3.049199219E1,2.231328964E0,1.264626980E0,1.187437916E1
3.051199688E1,1.988231301E0,5.088348985E-1,8.971581459E0
3.053399219E1,-1.262606233E-1,1.396643162E0,1.002209949E1
3.055399219E1,-2.890759408E-1,1.540419817E0,9.311223030E0
3.057399219E1,-2.521190047E-1,1.347810984E0,8.032087326E0
3.059399219E1,-7.431985140E-1,1.906723022E0,8.056392670E0
3.061399219E1,-1.153047442E0,2.112873554E0,7.575378895E0
3.063399531E1,-1.079028487E0,2.360587120E0,6.187076569E0
3.065599219E1,-1.131959319E0,2.592805386E0,5.932506561E0
3.067599219E1,-1.223868012E0,2.452821255E0,6.324580669E0
3.069599219E1,-1.631342053E0,2.169089317E0,5.827697754E0
3.071599219E1,-1.332306147E0,2.835625410E0,6.530826569E0
3.073599219E1,-7.442041039E-1,2.562829971E0,7.396742821E0
3.075599219E1,-4.066312313E-1,2.781631231E0,8.193053246E0
3.077799219E1,-5.952751637E-1,2.850785732E0,8.438096046E0
3.079999063E1,-8.322148919E-1,3.295532465E0,9.073095322E0
3.081999063E1,-6.997964382E-1,3.462398767E0,9.501791954E0
3.083999219E1,-4.214178026E-1,3.819814682E0,1.019831276E1
3.085999219E1,-2.966224253E-1,3.983376980E0,1.077555466E1
3.087999219E1,-5.365884900E-1,4.025342464E0,1.089308071E1
3.089999219E1,-3.039104044E-1,3.836755991E0,1.134004116E1
3.091999375E1,-2.790202498E-1,3.304036617E0,1.194890499E1
3.094199219E1,-5.641984344E-1,2.238664865E0,1.316423988E1
3.096199219E1,-1.934390545E0,2.441137791E0,1.328273392E1
3.098199219E1,-2.446232319E0,1.755802155E0,1.272084332E1
3.100199219E1,-1.586302280E0,1.529827833E0,1.164429569E1
3.102199219E1,-7.368012071E-1,1.918311000E0,1.060925388E1
3.104199219E1,1.550676525E-1,1.640238881E0,1.018380356E1
3.106199219E1,3.698658347E-1,1.591866493E0,1.014106274E1
3.108199219E1,6.915412098E-2,1.703215957E0,1.020686531E1
3.110199219E1,-1.949837804E-2,1.546108365E0,9.653018951E0
3.112199219E1,-6.772717834E-2,1.637873411E0,8.590223312E0
3.114199219E1,-6.568731368E-2,1.830520391E0,7.701534271E0
3.116399219E1,4.520252813E-3,2.015142202E0,6.844017029E0
3.118399219E1,-4.790318757E-2,2.192035437E0,6.462841034E0
3.120400313E1,-4.764461517E-2,2.236184359E0,6.202074051E0
3.122599219E1,1.153430641E-1,2.264062405E0,6.447317123E0
3.124599375E1,1.571937054E-1,2.336012840E0,6.849073887E0
3.126799219E1,9.054870903E-2,2.371839762E0,7.075038433E0
3.128799219E1,-7.452671230E-2,2.563596249E0,7.158921719E0
3.130799219E1,3.798161820E-2,2.787262678E0,7.482761383E0
3.132799219E1,2.227661014E-1,2.988337040E0,7.964426994E0
3.134799375E1,2.193088681E-1,3.064616442E0,8.734143257E0
3.136999219E1,-6.128198653E-2,2.990597486E0,9.787266731E0
3.138999219E1,-2.256487310E-1,2.937235355E0,1.042367363E1
3.140999219E1,-4.165432155E-1,3.534330130E0,1.100918102E1
3.143001250E1,-7.074483037E-1,4.211056232E0,1.132649899E1
3.145199219E1,-7.987822890E-1,4.409650326E0,1.175874805E1
3.147199219E1,-3.389040530E-1,3.931260109E0,1.193286419E1
3.149199219E1,4.144267142E-1,3.121282578E0,1.238260078E1
3.151199219E1,1.162633896E0,1.977917075E0,1.313505936E1
3.153199219E1,9.319574237E-1,1.243950605E0,1.304379272E1
3.155200000E1,5.052340031E-1,9.756276011E-1,1.248687267E1
3.157399219E1,9.748231769E-1,9.102945924E-1,1.179823303E1
3.159399688E1,2.218620539E0,1.192149639E0,1.110057259E1
3.161599219E1,2.677866697E0,1.313478112E0,1.034452152E1
3.163599219E1,1.482652426E0,1.506316781E0,9.478031158E0
3.165599219E1,-2.915180102E-2,1.750123143E0,8.842639923E0
3.167599219E1,-8.506023884E-1,2.152684212E0,8.179253578E0
3.169599219E1,-7.629746199E-1,2.559037685E0,7.544129372E0
3.171599219E1,-4.686027169E-1,2.809164762E0,7.160367489E0
3.173599219E1,-6.463674307E-1,2.959051371E0,6.993290901E0
3.175599219E1,-9.897246957E-1,3.087773085E0,6.788031101E0
3.177599219E1,-1.052146316E0,3.186854839E0,6.420061588E0
3.179599219E1,-9.816897511E-1,3.177383184E0,6.295084000E0
3.181599219E1,-1.040654182E0,3.114626408E0,6.369256496E0
3.183599219E1,-1.239286780E0,3.091556072E0,6.728539944E0
3.185599219E1,-1.333263874E0,3.254965067E0,7.525406837E0
3.187599219E1,-1.224289417E0,3.299573898E0,8.200668335E0
3.189599219E1,-1.020322561E0,3.392583847E0,9.326890945E0
3.191599219E1,-9.021255970E-1,3.347831249E0,1.030974865E1
3.193599219E1,-9.293045998E-1,3.288368940E0,1.087632179E1
3.195599219E1,-1.072889686E0,3.410549879E0,1.131699944E1
3.197599219E1,-1.305941343E0,3.446865320E0,1.144097042E1
3.199599219E1,-2.372222900E0,4.461633205E0,1.105130005E1
3.201599219E1,-1.742595792E0,3.750440359E0,1.115945148E1
3.203599219E1,-4.644368291E-1,2.352485180E0,1.161226177E1
3.205599219E1,-1.027035832E0,2.116637230E0,1.228030109E1
3.207599219E1,-2.313536406E0,1.724543452E0,1.231205750E1
3.209599219E1,-3.619975567E0,2.283388376E0,1.138878632E1
3.211599219E1,-2.738382578E0,2.298443079E0,1.057877064E1
3.213599219E1,-7.611070871E-1,1.845393181E0,1.065560532E1
3.215599219E1,-9.699389338E-2,1.894550920E0,1.084026527E1
3.217599219E1,-5.888778567E-1,1.807900071E0,1.005420113E1
3.219599219E1,-1.449478388E0,2.068321943E0,8.907761574E0
3.221599219E1,-1.557236671E0,2.274606466E0,7.852244377E0
3.223599375E1,-1.051179051E0,2.326647043E0,7.170021057E0
3.225599375E1,-6.172252297E-1,2.341672897E0,6.792972565E0
3.227799219E1,-5.093137622E-1,2.497861147E0,6.704588413E0
3.229799219E1,-5.009436011E-1,2.492459774E0,6.685041904E0
3.231799219E1,-5.789371133E-1,2.489021778E0,6.715669155E0
3.233799219E1,-6.357275844E-1,2.506834507E0,6.852176666E0
3.235799219E1,-6.513186097E-1,2.598043919E0,7.110894203E0
3.237799219E1,-7.524784803E-1,2.692921400E0,7.476986408E0
3.239799219E1,-8.764501810E-1,2.928137541E0,7.746027946E0
3.241799219E1,-1.037819505E0,3.154743910E0,8.251280785E0
3.243799219E1,-1.196248531E0,3.309026241E0,8.843779564E0
3.245799219E1,-9.024416208E-1,3.307388544E0,9.269688606E0
3.247799219E1,-6.385527253E-1,3.539300442E0,1.022390270E1
3.249799219E1,-8.909973502E-1,3.949944258E0,1.119623566E1
3.251803438E1,-1.063925743E0,4.217903137E0,1.160051060E1
3.253999219E1,-1.315010548E0,4.847147465E0,1.153728390E1
3.255999219E1,-8.747168183E-1,4.622475624E0,1.139800835E1
3.257999219E1,-1.054693758E-1,3.946132898E0,1.134029007E1
3.259999219E1,6.907846928E-1,3.205931902E0,1.112963772E1
3.262199219E1,4.250282645E-1,2.515549421E0,1.083482647E1
3.264399062E1,-2.872180045E-1,2.337248564E0,1.065929222E1
3.266399219E1,-9.160215408E-2,2.230112791E0,1.046505547E1
3.268599219E1,6.623798013E-1,2.509755373E0,1.015736198E1
3.270799219E1,6.571221948E-1,3.076281071E0,9.750405312E0
3.273000938E1,-7.683472335E-2,3.332680941E0,9.272082329E0
3.275200000E1,-7.295611501E-1,3.110700130E0,8.868256569E0
3.277399062E1,-9.963135123E-1,3.126521111E0,8.417026520E0
3.279399688E1,-8.998559117E-1,3.286242962E0,7.784957409E0
3.281599063E1,-8.314200640E-1,3.418029308E0,7.223038673E0
3.283599062E1,-1.091755986E0,3.553704023E0,6.678319454E0
3.285599219E1,-1.403097987E0,3.605983973E0,6.212886333E0
3.287799062E1,-1.369655728E0,3.829142570E0,5.913515568E0
3.289799063E1,-1.035568833E0,3.862038851E0,6.364439487E0
3.291799062E1,-7.783837318E-1,3.545151949E0,6.846775532E0
3.293799219E1,-8.363617063E-1,3.751570225E0,7.387788296E0
3.295999219E1,-8.909303546E-1,3.926260948E0,8.014877319E0
3.298199062E1,-7.723311782E-1,4.263220787E0,8.703248978E0
3.300199219E1,-4.930236042E-1,4.740251064E0,9.484993935E0
3.302199219E1,6.847416982E-3,5.337556839E0,1.027424717E1
3.304199219E1,6.407554150E-1,5.428335667E0,1.102861214E1
3.306199219E1,1.046448112E0,5.238408089E0,1.146617699E1
3.308199219E1,1.932312250E-1,5.791276932E0,1.144144917E1
3.310199219E1,-6.924893260E-1,5.521527290E0,1.152859879E1
3.312199219E1,-7.879700661E-1,4.727734566E0,1.178891468E1
3.314199219E1,-7.521240711E-1,4.337431431E0,1.154755116E1
3.316399219E1,-1.018972278E0,4.077143669E0,1.089580059E1
3.318399844E1,-1.920915842E0,4.707450867E0,9.199509621E0
3.320400938E1,-1.154646873E0,3.779726267E0,7.373825073E0
3.322599219E1,-1.517856836E0,3.400887012E0,9.112207413E0
3.324599219E1,-1.930856705E0,3.015669346E0,9.618752480E0
3.326599219E1,-1.439978242E0,2.930043221E0,8.919885635E0
3.328799219E1,-7.671596408E-1,3.095693111E0,8.306941032E0
3.330999219E1,-2.121549994E-1,3.431168795E0,7.888779640E0
3.333000938E1,1.209550723E-1,3.641801119E0,7.270194530E0
3.335199062E1,3.448129296E-1,3.858888149E0,6.688776970E0
3.337199062E1,3.947272301E-1,4.047388554E0,6.398647308E0
3.339199063E1,2.823625803E-1,4.005374908E0,6.020928860E0
3.341199219E1,2.865476310E-1,4.201478958E0,5.969999313E0
3.343399688E1,-1.923022792E-2,4.143022537E0,6.878407001E0
3.345599219E1,-5.657402873E-1,4.056428909E0,7.596246719E0
3.347599219E1,-4.498800635E-1,4.320882797E0,7.242660999E0
3.349599219E1,-2.561987340E-1,4.380622864E0,7.169839382E0
3.351603281E1,-3.795384169E-1,4.396520615E0,7.188111782E0
3.353799062E1,-8.492425084E-1,4.256278038E0,7.512066364E0
3.355799062E1,-8.753105402E-1,4.481524467E0,8.180603981E0
3.357799531E1,-7.277798653E-1,4.983559608E0,9.116929054E0
3.359999063E1,-9.133304954E-1,5.478632927E0,9.390452385E0
3.361999219E1,-1.378341913E0,6.138675690E0,9.230690956E0
3.364199063E1,-1.607371211E0,6.777343273E0,8.865613937E0
3.366199219E1,-1.880568862E0,6.725503922E0,9.896883011E0
3.368399062E1,-9.817951322E-1,5.672122478E0,1.128279018E1
3.370399219E1,5.759970546E-1,4.478507519E0,1.227582932E1
3.372399844E1,1.035137892E0,3.323496819E0,1.221570492E1
3.374400938E1,-2.638410218E-2,3.125534773E0,1.192515469E1
3.376599219E1,-5.327673554E-1,3.159714222E0,1.133090401E1
3.378599219E1,3.678259850E-1,3.216150284E0,1.051705742E1
3.380799062E1,1.324807644E0,3.359045982E0,9.504185677E0
3.382799219E1,1.167939425E0,3.478765488E0,8.574565887E0
3.384799219E1,2.945825756E-1,3.468336344E0,8.262524605E0
3.386799531E1,-6.437816620E-1,3.344584942E0,8.020977974E0
3.388999219E1,-1.106590509E0,3.345006466E0,7.881635189E0
3.390999844E1,-9.631298780E-1,3.418651819E0,7.660200596E0
3.393000938E1,-9.203502536E-1,3.437747955E0,7.382051945E0
3.395201250E1,-1.044446588E0,3.423536062E0,6.996996880E0
3.397399375E1,-1.017899632E0,3.472301245E0,6.489646435E0
3.399599063E1,-1.013542175E0,3.636256218E0,6.422924995E0
3.401599219E1,-1.053975463E0,3.657842398E0,6.447403431E0
3.403599219E1,-1.183166623E0,3.704145908E0,6.601206779E0
3.405599219E1,-1.194879055E0,3.807834148E0,7.188944817E0
3.407599531E1,-1.098871589E0,4.008621693E0,7.574392319E0
3.409799219E1,-8.746784925E-1,4.112405300E0,7.958144665E0
3.411799219E1,-8.863239288E-1,4.374829292E0,9.088409424E0
3.413799219E1,-1.123780727E0,4.474676609E0,1.019456863E1
3.415799219E1,-1.558673263E0,4.547863007E0,1.066978931E1
3.417799219E1,-1.577051044E0,4.303816795E0,1.042902756E1
3.419799219E1,-2.070649147E0,4.641208172E0,1.035863781E1
3.421799219E1,-2.112260580E0,4.804003716E0,1.047430706E1
3.423799219E1,-1.267318010E0,4.138808727E0,1.129861164E1
3.425799219E1,-8.789306283E-1,3.256707907E0,1.247026634E1
3.427799219E1,-1.688390970E0,2.987504244E0,1.292129612E1
3.429799219E1,-2.982859373E0,3.182075977E0,1.113307571E1
3.431799219E1,-2.914681911E0,3.310251951E0,9.355792999E0
3.433799219E1,-2.140071630E0,3.337737560E0,8.539188385E0
3.435799219E1,-1.171913862E0,2.618471384E0,9.217734337E0
3.437799219E1,-1.271713734E0,2.265843868E0,9.756065369E0
3.439799219E1,-1.728728533E0,2.026088476E0,9.638605118E0
3.441799219E1,-1.818472743E0,1.775166512E0,9.330002785E0
3.443799219E1,-1.608328938E0,1.783153534E0,9.222925186E0
3.445799219E1,-1.127400875E0,1.942597747E0,8.877556801E0
3.447799219E1,-7.809119821E-1,2.278600216E0,8.005587578E0
3.449799219E1,-5.314361453E-1,2.514256477E0,7.070930004E0
3.451799219E1,-4.188129306E-1,2.579149008E0,6.597050190E0
3.453799219E1,-4.800949097E-1,2.765887260E0,6.649377823E0
3.455799219E1,-3.065536022E-1,2.735049725E0,6.888960838E0
3.457799219E1,-3.881192505E-1,2.894168377E0,6.946872234E0
3.459799219E1,-5.251633525E-1,3.102023363E0,7.043568611E0
3.461799219E1,-5.573892593E-1,3.201143503E0,7.367629051E0
3.463799219E1,-7.654262781E-1,3.334098101E0,7.920488358E0
3.465799219E1,-8.982470036E-1,3.433285236E0,8.249011993E0
3.467999219E1,-9.366308451E-1,3.536360264E0,8.423826218E0
3.469999219E1,-1.162921309E0,3.665647268E0,8.979912758E0
3.472199219E1,-1.393310428E0,3.892531395E0,1.000628853E1
3.474199219E1,-1.757296085E0,4.622666836E0,1.052497768E1
3.476199219E1,-1.737203956E0,4.959244251E0,1.088100529E1
3.478199219E1,-1.652640820E0,4.660294533E0,1.157125378E1
3.480399219E1,-1.407934189E0,4.123792171E0,1.230108261E1
3.482399219E1,-2.530192435E-1,3.026433945E0,1.303555679E1
3.484399688E1,5.199535489E-1,2.195981026E0,1.369908619E1
3.486400938E1,3.238875791E-2,1.429280996E0,1.403940678E1
3.488599219E1,-9.663764238E-1,1.493838310E0,1.375204563E1
3.490599375E1,-4.048882425E-1,1.672024250E0,1.258630848E1
3.492799219E1,1.008437753E0,2.092522621E0,1.099558163E1
3.494799219E1,1.245502114E0,2.429013491E0,9.482072830E0
3.496799219E1,3.066110611E-1,2.440802574E0,7.868208408E0
3.498799219E1,-6.942131519E-1,2.479454279E0,6.752606392E0
3.500799219E1,-1.436434865E0,2.585268497E0,6.540163994E0
3.502799219E1,-1.627013326E0,2.436483383E0,6.614326954E0
3.504799219E1,-1.695803523E0,2.555216551E0,6.581497669E0
3.506799219E1,-1.790288210E0,2.575203419E0,6.385240078E0
3.508799219E1,-1.910678387E0,2.613079548E0,6.328057289E0
3.510799219E1,-1.836065412E0,2.545524836E0,6.327252388E0
3.512799219E1,-1.781688213E0,2.514447927E0,6.298972130E0
3.514799531E1,-1.832004905E0,2.679695845E0,6.526134491E0
3.516999219E1,-1.721871614E0,2.818502188E0,7.109696865E0
3.518999219E1,-1.503731132E0,3.063122511E0,7.630502701E0
3.520999219E1,-1.429999232E0,3.386004686E0,8.346733093E0
3.523001094E1,-1.378677130E0,3.583104849E0,9.259603500E0
3.525199219E1,-1.647239447E0,3.786545038E0,1.012121010E1
3.527199219E1,-1.632184863E0,3.693305254E0,1.081751060E1
3.529399844E1,-9.528252482E-1,3.636054993E0,1.162262344E1
3.531599219E1,-4.059320986E-1,4.155768871E0,1.183343792E1
3.533599219E1,-9.296780825E-1,4.536293983E0,1.194789982E1
3.535599219E1,-1.349056005E0,3.980034590E0,1.222540760E1
3.537599219E1,-1.550714850E0,3.186376095E0,1.261819077E1
3.539599219E1,-1.780654073E0,2.723835468E0,1.274863529E1
3.541599219E1,-2.156371355E0,2.282028675E0,1.196035004E1
3.543599219E1,-1.864288211E0,2.141172886E0,1.109131145E1
3.545599219E1,-1.140272141E0,1.927677155E0,1.047449780E1
3.547599219E1,-1.241747975E0,1.802623153E0,1.029251957E1
3.549599219E1,-1.634387493E0,1.612992764E0,9.973688126E0
3.551599219E1,-1.795766234E0,1.521390676E0,9.396513939E0
3.553599219E1,-1.515625477E0,1.478055716E0,8.704589844E0
3.555599219E1,-1.236384869E0,1.525144815E0,8.225298882E0
3.557599219E1,-1.009347558E0,1.583869696E0,7.452987194E0
3.559599219E1,-9.192106128E-1,1.767600775E0,6.514258862E0
3.561599219E1,-9.505363703E-1,1.859011531E0,5.811062336E0
3.563599219E1,-9.171229005E-1,1.938805461E0,5.341550350E0
3.565599219E1,-7.373757958E-1,2.067220688E0,5.232441425E0
3.567599219E1,-5.235736370E-1,2.078674555E0,5.356135845E0
3.569599219E1,-3.798353076E-1,2.174797058E0,5.732283592E0
3.571599219E1,-3.404650688E-1,2.284432411E0,6.163498878E0
3.573599219E1,-4.022354782E-1,2.396691561E0,6.297219753E0
3.575599219E1,-6.827688813E-1,2.641848326E0,6.426094532E0
3.577599219E1,-1.055881262E0,2.922027349E0,7.146625042E0
3.579599219E1,-1.564246893E0,3.081481218E0,8.539294243E0
3.581599219E1,-1.634358644E0,3.073896408E0,1.020921135E1
3.583599219E1,-1.498550057E0,3.035694599E0,1.166621685E1
3.585599219E1,-1.708052278E0,3.011829138E0,1.303969479E1
3.587599219E1,-2.449287653E0,3.160375118E0,1.357055569E1
3.589599219E1,-2.577683926E0,3.003851652E0,1.353950787E1
3.591599219E1,-2.046027422E0,3.327614784E0,1.382372761E1
3.593599219E1,-9.210398197E-1,2.749702454E0,1.508850765E1
3.595599219E1,-3.844226003E-1,1.809872746E0,1.643632889E1
3.597599219E1,-6.981874704E-1,1.122152686E0,1.646138000E1
3.599599219E1,-7.170730233E-1,6.409565210E-1,1.543449879E1
3.601599219E1,4.182670414E-1,4.588056505E-1,1.383615780E1
3.603599219E1,1.866845250E0,5.133360028E-1,1.226745892E1
3.605599219E1,2.718616009E0,5.435795188E-1,1.044891930E1
3.607599219E1,2.418287277E0,8.487828374E-1,8.222291946E0
3.609599219E1,1.409907103E0,1.242858887E0,6.088550568E0
3.611599219E1,3.086030185E-1,1.552342892E0,4.749799252E0
3.613599219E1,-6.320596933E-1,1.857450485E0,4.125927925E0
3.615599219E1,-1.310566902E0,2.271637678E0,3.836286783E0
3.617599219E1,-1.753417611E0,2.752173185E0,3.863465786E0
3.619599219E1,-1.819957137E0,2.909740448E0,4.147571087E0
3.621599219E1,-1.898448706E0,3.082563400E0,4.739504337E0
3.623599219E1,-1.882330894E0,2.799693346E0,5.018735409E0
3.625599219E1,-1.988710046E0,2.576074839E0,5.334807873E0
3.627599219E1,-2.303404093E0,2.786458015E0,5.799244881E0
3.629599219E1,-2.647058010E0,2.943987131E0,6.727036476E0
3.631599219E1,-2.797787666E0,3.076491594E0,8.372868538E0
3.633599219E1,-2.811329126E0,2.953975677E0,1.020603085E1
3.635599219E1,-2.898123741E0,2.855765343E0,1.214257717E1
3.637599219E1,-3.156965494E0,2.855755806E0,1.346638870E1
3.639599219E1,-3.267079830E0,2.856244326E0,1.357179070E1
3.641599219E1,-2.896792412E0,2.807479143E0,1.301086807E1
3.643599219E1,-2.594797611E0,3.046956778E0,1.253424931E1
3.645599219E1,-2.510636568E0,3.254840612E0,1.234636211E1
3.647599375E1,-2.318535328E0,2.896898031E0,1.280465031E1
3.649799219E1,-2.498043060E0,1.959893584E0,1.320388889E1
3.651799219E1,-2.972736597E0,1.166397572E0,1.230973053E1
3.653799219E1,-3.315892935E0,9.550087452E-1,1.065201378E1
3.655799219E1,-3.334251404E0,1.278905869E0,9.209507942E0
3.657799219E1,-2.780185223E0,1.426168442E0,8.680906296E0
3.659799219E1,-1.904281020E0,1.395407796E0,8.943358421E0
3.661799219E1,-1.648110986E0,1.186738729E0,8.923496246E0
3.663799219E1,-1.861501336E0,9.315646887E-1,8.539120674E0
3.665799219E1,-2.543973446E0,9.777919650E-1,8.932374001E0
3.667799219E1,-2.717581749E0,7.177912593E-1,9.451820374E0
3.669999219E1,-2.230150938E0,5.576095581E-1,8.837256432E0
3.671999219E1,-1.747633219E0,8.190755844E-1,7.681834698E0
3.673999219E1,-1.583122849E0,1.155939698E0,7.017596722E0
3.675999219E1,-1.183616757E0,1.351297021E0,6.269543171E0
3.677999219E1,-7.663648129E-1,1.782358646E0,5.181923866E0
3.679999219E1,-1.300530434E0,2.739799738E0,4.657306671E0
3.681999219E1,-2.130523443E0,3.403922796E0,5.845931530E0
3.683999219E1,-2.782454967E0,3.371467113E0,6.977670670E0
3.685999219E1,-2.687252045E0,2.875522375E0,8.015471458E0
3.687999219E1,-3.177268505E0,2.718175650E0,8.996997833E0
3.689999219E1,-3.392938137E0,2.588064909E0,9.079856873E0
3.691999219E1,-3.250109673E0,2.642892361E0,9.193102837E0
3.693999219E1,-2.538428545E0,3.020333290E0,9.554962158E0
3.695999375E1,-1.615272045E0,3.032869339E0,1.010832882E1
3.698199219E1,-1.398941636E0,3.394278765E0,1.097588253E1
3.700199219E1,-1.536876321E0,3.691399336E0,1.168922043E1
3.702199219E1,-1.301689267E0,3.901006937E0,1.216295624E1
3.704199219E1,-8.355476856E-1,3.393876791E0,1.398286629E1
3.706199219E1,-4.022737741E-1,1.356564164E0,1.642087173E1
3.708199219E1,-9.059659243E-1,-4.918456376E-1,1.723748589E1
3.710199219E1,-1.222785830E0,-1.219299912E0,1.545775223E1
3.712199219E1,-1.552879214E-1,-1.230811119E0,1.273091888E1
3.714399375E1,1.216656685E0,-8.434101939E-1,1.005735111E1
3.716599219E1,1.393473268E0,-5.471996069E-1,8.279657364E0
3.718599219E1,1.810207963E-1,-1.331463456E-1,7.320453644E0
3.720599219E1,-8.435155749E-1,1.413440853E-1,6.442662716E0
3.722599219E1,-1.477318287E0,5.462993979E-1,5.819835186E0
3.724799062E1,-1.555991650E0,1.016309857E0,5.448398590E0
3.726799062E1,-1.438081980E0,1.385821462E0,5.344566822E0
3.728799062E1,-1.374329209E0,1.607878804E0,4.989133358E0
3.730799062E1,-1.601740122E0,2.037389040E0,4.764193535E0
3.732799063E1,-1.798237085E0,2.382795572E0,4.914242744E0
3.734799062E1,-1.734168172E0,2.423956871E0,5.389635086E0
3.736799219E1,-1.792356849E0,2.443742514E0,6.378852367E0
3.738999062E1,-2.103775501E0,2.630451918E0,7.403091908E0
3.740999062E1,-2.408700943E0,2.890136719E0,8.174235344E0
3.743001094E1,-2.507035732E0,3.048632860E0,8.656360626E0
3.745199062E1,-2.181031466E0,3.146929264E0,9.621253014E0
3.747199063E1,-2.024010181E0,2.874028683E0,1.101958084E1
3.749199062E1,-2.370901346E0,2.415414333E0,1.277031708E1
3.751199062E1,-2.801828861E0,2.092149258E0,1.417774391E1
3.753199062E1,-2.999925137E0,2.388369322E0,1.446449280E1
3.755199219E1,-2.466822624E0,2.609133959E0,1.423177624E1
3.757399844E1,-1.186738729E0,2.101984501E0,1.406203747E1
3.759599062E1,-1.134832382E0,1.452887774E0,1.434334660E1
3.761599219E1,-1.851541519E0,7.022672892E-1,1.392003250E1
3.763799062E1,-2.482653141E0,5.092467070E-1,1.191340446E1
3.765799063E1,-2.039965153E0,7.869549394E-1,9.999363899E0
3.767799062E1,-8.367159963E-1,9.448381662E-1,9.157707214E0
3.769799062E1,-3.789159358E-1,1.028759718E0,9.569251060E0
3.771799219E1,-7.301836610E-1,7.788913250E-1,9.689487457E0
3.773999063E1,-1.385467052E0,6.405255795E-1,9.213530540E0
3.775999062E1,-1.509323835E0,5.773473382E-1,8.517381668E0
3.777999062E1,-1.268141627E0,6.081559658E-1,7.750174522E0
3.779999062E1,-9.882977009E-1,7.905175090E-1,7.457517147E0
3.781999062E1,-7.202141881E-1,8.766417503E-1,7.080976009E0
3.783999063E1,-7.735952735E-1,1.011109710E0,6.533020020E0
3.785999062E1,-6.918955445E-1,1.188654065E0,5.713503838E0
3.787999219E1,-5.165825486E-1,1.674035430E0,5.525185585E0
3.790199062E1,-7.748594880E-2,1.972458243E0,6.111649990E0
3.792199062E1,8.973468095E-2,2.097215414E0,6.287077904E0
3.794199062E1,-3.110163808E-1,2.397668362E0,6.445947647E0
3.796199063E1,-6.769078374E-1,2.498071671E0,6.982220173E0
3.798199062E1,-1.193873405E0,2.625874281E0,8.138763428E0
3.800199063E1,-1.631313205E0,2.610053539E0,9.324936867E0
3.802199062E1,-1.606059194E0,2.429367781E0,1.030739212E1
3.804199063E1,-1.445590258E0,2.374961853E0,1.129151440E1
3.806199219E1,-1.512905598E0,2.334241152E0,1.239102840E1
3.808399219E1,-1.954588056E0,2.278169155E0,1.333274460E1
3.810400000E1,-1.463642597E0,1.869708776E0,1.357349491E1
3.812599219E1,-2.101055533E-1,1.195271730E0,1.448225784E1
3.814599219E1,4.883884192E-1,2.950901389E-1,1.576541615E1
3.816599219E1,2.549824715E-1,-3.109206259E-1,1.631260681E1
3.818599219E1,2.193854898E-1,-7.214591503E-1,1.445152664E1
3.820599219E1,1.095146060E0,-5.589694977E-1,1.205336952E1
3.822599219E1,2.041717768E0,-7.160577923E-2,1.021225643E1
3.824599219E1,2.281827450E0,1.759738326E-1,9.434716225E0
3.826599219E1,1.377681136E0,4.862240553E-1,8.199068069E0
3.828799062E1,6.198109314E-2,9.430952072E-1,6.732207775E0
3.830799062E1,-5.708447099E-1,1.186173677E0,5.637358189E0
3.832799063E1,-8.266316652E-1,1.390609860E0,5.109341145E0
3.834799219E1,-8.536765575E-1,1.431311250E0,5.207839012E0
3.836999062E1,-1.007518411E0,1.503127694E0,5.366746426E0
3.838999219E1,-1.204676151E0,1.492976308E0,5.642616272E0
3.841199219E1,-1.288204908E0,1.569035292E0,6.198626518E0
3.843399062E1,-1.001379609E0,1.751205325E0,7.064503670E0
3.845399219E1,-4.612765014E-1,1.650687099E0,8.197075844E0
3.847599219E1,-4.821922183E-1,1.701731563E0,9.248427391E0
3.849799219E1,-6.395391822E-1,1.927399397E0,9.824243546E0
3.851999063E1,-6.577925682E-1,2.120132685E0,1.046402168E1
3.853999062E1,-5.323076844E-1,2.249467611E0,1.166648579E1
3.855999063E1,-4.460972250E-1,2.345446348E0,1.264301300E1
3.857999219E1,-3.313862383E-1,2.588112831E0,1.275699615E1
3.859999219E1,-1.870062947E-1,2.539491415E0,1.265385342E1
3.862199219E1,-6.979289651E-1,2.646636724E0,1.274660587E1
3.864399062E1,-1.049771190E0,2.194017887E0,1.372170639E1
3.866399219E1,-9.108692408E-1,1.155604482E0,1.464817619E1
3.868599219E1,-7.004764080E-1,-1.562360227E-1,1.428191090E1
3.870799219E1,-8.103032112E-1,-2.687156498E-1,1.299501896E1
3.873000938E1,-1.944762170E-1,-2.572138608E-1,1.186961937E1
3.875199063E1,2.174509764E-1,-1.579598486E-1,1.104517078E1
3.877199219E1,1.832905114E-1,9.449435771E-2,9.930622101E0
3.879399219E1,-3.589770198E-1,3.438743949E-1,8.963345528E0
3.881399219E1,-7.543459535E-1,4.141202569E-1,8.598028183E0
3.883599219E1,-9.700443149E-1,5.591418743E-1,8.295104027E0
3.885799062E1,-9.157534242E-1,7.449510694E-1,7.528308392E0
3.887799062E1,-6.035974026E-1,9.430090189E-1,6.528872967E0
3.889799063E1,-3.032304347E-1,1.223494530E0,6.066772938E0
3.891799062E1,1.481819302E-1,1.193547845E0,6.105080128E0
3.893799063E1,5.111907721E-1,1.241412759E0,6.195322037E0
3.895799062E1,7.038666010E-1,1.235839009E0,5.910613537E0
3.897799063E1,2.990357876E-1,1.388407111E0,5.653438091E0
3.899799219E1,-3.224031925E-1,1.597909451E0,5.372368336E0
3.901999063E1,-8.687408566E-1,1.739828110E0,6.120268822E0
3.903999062E1,-1.255672574E0,1.975905895E0,7.605469227E0
3.905999063E1,-1.409322858E0,1.758167624E0,9.555306435E0
3.907999062E1,-1.645056009E0,1.477136254E0,1.140458775E1
3.909999063E1,-2.008754492E0,1.778374791E0,1.256062412E1
3.911999062E1,-1.954204798E0,2.611873150E0,1.275691986E1
3.913999062E1,-1.924488068E0,3.847386360E0,1.265048313E1
3.915999062E1,-1.513499379E0,4.136921883E0,1.244588375E1
3.917999062E1,-6.660668850E-1,3.669545174E0,1.249150753E1
3.919999063E1,8.586660624E-1,2.463796377E0,1.314908981E1
3.921999062E1,8.478921652E-1,1.118992448E0,1.373743153E1
3.923999219E1,1.013896540E-1,-1.716834158E-1,1.424036694E1
3.926199062E1,-1.727847457E-1,-7.520954013E-1,1.353325367E1
3.928199219E1,1.020025730E0,-6.577925682E-1,1.199171352E1
3.930399531E1,1.908973575E0,-1.348414458E-2,1.058423901E1
3.932599219E1,8.723704815E-1,1.009759307E0,9.507978439E0
3.934799062E1,-7.299442589E-2,1.184076428E0,8.456013680E0
3.936799219E1,-5.247132778E-1,1.302302122E0,7.529381275E0
3.938799219E1,-7.872901559E-1,1.564141631E0,6.832026958E0
3.940999062E1,-9.222656488E-1,1.813502431E0,6.360416889E0
3.943001094E1,-8.206940293E-1,1.733258367E0,5.729669571E0
3.945199062E1,-7.112215757E-1,1.714372873E0,5.373335361E0
3.947199063E1,-6.726078391E-1,1.558673263E0,5.207944393E0
3.949199062E1,-7.318691611E-1,1.533112645E0,5.037103653E0
3.951199062E1,-7.432080507E-1,1.638898015E0,4.914970875E0
3.953199063E1,-5.591131449E-1,1.777388334E0,5.306192398E0
3.955199219E1,-4.622245729E-1,1.976365566E0,6.544847012E0
3.957399062E1,-2.377537936E-1,1.919000506E0,8.577917099E0
3.959399219E1,6.028600037E-2,1.991401196E0,1.044727135E1
3.961599219E1,4.857068956E-1,1.993804932E0,1.251078606E1
3.963799062E1,1.236519098E0,2.093212128E0,1.391017818E1
3.965799219E1,2.026069164E0,2.332459927E0,1.469448948E1
3.967999062E1,1.520978928E0,2.775942802E0,1.492040634E1
3.969999063E1,1.111474633E0,2.406862259E0,1.495272827E1
3.971999062E1,1.130522966E0,6.668426394E-1,1.474601269E1
3.973999219E1,5.806130171E-1,-5.151843429E-1,1.402203560E1
3.976199062E1,-7.225126624E-1,-7.945494056E-1,1.263654900E1
3.978199063E1,-1.350607514E0,-1.594346762E-1,1.157211494E1
3.980199062E1,-6.601101756E-1,-6.501694769E-2,1.060525131E1
3.982199063E1,-2.338847816E-1,1.429242641E-1,1.023091221E1
3.984199219E1,-5.338399410E-1,1.527309120E-1,1.014410877E1
3.986399531E1,-1.051820636E0,3.160920739E-1,9.534399986E0
3.988399844E1,-1.207721591E0,6.534063816E-1,9.072329521E0
3.990400000E1,-6.855844855E-1,8.151969314E-1,8.433154106E0
3.992599063E1,-7.128974795E-2,1.059166193E0,7.452795506E0
3.994599062E1,8.286811411E-2,1.192743421E0,6.677802086E0
3.996599219E1,-7.982268184E-2,1.227162480E0,6.259343147E0
3.998599219E1,-5.895482376E-2,1.030943274E0,6.073170185E0
4.000599219E1,-6.674076617E-2,1.108496189E0,5.759980202E0
4.002599219E1,-1.284441352E-1,1.299907804E0,5.874547482E0
4.004599219E1,-4.342124239E-2,1.525240660E0,6.806926250E0
4.006599219E1,3.878606856E-2,1.327718854E0,7.882890224E0
4.008599219E1,-1.115123332E-1,1.256419539E0,8.907512665E0
4.010599219E1,-2.686485946E-1,1.284077406E0,9.047783852E0
4.012599219E1,-9.801861644E-2,1.328121066E0,9.360945702E0
4.014599219E1,2.940654159E-1,1.336855173E0,1.041516018E1
4.016599219E1,1.214300752E0,1.253862500E0,1.115168381E1
4.018599375E1,1.784666657E0,1.139793158E0,1.113029861E1
4.020799375E1,1.263056278E0,1.010046601E0,1.116435432E1
4.023001094E1,5.546886325E-1,8.657912016E-1,1.244307804E1
4.025199531E1,9.360371232E-1,1.825339347E-1,1.359865475E1
4.027399219E1,1.699528813E0,-9.944939017E-1,1.438108921E1
4.029399219E1,2.164818048E0,-1.760207534E0,1.524142075E1
4.031399219E1,3.217740059E0,-2.302513361E0,1.512928581E1
4.033599219E1,4.411460400E0,-2.228226185E0,1.277125549E1
4.035799219E1,4.444605350E0,-1.307981133E0,1.010030365E1
4.037999219E1,2.837588549E0,-2.980876863E-1,8.162667274E0
4.040199062E1,8.214601874E-1,5.028398037E-1,7.801755428E0
4.042199062E1,-4.560954273E-1,6.842915416E-1,7.845348835E0
4.044199062E1,-1.013676286E0,9.032748342E-1,7.458800316E0
4.046199063E1,-1.201295495E0,1.239123940E0,6.846641064E0
4.048199219E1,-9.660029411E-1,1.466027260E0,6.312303066E0
4.050203438E1,-6.959753036E-1,1.485966086E0,5.869739532E0
4.052399219E1,-7.717757225E-1,1.653167605E0,5.572648048E0
4.054399844E1,-8.672373295E-1,1.780922174E0,5.636937141E0
4.056599219E1,-5.950740576E-1,1.990874529E0,6.958756924E0
4.058599219E1,6.809109822E-3,1.818635583E0,8.718284607E0
4.060599219E1,2.954444848E-2,1.735202551E0,9.990524292E0
4.062599219E1,-4.970362782E-1,1.921605468E0,1.066826534E1
4.064599219E1,-6.786317229E-1,1.830012798E0,1.127692032E1
4.066799844E1,-2.210231125E-1,1.512149096E0,1.208496284E1
4.068999062E1,4.665054083E-1,1.490486383E0,1.282275963E1
4.070999219E1,1.243874073E0,1.327967882E0,1.334026146E1
4.073001094E1,1.577089310E0,1.455971599E0,1.341068935E1
4.075200000E1,1.555426598E0,1.591081023E0,1.336425209E1
4.077399219E1,1.115219116E0,1.315814972E0,1.330002022E1
4.079399219E1,-8.853758126E-2,1.110756397E0,1.307553005E1
4.081399688E1,-9.400880933E-1,8.858450055E-1,1.210460472E1
4.083599219E1,-7.523826957E-1,6.725408435E-1,1.091055012E1
4.085599219E1,-1.246708706E-1,5.646581054E-1,9.921811104E0
4.087599219E1,1.972247660E-1,6.559250355E-1,9.795474052E0
4.089599219E1,2.394872159E-1,4.222893119E-1,9.952275276E0
4.091799062E1,-2.165220231E-1,3.229107559E-1,1.011559772E1
4.093799219E1,-5.375461578E-1,4.739657640E-1,9.926025391E0
4.095799219E1,-4.610179067E-1,6.828550696E-1,9.199796677E0
4.097799219E1,-7.862558588E-3,8.145074248E-1,8.792055130E0
4.099999062E1,5.330450535E-1,8.846670985E-1,8.196846962E0
4.101999219E1,7.344357371E-1,1.114864826E0,7.091816902E0
4.103999219E1,6.973064542E-1,1.275640249E0,6.259946823E0
4.106199062E1,6.395104527E-1,1.391969681E0,5.592319012E0
4.108199062E1,5.577723980E-1,1.657055736E0,4.928770542E0
4.110199062E1,3.899484277E-1,2.187361717E0,4.594664574E0
4.112199062E1,3.963936269E-1,2.347955227E0,5.185735226E0
4.114199063E1,1.704575866E-1,2.349190712E0,6.312772274E0
4.116202031E1,-3.162548840E-1,2.505407572E0,7.631900787E0
4.118400156E1,-1.066070914E0,2.835443497E0,8.990141869E0
4.120599063E1,-1.370709181E0,3.029690027E0,1.018208027E1
4.122599219E1,-8.259995580E-1,2.724591970E0,1.054437065E1
4.124799062E1,-6.236990690E-1,2.878558397E0,1.133677483E1
4.126799062E1,-7.742273808E-1,3.156745434E0,1.233826923E1
4.128799219E1,-3.282354772E-1,2.690603733E0,1.296566486E1
4.130999219E1,8.289013505E-1,1.639070392E0,1.368107224E1
4.133001094E1,7.453724146E-1,7.607623935E-1,1.433231354E1
4.135200312E1,-1.404917520E-2,4.798650444E-1,1.497873783E1
4.137399844E1,1.096688032E0,-2.968810126E-2,1.380094433E1
4.139599219E1,3.122824192E0,3.231789172E-1,1.157224941E1
4.141599375E1,4.281761646E0,6.385335922E-1,9.132510185E0
4.143799219E1,3.424330711E0,1.082428217E0,7.823418140E0
4.145799219E1,1.706711411E0,1.066913724E0,8.077356339E0
4.147799219E1,3.781402409E-1,9.859992862E-1,8.540021896E0
4.149799219E1,-5.914157033E-1,1.260049224E0,8.426162720E0
4.151999063E1,-9.964284897E-1,1.442707658E0,7.947686672E0
4.153999062E1,-1.175102949E0,1.721335173E0,7.420904636E0
4.155999063E1,-1.067603230E0,1.856703401E0,6.831299305E0
4.157999219E1,-9.222273827E-1,2.099427462E0,6.456749916E0
4.159999375E1,-8.852320910E-1,2.295972347E0,6.478250027E0
4.162199219E1,-8.580627441E-1,2.414523602E0,6.371257782E0
4.164199219E1,-8.316115737E-1,2.523574591E0,6.504490852E0
4.166199219E1,-5.711320043E-1,2.553042650E0,7.252975464E0
4.168199219E1,-5.065172911E-1,2.403979778E0,8.300093651E0
4.170199219E1,-5.917605162E-1,2.395724297E0,9.057704926E0
4.172399219E1,-6.869347692E-1,2.522042513E0,9.606925964E0
4.174400625E1,-4.469974637E-1,2.531628847E0,1.048128796E1
4.176599219E1,2.974172831E-1,2.329807043E0,1.177289391E1
4.178799219E1,5.445372462E-1,2.297724962E0,1.262302589E1
4.180999219E1,-6.841670722E-2,2.325057030E0,1.292801857E1
4.183001094E1,-9.992248416E-1,2.223648548E0,1.334198666E1
4.185199062E1,-1.989294291E0,1.915476322E0,1.403320122E1
4.187199062E1,-2.485612392E0,1.506565809E0,1.427839661E1
4.189199063E1,-2.466075659E0,1.143288851E0,1.456802750E1
4.191199219E1,-1.458193302E0,5.090743303E-1,1.485214233E1
4.193399219E1,-6.384474039E-1,3.893355131E-1,1.481115437E1
4.195399219E1,-2.836075425E-1,2.536896169E-1,1.368669319E1
4.197399219E1,-3.802087903E-1,4.171369672E-1,1.187937832E1
4.199599063E1,-2.134861797E-1,5.577148795E-1,9.904812813E0
4.201599219E1,-1.389498860E-1,7.062416673E-1,8.752071381E0
4.203799063E1,-1.428763717E-1,7.205685377E-1,7.608198166E0
4.205799062E1,6.871359050E-2,8.524219990E-1,6.477302074E0
4.207799063E1,6.601580381E-1,1.042138577E0,5.438917637E0
4.209799062E1,1.366093159E0,1.376215816E0,4.429800034E0
4.211799063E1,1.965151072E0,1.922984481E0,3.680596590E0
4.213799219E1,2.484185219E0,2.355798483E0,3.536283731E0
4.215799219E1,2.321073294E0,2.544183969E0,3.929402113E0
4.217999062E1,1.830922604E0,2.687922478E0,4.256220341E0
4.219999063E1,1.549335837E0,3.091498613E0,4.727485180E0
4.221999062E1,1.643906713E0,3.447612047E0,5.367455482E0
4.223999219E1,1.964490414E0,3.580720186E0,6.706206799E0
4.226199062E1,1.893238902E0,3.701378345E0,8.484542847E0
4.228199063E1,1.449497581E0,3.868254185E0,9.647100449E0
4.230199062E1,7.811992764E-1,4.371458054E0,1.059035873E1
4.232199219E1,2.301593870E-1,5.033895493E0,1.136563015E1
4.234199219E1,1.983165145E-1,5.176522255E0,1.220256615E1
4.236399062E1,2.298845530E0,3.694435358E0,1.390683556E1
4.238399219E1,3.238521814E0,2.502467632E0,1.593507957E1
4.240399219E1,2.418689728E0,1.432556272E0,1.753898239E1
4.242599219E1,1.228551030E0,6.646112800E-1,1.583909988E1
4.244599219E1,1.353356123E0,9.416299462E-1,1.312777138E1
4.246599219E1,2.193337679E0,1.181471586E0,1.177147579E1
4.248599219E1,2.440802574E0,7.797627449E-1,1.095358753E1
