"Time (s)","Gyroscope x (rad/s)","Gyroscope y (rad/s)","Gyroscope z (rad/s)"
1.528431880E-1,-2.342929989E-1,-2.347991467E-1,4.892157763E-2
1.728431880E-1,-1.988628209E-1,-1.871516556E-1,4.159119725E-2
1.928431880E-1,-1.787042618E-1,-1.795769334E-1,2.822197415E-2
2.148431880E-1,-1.598023474E-1,-1.902757883E-1,-9.861109778E-3
2.348431880E-1,-1.632930040E-1,-2.472258806E-1,-1.345648803E-2
2.548431880E-1,-1.687209755E-1,-3.058864176E-1,-2.148500271E-2
2.748525630E-1,-1.472883373E-1,-2.985734642E-1,-2.057743259E-2
2.968431880E-1,-9.862855822E-2,-2.405238301E-1,-6.841690745E-3
3.168431880E-1,-6.592108309E-2,-1.558229923E-1,-3.333578818E-3
3.368431880E-1,-7.346090674E-2,-1.043881401E-1,-1.329940930E-2
3.568510000E-1,-1.022762954E-1,-1.347568780E-1,-2.700024284E-2
3.788431880E-1,-1.526639462E-1,-1.531351954E-1,-4.988151044E-2
3.988447500E-1,-1.800307184E-1,-1.665742248E-1,-4.660028964E-2
4.208431880E-1,-1.505870074E-1,-1.952499896E-1,-8.203047328E-3
4.408463130E-1,-2.321287990E-2,-1.934348345E-1,5.808455870E-2
4.628431880E-1,8.606218547E-2,-2.862340072E-3,1.129577085E-1
4.828431880E-1,1.156455129E-1,9.599310905E-2,1.618967354E-1
5.028431880E-1,9.808750451E-2,-1.823868975E-2,2.003463507E-1
5.228494380E-1,6.461209059E-2,-5.485569686E-2,2.254616320E-1
5.448494380E-1,2.640683204E-2,-9.478883445E-2,2.278876454E-1
5.668431880E-1,-7.552039623E-2,-6.133086979E-2,1.741140485E-1
5.868431880E-1,-9.930923581E-2,-9.096655995E-2,6.047565863E-2
6.068431880E-1,-1.602212340E-2,-8.868017793E-2,2.008873969E-2
6.268431880E-1,4.399975017E-2,-6.494370103E-2,1.539554894E-1
6.468431880E-1,1.893682219E-2,6.464699656E-2,3.053278923E-1
6.668494380E-1,2.139773592E-2,1.980599612E-1,4.000992775E-1
6.888431880E-1,7.944738865E-2,2.449744195E-1,5.415931344E-1
7.088431880E-1,7.632324845E-2,-7.644542027E-3,6.424033642E-1
7.308619380E-1,4.063126445E-2,-3.353650272E-1,5.999394655E-1
7.528431880E-1,-3.316125646E-2,-3.520503640E-1,5.787512064E-1
7.728431880E-1,-1.045801267E-1,-4.688827097E-1,5.078908205E-1
7.928431880E-1,-1.489638537E-1,-4.155454338E-1,3.810926378E-1
8.148431880E-1,-2.269277126E-1,-2.880142331E-1,2.700896859E-1
8.348431880E-1,-3.468318284E-1,-1.554390192E-1,2.364223003E-1
8.548431880E-1,-3.278950155E-1,-1.035852879E-1,2.098234892E-1
8.748431880E-1,-2.004685104E-1,5.497787148E-2,1.692620367E-1
8.948431880E-1,-9.779080003E-2,1.080882400E-1,1.711644381E-1
9.148431880E-1,-1.405513585E-1,7.103490178E-3,2.269626111E-1
9.348431880E-1,-2.256012559E-1,-2.226167470E-1,2.823768258E-1
9.548431880E-1,-3.052057326E-1,-5.474050641E-1,1.397485137E-1
9.748431880E-1,-3.983888626E-1,-6.145479083E-1,-1.219985168E-2
9.948431880E-1,-4.255287349E-1,-6.123313308E-1,-2.047271281E-2
1.014843188E0,-2.555162013E-1,-3.668158352E-1,2.071705833E-2
1.034843188E0,-2.776818909E-2,-1.478468478E-1,5.255186185E-2
1.054843188E0,4.644321278E-2,6.859143730E-3,8.096582443E-2
1.074843188E0,8.639379404E-3,1.480562836E-1,1.403942853E-1
1.094843188E0,9.587093443E-2,5.530250072E-1,2.545562685E-1
1.114843188E0,6.012659147E-2,6.135879755E-1,3.182607889E-1
1.134843188E0,-1.326450263E-3,5.505117774E-1,2.676287889E-1
1.154843188E0,6.443755329E-2,3.416831195E-1,3.364471197E-1
1.174843188E0,4.441688359E-1,-3.176848292E-1,3.814417124E-1
1.194843188E0,6.497162580E-1,-1.174746156E0,3.621907234E-1
1.214843188E0,4.702789783E-1,-1.157397628E0,2.250951082E-1
1.234843188E0,1.175304726E-1,-5.081176758E-1,1.158374995E-1
1.254843188E0,-1.796292812E-1,2.110103071E-1,1.295034289E-1
1.274843188E0,-1.711120754E-1,5.521523356E-1,1.010720134E-1
1.294843188E0,-1.626646891E-2,4.202578366E-1,1.398008689E-2
1.314843188E0,2.412045002E-2,2.668608353E-2,-8.948303014E-2
1.334843188E0,-5.759586347E-4,-2.809980214E-1,-2.103121728E-1
1.354843188E0,-2.167698927E-2,-2.828829587E-1,-2.846980989E-1
1.374843188E0,-3.398156166E-2,-1.540253013E-1,-2.616423070E-1
1.394843188E0,-9.258971363E-2,-4.623377323E-2,-1.997354776E-1
1.414843188E0,-1.119454205E-1,-1.858775690E-2,-1.769589335E-1
1.434843188E0,-9.164723754E-2,-5.963790044E-2,-1.804321408E-1
1.454843188E0,-8.285077661E-2,-1.442165524E-1,-1.996307522E-1
1.474844750E0,-1.156629696E-1,-2.117084414E-1,-2.416757345E-1
1.496843188E0,-1.257858723E-1,-2.588148713E-1,-3.039316237E-1
1.516843188E0,-8.630653471E-2,-2.682571113E-1,-3.829950392E-1
1.536843188E0,-7.976154983E-2,-2.245715111E-1,-4.595626295E-1
1.556843188E0,-1.170243248E-1,-1.335351467E-1,-5.073148608E-1
1.576843188E0,-1.849699914E-1,-4.977678880E-2,-5.349259377E-1
1.596843188E0,-2.763728797E-1,-6.129596382E-2,-5.316796303E-1
1.616843188E0,-3.316474557E-1,-5.796238407E-2,-5.342801809E-1
1.636843188E0,-3.401472270E-1,-3.263765574E-2,-6.187192202E-1
1.656843188E0,-3.401297629E-1,-6.579891592E-2,-6.554583907E-1
1.676844750E0,-3.132167757E-1,-1.631184667E-1,-6.080378294E-1
1.698843188E0,-2.152165473E-1,-3.058514893E-1,-5.674065351E-1
1.718843188E0,-1.447227001E-1,-3.053104579E-1,-5.615596771E-1
1.738843188E0,-1.568527371E-1,-2.541722953E-1,-5.812644362E-1
1.758843188E0,-1.725083441E-1,-2.679080367E-1,-5.801299810E-1
1.778843188E0,-1.516865641E-1,-2.598795295E-1,-6.015451550E-1
1.800843188E0,-1.082278639E-1,-2.517637312E-1,-6.153332591E-1
1.822843188E0,-6.475171447E-2,-2.895501256E-1,-6.073222160E-1
1.842843188E0,-7.405432314E-2,-2.832145691E-1,-6.515663266E-1
1.862843188E0,-7.679449022E-2,-2.366666496E-1,-6.572211981E-1
1.882843188E0,-7.541567832E-2,-1.588947773E-1,-6.191206574E-1
1.902843188E0,-4.771730304E-2,-1.237962022E-1,-6.215292215E-1
1.922843188E0,-4.129448906E-2,-1.806415766E-1,-6.174276471E-1
1.942843188E0,-1.258382387E-2,-2.082177848E-1,-5.921204090E-1
1.962843188E0,1.310742274E-2,-2.009746581E-1,-5.464974642E-1
1.982843188E0,1.727875904E-3,-1.535540670E-1,-5.178741217E-1
2.002843188E0,-2.487094142E-2,-6.969099492E-2,-5.264261961E-1
2.022843188E0,-1.206022501E-2,-1.062905509E-2,-5.555033684E-1
2.042843188E0,3.214896470E-2,9.250245057E-4,-5.197241306E-1
2.062843188E0,4.939281940E-2,-5.075417459E-2,-5.136504173E-1
2.082843188E0,5.934119597E-2,-1.431344450E-1,-5.134584308E-1
2.104843188E0,5.187118426E-2,-1.059414819E-1,-4.662821591E-1
2.124843188E0,4.359832406E-2,-1.279326342E-2,-3.923325539E-1
2.144851000E0,2.368411794E-2,2.485348843E-2,-3.405312002E-1
2.166843188E0,-2.661627159E-2,-4.679227620E-2,-3.208962381E-1
2.186843188E0,-9.524261951E-2,-7.895869762E-2,-2.894802988E-1
2.206843188E0,-1.175828278E-1,-7.016223669E-2,-2.382025421E-1
2.226846313E0,-9.389871731E-3,-1.483529806E-3,-2.173982114E-1
2.248843188E0,1.130100712E-1,5.695009232E-2,-2.029643357E-1
2.268843188E0,2.021091282E-1,4.413937777E-2,-2.100503743E-1
2.288843188E0,2.312037647E-1,1.980948634E-2,-2.229134440E-1
2.308843188E0,2.143962383E-1,2.462659590E-2,-2.295980603E-1
2.328843188E0,1.329068244E-1,-2.520255372E-2,-2.792003155E-1
2.348843188E0,2.853613347E-2,-1.115439907E-1,-3.298323154E-1
2.370843188E0,-3.733259439E-2,-1.658237278E-1,-3.527659476E-1
2.390843188E0,-1.242499873E-1,-1.805717647E-1,-3.504970074E-1
2.410843188E0,-2.747148275E-1,-1.836435497E-1,-3.655242920E-1
2.430861938E0,-3.755773902E-1,-1.305855364E-1,-3.755250275E-1
2.452843188E0,-3.135483861E-1,-4.743804783E-2,-3.524168730E-1
2.472843188E0,-1.547059864E-1,-6.925466657E-2,-3.137403727E-1
2.492843188E0,1.010545623E-2,-1.323308647E-1,-2.867401540E-1
2.512843188E0,7.719591260E-2,-1.906946748E-1,-2.900213599E-1
2.532843188E0,4.743804783E-2,-2.459692508E-1,-3.251199424E-1
2.552844750E0,-5.408775434E-2,-2.357939780E-1,-3.465176821E-1
2.574843188E0,-1.528384835E-1,-1.496270746E-1,-3.778463304E-1
2.594843188E0,-1.513724029E-1,-7.433357090E-2,-4.066093564E-1
2.614843188E0,-5.443681777E-2,-5.422737822E-2,-3.941127956E-1
2.634843188E0,2.122320421E-2,-1.312138587E-1,-3.517885506E-1
2.654843188E0,2.284635976E-2,-1.971174777E-1,-3.367787302E-1
2.674843188E0,-1.441641990E-2,-1.428028345E-1,-3.359235227E-1
2.694843188E0,-4.314453900E-2,-9.384635091E-2,-3.091152608E-1
2.714843188E0,-2.708750963E-2,-1.140223593E-1,-2.762507200E-1
2.734843188E0,8.901178837E-3,-1.510931551E-1,-2.792003155E-1
2.754843188E0,4.806636646E-2,-1.484227926E-1,-2.682745457E-1
2.774843188E0,1.129402518E-1,-1.190140024E-1,-2.454980165E-1
2.794843188E0,1.502030343E-1,-1.814444214E-1,-2.554813027E-1
2.814843188E0,-4.703662172E-2,-4.287750423E-1,-3.180688024E-1
2.834843188E0,-2.256885320E-1,-2.915397882E-1,-3.695211112E-1
2.854843188E0,-2.569997311E-1,-1.919862116E-4,-3.987204731E-1
2.874843188E0,-2.023534775E-1,5.838126317E-2,-3.277902901E-1
2.894843188E0,-6.504841894E-2,1.247910410E-1,-2.430371046E-1
2.914843188E0,1.987057328E-1,1.372177899E-1,-2.034006715E-1
2.934843188E0,4.058065116E-1,2.171189524E-2,-1.812349856E-1
2.954843188E0,4.887619913E-1,-5.862560868E-2,-2.066644430E-1
2.974843188E0,4.479213059E-1,-7.302457839E-2,-2.870717645E-1
2.994843188E0,2.833018303E-1,-7.948229462E-2,-3.580193818E-1
3.014843188E0,6.822492182E-2,-6.773623079E-2,-4.145157039E-1
3.034843188E0,-7.990117371E-2,-7.550293952E-2,-4.608541727E-1
3.054843188E0,-1.326450258E-1,-8.847074211E-2,-4.649906158E-1
3.074843188E0,-1.123817489E-1,-8.758062124E-2,-4.242546260E-1
3.094843188E0,-6.415830553E-2,-7.799876481E-2,-4.116010070E-1
3.114843188E0,-2.967059799E-2,-5.602506921E-2,-4.357388914E-1
3.134843188E0,2.164208330E-3,-9.150761366E-2,-4.503647685E-1
3.154843188E0,1.815142483E-2,-1.564513147E-1,-4.507487416E-1
3.174843188E0,4.431391135E-2,-1.798736304E-1,-4.503298402E-1
3.194843188E0,5.126031861E-2,-2.111324817E-1,-4.524067938E-1
3.214843188E0,1.481784508E-2,-2.565633953E-1,-4.592833817E-1
3.234843188E0,-4.623377323E-2,-2.920110226E-1,-4.841717780E-1
3.254843188E0,-8.653342724E-2,-3.364471197E-1,-4.894426763E-1
3.274843188E0,-1.144936010E-1,-3.555235565E-1,-4.971221387E-1
3.294843188E0,-1.202880889E-1,-3.629935682E-1,-5.038416386E-1
3.314843188E0,-1.500459611E-1,-4.116010070E-1,-4.882034957E-1
3.334843188E0,-2.215346396E-1,-4.940852523E-1,-4.725653529E-1
3.354843188E0,-2.446078956E-1,-4.978202581E-1,-4.383045435E-1
3.374843188E0,-2.506991029E-1,-4.237135947E-1,-4.212875664E-1
3.394843188E0,-2.101201862E-1,-3.334451616E-1,-4.274311364E-1
3.414843188E0,-1.399579495E-1,-2.769837379E-1,-4.534714520E-1
3.434843188E0,-4.035201296E-2,-2.907544076E-1,-4.508360028E-1
3.454843188E0,4.714134336E-2,-3.083473146E-1,-4.327020347E-1
3.474843188E0,6.606071442E-2,-2.977880836E-1,-4.049862027E-1
3.494843188E0,2.637192421E-2,-2.383770645E-1,-4.140619040E-1
3.514843188E0,-1.839577034E-2,-1.797689050E-1,-3.985633850E-1
3.534843188E0,-3.071779385E-3,-1.723687202E-1,-3.750014305E-1
3.554843188E0,1.324704941E-2,-1.965938807E-1,-3.543891013E-1
3.574843188E0,1.682497375E-2,-1.931381375E-1,-3.403741121E-1
3.594843188E0,1.628392190E-2,-1.877799779E-1,-3.212802112E-1
3.614843188E0,8.464846760E-3,-1.784250140E-1,-3.105813265E-1
3.634844750E0,-1.022762898E-2,-1.680228412E-1,-3.352777362E-1
3.656843188E0,-3.635520861E-2,-1.406037211E-1,-3.395189047E-1
3.676843188E0,-3.186971322E-2,-1.170243248E-1,-3.071953952E-1
3.696843188E0,-1.942551509E-2,-1.462934911E-1,-2.908067703E-1
3.716843188E0,-6.173229590E-2,-1.816364080E-1,-2.901609838E-1
3.736843188E0,-1.244943365E-1,-1.828057915E-1,-2.698453665E-1
3.756843188E0,-1.142318025E-1,-1.613556892E-1,-2.304009199E-1
3.776843188E0,-3.490658477E-2,-2.128254473E-1,-2.496518940E-1
3.796843188E0,-2.111848444E-3,-2.738246918E-1,-3.075619340E-1
3.816843188E0,-8.377579972E-3,-2.902133465E-1,-3.682819307E-1
3.836843188E0,5.235987919E-5,-3.305828273E-1,-4.495618939E-1
3.856843188E0,1.050164625E-1,-3.697654605E-1,-5.100375414E-1
3.876843188E0,2.369109988E-1,-3.242298067E-1,-5.263389349E-1
3.896843188E0,2.586752474E-1,-2.942450643E-1,-5.906194448E-1
3.918841625E0,1.736777127E-1,-2.891486883E-1,-6.715503335E-1
3.938841625E0,1.140223593E-1,-2.667386830E-1,-6.906791329E-1
3.958841625E0,3.906046972E-2,-2.229832709E-1,-6.603627801E-1
3.978843188E0,-2.967059799E-2,-2.272767723E-1,-6.160139441E-1
4.000841625E0,-5.806710571E-2,-2.549751401E-1,-5.906543136E-1
4.020841625E0,-9.354964644E-2,-2.782927454E-1,-5.536882281E-1
4.040841625E0,-1.365371048E-1,-2.343104482E-1,-4.733332992E-1
4.060841625E0,-1.233075112E-1,-1.422792375E-1,-3.957534134E-1
4.080841625E0,-7.574728876E-2,-7.733553648E-2,-3.237585723E-1
4.100841625E0,-5.297074094E-2,-6.305874884E-2,-2.739119828E-1
4.120841625E0,-2.881538495E-2,-5.457644537E-2,-2.376265824E-1
4.140841625E0,-4.014257283E-4,-3.487167880E-2,-1.635548025E-1
4.160841625E0,-3.089232743E-2,-6.841690745E-3,-1.193281636E-1
4.180841625E0,-1.048768312E-1,5.689773336E-2,-7.347836345E-2
4.200841625E0,-1.865931451E-1,9.190903604E-2,-7.332128286E-2
4.220841625E0,-2.226341963E-1,6.796312332E-2,-5.401793867E-2
4.240841625E0,-1.909041107E-1,6.663667411E-2,4.188790335E-4
4.260841625E0,-1.311789453E-1,6.539748609E-2,6.529276818E-2
4.280841625E0,-1.111774743E-1,7.278022915E-2,1.306902468E-1
4.300841625E0,-1.247910410E-1,1.174257547E-1,1.870120317E-1
4.320841625E0,-1.374272257E-1,1.784075499E-1,2.106437832E-1
4.340841625E0,-1.399405003E-1,3.044552207E-1,2.178869098E-1
4.360841625E0,-1.195201501E-1,4.144458771E-1,3.066717982E-1
4.380843188E0,-8.531169593E-2,4.112344682E-1,4.842590392E-1
4.402841625E0,-1.528035700E-1,3.760311902E-1,6.482152939E-1
4.422841625E0,-3.178942800E-1,3.423987031E-1,7.869689465E-1
4.442841625E0,-5.132489800E-1,4.125260115E-1,9.279043078E-1
4.462843188E0,-6.161884665E-1,4.538728595E-1,1.005327106E0
4.484843188E0,-5.842664242E-1,4.052305520E-1,1.002918601E0
4.504843188E0,-4.619188309E-1,3.679328561E-1,9.114981890E-1
4.526843188E0,-3.115063608E-1,3.974812925E-1,7.755544782E-1
4.546843188E0,-2.140122652E-1,3.763453364E-1,6.873455644E-1
4.566843188E0,-1.317374557E-1,3.449643254E-1,5.727996230E-1
4.588841625E0,-1.147728488E-1,2.733534575E-1,4.243069887E-1
4.608841625E0,-1.726479679E-1,2.333330661E-1,2.696010172E-1
4.628841625E0,-2.774550021E-1,2.162462920E-1,1.143016145E-1
4.648841625E0,-3.608817160E-1,2.556034625E-1,-7.557275705E-3
4.668843188E0,-3.765373230E-1,2.734407187E-1,-7.649777830E-2
4.690841625E0,-3.636218905E-1,2.237686664E-1,-1.399928629E-1
4.710841625E0,-3.244392574E-1,1.727352291E-1,-1.809382886E-1
4.730861938E0,-2.366317362E-1,9.841911495E-2,-1.433962435E-1
4.752841625E0,-1.449321359E-1,6.604325771E-2,2.844886621E-3
4.772841625E0,-1.764527857E-1,7.993607968E-2,1.511106044E-1
4.792841625E0,-3.049788177E-1,8.740609139E-2,1.957561225E-1
4.812841625E0,-5.276130438E-1,4.415683076E-2,1.338492930E-1
4.832841625E0,-6.584952474E-1,1.380555425E-2,7.485716790E-2
4.852841625E0,-5.494819880E-1,3.956661373E-2,1.795769334E-1
4.872841625E0,-2.813994288E-1,-1.174606569E-2,3.749490678E-1
4.892841625E0,-1.036551073E-1,-1.447925121E-1,4.237484932E-1
4.912841625E0,1.018748656E-1,-6.209881604E-2,3.324154019E-1
4.932841625E0,3.893829584E-1,4.869468510E-3,3.303210139E-1
4.952841625E0,4.649208188E-1,-9.644689411E-2,4.163308442E-1
4.972841625E0,2.705260217E-1,-2.470338941E-1,4.706978500E-1
4.992841625E0,7.424630970E-2,-2.133490443E-1,4.168893397E-1
5.012841625E0,-3.975860029E-2,-1.087165624E-1,3.524866998E-1
5.032841625E0,-9.327039123E-2,-5.134758726E-2,2.563190460E-1
5.052841625E0,-8.609709144E-2,4.228932783E-2,1.868374944E-1
5.072841625E0,-2.933898382E-2,1.668360233E-1,1.708328277E-1
5.092841625E0,3.590142354E-2,2.454456538E-1,1.988977194E-1
5.112841625E0,4.862487316E-2,2.517462969E-1,2.348165959E-1
5.132841625E0,4.368559271E-2,2.901260853E-1,2.696184516E-1
5.152841625E0,6.513568759E-2,3.399901390E-1,2.920633852E-1
5.172841625E0,5.550146848E-2,2.962696254E-1,3.138800263E-1
5.192841625E0,-1.989675313E-2,2.058441341E-1,3.189240098E-1
5.212841625E0,-1.049990058E-1,1.770811081E-1,2.990446985E-1
5.232841625E0,-9.974556416E-2,2.024756521E-1,2.867401540E-1
5.252841625E0,1.288053021E-2,2.351831198E-1,2.707529366E-1
5.272841625E0,1.333082467E-1,2.072054893E-1,2.361605018E-1
5.292841625E0,1.652477682E-1,1.049466506E-1,1.635897160E-1
5.312841625E0,1.228886321E-1,4.803146049E-2,9.257226437E-2
5.332841625E0,7.747516781E-2,6.983062625E-2,2.261946723E-2
5.352843188E0,4.056145251E-2,1.995609403E-1,4.345869645E-3
5.374841625E0,-3.160791099E-2,2.084272206E-1,6.405358203E-3
5.394843188E0,-1.642354764E-2,-3.991568089E-2,-8.667305112E-2
5.416841625E0,1.562418789E-1,-2.423738688E-1,-2.537708580E-1
5.436841625E0,3.355046511E-1,-1.700648814E-1,-3.457846344E-1
5.456843188E0,4.711516201E-1,1.370083448E-2,-3.465874791E-1
5.478843188E0,4.316897392E-1,1.333606094E-1,-2.899515331E-1
5.500841625E0,-1.070759520E-1,-3.736750036E-2,-4.555309415E-1
5.520841625E0,-6.626316905E-1,-1.710597128E-1,-7.196865082E-1
5.540841625E0,-6.532243490E-1,-6.679374725E-2,-6.779906154E-1
5.560841625E0,-1.699776202E-1,-3.455751762E-2,-4.076740146E-1
5.580843188E0,3.526088595E-1,-1.634675413E-1,-1.947263777E-1
5.602841625E0,4.518831968E-1,-3.470238149E-1,-2.231403440E-1
5.622841625E0,2.017775178E-1,-4.037120938E-1,-3.695560098E-1
5.642841625E0,-4.546582699E-2,-3.120299578E-1,-5.348736048E-1
5.662841625E0,-1.572890729E-1,-1.368861794E-1,-5.875127316E-1
5.682841625E0,-1.641831249E-1,-5.328490213E-2,-5.854183435E-1
5.702841625E0,-9.505063295E-2,-9.950122237E-2,-5.826083422E-1
5.722841625E0,-1.933824830E-2,-1.748121828E-1,-5.871112943E-1
5.742841625E0,-7.487462368E-3,-1.898394674E-1,-5.871985555E-1
5.762841625E0,-7.110471278E-2,-1.739220619E-1,-5.899561644E-1
5.782841625E0,-1.196772233E-1,-1.245816052E-1,-5.523967147E-1
5.802841625E0,-1.205149814E-1,-9.902998060E-2,-4.740139842E-1
5.822841625E0,-5.923647434E-2,-1.202182770E-1,-3.914424479E-1
5.842841625E0,1.994911395E-2,-1.720021963E-1,-2.876127958E-1
5.862841625E0,7.061602175E-2,-1.541474760E-1,-1.760513633E-1
5.882841625E0,1.993165910E-2,-8.887216449E-2,-9.695304185E-2
5.902841625E0,-8.234463632E-2,-5.604252219E-2,-3.668681905E-2
5.922841625E0,-1.655444801E-1,-1.834340952E-2,8.449138701E-2
5.942841625E0,-1.993166059E-1,5.052728206E-2,2.509608865E-1
5.962841625E0,3.560471535E-2,-2.550275028E-1,3.712664247E-1
5.982841625E0,6.600835323E-1,-8.726297021E-1,6.616194248E-1
6.002841625E0,1.082889557E0,-9.463698864E-1,1.205533862E0
6.022841625E0,1.046935797E0,-2.268579006E-1,1.590693116E0
6.042841625E0,6.732432842E-1,6.823713779E-1,1.836819410E0
6.062841625E0,4.125434756E-1,1.114305496E0,2.211192608E0
6.082841625E0,5.088682175E-1,1.104601383E0,2.628640413E0
6.102841625E0,5.829399824E-1,8.457865715E-1,2.902848959E0
6.122841625E0,3.350159526E-1,4.522148073E-1,3.123493671E0
6.142841625E0,-2.669655681E-1,-1.261000335E-1,3.152186871E0
6.162841625E0,-1.073918581E0,-4.059112370E-1,2.927981853E0
6.182843188E0,-1.198709607E0,1.895078421E-1,2.833349943E0
6.204841625E0,-9.035569429E-1,1.204207420E0,3.047990561E0
6.224849438E0,-8.724028468E-1,1.704872489E0,3.256121159E0
6.246843188E0,-9.240296483E-1,1.724210739E0,3.221982479E0
6.268843188E0,-4.808556736E-1,1.194067001E0,3.119514227E0
6.290841625E0,5.204571784E-2,5.295154452E-1,3.115185738E0
6.310841625E0,2.785370946E-1,2.069087774E-1,3.134506702E0
6.330860375E0,2.860769033E-1,1.678483188E-1,3.166097164E0
6.352841625E0,2.537010610E-1,1.524195969E-1,3.235421658E0
6.372843188E0,3.140719831E-1,3.715806082E-2,3.281498194E0
6.394843188E0,3.097435832E-1,-1.404640973E-1,3.187285423E0
6.414843188E0,2.329490930E-1,-2.524095178E-1,3.155677557E0
6.434843188E0,3.185575008E-1,-4.566653967E-1,3.396847010E0
6.456843188E0,7.043276429E-1,-7.655712366E-1,3.780644894E0
6.478843188E0,9.654288888E-1,-8.713556528E-1,3.540138483E0
6.500841625E0,8.478809595E-1,-3.542843759E-1,2.850122690E0
6.520841625E0,5.555557609E-1,2.736676335E-1,2.561061144E0
6.540841625E0,1.333780587E-1,5.681744814E-1,2.430842161E0
6.560841625E0,-1.616524011E-1,6.297497153E-1,2.056661129E0
6.580843188E0,-4.516912252E-2,4.356167316E-1,1.726863623E0
6.602841625E0,4.421617091E-1,8.820894361E-2,1.860660553E0
6.622841625E0,7.876321673E-1,-2.600540640E-3,2.160368443E0
6.642841625E0,9.625665545E-1,1.299572140E-1,2.349911213E0
6.662843188E0,1.144796371E0,3.805690408E-1,2.483341694E0
6.682844750E0,1.324059129E0,7.285876870E-1,2.662726641E0
6.704844750E0,1.295296073E0,1.165234208E0,2.929360628E0
6.726841625E0,9.214465618E-1,1.551213741E0,3.069109201E0
6.746843188E0,3.189589083E-1,1.416596532E0,2.889305353E0
6.766843188E0,-1.203055456E-1,1.182146430E0,2.617644787E0
6.788841625E0,-1.928239763E-1,1.207785249E0,2.573924303E0
6.808841625E0,9.599310905E-2,1.423246145E0,2.727111816E0
6.828841625E0,3.785619140E-1,1.483407736E0,2.876110554E0
6.848843188E0,5.013632774E-1,1.287285089E0,2.911418676E0
6.868843188E0,3.232349753E-1,8.779355288E-1,2.684717894E0
6.890841625E0,-1.881290376E-1,4.747993648E-1,2.070763350E0
6.910841625E0,-6.811845303E-1,4.068537056E-1,1.473424435E0
6.930865063E0,-1.031227827E0,5.908288360E-1,1.175514102E0
6.952841625E0,-1.059781313E0,9.247627258E-1,1.116836190E0
6.972841625E0,-8.370773792E-1,1.064388990E0,1.144744039E0
6.992841625E0,-5.052902699E-1,9.092118144E-1,1.234331727E0
7.012841625E0,-2.525142431E-1,5.063898563E-1,1.288000584E0
7.032841625E0,-1.870992929E-1,4.380776547E-3,1.271995902E0
7.052841625E0,-2.875778973E-1,-3.197617829E-1,1.193368912E0
7.072841625E0,-4.026998281E-1,-4.265933633E-1,1.110744953E0
7.092841625E0,-4.596149921E-1,-3.619987369E-1,1.095002174E0
7.112843188E0,-4.391073883E-1,-2.647664547E-1,1.097986579E0
7.134841625E0,-2.854486108E-1,-7.937757671E-2,1.102437258E0
7.154843188E0,-8.388052136E-2,1.161342114E-1,1.119524002E0
7.176843188E0,-5.763076991E-2,4.613777995E-1,1.074878454E0
7.198841625E0,-2.119178772E-1,6.540272236E-1,9.731606841E-1
7.218841625E0,-2.575407922E-1,5.913349986E-1,9.009563923E-1
7.238841625E0,-2.556732893E-1,5.246983171E-1,8.193797469E-1
7.258841625E0,-3.705334067E-1,6.448642612E-1,8.020311594E-1
7.278841625E0,-4.913625419E-1,6.669077873E-1,7.601956129E-1
7.298841625E0,-4.876973629E-1,5.829399824E-1,7.404559255E-1
7.318841625E0,-4.612381458E-1,3.917915225E-1,7.716449499E-1
7.338841625E0,-4.334874153E-1,1.679704934E-1,7.992560863E-1
7.358841625E0,-1.584409922E-1,3.824016452E-2,8.931547999E-1
7.378843188E0,3.179989755E-1,-6.326818466E-2,1.106346726E0
7.398843188E0,4.469613731E-1,4.016875327E-1,1.190070152E0
7.420841625E0,3.878121674E-1,8.281412721E-1,1.158462286E0
7.440841625E0,6.589141488E-1,6.369928122E-1,1.020092607E0
7.460841625E0,1.063621044E0,7.211526036E-1,9.955707192E-1
7.480841625E0,1.211956620E0,1.136890054E0,1.186317682E0
7.500841625E0,9.020559788E-1,1.296256065E0,6.004106998E-1
7.520841625E0,1.838006228E-1,5.010142326E-1,-2.009921223E-1
7.540841625E0,-6.170088053E-1,-8.942717910E-1,-4.904026091E-1
7.560841625E0,-5.217836499E-1,-9.585697055E-1,-1.900663599E-2
7.580843188E0,2.286730409E-1,-3.433935344E-1,9.537002444E-1
7.602841625E0,5.206840634E-1,1.802750528E-1,1.115108252E0
7.622841625E0,7.686430216E-2,3.565707505E-1,4.142538905E-1
7.642841625E0,-3.271445036E-1,4.298047721E-1,-1.917942315E-1
7.662841625E0,-3.325026631E-1,3.436727822E-1,-2.066295296E-1
7.682843188E0,1.220857799E-1,1.494001895E-1,1.452288479E-1
7.704841625E0,5.091649294E-1,-3.333579004E-2,2.085144818E-1
7.724843188E0,6.888116598E-1,2.801602483E-1,-3.250501156E-1
7.746843188E0,8.909032941E-1,-3.279648125E-1,-7.357784510E-1
7.768843188E0,9.720960259E-1,-1.347603559E0,-8.796284795E-1
7.790841625E0,4.051607251E-1,-3.919835091E-1,-6.744824648E-1
7.810846313E0,-2.974041104E-1,1.589069963E0,-6.767514348E-1
7.830860375E0,5.036671162E-1,-2.565808594E-1,-4.611334503E-1
7.852841625E0,1.227891445E0,-2.439376831E0,-5.501277745E-2
7.872841625E0,1.440524936E0,-2.643597841E0,-2.996730208E-1
7.892843188E0,1.169998884E0,-1.635547996E0,-7.715402246E-1
7.914843188E0,3.071953952E-1,7.637735605E-1,-1.349540949E0
7.934843188E0,-1.619665511E-2,1.622458100E-1,-1.441031098E0
7.954843188E0,-3.946887553E-1,-3.477045000E-1,-1.048838139E0
7.974843188E0,-2.793399394E-1,-4.936314821E-1,-6.442883015E-1
7.994843188E0,4.733332992E-1,-8.053821921E-1,-3.937637210E-1
8.014843188E0,8.415454030E-1,-4.445528090E-1,-1.136209350E-2
8.036841625E0,5.482253432E-1,7.731285095E-1,-2.911907434E-1
8.056841625E0,-1.621759981E-1,1.515609026E0,-8.637809157E-1
8.076841625E0,-1.251034498E0,-1.700683713E0,-1.105578780E0
8.096843188E0,-1.297181010E0,-2.795074940E0,-1.261122584E0
8.118841625E0,-1.084739566E0,-2.457667828E0,-1.565665007E0
8.138841625E0,-8.975530267E-1,-2.184000254E0,-1.783098221E0
8.158841625E0,-8.021707535E-1,-6.685134768E-1,-1.577969670E0
8.178841625E0,-4.234692454E-1,-2.146754973E-2,-7.714006305E-1
8.198841625E0,1.296779606E-2,5.972516537E-1,-5.131267942E-3
8.218841625E0,2.964092791E-1,8.765566945E-1,1.925447285E-1
8.238841625E0,3.918787837E-1,6.266255379E-1,2.804394960E-1
8.258841625E0,2.719048560E-1,2.208016068E-1,3.091327250E-1
8.278841625E0,1.346347034E-1,-6.850416958E-2,4.784471095E-1
8.298841625E0,1.389107555E-1,-1.512327790E-1,7.385011911E-1
8.318841625E0,1.768367589E-1,2.310816012E-2,9.083216786E-1
8.338841625E0,2.022662014E-1,3.401472270E-1,1.037894964E0
8.358843188E0,2.892359495E-1,5.678777695E-1,1.107289195E0
8.378843188E0,4.385488927E-1,6.109175682E-1,1.102506995E0
8.400841625E0,4.365243018E-1,4.797037542E-1,1.095787525E0
8.420841625E0,3.085218370E-1,4.308694303E-1,1.054772258E0
8.440841625E0,1.931730360E-1,5.848773122E-1,1.073988318E0
8.460841625E0,2.276607454E-1,7.997447848E-1,1.229130626E0
8.480841625E0,2.585007250E-1,9.138194919E-1,1.345526695E0
8.500841625E0,2.077814490E-1,9.744521976E-1,1.359925628E0
8.520843188E0,7.211700082E-2,9.232617021E-1,1.385808825E0
8.542843188E0,-5.040510744E-2,6.650402546E-1,1.376384139E0
8.564843188E0,-2.025629133E-1,4.770683050E-1,1.354183555E0
8.584843188E0,-6.723008156E-1,8.333947062E-1,1.512135863E0
8.604843188E0,-1.281682491E0,1.318002820E0,1.922619820E0
8.624849438E0,-1.149543643E0,8.213170171E-1,2.003096819E0
8.646843188E0,-4.629660249E-1,-2.158623189E-1,1.576416254E0
8.666843188E0,-1.442514658E-1,-2.510656118E-1,1.099784374E0
8.688841625E0,-1.181936935E-1,4.682718217E-1,7.899709344E-1
8.708841625E0,-1.485275179E-1,1.281525493E0,7.972489595E-1
8.728841625E0,1.308996975E-2,1.628531814E0,9.685879350E-1
8.748841625E0,2.247460485E-1,1.214173198E0,1.032641530E0
8.768841625E0,1.658237278E-1,2.722364664E-1,8.780227900E-1
8.788841625E0,-8.032005280E-2,-3.750537932E-1,6.588268876E-1
8.808841625E0,-1.977283508E-1,-5.275955796E-1,5.309291482E-1
8.828841625E0,-1.297826767E-1,-2.716430426E-1,5.161636472E-1
8.848841625E0,-2.169444226E-2,3.750712425E-2,5.112767220E-1
8.868841625E0,-1.588249579E-2,2.068738788E-1,4.471882582E-1
8.888841625E0,-1.252273768E-1,3.143337965E-1,3.186622262E-1
8.908841625E0,-2.731265724E-1,3.642327487E-1,2.514844835E-1
8.928841625E0,-3.243170679E-1,3.287676573E-1,2.393719107E-1
8.948843188E0,-3.116808832E-1,2.363524884E-1,1.379682720E-1
8.970841625E0,-3.190636337E-1,1.320865154E-1,-4.223696887E-2
8.990843188E0,-2.426880300E-1,6.276203692E-2,-1.761386245E-1
9.010843188E0,-8.127998561E-2,1.710422710E-2,-1.935570091E-1
9.030860375E0,5.202826485E-2,-1.276533753E-1,-2.018647790E-1
9.052841625E0,1.244768798E-1,-4.120024145E-1,-3.083647788E-1
9.072841625E0,1.745678335E-1,-5.770581961E-1,-4.203974605E-1
9.092841625E0,2.350958437E-1,-6.851289868E-1,-4.517610073E-1
9.112843188E0,2.659881711E-1,-7.956258059E-1,-4.939805269E-1
9.132843188E0,2.776993215E-1,-9.462826252E-1,-5.985432267E-1
9.152843188E0,2.801951468E-1,-1.021855354E0,-7.055842280E-1
9.172843188E0,2.847853601E-1,-9.819920659E-1,-7.747516632E-1
9.192843188E0,2.419026345E-1,-8.636412621E-1,-7.590087652E-1
9.214843188E0,1.083674952E-1,-5.385388136E-1,-6.813765168E-1
9.234843188E0,-1.665567756E-1,1.619665511E-2,-5.700594187E-1
9.254843188E0,-3.615275025E-1,5.684711933E-1,-3.317172825E-1
9.274843188E0,-1.092925146E-1,5.403364897E-1,-1.349488646E-1
9.294849438E0,4.489336014E-1,5.281366408E-2,-9.541714936E-2
9.316843188E0,7.282211781E-1,3.244566917E-2,-1.169370562E-1
9.336843188E0,5.801474452E-1,4.142364562E-1,1.726130582E-2
9.356843188E0,3.180862665E-1,6.258052588E-1,2.692519426E-1
9.376843188E0,2.201383710E-1,3.869045973E-1,5.007873178E-1
9.396843188E0,2.639286816E-1,-1.039169058E-1,6.040933728E-1
9.416843188E0,3.495196402E-1,-5.139471292E-1,5.285380483E-1
9.436843188E0,4.190535545E-1,-5.603554249E-1,4.246909618E-1
9.456843188E0,4.354771078E-1,-2.454805523E-1,3.654195964E-1
9.476843188E0,3.711791635E-1,2.793748379E-1,3.776718080E-1
9.496843188E0,2.702293396E-1,6.164503098E-1,4.098556638E-1
9.516843188E0,1.074773744E-1,6.357710958E-1,4.502600431E-1
9.536843188E0,-9.728465229E-2,3.768340349E-1,4.842241406E-1
9.556843188E0,-3.311762214E-1,-3.330088034E-2,5.058138967E-1
9.576843188E0,-5.649456382E-1,-3.887197375E-1,4.809254706E-1
9.596843188E0,-7.313278317E-1,-4.485845268E-1,3.046472073E-1
9.616843188E0,-7.624645233E-1,-3.211056888E-1,2.207841426E-1
9.636843188E0,-6.806784272E-1,-1.778665036E-1,2.267706245E-1
9.656843188E0,-5.663768053E-1,6.141813472E-2,2.386912256E-1
9.676843188E0,-3.634997308E-1,1.669581980E-1,2.245540619E-1
9.698841625E0,-2.296853215E-1,2.345722467E-1,1.704139411E-1
9.718841625E0,-2.798810005E-1,2.038544565E-1,1.319119781E-1
9.738841625E0,-3.939382732E-1,9.920451790E-2,1.184904054E-1
9.758841625E0,-4.307298064E-1,9.190903604E-2,9.430013597E-2
9.778841625E0,-3.643200397E-1,1.065348983E-1,4.316199198E-2
9.798841625E0,-1.765051484E-1,1.149997413E-1,4.742059484E-2
9.818841625E0,-1.448623254E-3,9.862855822E-2,1.174432039E-1
9.838843188E0,1.336922199E-1,5.808455870E-2,1.489638537E-1
9.860841625E0,1.574985087E-1,2.652900526E-3,2.166477144E-1
9.880841625E0,-1.691223979E-1,1.607622802E-1,5.113814473E-1
9.900841625E0,-8.422784209E-1,3.846181929E-1,1.037982225E0
9.920841625E0,-1.327445030E0,5.620658398E-1,1.427417517E0
9.940841625E0,-1.313342810E0,5.069657564E-1,1.420261621E0
9.960841625E0,-9.117425680E-1,3.741985932E-2,1.164570928E0
9.980841625E0,-2.880840600E-1,-3.189763725E-1,9.850289226E-1
1.000084163E1,1.961226463E-1,-3.490833044E-1,9.540144205E-1
1.002084163E1,3.916518688E-1,-1.695063710E-1,9.859713912E-1
1.004084162E1,4.301189482E-1,-6.321582198E-2,1.003145456E0
1.006084162E1,3.564136922E-1,-4.375540465E-2,9.704030752E-1
1.008084163E1,1.984788477E-1,1.288053021E-2,9.546776414E-1
1.010084163E1,4.450589418E-3,2.025978118E-1,9.849591255E-1
1.012084319E1,-1.163785532E-1,4.442910254E-1,1.104706168E0
1.014084319E1,-1.599768847E-1,6.075839996E-1,1.266498208E0
1.016084475E1,-2.219011635E-1,6.779906154E-1,1.445813298E0
1.018284475E1,-4.016351700E-1,7.326368690E-1,1.604498625E0
1.020485412E1,-8.364315629E-1,1.063848019E0,1.706094265E0
1.022684319E1,-1.258818746E0,1.295191407E0,1.758279562E0
1.024684319E1,-1.023775220E0,9.915913343E-1,1.639108539E0
1.026684319E1,-3.042283356E-1,1.984090358E-1,1.223842263E0
1.028684319E1,2.275560200E-1,-3.375641406E-1,8.099026084E-1
1.030684319E1,-1.589994878E-1,-2.276432961E-1,6.657209396E-1
1.032684319E1,-6.967877746E-1,1.607448235E-2,6.444278955E-1
1.034684319E1,-8.498706222E-1,3.446676135E-1,6.461383104E-1
1.036684319E1,-7.580139637E-1,7.134208083E-1,7.060205936E-1
1.038684319E1,-5.611408353E-1,8.557174802E-1,7.722209096E-1
1.040684319E1,-2.957634926E-1,6.879040599E-1,6.826331615E-1
1.042684319E1,-1.998401992E-2,4.928111732E-1,5.892231464E-1
1.044684788E1,5.379104614E-2,5.967455506E-1,5.256582499E-1
1.046884319E1,-2.711892724E-1,9.409593344E-1,2.913129032E-1
1.048884319E1,-6.443930268E-1,1.147745967E0,1.121374071E-1
1.050884319E1,-7.627263069E-1,1.142457604E0,2.177996337E-1
1.052884319E1,-7.566700578E-1,1.038523316E0,4.318991899E-1
1.054884319E1,-8.289790154E-1,1.020755768E0,4.756022096E-1
1.056884319E1,-9.385159016E-1,9.564229846E-1,3.272143304E-1
1.058884319E1,-9.490053058E-1,8.845677972E-1,1.677261442E-1
1.060884319E1,-8.332201838E-1,8.292408586E-1,5.082398653E-2
1.062884319E1,-7.245036364E-1,8.060279489E-1,6.761405617E-2
1.064884319E1,-6.023829579E-1,6.551442146E-1,1.372701526E-1
1.066885100E1,-4.080754220E-1,3.710570037E-1,1.000771821E-1
1.069084163E1,-1.734333634E-1,3.649483621E-2,-6.332054734E-2
1.071084162E1,-1.117010694E-2,-1.418603659E-1,-3.043505251E-1
1.073086194E1,8.625417203E-2,-3.283313513E-1,-5.263738632E-1
1.075284162E1,-2.167698927E-2,-5.246808529E-1,-7.565653324E-1
1.077284162E1,-2.926219106E-1,-5.381897092E-1,-8.904669881E-1
1.079284163E1,-5.515065789E-1,-3.960326612E-1,-1.030826330E0
1.081284162E1,-6.180559993E-1,-1.745678335E-1,-1.193491101E0
1.083284162E1,-3.773576319E-1,-9.644689411E-2,-1.253931761E0
1.085284162E1,7.401940972E-2,-1.240405515E-1,-1.251034498E0
1.087284163E1,2.847330272E-1,1.107411385E-1,-1.015048623E0
1.089284162E1,8.581783623E-2,4.193677008E-1,-6.367135644E-1
1.091284162E1,-1.938886195E-1,3.389953077E-1,-2.444508076E-1
1.093284162E1,-3.539876640E-1,-5.811946467E-3,-2.455678210E-2
1.095284163E1,-4.231899679E-1,-2.905100584E-1,7.471754402E-2
1.097284163E1,-4.579394758E-1,-2.317099124E-1,1.934173852E-1
1.099284162E1,-3.685437143E-1,-1.020319462E-1,2.896024883E-1
1.101284162E1,-1.366592795E-1,-8.319984376E-2,2.758667469E-1
1.103284163E1,1.549154222E-1,-1.688257009E-1,1.292765439E-1
1.105284163E1,4.610461593E-1,-3.733608425E-1,-1.152440906E-1
1.107284162E1,7.359006405E-1,-4.784296453E-1,-3.213674724E-1
1.109284162E1,9.412211776E-1,-2.630734742E-1,-3.936415613E-1
1.111284319E1,1.248713255E0,3.173008561E-2,-3.237760365E-1
1.113484319E1,1.618827820E0,-1.444434524E-1,-2.372600585E-1
1.115484319E1,1.602962732E0,-6.008121371E-1,-4.121071398E-1
1.117684319E1,9.719913006E-1,-8.739038110E-1,-7.579267025E-1
1.119884319E1,2.842966914E-1,-8.908160329E-1,-1.007299304E0
1.122084162E1,1.921607554E-1,-7.526034117E-1,-9.025446773E-1
1.124084162E1,3.124313951E-1,-5.422912240E-1,-5.528854132E-1
1.126084163E1,3.979176283E-1,-2.819928527E-1,-2.045176774E-1
1.128084162E1,3.480884731E-1,-2.984513063E-3,1.263618376E-2
1.130084319E1,1.554564834E-1,3.780383244E-2,1.452986598E-1
1.132284319E1,-9.608037770E-2,-2.137330174E-1,2.142740786E-1
1.134484162E1,-2.764776051E-1,-3.285931349E-1,3.323979676E-1
1.136484319E1,-3.459591568E-1,-7.141887397E-2,5.144881606E-1
1.138484788E1,-4.173082113E-1,5.754350424E-1,7.177317739E-1
1.140684162E1,-4.998797476E-1,1.376785517E0,9.441183805E-1
1.142684319E1,-4.042357206E-1,1.729586363E0,1.247247219E0
1.144884162E1,-4.451287687E-1,1.595457792E0,1.484699249E0
1.146884163E1,-8.677602410E-1,1.264089584E0,1.497806668E0
1.148884319E1,-1.257579565E0,8.488932252E-1,1.450944543E0
1.151084163E1,-1.248975039E0,3.297799528E-1,1.401551723E0
1.153086194E1,-1.021541238E0,-7.988371700E-2,1.222882390E0
1.155284475E1,-8.041430116E-1,-2.342231870E-1,8.652644157E-1
1.157484475E1,-4.957084060E-1,-2.086890191E-1,5.169839859E-1
1.159484475E1,-1.480039209E-1,-1.873436421E-1,3.666936755E-1
1.161684319E1,3.262020275E-2,-7.773696631E-2,2.643999159E-1
1.163684319E1,1.146681327E-2,-1.961750165E-2,1.807113886E-1
1.165684319E1,-8.548622578E-2,-2.957983911E-1,1.528559327E-1
1.167684319E1,-2.622008026E-1,-4.254938066E-1,1.345474273E-1
1.169884319E1,-4.770857394E-1,-1.755626649E-1,1.889842451E-1
1.172084162E1,-7.238927484E-1,9.094911069E-2,1.779188663E-1
1.174084163E1,-8.826304674E-1,-1.071632188E-2,4.118977115E-2
1.176084163E1,-9.302779436E-1,-3.384891450E-1,-1.214749180E-2
1.178084162E1,-9.135053158E-1,-7.302806377E-1,-2.567204833E-1
1.180084162E1,-8.565203547E-1,-8.471478820E-1,-4.489510357E-1
1.182084162E1,-7.698647380E-1,-6.454052925E-1,-4.819377661E-1
1.184084163E1,-7.007671595E-1,-1.608320922E-1,-3.427128494E-1
1.186084162E1,-5.843362212E-1,3.243345320E-1,-1.474279612E-1
1.188084319E1,-5.778959394E-1,6.860539913E-1,1.096939445E-1
1.190284162E1,-8.090124726E-1,9.840689898E-1,4.423362315E-1
1.192284162E1,-1.019394398E0,9.663713574E-1,6.358059645E-1
1.194284163E1,-1.100534797E0,9.724102020E-1,7.802145481E-1
1.196284163E1,-9.872455001E-1,1.221468687E0,9.362120628E-1
1.198284162E1,-6.898413897E-1,1.465238810E0,1.034194827E0
1.200284162E1,-4.258254170E-1,1.572087884E0,1.156402826E0
1.202284162E1,-4.318642616E-1,1.647765398E0,1.363032341E0
1.204284319E1,-5.187641978E-1,1.544214964E0,1.504787922E0
1.206484319E1,-4.405909181E-1,1.050199509E0,1.587830782E0
1.208484319E1,-2.842792273E-1,3.976383507E-1,1.494961739E0
1.210684319E1,-4.895648360E-2,-3.390651047E-1,1.075297356E0
1.212884319E1,2.998999357E-1,-7.293730974E-1,5.573011041E-1
1.214884319E1,5.862560868E-1,-7.803716063E-1,1.904852390E-1
1.216884319E1,7.831117511E-1,-5.718047619E-1,6.462953985E-2
1.219084163E1,9.684657454E-1,-3.898192942E-1,3.405137360E-2
1.221084162E1,9.575749040E-1,-3.807784915E-1,-5.148721393E-3
1.223086038E1,9.829345345E-1,-6.070953012E-1,-6.141813472E-2
1.225284162E1,1.166508198E0,-1.141637325E0,-1.513898522E-1
1.227284163E1,1.386157990E0,-1.449460983E0,-2.115164548E-1
1.229284163E1,1.423525453E0,-1.358948231E0,-2.865481675E-1
1.231284162E1,1.414519548E0,-1.207226753E0,-3.388033211E-1
1.233284162E1,1.368041396E0,-1.124515653E0,-3.852814436E-1
1.235284162E1,1.183560133E0,-1.140188694E0,-3.781255782E-1
1.237284163E1,1.035468936E0,-1.173541903E0,-4.166275561E-1
1.239284162E1,1.058821440E0,-1.171272993E0,-4.804193377E-1
1.241284162E1,1.030878663E0,-8.622100949E-1,-4.516213834E-1
1.243284162E1,7.467914820E-1,-3.976383507E-1,-1.820552945E-1
1.245284163E1,4.452858567E-1,-5.234940648E-1,1.055226028E-1
1.247284319E1,1.259778589E-1,-1.332820654E0,1.938537210E-1
1.249484319E1,-6.892654300E-1,-1.407468438E0,4.027696252E-1
1.251484788E1,-1.591338873E0,6.482152641E-2,5.874429345E-1
1.253684475E1,-1.963547707E0,1.564740062E0,5.105611682E-1
1.255684475E1,-1.203858256E0,1.622684956E0,8.895943314E-2
1.257884319E1,3.924896419E-1,6.445500851E-1,-4.321260750E-1
1.260084319E1,1.871167541E0,-3.368834555E-1,-9.360200763E-1
1.262284163E1,2.238856077E0,-3.345447183E-1,-7.890982628E-1
1.264284162E1,1.389229774E0,4.468915462E-1,-8.981464058E-2
1.266284162E1,2.532298267E-1,1.097393274E0,5.099677444E-1
1.268284162E1,-6.440963149E-1,1.064982414E0,9.303826690E-1
1.270284163E1,-8.003905416E-1,7.592706084E-1,1.106538773E0
1.272284163E1,-3.924721777E-1,4.214446545E-1,1.027039051E0
1.274284162E1,1.479690075E-1,1.145110503E-1,8.057836294E-1
1.276284162E1,4.118278921E-1,5.982988700E-2,6.902078986E-1
1.278284163E1,3.085044026E-1,3.555235639E-2,6.551966071E-1
1.280284163E1,5.791002512E-2,-6.091198884E-3,5.314353108E-1
1.282284162E1,-1.232551485E-1,-1.592612863E-1,4.214795530E-1
1.284284162E1,-1.106538773E-1,-4.834387600E-1,3.081902266E-1
1.286284163E1,-3.729768470E-2,-8.936085701E-1,1.609717160E-1
1.288284163E1,-1.425585002E-1,-8.890706897E-1,8.936085738E-3
1.290284162E1,-3.046821356E-1,-5.506164432E-1,-1.415287554E-1
1.292284162E1,-3.222575784E-1,-2.243620753E-1,-2.569997311E-1
1.294284163E1,-1.982170492E-1,-4.061381146E-2,-3.325899541E-1
1.296284163E1,-1.392947286E-1,2.156703323E-1,-4.303632975E-1
1.298284319E1,-1.817062348E-1,5.494819880E-1,-4.295778871E-1
1.300284319E1,-1.912008226E-1,6.822841167E-1,-4.272566140E-1
1.302284319E1,-9.232791513E-2,6.433632374E-1,-4.096462131E-1
1.304484162E1,5.546656251E-2,5.929058194E-1,-4.046022296E-1
1.306484163E1,1.510058790E-1,5.576326847E-1,-4.015129805E-1
1.308484163E1,2.548006177E-1,4.074296653E-1,-3.219608963E-1
1.310485413E1,2.235417664E-1,2.076592743E-1,-1.594881862E-1
1.312684319E1,-2.989749052E-2,-1.242674422E-2,-8.569566533E-3
1.314684319E1,-1.964891702E-1,-1.317898184E-1,1.041961554E-2
1.316684319E1,-1.622632593E-1,-1.777268797E-1,7.504915702E-4
1.318686038E1,7.225662936E-3,-7.435102761E-2,-2.661627159E-2
1.320884163E1,1.441991031E-1,8.583529294E-2,-4.358087108E-2
1.322884163E1,2.081654221E-1,1.321912408E-1,-5.485569686E-2
1.324884162E1,2.509259880E-1,2.296853252E-2,-1.511629671E-1
1.326884319E1,2.963743508E-1,-6.131341681E-2,-2.631433010E-1
1.328884319E1,2.878746092E-1,-2.512226999E-1,-2.286730409E-1
1.331084162E1,1.380555425E-2,-7.562511563E-1,-8.450884372E-2
1.333086038E1,-3.446152508E-1,-9.134878516E-1,5.218534544E-2
1.335284163E1,-4.273438752E-1,-5.981941223E-1,2.028072625E-1
1.337284163E1,-1.925970763E-1,-3.601835966E-1,3.545810878E-1
1.339284162E1,1.113694608E-1,-2.047969401E-1,3.853512406E-1
1.341284162E1,2.809805572E-1,-1.140921712E-1,2.470862567E-1
1.343284162E1,3.177546561E-1,-1.640783995E-1,5.021312088E-2
1.345284163E1,3.658559024E-1,-3.218387067E-1,-6.593853980E-2
1.347284319E1,4.352501929E-1,-5.431290269E-1,-7.946483791E-2
1.349484163E1,3.792949617E-1,-7.671769261E-1,-1.455953717E-1
1.351484319E1,2.079210728E-1,-7.537204623E-1,-2.015855312E-1
1.353684475E1,1.728399545E-1,-5.407727957E-1,-2.948559225E-1
1.355884319E1,3.450341523E-1,-2.943846881E-1,-4.056145251E-1
1.357884475E1,4.544139206E-1,-1.315978318E-1,-4.952546358E-1
1.360084319E1,4.971395731E-1,-5.508258939E-2,-5.581563115E-1
1.362284319E1,4.403640330E-1,1.462585945E-2,-5.180486441E-1
1.364284319E1,2.701944113E-1,1.530304700E-1,-3.761009872E-1
1.366284319E1,9.920451790E-2,3.108256757E-1,-1.720371097E-1
1.368284319E1,-1.699950732E-2,3.262020350E-1,-3.635520861E-2
1.370284319E1,-8.349654824E-2,2.745053768E-1,9.616764262E-3
1.372284319E1,-1.150521040E-1,2.863561809E-1,5.717698485E-2
1.374284319E1,-8.618436009E-2,3.079109788E-1,5.276130140E-2
1.376284319E1,-5.148721393E-3,3.224844933E-1,-5.323254038E-3
1.378484944E1,4.865977913E-2,3.235491216E-1,-3.455751762E-2
1.380684162E1,1.228711754E-2,2.501755059E-1,-9.672614932E-2
1.382684319E1,-1.110029407E-2,1.587202400E-1,-1.804845035E-1
1.384884319E1,4.651302472E-2,6.016149744E-2,-2.184803188E-1
1.387084162E1,6.869615614E-2,6.339035928E-2,-1.888795346E-1
1.389084162E1,-3.399901465E-2,2.815565169E-1,-5.831145123E-2
1.391084163E1,-1.488765776E-1,4.080928862E-1,1.695936471E-1
1.393086038E1,-3.478092253E-1,3.262194991E-1,2.990098000E-1
1.395284163E1,-4.218809903E-1,1.691224054E-2,2.364223003E-1
1.397284163E1,-2.274163961E-1,-9.627236426E-2,1.063254550E-1
1.399284162E1,9.077457339E-2,5.756095797E-2,-1.855284907E-2
1.401284162E1,3.971671164E-1,2.784498334E-1,2.279400080E-2
1.403284163E1,4.944343269E-1,2.383072525E-1,1.204277202E-1
1.405284163E1,3.689626157E-1,-4.806636646E-2,1.828930527E-1
1.407284162E1,1.396787018E-1,-3.547207117E-1,2.586927116E-1
1.409284162E1,-2.131047100E-2,-3.831695914E-1,2.449045926E-1
1.411284163E1,-7.155850064E-3,-2.057743222E-1,1.565909386E-1
1.413284163E1,9.834930301E-2,6.012659147E-2,1.095892265E-1
1.415284162E1,1.661553383E-1,1.548281610E-1,8.899433911E-2
1.417284162E1,8.766788989E-2,1.280024499E-1,1.497492474E-2
1.419284163E1,2.007128671E-3,1.690700501E-1,-8.775515109E-2
1.421284163E1,2.251474746E-2,1.356469840E-1,-6.127851084E-2
1.423284162E1,-2.035053819E-2,1.468520015E-1,3.248057887E-2
1.425284162E1,-2.395987958E-1,2.162288427E-1,1.391376406E-1
1.427284163E1,-4.654444158E-1,2.853787839E-1,2.298947722E-1
1.429284163E1,-5.083620548E-1,2.409427017E-1,2.114640921E-1
1.431284162E1,-3.637789786E-1,1.249306649E-1,8.920377493E-2
1.433284162E1,-1.195550561E-1,1.282293350E-1,-1.186823938E-3
1.435284163E1,1.380206347E-1,2.437526882E-1,-1.499237865E-2
1.437284163E1,2.611885071E-1,2.552718520E-1,-3.968878835E-2
1.439284162E1,2.654122114E-1,1.142143458E-1,-7.000515610E-2
1.441284162E1,2.263517529E-1,-4.677482415E-3,-1.040914357E-1
1.443284163E1,2.293013632E-1,-1.403593719E-1,-1.307426095E-1
1.445284319E1,2.145533264E-1,-2.020218670E-1,-2.051983625E-1
1.447284475E1,1.831723005E-1,-4.358087108E-2,-2.524967790E-1
1.449484475E1,1.728050560E-1,1.438674927E-1,-2.263692021E-1
1.451484631E1,1.641133130E-1,1.089259982E-1,-2.490759343E-1
1.453485100E1,1.433613449E-1,7.470009383E-3,-2.696533799E-1
1.455684319E1,1.221904978E-1,1.867502369E-2,-2.630211115E-1
1.457684475E1,1.631010175E-1,5.977752805E-2,-2.269800752E-1
1.459884319E1,2.214473784E-1,5.752605200E-2,-1.358738840E-1
1.461884319E1,1.813047975E-1,1.270599663E-2,-3.986331820E-2
1.463884319E1,1.163611040E-1,-9.995500743E-2,3.775146976E-2
1.466084319E1,2.014109865E-2,-1.207942367E-1,8.613199741E-2
1.468284163E1,-1.050513685E-1,-6.656685472E-2,8.950048685E-2
1.470284163E1,-9.834930301E-2,-1.961750165E-2,5.398303270E-2
1.472284163E1,3.776892647E-2,4.412192479E-2,-2.036799304E-2
1.474284162E1,2.040464431E-1,1.491907388E-1,-7.977899909E-2
1.476284162E1,3.406533599E-1,2.072753012E-1,-4.000294581E-2
1.478284163E1,3.418925405E-1,1.985486597E-1,3.097959422E-2
1.480284163E1,2.436130494E-1,1.434660703E-1,1.092227027E-1
1.482284162E1,2.413092256E-1,1.369385272E-1,1.711818874E-1
1.484284162E1,2.510656118E-1,6.688101590E-2,2.100329250E-1
1.486284163E1,2.047271132E-1,-1.296779606E-2,2.487966865E-1
1.488284163E1,1.254542619E-1,-5.906194076E-2,2.631781995E-1
1.490284162E1,4.722860828E-2,-5.283111706E-2,2.271196991E-1
1.492284162E1,-3.141592606E-4,-3.647737950E-2,1.512327790E-1
1.494284163E1,-1.293289009E-2,-9.564404376E-3,9.882054478E-2
1.496284163E1,-3.619812801E-2,1.113520097E-2,8.901178837E-2
1.498284319E1,-2.637192421E-2,-2.780309506E-2,6.283185631E-2
1.500484788E1,3.471459821E-2,-3.150319308E-2,1.850049011E-2
1.502684319E1,5.506513640E-2,3.338814899E-2,-3.349286690E-2
1.504684319E1,2.825688012E-2,7.045894116E-2,-6.805038452E-2
1.506884319E1,-1.179842558E-2,8.606218547E-2,-3.719296679E-2
1.509084319E1,-9.215338528E-2,7.311183959E-2,1.816887781E-2
1.511284319E1,-1.498714238E-1,7.433357090E-2,8.426449448E-2
1.513484163E1,-7.145377994E-2,8.922123164E-2,9.320057929E-2
1.515484163E1,9.264207631E-2,6.993534416E-2,6.078981608E-2
1.517484319E1,2.070309520E-1,5.595525727E-2,3.265510872E-2
1.519684163E1,1.874832660E-1,5.801474303E-2,3.609341010E-2
1.521684319E1,1.224348471E-1,-5.253441166E-3,4.028219730E-2
1.523884163E1,8.965755999E-2,-4.757767543E-2,2.813470736E-2
1.525884162E1,1.412320435E-1,-2.982767671E-2,2.394591644E-2
1.527884319E1,2.274338603E-1,-1.277581044E-2,2.778564207E-2
1.530084162E1,2.685014606E-1,-3.848451003E-2,2.326523885E-2
1.532084163E1,2.479938269E-1,-6.869615614E-2,1.469567232E-2
1.534084163E1,2.217964381E-1,-1.314232964E-2,4.515166581E-2
1.536084162E1,2.224422097E-1,3.282964230E-2,1.036201939E-1
1.538084319E1,1.864884347E-1,-5.722934753E-2,1.550550461E-1
1.540084319E1,1.337271333E-1,-1.138129234E-1,1.789660603E-1
1.542084319E1,4.305727407E-2,-4.686209187E-2,2.142217159E-1
1.544084319E1,-7.757988572E-2,1.542871073E-2,2.322160602E-1
1.546284163E1,-1.755626649E-1,1.806415804E-2,2.158797681E-1
1.548284319E1,-1.775174439E-1,-9.267698042E-3,1.946216673E-1
1.550485881E1,-9.915215522E-2,-3.719296679E-2,1.027300805E-1
1.552684319E1,-4.253367335E-2,3.450515866E-2,4.031710699E-2
1.554684319E1,7.077310234E-2,1.534668058E-1,7.557275705E-3
1.556884319E1,1.809208244E-1,7.274532318E-2,-1.408480667E-2
1.559084319E1,1.105840579E-1,-1.500983089E-1,4.221951589E-2
1.561284319E1,-5.813691765E-2,-2.842966914E-1,3.902556375E-2
1.563484163E1,-1.912357211E-1,-1.581966430E-1,-1.993165910E-2
1.565484319E1,-2.474178672E-1,2.350958437E-2,-6.337290257E-2
1.567684319E1,-2.341882735E-1,-7.983136177E-2,-1.731890142E-1
1.569684319E1,-1.761735380E-1,-4.653745890E-1,-3.518234789E-1
1.571884163E1,-1.193805188E-1,-7.096159458E-1,-4.861265421E-1
1.573884163E1,-1.487718672E-1,-5.437573195E-1,-4.754625857E-1
1.575885569E1,-1.950754523E-1,-2.512401342E-1,-2.669132054E-1
1.578084162E1,-1.411622316E-1,-1.564338654E-1,-1.384220570E-1
1.580084162E1,-9.744173288E-2,-1.188220158E-1,-1.617920250E-1
1.582084163E1,-1.679704934E-1,3.228859007E-1,-1.357342601E-1
1.584084163E1,-1.665218621E-1,8.438143134E-1,-4.485496320E-3
1.586084162E1,-2.413615882E-1,8.256105185E-1,3.189065456E-1
1.588084162E1,-6.748141050E-1,3.730641305E-1,5.974087715E-1
1.590084163E1,-1.167171478E0,-8.382816613E-2,6.353173256E-1
1.592084163E1,-1.263932586E0,-2.513099611E-1,4.996528625E-1
1.594084163E1,-1.113921523E0,-3.086963892E-1,4.594928324E-1
1.596084162E1,-1.032309890E0,-3.559424579E-1,3.785270154E-1
1.598084163E1,-9.441358447E-1,-4.805763960E-1,2.254965454E-1
1.600084162E1,-8.563109040E-1,-4.325449467E-1,2.555162013E-1
1.602084163E1,-9.844878912E-1,-1.503426582E-1,4.160341322E-1
1.604084163E1,-1.242115974E0,3.682644665E-2,5.722061992E-1
1.606084163E1,-1.298263192E0,-4.125958309E-2,6.062052250E-1
1.608084162E1,-9.686228037E-1,-3.288025856E-1,6.448817253E-1
1.610084162E1,-5.497786999E-1,-6.010215878E-1,5.527632236E-1
1.612084162E1,-2.411172390E-1,-4.753927886E-1,4.207290709E-1
1.614084162E1,5.253441166E-3,-3.169692457E-1,4.223173261E-1
1.616084319E1,8.681267500E-2,-2.456376404E-1,5.796064138E-1
1.618284319E1,3.031636961E-2,-3.031986058E-1,7.586073279E-1
1.620484162E1,1.476548519E-2,-2.468070090E-1,7.792720795E-1
1.622485569E1,1.235693097E-1,-1.447227001E-1,8.172155023E-1
1.624684319E1,1.336747706E-1,-1.596976258E-2,9.904045463E-1
1.626884319E1,8.566076308E-2,-5.012585595E-2,1.222184300E0
1.629084163E1,1.187871099E-1,-2.606823742E-1,1.208972096E0
1.631084163E1,1.252797395E-1,-3.687706292E-1,1.130676627E0
1.633086038E1,1.805194020E-1,-3.173357546E-1,1.126644969E0
1.635284162E1,4.119675159E-1,-2.590941191E-1,1.142213225E0
1.637284162E1,5.567251444E-1,-3.132167757E-1,1.164605856E0
1.639284163E1,5.208935142E-1,-3.134436905E-1,1.258713961E0
1.641284163E1,3.946712911E-1,-3.075270057E-1,1.379874706E0
1.643284163E1,3.332357109E-1,-3.660653532E-1,1.443876028E0
1.645284162E1,3.139149249E-1,-4.865105152E-1,1.456093311E0
1.647284319E1,3.235316873E-1,-6.906093359E-1,1.450194120E0
1.649484319E1,4.065220952E-1,-8.681966066E-1,1.473564029E0
1.651484319E1,6.874852180E-1,-9.944536686E-1,1.504194498E0
1.653685100E1,9.809797406E-1,-1.016654253E0,1.533777833E0
1.655884319E1,1.044055939E0,-9.167516232E-1,1.561947465E0
1.658084319E1,1.024892211E0,-9.540842175E-1,1.572000623E0
1.660084319E1,9.810844660E-1,-9.738064408E-1,1.465867162E0
1.662284319E1,9.383064508E-1,-8.512319922E-1,1.366680026E0
1.664484319E1,9.711710215E-1,-7.847698331E-1,1.375319481E0
1.666484631E1,9.212371111E-1,-6.798930168E-1,1.419807911E0
1.668684319E1,7.569667697E-1,-4.997750223E-1,1.447890282E0
1.670884319E1,4.939630926E-1,-3.399726748E-1,1.447139740E0
1.673086194E1,2.471560687E-1,-4.319166243E-1,1.422321200E0
1.675284163E1,2.919935808E-2,-5.129522681E-1,1.322418571E0
1.677284162E1,-1.217890754E-1,-5.015203357E-1,1.214365125E0
1.679284162E1,-2.362128645E-1,-5.341579914E-1,1.168305993E0
1.681284162E1,-3.049090207E-1,-6.249325871E-1,1.072469950E0
1.683284162E1,-2.830051482E-1,-7.568445802E-1,8.632572889E-1
1.685284162E1,-2.503849268E-1,-8.185943365E-1,7.110820413E-1
1.687284162E1,-2.587625086E-1,-8.245982528E-1,5.840744376E-1
1.689284163E1,-2.691297829E-1,-7.903025150E-1,4.744328558E-1
1.691284163E1,-2.379232794E-1,-7.543312907E-1,4.272915125E-1
1.693284163E1,-1.872214675E-1,-6.051580310E-1,4.195771515E-1
1.695284162E1,-1.341809183E-1,-3.982317746E-1,4.329812825E-1
1.697284319E1,-5.998696759E-2,-2.431069165E-1,4.129972458E-1
1.699484162E1,7.548549026E-2,-1.011069268E-1,4.249702096E-1
1.701484475E1,3.172310293E-1,1.363102160E-2,4.756196737E-1
1.703484788E1,5.108404160E-1,1.899616420E-1,5.251870155E-1
1.705684319E1,6.273934841E-1,2.734232843E-1,6.567150354E-1
1.707684319E1,5.691867471E-1,2.649409771E-1,7.293556333E-1
1.709684319E1,4.446749985E-1,2.265611887E-1,7.973885536E-1
1.711684319E1,3.295007050E-1,2.270324230E-1,9.076933861E-1
1.713884319E1,2.946464717E-1,3.202330172E-1,1.000160933E0
1.715884944E1,3.579321206E-1,4.397706091E-1,1.073656797E0
1.718084162E1,4.539601505E-1,5.052728057E-1,1.155547619E0
1.720084163E1,4.804367721E-1,5.362000465E-1,1.233179808E0
1.722084163E1,4.801400900E-1,5.540024042E-1,1.273339868E0
1.724084162E1,3.022735715E-1,6.768386960E-1,1.358354807E0
1.726084162E1,-7.745771110E-2,8.627511263E-1,1.607518077E0
1.728084319E1,-4.866850674E-1,8.308465481E-1,1.794914007E0
1.730084319E1,-7.001388073E-1,6.020862460E-1,1.751402974E0
1.732284163E1,-6.972416043E-1,5.012062192E-1,1.519815207E0
1.734284163E1,-4.640481472E-1,5.299343467E-1,1.300322652E0
1.736284162E1,-9.424777701E-3,5.642824173E-1,1.128407717E0
1.738284162E1,4.989023507E-1,6.620906591E-1,9.916437268E-1
1.740284162E1,7.149392366E-1,7.095286846E-1,9.847846031E-1
1.742284162E1,5.841616988E-1,8.266403079E-1,1.141392946E0
1.744284162E1,3.784746528E-1,9.031904340E-1,1.392057180E0
1.746284162E1,2.042733282E-1,8.580561876E-1,1.610397816E0
1.748284163E1,1.162563786E-1,7.556926608E-1,1.785698652E0
1.750284163E1,5.345943570E-2,7.131938934E-1,1.947927117E0
1.752284162E1,2.483603545E-2,7.817504406E-1,2.077552557E0
1.754284319E1,5.028293654E-2,7.809301019E-1,2.138569355E0
1.756484319E1,9.986773878E-2,6.083694100E-1,2.138988256E0
1.758486038E1,4.852015153E-2,4.233470559E-1,2.108322859E0
1.760684319E1,-2.023709267E-1,3.945491314E-1,2.007634878E0
1.762884319E1,-5.892231464E-1,4.908738434E-1,1.905917048E0
1.764884319E1,-7.193723321E-1,5.687329769E-1,1.862283707E0
1.766884319E1,-6.904522777E-1,7.679099441E-1,1.854848623E0
1.768884319E1,-6.497860551E-1,1.000509977E0,1.877293587E0
1.770884319E1,-4.118104279E-1,9.941395521E-1,1.807148814E0
1.773086194E1,-2.052507177E-2,5.535486341E-1,1.574950218E0
1.775284163E1,1.627170444E-1,1.503426582E-1,1.353956580E0
1.777284319E1,1.631184667E-1,-4.244640842E-2,1.205219626E0
1.779484319E1,9.070476145E-2,-1.024508253E-1,1.014961362E0
1.781484319E1,8.396779001E-2,-2.684316412E-2,8.452978730E-1
1.783484475E1,9.491100162E-2,-3.996803984E-2,6.236236095E-1
1.785484788E1,2.291617356E-2,7.749261707E-2,3.202155530E-1
1.787485413E1,-5.239478499E-2,3.662049770E-1,1.359436959E-1
1.789684319E1,-4.066617042E-2,5.735501051E-1,8.244935423E-2
1.791884319E1,8.133234456E-3,5.533217192E-1,-1.202531811E-2
1.794084162E1,-2.994984947E-2,4.422664344E-1,-2.073276639E-1
1.796084319E1,-9.335765988E-2,1.742711216E-1,-3.832743168E-1
1.798084319E1,-1.166578084E-1,-2.380978167E-1,-5.308069587E-1
1.800284163E1,-3.944443911E-2,-4.308868945E-1,-7.468962073E-1
1.802284162E1,1.104444340E-1,-4.259650409E-1,-8.681966066E-1
1.804284162E1,1.017177850E-1,-1.896649301E-1,-1.031384826E0
1.806284162E1,-1.954768747E-1,2.830924094E-1,-1.348371506E0
1.808284162E1,-6.749362946E-1,8.225213289E-1,-1.552260876E0
1.810284162E1,-1.021628499E0,5.904099941E-1,-1.241697073E0
1.812284319E1,-7.115707397E-1,-4.411494136E-1,-1.002796412E0
1.814484319E1,1.923701912E-1,-8.895768523E-1,-1.096817255E0
1.816484319E1,7.296523452E-1,-1.070968986E0,-9.724102020E-1
1.818684319E1,8.766788840E-1,-2.058615834E-1,-6.091373563E-1
1.820884319E1,1.015135884E0,1.223161697E0,-2.059139460E-1
1.823086194E1,1.605441093E0,1.570813775E0,1.183158681E-1
1.825284163E1,1.923632026E0,1.384883881E0,-8.492772281E-2
1.827284162E1,1.204783320E0,2.150402784E0,-1.725257933E-1
1.829284162E1,2.605951130E-1,1.261105061E0,-1.933475733E-1
1.831284162E1,-2.115164548E-1,3.207915276E-2,-3.879343271E-1
1.833284319E1,-7.918733358E-1,-8.713905215E-1,-4.998099506E-1
1.835284319E1,-1.194032073E0,-1.335648060E0,-5.466371179E-1
1.837284319E1,-1.251872301E0,-1.304633617E0,-4.309217930E-1
1.839284319E1,-8.739212751E-1,-9.694606066E-1,-2.485348880E-1
1.841284319E1,-4.758640230E-1,-3.716154993E-1,-9.231046587E-2
1.843284319E1,-2.063328177E-1,8.456119895E-2,-6.115633622E-2
1.845284319E1,4.101523664E-3,3.127804399E-1,-8.639379404E-3
1.847284319E1,8.234463632E-2,1.065698043E-1,1.300095767E-1
1.849284319E1,-2.897246554E-2,-3.100926578E-1,2.898642719E-1
1.851284319E1,-2.418153733E-1,-7.896742225E-1,3.969053328E-1
1.853284319E1,-4.279547334E-1,-1.084530115E0,4.534539878E-1
1.855284319E1,-5.107531548E-1,-9.182700515E-1,5.225864649E-1
1.857284319E1,-4.888492823E-1,-2.975088358E-1,6.975208521E-1
1.859284319E1,-3.666238487E-1,5.406680703E-1,9.283930063E-1
1.861284475E1,-1.280722618E-1,9.154601097E-1,1.075140238E0
1.863484475E1,3.183480501E-1,6.310237646E-1,9.236980677E-1
1.865484475E1,7.036469579E-1,4.082150459E-1,6.421939135E-1
1.867484944E1,5.648583770E-1,5.849994421E-1,6.104637980E-1
1.869684319E1,1.823345423E-1,6.271840930E-1,7.291287184E-1
1.871684319E1,2.670528293E-1,2.156179696E-1,6.513394117E-1
1.873884163E1,7.215365767E-1,-4.163133800E-1,3.028495312E-1
1.875884163E1,9.609434009E-1,-7.213096619E-1,-3.940953314E-2
1.877884163E1,9.608386755E-1,-5.999045968E-1,-9.731955826E-2
1.879884162E1,7.149043083E-1,-2.980498672E-1,-6.764896214E-2
1.881884162E1,5.958554149E-1,-2.581341937E-2,2.227040194E-2
1.883885412E1,5.035274625E-1,1.548281610E-1,1.513898522E-1
1.886084163E1,4.002040029E-1,1.610764414E-1,2.315004766E-1
1.888084319E1,2.791479528E-1,1.562942266E-1,2.437177747E-1
1.890284319E1,1.604306698E-1,1.748994440E-1,2.329665422E-1
1.892484163E1,2.672622800E-1,-3.860668465E-2,1.058716699E-1
1.894485100E1,4.846779406E-1,-4.683765471E-1,-1.093797833E-1
1.896684319E1,6.159616113E-1,-9.051452279E-1,-3.204773664E-1
1.898684319E1,5.490107536E-1,-9.996547699E-1,-3.830823302E-1
1.900684319E1,3.615449667E-1,-8.289092183E-1,-3.378608227E-1
1.902684319E1,1.200786531E-1,-6.297845840E-1,-2.832320333E-1
1.904685412E1,-1.955641359E-1,-3.935717344E-1,-1.838878840E-1
1.906884319E1,-3.868347704E-1,-2.503849268E-1,-1.714785993E-1
1.908884319E1,-3.242472708E-1,-4.106061459E-1,-1.976061761E-1
1.910884319E1,-1.927367151E-1,-7.176619172E-1,-1.332035214E-1
1.912884319E1,-2.444333583E-1,-8.554556966E-1,-5.925392732E-2
1.914884319E1,-3.211929500E-1,-1.007072449E0,1.033758521E-1
1.916884319E1,-2.063677311E-1,-9.922371507E-1,1.418429017E-1
1.918884319E1,1.635373570E-2,-9.198234081E-1,2.492853701E-1
1.920884319E1,1.627519578E-1,-7.089352608E-1,3.935891986E-1
1.922884319E1,1.300444752E-1,-9.531243145E-2,6.424382329E-1
1.924884319E1,-6.627015024E-2,8.979369998E-1,1.017579317E0
1.926884319E1,-1.972571164E-1,1.436981916E0,1.438133836E0
1.928884319E1,-1.585631669E-1,9.160011411E-1,1.452515364E0
1.930884319E1,-1.462411433E-1,5.883504823E-2,8.599760532E-1
1.932884319E1,-2.648362517E-1,-3.481408358E-1,3.201457560E-1
1.934884319E1,-4.400673211E-1,-3.062180281E-1,2.040115297E-1
1.937084162E1,-6.445675492E-1,1.100779176E-1,3.485248089E-1
1.939084162E1,-6.828775406E-1,4.439943135E-1,3.884928226E-1
1.941084162E1,-5.189911127E-1,6.063099504E-1,2.992716134E-1
1.943086194E1,-2.481858134E-1,5.364967585E-1,2.808932960E-1
1.945284162E1,-2.256710641E-2,3.026750088E-1,3.426953852E-1
1.947284319E1,-1.797689125E-3,2.176949233E-1,4.731936753E-1
1.949284319E1,-4.445353523E-2,2.527585924E-1,6.854082346E-1
1.951284319E1,-1.036725566E-2,3.219957948E-1,8.870984912E-1
1.953284319E1,1.503252089E-1,4.121246040E-1,9.724625349E-1
1.955284319E1,2.659881711E-1,5.631828308E-1,9.531592131E-1
1.957484319E1,2.924299240E-1,7.642273307E-1,9.744173288E-1
1.959484319E1,2.964965403E-1,8.347386122E-1,1.015083432E0
1.961484319E1,3.095690608E-1,7.746644020E-1,1.084250927E0
1.963484319E1,2.724982500E-1,6.801373363E-1,1.125877023E0
1.965484944E1,2.351482064E-1,6.223145723E-1,1.141864181E0
1.967684319E1,2.606649101E-1,5.913000703E-1,1.074965715E0
1.969684319E1,2.853787839E-1,5.414534807E-1,1.021192193E0
1.971684319E1,1.661902517E-1,4.313581288E-1,1.011994243E0
1.973684319E1,-1.790184230E-1,3.466223776E-1,1.141183496E0
1.975685725E1,-5.810899138E-1,3.947411180E-1,1.401045561E0
1.977884319E1,-6.287548542E-1,5.877047181E-1,1.503164768E0
1.979884319E1,-2.988178134E-1,6.742730737E-1,1.416020513E0
1.981884319E1,2.361605018E-1,6.756343842E-1,1.196754813E0
1.983884319E1,6.780604124E-1,7.605970502E-1,9.119868875E-1
1.985884319E1,9.276250601E-1,8.548971415E-1,6.439566612E-1
1.987884319E1,7.171208858E-1,1.139647603E0,4.306425452E-1
1.989884319E1,1.071806699E-1,1.848513126E0,4.768064916E-1
1.991884319E1,2.078687213E-2,1.907260895E0,6.064495444E-1
1.993884319E1,6.435552239E-1,9.949249625E-1,4.960225821E-1
1.995884319E1,1.030704141E0,3.103893399E-1,-3.181735054E-2
1.997884475E1,8.827002645E-1,3.271096051E-1,-5.207189918E-1
2.000084162E1,5.515240431E-1,5.426403284E-1,-5.854881406E-1
2.002084163E1,4.092448056E-1,5.678428411E-1,-4.975410104E-1
2.004084163E1,3.935368359E-1,3.888418972E-1,-5.332679152E-1
2.006084163E1,3.090803623E-1,2.516590357E-1,-6.198536754E-1
2.008084475E1,1.296430528E-1,2.213252038E-1,-6.105510592E-1
2.010284319E1,-3.469714522E-2,2.228087336E-1,-4.947834015E-1
2.012284319E1,-1.680577546E-1,2.124589235E-1,-4.285306931E-1
2.014284319E1,-2.595828176E-1,2.850820720E-1,-4.698426425E-1
2.016284319E1,-2.859198451E-1,2.741388679E-1,-4.875926375E-1
2.018284319E1,-2.146755010E-1,1.263618376E-2,-4.336794019E-1
2.020484162E1,-3.288200125E-2,-3.801152706E-1,-5.554510355E-1
2.022486975E1,-5.153957382E-2,-4.625296891E-1,-7.597767115E-1
2.024684319E1,-3.175626695E-1,-1.969604045E-1,-7.025473714E-1
2.026684319E1,-6.061528325E-1,1.011767387E-1,-4.242720902E-1
2.028684319E1,-7.623074651E-1,1.518611014E-1,-2.094220519E-1
2.030884163E1,-8.312305212E-1,-1.947438419E-1,-1.632057428E-1
2.032884163E1,-8.731358647E-1,-5.113116503E-1,-2.573488057E-1
2.034884631E1,-8.367632031E-1,-6.975208521E-1,-3.663795292E-1
2.037084319E1,-6.359106898E-1,-6.720215678E-1,-4.740837812E-1
2.039284163E1,-2.958507538E-1,-6.500129700E-1,-5.921727419E-1
2.041284163E1,-4.488986731E-2,-6.979222298E-1,-7.571238279E-1
2.043284163E1,3.174753860E-2,-6.612005234E-1,-9.597216249E-1
2.045284162E1,-1.061160211E-2,-5.550495982E-1,-1.095839858E0
2.047284319E1,-7.309439033E-2,-5.954016447E-1,-1.180715203E0
2.049484475E1,-1.041787043E-1,-7.489382029E-1,-1.268051505E0
2.051684162E1,-8.930850029E-2,-9.226334095E-1,-1.399370074E0
2.053684319E1,-8.108799905E-2,-1.005274773E0,-1.547531128E0
2.055884319E1,-3.762929887E-2,-1.149456382E0,-1.754055858E0
2.057884319E1,-1.884955564E-3,-1.332017779E0,-2.002590895E0
2.059884319E1,5.056218803E-2,-1.267824650E0,-2.157907724E0
2.061884319E1,4.263315797E-1,-1.076396942E0,-2.266013384E0
2.063884319E1,9.886068702E-1,-1.013041496E0,-2.363420248E0
2.065884319E1,1.367447972E0,-1.166525722E0,-2.311357021E0
2.067884319E1,1.379141688E0,-1.550620317E0,-2.254528999E0
2.069884319E1,1.256130934E0,-1.880731940E0,-2.246291161E0
2.071884319E1,9.162629247E-1,-1.766657114E0,-2.258106947E0
2.073884319E1,5.127777159E-2,-4.291764498E-1,-1.722552657E0
2.075884319E1,-6.958453059E-1,8.769406676E-1,-8.985129595E-1
2.077884319E1,-8.956506252E-1,1.380468130E0,-2.776993215E-1
2.079884319E1,-8.568344712E-1,1.036952496E0,-2.429149300E-1
2.081884319E1,-7.120070457E-1,8.417722583E-2,-7.478561401E-1
2.083884319E1,-4.338364899E-1,-8.956331611E-1,-1.280041933E0
2.085884319E1,-1.669407487E-1,-1.365423441E0,-1.369612217E0
2.087884319E1,2.918190509E-2,-1.262396693E0,-1.169859290E0
2.089884319E1,9.145525098E-2,-8.161683083E-1,-8.313526511E-1
2.091884319E1,7.370525599E-2,-2.931978703E-1,-5.617341995E-1
2.093884319E1,7.044149190E-2,1.520007253E-1,-3.860842884E-1
2.095884319E1,1.495747175E-2,5.548925400E-1,-2.812598050E-1
2.097884319E1,-1.278628260E-1,7.353595495E-1,-1.865407825E-1
2.099884319E1,-3.159220517E-1,7.361624241E-1,-1.014036313E-1
2.101884319E1,-4.816759527E-1,7.393912673E-1,4.363323096E-3
2.103884319E1,-5.347165465E-1,6.840643287E-1,1.893507689E-1
2.105884319E1,-4.517610073E-1,5.569519997E-1,4.278325438E-1
2.107884319E1,-4.746422768E-1,6.398376822E-1,6.152111292E-1
2.109884319E1,-6.099925637E-1,1.079189420E0,7.995004058E-1
2.111884319E1,-5.055695176E-1,1.272397399E0,9.243612885E-1
2.113884319E1,-2.185675800E-1,1.036027431E0,8.768534064E-1
2.115884319E1,8.784241974E-2,5.109451413E-1,6.988123655E-1
2.117884319E1,2.025454640E-1,1.266236305E-1,5.931326747E-1
2.119884319E1,2.548529804E-1,-1.349314004E-1,5.197765231E-1
2.121884319E1,2.959903777E-1,-3.182782531E-1,4.826533496E-1
2.123884319E1,1.880243123E-1,-2.868623137E-1,5.362873077E-1
2.125884319E1,-8.276351541E-2,-1.039343551E-1,6.563485265E-1
2.127884319E1,-2.942799628E-1,-3.855432197E-2,7.030709982E-1
2.129884319E1,-4.198912978E-1,-1.101302728E-2,6.731734872E-1
2.131884319E1,-5.290616751E-1,4.834562074E-3,6.029414535E-1
2.133884319E1,-7.163878679E-1,7.098253816E-2,6.013008356E-1
2.135884319E1,-1.007561088E0,2.175901979E-1,5.774421692E-1
2.137884319E1,-1.315873504E0,3.745825589E-1,4.896346629E-1
2.139884319E1,-1.458379626E0,5.678428411E-1,4.560894370E-1
2.141884319E1,-1.236077070E0,7.437720299E-1,4.908738434E-1
2.143884319E1,-5.295503736E-1,5.747368932E-1,3.857177496E-1
2.145884319E1,2.842617631E-1,2.574884295E-1,6.431538612E-2
2.147884319E1,7.638782263E-1,7.742280513E-2,-3.743556738E-1
2.149884319E1,8.467813730E-1,6.457717973E-4,-6.037791967E-1
2.151884319E1,7.265630960E-1,4.567526653E-2,-4.850793481E-1
2.153884319E1,6.368532181E-1,7.105235010E-2,-2.210110426E-1
2.155884319E1,5.954365134E-1,8.669050038E-2,1.305506285E-2
2.157884319E1,4.908040464E-1,1.964717060E-1,1.953547001E-1
2.159884319E1,3.708126545E-1,4.093320668E-1,3.572688997E-1
2.161884319E1,2.766695917E-1,5.616120696E-1,5.277352333E-1
2.163884319E1,1.709200889E-1,6.551093459E-1,7.098951936E-1
2.165884319E1,8.758062124E-2,5.943544507E-1,8.824384809E-1
2.167884319E1,-7.138396613E-3,4.772951901E-1,1.017038226E0
2.169884319E1,-1.422443390E-1,4.017398953E-1,1.095281363E0
2.171884319E1,-2.965489030E-1,3.384891450E-1,1.161638737E0
2.173884319E1,-3.853512406E-1,2.850995362E-1,1.147082686E0
2.175884319E1,-3.955265284E-1,2.023534775E-1,1.032379746E0
2.177884319E1,-4.013733566E-1,1.738696992E-1,8.938005567E-1
2.179884319E1,-4.186172187E-1,1.545488983E-1,6.918834448E-1
2.181884319E1,-3.796265721E-1,3.996803984E-2,3.336196840E-1
2.183884319E1,-2.585530877E-1,-2.986083925E-1,-1.691922098E-1
2.185884319E1,-7.175048441E-2,-6.811147332E-1,-6.346715093E-1
2.187884319E1,1.111600175E-1,-8.701862693E-1,-8.287172318E-1
2.189884319E1,2.138202786E-1,-8.204094768E-1,-7.455173731E-1
2.191884319E1,2.776644230E-1,-8.240222931E-1,-5.888741016E-1
2.193884319E1,3.072826564E-1,-1.048907995E0,-5.904623270E-1
2.195884319E1,1.835562736E-1,-1.334653258E0,-7.459537387E-1
2.197884319E1,-7.988371700E-2,-1.357604384E0,-7.580313683E-1
2.199884319E1,-2.296853215E-1,-1.225622535E0,-5.178915262E-1
2.201884319E1,-2.255663574E-1,-6.555281878E-1,-1.502902955E-1
2.203884319E1,-1.229759008E-1,-4.888667166E-2,-1.284736842E-1
2.205884319E1,2.790432274E-1,4.783947393E-2,-5.277177691E-1
2.207884319E1,6.953566074E-1,1.473407000E-1,-9.740856886E-1
2.209884319E1,7.552912235E-1,3.890164495E-1,-1.190454125E0
2.211884319E1,7.107504010E-1,4.147949517E-1,-1.363503575E0
2.213884319E1,7.166845202E-1,3.363772929E-1,-1.561633348E0
2.215884319E1,7.594451308E-1,3.028146327E-1,-1.697053432E0
2.217884319E1,7.907039523E-1,3.510031700E-1,-1.729411840E0
2.219884319E1,7.983136177E-1,3.952821791E-1,-1.697280288E0
2.221884319E1,7.962540984E-1,3.699050844E-1,-1.611829042E0
2.224084319E1,7.507359385E-1,3.676710725E-1,-1.463825107E0
2.226084319E1,6.507459879E-1,3.583160937E-1,-1.271995902E0
2.228084319E1,5.427275896E-1,2.613106966E-1,-1.046743751E0
2.230084319E1,4.703662395E-1,-2.996730246E-2,-8.503243923E-1
2.232084319E1,4.614824951E-1,-4.824264646E-1,-6.464350224E-1
2.234084631E1,4.582361877E-1,-9.313774705E-1,-3.993836939E-1
2.236284319E1,4.616046846E-1,-1.211118817E0,-1.147728488E-1
2.238284319E1,4.602607787E-1,-1.317269802E0,1.759990007E-1
2.240284319E1,3.507064581E-1,-1.184048772E0,3.874107301E-1
2.242284319E1,2.308721542E-1,-1.098998904E0,5.011014938E-1
2.244285412E1,9.361945838E-2,-1.088195324E0,5.498659611E-1
2.246484631E1,-3.712140918E-1,-5.208585858E-1,7.239974737E-1
2.248684319E1,-7.563908100E-1,-1.368687153E-1,1.342838883E0
2.250684319E1,-5.109276772E-1,-4.692492187E-1,1.493565559E0
2.252684319E1,-6.085963175E-2,-6.969274282E-1,8.961916566E-1
2.254684319E1,9.201376140E-2,-5.002986193E-1,3.277728260E-1
2.256685256E1,8.470083028E-2,2.135410309E-1,4.504869282E-1
2.258884319E1,4.103967249E-1,9.677675962E-1,1.095822453E0
2.260884319E1,7.778932452E-1,1.009271502E0,1.464278936E0
2.262884319E1,7.978772521E-1,4.550597072E-1,1.461102366E0
2.264884319E1,4.018271565E-1,-1.152964532E-1,1.328108311E0
2.266884319E1,-7.293730974E-2,-3.378957510E-1,1.231277466E0
2.268884319E1,-3.805865049E-1,-2.585530877E-1,1.145668983E0
2.270884319E1,-5.748765469E-1,2.530727303E-3,9.651321769E-1
2.272884319E1,-6.154379845E-1,2.029992491E-1,7.266154885E-1
2.274884319E1,-5.524665117E-1,4.049338400E-1,4.838925302E-1
2.276884475E1,-3.805865049E-1,6.649529934E-1,4.072027802E-1
2.279084319E1,-7.958701253E-2,8.479332924E-1,3.783175647E-1
2.281084319E1,2.246238738E-1,7.337887883E-1,3.122917712E-1
2.283086194E1,4.594928324E-1,3.957534134E-1,1.365371048E-1
2.285284162E1,5.049062967E-1,1.523672491E-1,-5.585053470E-3
2.287284163E1,6.531022191E-1,3.693116829E-2,-2.874557301E-2
2.289284319E1,1.015502334E0,-3.659955412E-2,-5.304055661E-2
2.291284319E1,1.147117615E0,3.474950418E-2,-8.438666910E-2
2.293284319E1,9.341351390E-1,3.678106964E-1,8.813912980E-3
2.295284319E1,5.686457157E-1,7.972489595E-1,2.704213262E-1
2.297284475E1,3.509682715E-1,7.749959826E-1,4.537332356E-1
2.299484319E1,3.361329734E-1,2.110277563E-1,4.832642078E-1
2.301484944E1,2.332283407E-1,-1.815316975E-1,4.753229618E-1
2.303684319E1,-1.063254550E-1,-1.208815053E-1,5.002462864E-1
2.305684319E1,-3.275110424E-1,-2.621484548E-2,4.801749885E-1
2.307884319E1,-5.820498466E-1,4.537856148E-4,4.722511768E-1
2.309884319E1,-7.979819775E-1,1.155757010E-1,3.934495747E-1
2.311884319E1,-8.129917979E-1,2.194227874E-1,2.032435834E-1
2.313884319E1,-6.172007918E-1,1.840798706E-1,-1.075122785E-2
2.315884319E1,-3.326772153E-1,4.031710699E-2,-1.247037724E-1
2.317884319E1,-1.927018017E-1,2.178170905E-2,-1.543743759E-1
2.319884319E1,-1.796467453E-1,3.188716620E-2,-1.951801628E-1
2.321884319E1,-1.880766749E-1,8.936085738E-3,-2.416233867E-1
2.323884319E1,-1.698379815E-1,6.129596382E-2,-2.390228361E-1
2.325884319E1,-2.441715635E-2,9.974556416E-2,-2.373473197E-1
2.327884319E1,1.781632155E-1,9.759881347E-2,-2.504547536E-1
2.329884319E1,3.173706830E-1,1.285958588E-1,-2.393544465E-1
2.331884319E1,3.865380585E-1,2.527236752E-2,-1.946914792E-1
2.333884319E1,4.328765571E-1,-1.862964481E-1,-1.573239714E-1
2.335884319E1,3.736924529E-1,-2.534043491E-1,-1.944296807E-1
2.337884319E1,2.320938855E-1,-1.135511175E-1,-2.192657143E-1
2.339884319E1,1.615302265E-1,4.038691893E-2,-1.622981727E-1
2.341884319E1,2.091951668E-1,1.772381812E-1,-1.189965457E-1
2.343884319E1,3.594156504E-1,4.074820280E-1,-1.256637126E-1
2.345884319E1,6.450213194E-1,6.196966171E-1,-2.044304162E-1
2.347884319E1,8.101992607E-1,6.458416581E-1,-1.802925169E-1
2.349884319E1,8.082619905E-1,7.638956904E-1,5.969026126E-3
2.351884319E1,8.624718785E-1,8.816356063E-1,-1.361356815E-3
2.353884319E1,9.762499332E-1,8.102865815E-1,-1.549677849E-1
2.355884319E1,1.054772258E0,8.089077473E-1,-2.150769234E-1
2.357884319E1,1.162528872E0,8.994554281E-1,-2.315004766E-1
2.360084162E1,1.258766413E0,8.733627796E-1,-1.478991956E-1
2.362084162E1,1.191658497E0,7.007671595E-1,-9.878563695E-3
2.364084162E1,9.182700515E-1,5.628337860E-1,8.805186301E-2
2.366084319E1,6.344446540E-1,5.244714618E-1,1.127482727E-1
2.368284163E1,6.588966846E-1,2.802126110E-1,7.089527696E-2
2.370284319E1,6.561740041E-1,7.490953058E-2,1.130973324E-1
2.372284319E1,5.352226496E-1,1.865756884E-2,1.452637464E-1
2.374485569E1,3.674441576E-1,1.715658605E-1,2.472258806E-1
2.376684162E1,3.186272979E-1,3.905697763E-1,3.297101557E-1
2.378684162E1,4.062602818E-1,4.427202046E-1,3.293261826E-1
2.380684162E1,5.092695951E-1,4.917814136E-1,3.066543341E-1
2.382684319E1,4.420744479E-1,3.860319257E-1,1.944645792E-1
2.384684319E1,-5.429719388E-2,1.222603172E-1,-1.113520041E-1
2.386684319E1,-1.106905222E0,1.489638537E-1,-1.947089285E-1
2.388684319E1,-1.884117842E0,8.350178599E-1,1.705710292E-1
2.390684319E1,-1.731052399E0,1.025066733E0,4.928635359E-1
2.392884319E1,-7.778059840E-1,3.728721440E-1,2.450965792E-1
2.395084319E1,1.934924364E0,9.827948809E-1,-4.882383943E-1
2.397284319E1,1.100203156E0,3.721914589E-1,-4.142015278E-1
2.399484788E1,1.678483188E-1,-8.721410483E-2,-5.647012591E-1
2.401684162E1,-4.227012992E-1,3.761184588E-2,-3.497116268E-1
2.403684319E1,-7.867769599E-1,2.292664498E-1,8.848818950E-3
2.405884163E1,-8.134804964E-1,1.750041693E-1,3.961548209E-1
2.407884163E1,-7.312405705E-1,-3.335324302E-2,6.595075727E-1
2.409884163E1,-6.726673245E-1,-8.634144068E-2,8.379151225E-1
2.411884162E1,-6.869615912E-1,5.218534265E-3,9.276424646E-1
2.413884319E1,-7.973885536E-1,5.899212882E-2,1.014577389E0
2.415884944E1,-8.921774030E-1,-1.054353416E-1,1.173472166E0
2.418084163E1,-1.013617396E0,-3.738669753E-1,1.291491270E0
2.420084163E1,-1.093867660E0,-4.247607887E-1,1.362700701E0
2.422084163E1,-9.851161838E-1,-2.470688075E-1,1.392615676E0
2.424084162E1,-7.242418528E-1,-6.569419056E-2,1.314180613E0
2.426084162E1,-5.023581386E-1,1.883210242E-2,1.262483954E0
2.428084162E1,-4.699124396E-1,1.276533753E-1,1.241941333E0
2.430084319E1,-5.009967685E-1,2.766870558E-1,1.227141023E0
2.432284163E1,-4.409748912E-1,5.340881944E-1,1.266620398E0
2.434284163E1,-3.769562244E-1,6.834535003E-1,1.346085191E0
2.436284162E1,-3.380004764E-1,6.988996267E-1,1.451642752E0
2.438284162E1,-2.899689972E-1,6.584778428E-1,1.516760945E0
2.440284319E1,-2.384468764E-1,6.208660007E-1,1.593956828E0
2.442484319E1,-2.410997748E-1,6.384239793E-1,1.583362699E0
2.444484319E1,-3.103719056E-1,8.308465481E-1,1.525522470E0
2.446684319E1,-3.230778873E-1,1.186789036E0,1.632563472E0
2.448884319E1,-3.035825789E-1,1.529013157E0,1.917558312E0
2.451084162E1,-1.209513173E-1,1.216616631E0,2.170072556E0
2.453086194E1,9.894271195E-2,5.700943470E-1,2.061216354E0
2.455284163E1,-5.375614017E-2,4.279547334E-1,1.844306827E0
2.457284163E1,-4.729318619E-1,8.754397035E-1,1.792104125E0
2.459284163E1,-6.436076164E-1,1.559434175E0,1.981018543E0
2.461284319E1,-4.316722751E-1,1.775645614E0,2.367818356E0
2.463284319E1,-2.288126647E-1,1.473476768E0,2.643719912E0
2.465284319E1,-3.565009534E-1,9.276773930E-1,2.744757175E0
2.467284319E1,-4.689001441E-1,3.617892861E-1,2.775858879E0
2.469284319E1,-5.239478350E-1,1.367989033E-1,2.872113705E0
2.471284319E1,-5.715255141E-1,4.786565602E-1,3.045669317E0
2.473284319E1,-6.494195461E-1,1.162546396E0,3.017150640E0
2.475284319E1,-6.640453935E-1,1.752135992E0,2.869199038E0
2.477284319E1,-4.716228545E-1,1.902426362E0,2.728071690E0
2.479284319E1,-2.071182281E-1,1.739866376E0,2.609284639E0
2.481484319E1,-1.142143458E-1,1.580465436E0,2.626127005E0
2.483484631E1,-2.082875967E-1,1.469829082E0,2.685363531E0
2.485684319E1,-4.623377025E-1,1.392179370E0,2.689901352E0
2.487684319E1,-7.818551660E-1,1.337672710E0,2.747828960E0
2.489684319E1,-1.133975267E0,1.404047608E0,2.862339973E0
2.491684319E1,-1.391847730E0,1.572262406E0,2.980586052E0
2.493684319E1,-1.460264564E0,1.663839817E0,3.114365578E0
2.495684631E1,-1.414903522E0,1.536308646E0,3.243013620E0
2.497884319E1,-1.271367669E0,1.247282147E0,3.269926786E0
2.499884319E1,-1.098632455E0,9.570164084E-1,3.272195578E0
2.501884319E1,-1.026061654E0,7.957653999E-1,3.309615374E0
2.503884319E1,-1.118895650E0,8.142659068E-1,3.413410187E0
2.505884319E1,-1.285522223E0,8.449487686E-1,3.505197048E0
2.507884319E1,-1.497335434E0,7.501599789E-1,3.613599539E0
2.509884319E1,-1.751507759E0,5.825734735E-1,3.664632797E0
2.511884319E1,-2.082526922E0,3.407580853E-1,3.728494406E0
2.513884319E1,-2.416076660E0,1.124864668E-1,3.641559601E0
2.515884319E1,-2.498246908E0,-6.997025013E-2,3.337575674E0
2.517884319E1,-2.212990284E0,-2.738421597E-2,2.798827410E0
2.519884319E1,-1.569906235E0,5.075941086E-1,2.117538214E0
2.521884319E1,-8.498182893E-1,1.325088859E0,1.740599394E0
2.524084162E1,-2.234545052E-1,2.016413689E0,1.804530859E0
2.526084162E1,4.789183289E-2,2.156546354E0,2.037392616E0
2.528084162E1,1.467821933E-2,1.685342312E0,2.250637054E0
2.530084162E1,-3.369183540E-1,1.133922935E0,2.425292015E0
2.532084319E1,-7.092319727E-1,6.580589414E-1,2.519906282E0
2.534284319E1,-9.038361907E-1,4.057541490E-1,2.652359486E0
2.536484319E1,-8.662767410E-1,5.143311024E-1,2.851292133E0
2.538484319E1,-6.539574265E-1,5.624323487E-1,2.937284470E0
2.540484319E1,-4.586550593E-1,5.511051416E-1,2.930250645E0
2.542684162E1,-4.583758116E-1,4.620410204E-1,2.864172459E0
2.544684319E1,-6.293133497E-1,3.540749550E-1,2.852932692E0
2.546684319E1,-7.967253327E-1,2.403841913E-1,2.899480581E0
2.548884319E1,-8.891754150E-1,1.100430116E-1,2.918469667E0
2.551084319E1,-9.228253961E-1,1.507964432E-1,2.872200966E0
2.553086194E1,-9.291609526E-1,3.312984109E-1,2.837137461E0
2.555284319E1,-9.428443313E-1,5.726251006E-1,2.799839735E0
2.557484319E1,-9.408022761E-1,7.288669348E-1,2.766381741E0
2.559484319E1,-9.038885832E-1,7.896916866E-1,2.686096668E0
2.561484319E1,-7.601606846E-1,7.879288793E-1,2.546208382E0
2.563484631E1,-4.762305319E-1,7.834259272E-1,2.401765108E0
2.565684319E1,-1.649859697E-1,7.608762980E-1,2.375951529E0
2.567684319E1,-1.794198528E-2,7.095461488E-1,2.444054365E0
2.569684319E1,-2.117084339E-2,5.304753780E-1,2.469954967E0
2.571884163E1,-1.962622702E-1,5.016425252E-1,2.490148544E0
2.573884163E1,-3.186447620E-1,8.879188299E-1,2.411975145E0
2.575884163E1,-1.214574650E-1,1.153994203E0,2.533258200E0
2.577884319E1,-4.511675984E-2,7.493396401E-1,2.930756807E0
2.579884319E1,-3.508809805E-1,-8.600982279E-2,3.284639835E0
2.581884319E1,-8.364839554E-1,-6.045820713E-1,3.493014574E0
2.584084163E1,-1.244315028E0,-3.834313750E-1,3.629918337E0
2.586084163E1,-1.493687630E0,2.844537497E-1,3.642048359E0
2.588084163E1,-1.539799333E0,1.026044130E0,3.612604618E0
2.590084162E1,-1.149404049E0,1.326188445E0,3.319040298E0
2.592084162E1,-4.902804494E-1,1.038174152E0,2.807885647E0
2.594084162E1,-1.003040746E-1,4.854982495E-1,2.357974768E0
2.596084319E1,-2.024581879E-1,7.356562465E-2,2.142287016E0
2.598284163E1,-5.134235024E-1,-1.248084977E-1,2.030917406E0
2.600284163E1,-7.061951160E-1,-1.000597253E-1,2.019014359E0
2.602284319E1,-6.811147332E-1,-5.138249323E-2,1.950073838E0
2.604484162E1,-5.347688794E-1,-4.131194204E-2,1.821355820E0
2.606484163E1,-3.547730744E-1,-7.623597980E-2,1.640434980E0
2.608484319E1,-2.088286430E-1,-1.155407950E-1,1.443945765E0
2.610484475E1,-9.459684789E-2,-2.045525908E-1,1.313046098E0
2.612684319E1,-6.098180264E-2,-3.471634388E-1,1.179074645E0
2.614684319E1,-2.119353265E-1,-3.689276874E-1,1.104845762E0
2.616684319E1,-4.484274387E-1,-2.406110913E-1,1.096433282E0
2.618684319E1,-6.156125069E-1,-1.454382837E-1,1.026305914E0
2.620884319E1,-7.306122780E-1,-1.110203937E-1,9.429664612E-1
2.623086194E1,-7.488335371E-1,-1.390503794E-1,9.204517603E-1
2.625284163E1,-6.809751391E-1,-1.988104582E-1,8.760505319E-1
2.627284162E1,-6.355791092E-1,-2.159844935E-1,7.583630085E-1
2.629284162E1,-5.752954483E-1,-3.043854237E-2,5.701118112E-1
2.631284162E1,-5.012934804E-1,2.346595228E-1,4.119151533E-1
2.633284319E1,-3.994534910E-1,4.112170339E-1,2.995857596E-1
2.635484319E1,-1.792453080E-1,3.296926916E-1,1.681275666E-1
2.637485100E1,-9.983283468E-3,1.605353802E-1,3.836233541E-2
2.639684319E1,8.384561539E-2,8.330456167E-2,-1.827534288E-1
2.641684319E1,2.043955028E-1,-8.656833321E-3,-4.930031598E-1
2.643684319E1,2.794446647E-1,-2.307325229E-2,-7.664439082E-1
2.645684319E1,2.650631666E-1,-7.368779927E-2,-8.770453930E-1
2.647684319E1,1.272345036E-1,-1.783028394E-1,-8.731707931E-1
2.649684319E1,-6.876597553E-2,-2.171713114E-1,-8.352273107E-1
2.651684475E1,-2.460565120E-1,-1.525068730E-1,-7.991513610E-1
2.653884319E1,-4.269773364E-1,-1.512153298E-1,-7.829721570E-1
2.655884319E1,-5.284682512E-1,-1.594358236E-1,-6.892654300E-1
2.657884319E1,-5.012410879E-1,-8.016297221E-2,-5.590813160E-1
2.659884319E1,-3.052580953E-1,-1.989675313E-2,-4.571889937E-1
2.661884319E1,-3.305653483E-2,-3.892084211E-2,-4.386535883E-1
2.663884319E1,2.069436908E-1,-1.282118857E-1,-4.394913614E-1
2.666084319E1,3.823492825E-1,-2.222851366E-1,-3.486644328E-1
2.668284163E1,4.857600331E-1,-2.601238787E-1,-2.230705321E-1
2.670284162E1,5.297074318E-1,-2.906147838E-1,-1.809557378E-1
2.672284162E1,4.808905721E-1,-3.115063608E-1,-1.643227488E-1
2.674284162E1,3.103370070E-1,-1.716356725E-1,-1.034282148E-1
2.676284319E1,7.075564563E-2,2.036799304E-2,4.075343907E-2
2.678484788E1,-1.866978705E-1,6.689847261E-2,2.459168881E-1
2.680684319E1,-3.417354524E-1,-1.319468953E-2,4.056668878E-1
2.682684319E1,-3.986506462E-1,-1.380555425E-2,4.567352235E-1
2.684684319E1,-4.015653431E-1,7.840018719E-2,5.004906058E-1
2.686684319E1,-3.813369870E-1,1.536238790E-1,5.113116503E-1
2.688884162E1,-3.190112710E-1,9.571385384E-2,4.641528726E-1
2.690884162E1,-2.297027856E-1,-6.005677953E-2,3.943571448E-1
2.692884319E1,-8.232717961E-2,-2.300518453E-1,3.153460920E-1
2.695084319E1,1.301666498E-1,-2.613630593E-1,1.781457514E-1
2.697284162E1,3.087836504E-1,-9.145525098E-2,8.834856749E-2
2.699284162E1,3.486120701E-1,5.338962004E-2,-2.764601447E-2
2.701284319E1,2.499136925E-1,9.573131055E-2,-1.681799293E-1
2.703284319E1,2.186548412E-1,-8.984954655E-2,-2.886774540E-1
2.705284319E1,3.755075932E-1,-2.351482064E-1,-3.983364999E-1
2.707484944E1,5.323254466E-1,-3.126233816E-1,-5.437573195E-1
2.709684319E1,3.697479963E-1,-4.433136433E-3,-6.517059207E-1
2.711684475E1,-4.858996719E-2,5.982813835E-1,-6.338686943E-1
2.713884319E1,-7.592182159E-1,1.156158447E0,-3.620510995E-1
2.715884319E1,-1.159614205E0,1.305017591E0,9.808750823E-3
2.717884319E1,-1.091109991E0,8.301833272E-1,9.405579418E-2
2.719884319E1,-6.197838783E-1,-6.511823088E-2,-2.641206682E-1
2.721884475E1,-2.148674875E-1,-6.287723184E-1,-6.805562377E-1
2.724084475E1,7.751007378E-2,-7.086734772E-1,-8.332725167E-1
2.726284475E1,2.579247653E-1,-5.911080837E-1,-7.241719961E-1
2.728485100E1,2.765997648E-1,-3.875329196E-1,-5.471258163E-1
2.730684162E1,1.266759932E-1,-1.167625263E-1,-3.269350827E-1
2.732684319E1,-4.712389037E-2,7.609635592E-2,-1.087340154E-2
2.734884319E1,-1.123119369E-1,-9.936159104E-2,2.831796706E-1
2.736884319E1,2.658136375E-2,-5.133711696E-1,4.827580750E-1
2.739084162E1,2.838603556E-1,-7.750658393E-1,4.450240433E-1
2.741084163E1,4.204498231E-2,-4.411145151E-1,5.523443222E-1
2.743086194E1,-4.922875762E-1,2.459168993E-2,9.247103333E-1
2.745284162E1,-5.104564428E-1,-3.737273514E-1,1.235239267E0
2.747284162E1,-6.349507719E-2,-1.142649651E0,1.159020782E0
2.749284162E1,3.880390525E-1,-1.184537530E0,7.549596429E-1
2.751284162E1,5.599539876E-1,-3.297799528E-1,6.891781688E-1
2.753284163E1,6.049485803E-1,5.540373325E-1,9.940522909E-1
2.755284319E1,7.195469141E-1,7.856075764E-1,1.329277635E0
2.757484319E1,7.644891143E-1,6.459463835E-1,1.563431025E0
2.759484319E1,5.630257726E-1,4.892332554E-1,1.780008912E0
2.761484319E1,2.478716522E-1,4.604702294E-1,2.080833912E0
2.763485412E1,-4.406956211E-2,5.514193177E-1,2.377155781E0
2.765684319E1,-1.940107942E-1,6.422287822E-1,2.530081749E0
2.767684319E1,-2.018822283E-1,6.818477511E-1,2.629408360E0
2.769684319E1,-1.502030343E-1,7.830244899E-1,2.669672966E0
2.771884319E1,-1.555611938E-1,9.623919725E-1,2.730026484E0
2.774084162E1,-1.855110526E-1,9.601055980E-1,2.804621935E0
2.776084162E1,-2.233323306E-1,7.937059402E-1,2.865743399E0
2.778084319E1,-2.452362180E-1,5.140867233E-1,2.891591787E0
2.780284163E1,-3.200933933E-1,3.064100146E-1,2.838376522E0
2.782284163E1,-3.806214035E-1,2.825688124E-1,2.739084721E0
2.784284319E1,-3.728372455E-1,2.667561173E-1,2.628134251E0
2.786484631E1,-2.920284867E-1,1.146855876E-1,2.521023273E0
2.788684319E1,-2.465102971E-1,-9.601055831E-2,2.459657669E0
2.790684319E1,-2.528458536E-1,-1.182460561E-1,2.389652491E0
2.792684319E1,-2.741388679E-1,-4.548327997E-2,2.242783070E0
2.794684319E1,-2.826735377E-1,-3.108431399E-2,2.081636667E0
2.796684319E1,-2.129301727E-1,5.183627829E-3,2.032662868E0
2.798684319E1,-8.054694533E-2,2.188468277E-1,2.031580687E0
2.800684319E1,6.838200241E-2,4.617966712E-1,2.016099691E0
2.802684319E1,1.352281123E-1,8.611978292E-1,2.021440268E0
2.804684319E1,-1.395390779E-1,1.297512650E0,2.151589632E0
2.806684319E1,-6.729815006E-1,1.183368087E0,2.148308277E0
2.808684319E1,-9.651321769E-1,5.516811013E-1,1.950073838E0
2.810684319E1,-6.474648118E-1,-2.636494339E-1,1.641988277E0
2.812684319E1,2.467895485E-2,-5.010491014E-1,1.316815972E0
2.814684319E1,5.232496858E-1,-1.075646430E-1,1.275870562E0
2.816684319E1,7.701439857E-1,2.870194018E-1,1.448099732E0
2.818684319E1,7.698472738E-1,5.881584883E-1,1.649632812E0
2.820684319E1,8.467988372E-1,9.668425918E-1,1.713372231E0
2.822684319E1,5.828701258E-1,-1.681101173E-1,1.661274195E0
2.824684319E1,4.270471632E-1,-7.007846236E-1,9.685355425E-1
2.826684319E1,1.592612863E-1,-4.874180853E-1,9.070127010E-1
2.828684319E1,6.904522330E-2,1.528908405E-2,1.623836875E0
2.830684319E1,6.499606371E-2,2.786767185E-1,2.047026873E0
2.832684319E1,-5.174901336E-2,1.064179659E0,1.951347947E0
2.834684319E1,9.995500743E-2,2.193878889E0,1.698432207E0
2.836684319E1,6.215990186E-1,2.836858273E0,1.575299263E0
2.838884162E1,1.519623280E0,2.768964767E0,1.699776173E0
2.840884162E1,1.925761342E0,1.877380848E0,2.956360817E0
2.842884319E1,1.109977007E0,1.072574615E0,2.991232634E0
2.845084319E1,-5.577024817E-1,7.173303515E-2,1.161027908E0
2.847284162E1,-5.162160397E-1,-2.083382130E0,1.475117326E0
2.849284162E1,-4.844684899E-1,-2.958455324E0,9.870185852E-1
2.851284162E1,-2.942799628E-1,-2.548390150E0,1.003232718E0
2.853284163E1,2.231752574E-1,-1.452550292E0,6.991440058E-1
2.855284319E1,6.667332053E-1,-1.409859538E0,5.618389249E-1
2.857484319E1,2.379756421E-1,-6.628411412E-1,1.096695065E0
2.859484319E1,-1.842893213E-1,2.457423508E-1,1.540549755E0
2.861484944E1,-4.563861489E-1,3.722263575E-1,1.533062339E0
2.863684163E1,-6.659478545E-1,9.010087848E-1,1.279204130E0
2.865684319E1,-1.264246702E0,1.795071125E0,9.650449157E-1
2.867684319E1,-1.995906115E0,2.966082335E0,9.136275053E-1
2.869884162E1,-2.333959103E0,2.928383112E0,1.578405976E0
2.871884319E1,-2.130523443E0,2.338758707E0,2.570677996E0
2.874084162E1,-1.700387001E0,1.920856953E0,2.641834974E0
2.876084162E1,-1.171971083E0,7.558671832E-1,1.405932546E0
2.878084162E1,-2.177298218E-1,-1.720929503E0,7.680321336E-1
2.880084162E1,7.473499775E-1,-3.130841494E0,6.051754355E-1
2.882084163E1,6.673266292E-1,-3.083228827E0,5.373519659E-1
2.884084319E1,2.411172390E-1,-1.784424663E0,6.213197708E-1
2.886084319E1,1.164483652E-1,-1.767320335E-1,7.847523689E-1
2.888084319E1,2.419375330E-1,6.735749245E-1,9.318836331E-1
2.890084319E1,-1.933301240E-1,9.890606403E-1,7.583455443E-1
2.892084319E1,-2.953795195E-1,5.762902498E-1,8.135502934E-1
2.894084319E1,-2.817136049E-1,4.338539541E-1,8.648281097E-1
2.896084319E1,-4.493524730E-1,7.496014833E-1,8.151036501E-1
2.898084319E1,-4.408003688E-1,6.529974937E-1,6.942745447E-1
2.900284163E1,1.953023486E-2,3.017674200E-2,3.833964765E-1
2.902284162E1,2.798111737E-1,-8.281587362E-1,1.930508614E-1
2.904284162E1,5.969375372E-1,-1.117132902E0,5.466371030E-2
2.906284162E1,7.406653762E-1,-8.914792538E-1,5.890486389E-2
2.908284162E1,4.170987904E-1,-4.838750660E-1,1.740616858E-1
2.910284163E1,-9.704031050E-3,-1.602037698E-1,1.888620704E-1
2.912284319E1,-8.400269598E-2,2.901435196E-1,2.433163524E-1
2.914484944E1,1.418603659E-1,9.412560463E-1,3.836233616E-1
2.916684319E1,4.905771315E-1,1.059414864E0,5.336518884E-1
2.918684319E1,4.371700585E-1,3.791902363E-1,-1.388060302E-1
2.920884319E1,2.915223539E-1,-4.933173060E-1,-8.360301852E-1
2.923086194E1,3.420845419E-2,-7.208384275E-1,-7.377506495E-1
2.925284163E1,-3.704810441E-1,-9.341002256E-2,-3.753505051E-1
2.927284319E1,-9.201375842E-1,3.642327487E-1,-2.472957075E-1
2.929284319E1,-9.652369022E-1,1.635722518E-1,-3.486993313E-1
2.931284319E1,-1.285085976E-1,-4.203450978E-1,-6.652147770E-1
2.933284319E1,6.397155523E-1,-5.877919793E-1,-8.981464505E-1
2.935284319E1,7.109947801E-1,-5.420992374E-1,-8.041778803E-1
2.937284319E1,4.503124058E-1,-4.898964763E-1,-6.478661895E-1
2.939284319E1,2.733185589E-1,-3.471983373E-1,-6.844308376E-1
2.941284319E1,1.389456540E-1,-1.762259007E-1,-6.996501088E-1
2.943284319E1,1.556484550E-1,-1.865931451E-1,-6.945014000E-1
2.945284319E1,2.495122701E-1,-1.181587875E-1,-1.207226753E0
2.947484319E1,1.889842451E-1,-5.616469681E-2,-1.616680980E0
2.949484319E1,-6.056292448E-3,-1.623156220E-1,-1.173856139E0
2.951484319E1,-1.170592308E-1,-1.664869636E-1,-4.605923891E-1
2.953484319E1,-1.848303713E-2,-1.156804189E-1,3.323456049E-1
2.955484319E1,1.567829251E-1,-4.187568426E-1,8.909207582E-1
2.957484319E1,1.186649352E-1,-9.114108980E-2,8.435699940E-1
2.959484788E1,-4.951499030E-2,1.677959561E-1,6.581112742E-1
2.961684475E1,-1.398706883E-1,2.463881224E-1,5.829923153E-1
2.963884319E1,-1.967335194E-1,2.788687050E-1,5.272465348E-1
2.965884319E1,-9.803514183E-2,3.669205606E-1,5.903401375E-1
2.967884319E1,1.330464482E-1,6.444977522E-1,6.792646646E-1
2.969884319E1,4.010417461E-1,3.669380248E-1,6.354743838E-1
2.971884319E1,6.155776381E-1,4.167846143E-1,5.476493835E-1
2.973884319E1,5.211902261E-1,4.314802885E-1,4.156850576E-1
2.975884319E1,1.355073601E-1,1.669058353E-1,1.891762316E-1
2.977884319E1,-3.544065654E-1,-2.311688513E-1,-9.930923581E-3
2.979884319E1,-4.781852961E-1,-3.157824278E-1,-7.604399323E-2
2.981884319E1,-1.167450696E-1,-1.716531366E-1,-1.500983164E-2
2.983884319E1,1.577777602E-2,-1.705361158E-1,1.421745270E-1
2.985884319E1,-9.829694033E-2,-2.974041104E-1,1.962797344E-1
2.987884319E1,-2.868274152E-1,-3.627317846E-1,1.440245658E-1
2.989884475E1,-3.122568429E-1,-1.006182283E-1,-1.466076588E-3
2.992084319E1,-2.167349905E-1,2.625324130E-1,-7.133160532E-2
2.994084319E1,-1.229759008E-1,3.440392911E-1,3.368485486E-3
2.996084319E1,-6.878342479E-2,1.917244196E-1,1.462934911E-1
2.998084319E1,-1.028347984E-1,1.998401992E-2,2.982069552E-1
3.000284163E1,-1.000597253E-1,3.801327199E-2,5.459040999E-1
3.002284319E1,9.927432984E-2,1.669756472E-1,8.099549413E-1
3.004484162E1,3.583859205E-1,-2.790781558E-1,7.463377118E-1
3.006485725E1,2.814343274E-1,-8.532565832E-1,6.173055172E-1
3.008684319E1,2.813819945E-1,-1.179109573E0,3.623129129E-1
3.010684319E1,3.214198351E-1,-1.110797286E0,6.660176069E-2
3.012684319E1,3.470761776E-1,-6.038664579E-1,1.382998824E-1
3.014684319E1,1.881464869E-1,-2.080606967E-1,3.030066192E-1
3.016884163E1,8.785987645E-2,-6.852162629E-2,1.780759394E-1
3.018884163E1,3.735004691E-3,2.451489419E-1,1.131147891E-1
3.020884319E1,-1.701346934E-1,3.701668680E-1,1.267109066E-1
3.023086038E1,-4.425805807E-1,3.184004128E-1,-3.017674200E-2
3.025284163E1,-1.071003795E0,1.417591333E0,-5.012934804E-1
3.027284319E1,-1.110867143E0,2.037584543E0,-5.745449066E-1
3.029284319E1,-6.631901860E-1,2.287061930E0,-5.482951999E-1
3.031284319E1,-7.061602175E-2,2.293013573E0,-3.580892086E-1
3.033284319E1,3.099006712E-1,1.420156956E0,-3.202679008E-2
3.035284319E1,2.957285941E-1,1.844114810E-1,6.136577576E-2
3.037284319E1,1.578824818E-1,-6.966132522E-1,-2.958333194E-1
3.039284319E1,2.114815414E-1,-6.207786798E-1,-8.742353916E-1
3.041284319E1,6.444104910E-1,1.326799244E-1,-1.110727549E0
3.043284319E1,8.348782659E-1,5.198463202E-1,-6.758089662E-1
3.045284319E1,6.435203552E-1,1.068542957E0,1.240754575E-1
3.047284319E1,2.032086849E-1,1.362212062E0,5.029340982E-1
3.049284319E1,-5.270545483E-1,-7.431262732E-1,-4.358087108E-2
3.051284788E1,-6.158219576E-1,-6.331880093E-1,-7.723430991E-1
3.053484319E1,-3.164456487E-1,-7.273834348E-1,-1.126295924E0
3.055484319E1,6.846926361E-2,-9.294227362E-1,-1.216215253E0
3.057484319E1,3.320139945E-1,-7.753450871E-1,-1.480964184E0
3.059484319E1,5.601983070E-1,-7.452032566E-1,-1.495851874E0
3.061484319E1,7.637386322E-1,-8.796110153E-1,-1.275364399E0
3.063484631E1,8.251218796E-1,-6.023305655E-1,-1.078753114E0
3.065684319E1,7.056889534E-1,-1.277406514E-1,-7.612951398E-1
3.067684319E1,3.756646812E-1,-3.057293296E-1,-5.165825486E-1
3.069684319E1,1.177573651E-1,-3.413514793E-1,-3.318394423E-1
3.071684319E1,9.250245243E-2,-2.169793248E-1,-7.937757671E-2
3.073684319E1,9.789551795E-2,-2.381850779E-1,-4.707153141E-2
3.075684319E1,9.705775976E-2,-1.554739326E-1,-7.689920813E-2
3.077884319E1,2.526713014E-1,2.558478117E-1,-2.394591644E-2
3.080084162E1,2.492155582E-1,4.644670188E-1,8.353145421E-2
3.082084163E1,2.030865103E-1,5.196717978E-1,1.576555967E-1
3.084084319E1,1.111774743E-1,3.396236300E-1,8.918632567E-2
3.086084319E1,-3.619812801E-2,-1.341460049E-1,-5.391322076E-2
3.088084319E1,-1.587900519E-1,-2.289173901E-1,-8.672541380E-2
3.090084319E1,-3.555759192E-1,-1.289274693E-1,-4.680972919E-2
3.092084475E1,-6.007946730E-1,-2.366142869E-1,-8.272860944E-2
3.094284319E1,-6.803642511E-1,-6.701540947E-1,-2.619564533E-1
3.096284319E1,-2.740865052E-1,-8.044745922E-1,-1.926145405E-1
3.098284319E1,3.303384781E-1,-6.284756064E-1,2.221804112E-1
3.100284319E1,6.140766144E-1,-5.323428512E-1,4.286004901E-1
3.102284319E1,4.133288860E-1,-4.393691719E-1,5.587496758E-1
3.104284319E1,-5.391322076E-2,-3.367089033E-1,5.381373763E-1
3.106284319E1,-3.659780920E-1,-1.229759008E-1,3.917565942E-1
3.108284319E1,-4.206767082E-1,2.975786291E-2,3.407580853E-1
3.110284319E1,-2.462310493E-1,1.336398572E-1,3.425208628E-1
3.112284319E1,-2.506292798E-2,2.143264264E-1,3.459591568E-1
3.114284319E1,1.167276204E-1,2.826560736E-1,3.466049433E-1
3.116484319E1,1.898394674E-1,3.138450980E-1,3.361853063E-1
3.118484319E1,2.023360133E-1,2.866528630E-1,2.845061123E-1
3.120485412E1,1.773429066E-1,2.378883809E-1,2.433338016E-1
3.122684319E1,1.504299343E-1,1.744282097E-1,2.159844935E-1
3.124684475E1,1.842893213E-1,8.236208558E-2,1.301492006E-1
3.126884319E1,2.269277126E-1,-4.380776361E-2,1.919862116E-4
3.128884319E1,2.323731333E-1,-4.422664270E-2,-3.984586522E-2
3.130884319E1,1.469916254E-1,-4.604178667E-2,-3.635520861E-2
3.132884319E1,-5.235987483E-4,-2.708750963E-2,-9.826203436E-2
3.134884475E1,-1.225919276E-1,3.822271153E-2,-1.796292812E-1
3.137084319E1,-7.527604699E-2,2.637017965E-1,-1.758942753E-1
3.139084319E1,3.490658419E-4,3.483153582E-1,-1.330638975E-1
3.141084319E1,-8.264134079E-2,2.019520402E-1,-1.119628698E-1
3.143086350E1,-1.777792424E-1,1.924225539E-1,-1.196946800E-1
3.145284319E1,-1.677610427E-1,3.826634288E-1,-1.001993492E-1
3.147284319E1,-1.556833684E-1,4.537855983E-1,-7.888887823E-2
3.149284319E1,-2.084097713E-1,3.752807081E-1,-1.050513685E-1
3.151284319E1,-1.598023474E-1,2.100154608E-1,-2.452885658E-1
3.153284319E1,1.358564347E-1,3.145606816E-1,-3.368310928E-1
3.155285100E1,4.946088493E-1,4.089131951E-1,-2.457947135E-1
3.157484319E1,5.577374101E-1,-6.965608895E-2,-1.370607018E-1
3.159484788E1,4.022634923E-1,-4.481830895E-1,-2.183755934E-1
3.161684319E1,1.507091820E-1,-4.700520635E-1,-6.056292653E-1
3.163684319E1,-2.073451132E-2,-1.321388781E-1,-8.659625649E-1
3.165684319E1,-4.436627030E-2,2.634749115E-1,-8.070926070E-1
3.167684319E1,7.295476273E-3,3.430269957E-1,-5.988748074E-1
3.169684319E1,2.406809106E-2,1.903456002E-1,-4.571540952E-1
3.171684319E1,4.698426276E-2,8.004079759E-2,-4.478863776E-1
3.173684319E1,8.770279586E-2,5.354670063E-2,-4.566479325E-1
3.175684319E1,1.658935398E-1,5.190609023E-2,-3.865380585E-1
3.177684319E1,2.099107504E-1,6.119124219E-2,-2.969154119E-1
3.179684319E1,1.296430528E-1,1.092576142E-2,-2.615026832E-1
3.181684319E1,-2.858849242E-2,1.977458037E-2,-2.536835968E-1
3.183684319E1,-1.545139998E-1,7.588691264E-2,-1.883559376E-1
3.185684319E1,-2.171887755E-1,9.632471949E-2,-9.819222242E-2
3.187684319E1,-2.011317462E-1,9.773843735E-2,-7.522369269E-3
3.189684319E1,-1.570621729E-1,-2.291617356E-2,-1.148426626E-2
3.191684319E1,-2.385865152E-2,-7.623597980E-2,-4.258603230E-2
3.193684319E1,1.606924683E-1,5.361651629E-2,-1.436406001E-2
3.195684319E1,3.203900754E-1,2.618168294E-1,8.100073040E-2
3.197684319E1,4.010941088E-1,4.117580652E-1,1.340936422E-1
3.199684319E1,4.301887453E-1,7.625867128E-1,2.363350391E-1
3.201684319E1,2.605602145E-1,5.773025751E-1,2.896199226E-1
3.203684319E1,-1.289100200E-1,-2.390403003E-1,2.562143281E-2
3.205684319E1,-2.388657629E-1,-5.239827633E-1,-2.050587386E-1
3.207684319E1,1.521054506E-1,-1.645845473E-1,-1.763829738E-1
3.209684319E1,4.150393009E-1,-1.576032303E-2,1.136383861E-1
3.211684319E1,1.223999411E-1,-4.734554589E-1,3.978827000E-1
3.213684319E1,-2.710321844E-1,-6.618114114E-1,3.643374741E-1
3.215684319E1,-3.499385118E-1,-3.810926378E-1,1.865058839E-1
3.217684319E1,-1.683195531E-1,1.079311594E-1,9.730210900E-2
3.219684319E1,9.878563695E-3,3.619114757E-1,1.865582466E-1
3.221684319E1,7.728318125E-2,3.070034087E-1,3.105115294E-1
3.223684475E1,1.067443341E-1,1.413891166E-1,3.558202684E-1
3.225684475E1,1.045801267E-1,-1.478293911E-2,2.673146129E-1
3.227884319E1,8.806931227E-2,-7.234390080E-2,1.798038185E-1
3.229884319E1,9.916960448E-2,-4.464552179E-2,1.243023500E-1
3.231884319E1,1.056098714E-1,-4.293509945E-2,8.583529294E-2
3.233884319E1,6.349507719E-2,-8.264134079E-2,4.523893446E-2
3.235884319E1,1.106538717E-2,-1.493652761E-1,1.082104165E-2
3.237884319E1,-2.323033288E-2,-1.799958050E-1,-1.965240762E-2
3.239884319E1,2.958333120E-2,-7.995353639E-2,-5.689773243E-3
3.241884319E1,1.209687665E-1,-4.747295752E-3,6.963863503E-3
3.243884319E1,2.135933936E-1,-1.281246245E-1,1.043706853E-2
3.245884319E1,2.008699477E-1,-2.965314388E-1,-1.174606569E-2
3.247884319E1,3.956661373E-2,-4.853411615E-1,-8.246680349E-2
3.249884319E1,2.757620253E-2,-3.676885068E-1,-9.936159104E-2
3.251888538E1,2.323905826E-1,2.506292798E-2,-1.233947743E-2
3.254084319E1,4.262617528E-1,3.262020350E-1,8.998917788E-2
3.256084319E1,4.911705554E-1,3.399901390E-1,1.112996489E-1
3.258084319E1,3.986332119E-1,3.885103017E-2,-1.500983140E-3
3.260084319E1,2.519731820E-1,-1.314407438E-1,-1.779712290E-1
3.262284319E1,2.309419662E-1,1.026951745E-1,-2.660928965E-1
3.264484163E1,2.717826664E-1,7.871434838E-2,-1.580570191E-1
3.266484319E1,2.390403003E-1,-2.395115346E-1,-5.504768342E-2
3.268684319E1,1.169719696E-1,-4.788136184E-1,-9.648180008E-2
3.270884319E1,2.033308521E-2,-3.368310928E-1,-2.844013870E-1
3.273086038E1,-7.728318125E-2,-2.124240249E-1,-4.666835964E-1
3.275285100E1,-1.367290914E-1,-1.879196018E-1,-4.904724360E-1
3.277484162E1,-1.019272301E-2,-1.030965969E-1,-3.637789786E-1
3.279484788E1,1.689478755E-1,-2.279400080E-2,-2.504198253E-1
3.281684162E1,3.022735715E-1,1.221730490E-4,-1.816887707E-1
3.283684163E1,4.018271565E-1,6.475171447E-2,-1.603957564E-1
3.285684319E1,4.231027067E-1,4.024729133E-2,-4.839798063E-2
3.287884162E1,3.001791835E-1,-8.229227364E-2,3.782128543E-2
3.289884162E1,1.169021502E-1,-2.566332221E-1,4.661774263E-2
3.291884162E1,3.981095925E-2,-2.848900855E-1,3.939208016E-2
3.293884319E1,5.152212083E-2,-1.145459563E-1,1.174606606E-1
3.296084319E1,6.157521531E-2,6.937684119E-2,2.301740199E-1
3.298284162E1,6.632251292E-2,1.947438419E-1,3.531673849E-1
3.300284319E1,9.215338528E-2,2.058092207E-1,4.423711598E-1
3.302284319E1,1.249655709E-1,1.507091820E-1,4.565781355E-1
3.304284319E1,1.932952106E-1,5.356415361E-2,3.581764698E-1
3.306284319E1,3.193603456E-1,5.492551252E-2,1.832072139E-1
3.308284319E1,4.578696787E-1,2.772455513E-1,4.003785178E-2
3.310284319E1,4.954989851E-1,1.217716187E-1,1.431170013E-2
3.312284319E1,4.578522146E-1,-4.767541289E-1,-1.226966456E-2
3.314284319E1,5.534264445E-1,-6.782523990E-1,1.087340154E-2
3.316484319E1,8.764171004E-1,-1.251575649E-1,9.187413007E-2
3.318484944E1,8.384212852E-1,-6.731735170E-2,1.770112962E-1
3.320486038E1,3.092025220E-1,-1.775174439E-1,1.840100586E-1
3.322684319E1,-9.098401666E-2,-1.470789015E-1,2.974041104E-1
3.324684319E1,-7.391469181E-2,1.174606569E-2,4.698950052E-1
3.326684319E1,-4.693190381E-2,2.044653147E-1,5.059011579E-1
3.328884319E1,-1.098510250E-1,2.779262364E-1,4.699473381E-1
3.331084319E1,-1.372177899E-1,1.752136052E-1,3.786317408E-1
3.333086038E1,-1.051735431E-1,2.228087336E-1,3.283138871E-1
3.335284162E1,-5.520476401E-2,4.207290709E-1,2.879269719E-1
3.337284162E1,-6.349507719E-2,4.867723286E-1,2.297376841E-1
3.339284162E1,-1.577777565E-1,4.114788175E-1,1.789136976E-1
3.341284319E1,-2.649758756E-1,3.543367386E-1,1.056796834E-1
3.343484788E1,-2.490410358E-1,3.876550794E-1,5.599016324E-2
3.345684319E1,-1.313360184E-1,3.310191333E-1,8.337438107E-2
3.347684319E1,-1.231853366E-1,1.195899621E-1,8.421213925E-2
3.349684319E1,-1.945343912E-1,1.032013148E-1,4.176572710E-2
3.351688381E1,-2.942101657E-1,2.016553432E-1,-4.136430100E-3
3.353884162E1,-3.013485372E-1,3.803595901E-1,3.368485486E-3
3.355884162E1,-1.913055331E-1,4.470486343E-1,-3.071779385E-2
3.357884631E1,-3.150319308E-2,2.675415277E-1,-8.014551550E-2
3.360084162E1,-1.125737373E-2,-6.876597181E-3,-9.166469425E-2
3.362084319E1,-1.106538773E-1,1.616174914E-2,-6.569419056E-2
3.364284162E1,-3.041585386E-1,2.982244194E-1,5.010840297E-2
3.366284319E1,-4.430867434E-1,4.309915900E-1,2.248158604E-1
3.368484163E1,-5.075243115E-1,1.807812005E-1,2.783102095E-1
3.370484319E1,-4.641703069E-1,-2.601936758E-1,4.700171575E-2
3.372484944E1,-3.110525906E-1,-4.360007048E-1,-2.497391552E-1
3.374486038E1,1.354375482E-2,-3.943571448E-1,-3.475823104E-1
3.376684319E1,2.176076472E-1,-5.747368932E-1,-2.527411282E-1
3.378684319E1,1.834166497E-1,-7.509977221E-1,-1.865931451E-1
3.380884162E1,2.687807009E-2,-5.837253928E-1,-3.399552405E-1
3.382884319E1,-1.938013583E-1,-2.216219008E-1,-5.688900948E-1
3.384884319E1,-3.770783842E-1,3.218387067E-2,-7.398625016E-1
3.386884631E1,-4.414984882E-1,6.326818466E-2,-7.550119758E-1
3.389084319E1,-3.938160837E-1,-7.592182141E-3,-6.396108270E-1
3.391084944E1,-2.607347369E-1,2.071705833E-2,-5.097757578E-1
3.393086038E1,-6.557202339E-2,1.423141509E-1,-3.799058199E-1
3.395286350E1,1.105142459E-1,1.573937982E-1,-2.960078418E-1
3.397484475E1,1.134463996E-1,4.801400751E-2,-2.003637999E-1
3.399684162E1,3.234095126E-2,3.537782282E-2,-1.449670494E-1
3.401684319E1,-4.113740847E-2,8.148942143E-2,-1.088910922E-1
3.403684319E1,-1.035329327E-1,1.509186178E-1,-3.949680179E-2
3.405684319E1,-1.181587875E-1,1.643925607E-1,4.967207089E-2
3.407684631E1,-9.372418374E-2,2.235592157E-1,1.003564298E-1
3.409884319E1,-1.603783071E-1,2.458296269E-1,1.171814054E-1
3.411884319E1,-2.469466329E-1,2.191784531E-1,9.763371944E-2
3.413884319E1,-1.710946262E-1,1.983043104E-1,5.880014226E-2
3.415884319E1,3.459242731E-2,2.495995313E-1,9.293878078E-2
3.417884319E1,1.753008664E-1,3.513696790E-1,1.681799293E-1
3.419884319E1,1.608669907E-1,4.453207552E-1,2.728647888E-1
3.421884319E1,-9.152506292E-2,3.176150024E-1,3.862239122E-1
3.423884319E1,-5.397081375E-1,-1.612509638E-1,3.566580415E-1
3.425884319E1,-6.784967184E-1,-4.361054301E-1,2.538232207E-1
3.427884319E1,-2.349213213E-1,-1.806415766E-1,2.887821794E-1
3.429884319E1,3.825238049E-1,3.657686412E-1,4.869817793E-1
3.431884319E1,3.336545825E-1,2.216568142E-1,6.293657422E-1
3.433884319E1,-1.831548512E-1,-1.197644919E-1,5.918411613E-1
3.435884319E1,-5.668305755E-1,-2.669655681E-1,4.007101357E-1
3.437884319E1,-6.047565937E-1,-4.577998444E-2,2.464404851E-1
3.439884319E1,-5.499532223E-1,1.639736891E-1,2.229134440E-1
3.441884319E1,-5.218359828E-1,2.079210728E-1,2.877000868E-1
3.443884319E1,-4.441863000E-1,1.637991518E-1,4.036073983E-1
3.445884319E1,-2.378011048E-1,2.230705321E-1,4.683765471E-1
3.447884319E1,-3.457497060E-2,3.590142131E-1,4.697204530E-1
3.449884319E1,8.552113548E-3,3.940778971E-1,4.099603891E-1
3.451884319E1,-5.242969096E-2,2.815565169E-1,3.173532188E-1
3.453884319E1,-1.056447774E-1,7.986626774E-2,2.478891164E-1
3.455884319E1,-7.991862297E-2,-3.673918173E-2,1.860520989E-1
3.457884319E1,-6.963863503E-3,-3.049090132E-2,1.348615885E-1
3.459884319E1,5.689773243E-3,-3.696607426E-2,8.878489584E-2
3.461884319E1,-3.401646763E-2,-1.227664575E-1,3.970624134E-2
3.463884319E1,-4.255112633E-2,-1.583886296E-1,3.560471581E-3
3.465884319E1,2.939134464E-2,-1.204800755E-1,-8.883725852E-3
3.468084319E1,3.586651757E-2,-1.698903441E-1,-5.258677155E-2
3.470084319E1,-5.838126317E-2,-2.602809370E-1,-6.771877408E-2
3.472284319E1,-5.799729005E-2,-3.285407722E-1,-4.925319180E-2
3.474284319E1,-2.235766686E-2,-2.619041204E-1,-4.209734127E-2
3.476284319E1,-4.429645464E-2,-1.007753089E-1,-6.571164727E-2
3.478284319E1,-1.321388781E-1,-4.040437192E-2,-1.030442417E-1
3.480484319E1,-2.035402954E-1,1.553343050E-2,-9.126326442E-2
3.482484319E1,-2.883807421E-1,-3.537782282E-2,-1.333082467E-1
3.484484788E1,-2.973168492E-1,-4.754276946E-2,-3.156602383E-1
3.486486038E1,-1.848303713E-2,1.250702888E-1,-3.838153481E-1
3.488684319E1,3.466573060E-1,-6.862634420E-2,-1.951103508E-1
3.490684475E1,4.909960330E-1,-4.998273849E-1,7.906341925E-3
3.492884319E1,4.907691181E-1,-6.006724834E-1,-6.113888323E-2
3.494884319E1,3.910584748E-1,-3.447199762E-1,-3.395189047E-1
3.496884319E1,1.845511198E-1,-1.907644793E-2,-5.523967147E-1
3.498884319E1,-1.089259982E-1,1.935221106E-1,-6.029589176E-1
3.500884319E1,-3.062529266E-1,2.484476119E-1,-5.397430658E-1
3.502884319E1,-3.032509685E-1,1.914800704E-1,-4.746422768E-1
3.504884319E1,-1.919338554E-1,1.187696531E-1,-4.002389014E-1
3.506884319E1,-7.120943069E-2,6.110397726E-2,-3.199886680E-1
3.508884319E1,-1.073377486E-2,2.548180753E-3,-2.294933498E-1
3.510884319E1,6.475171540E-3,3.926991019E-3,-1.243896186E-1
3.512884319E1,-1.631882787E-2,6.550220400E-2,-2.659881860E-2
3.514884631E1,-1.134813055E-1,1.231329814E-1,8.229227364E-2
3.517084319E1,-1.751088798E-1,1.777268797E-1,2.270673364E-1
3.519084319E1,-1.573239714E-1,2.263866514E-1,2.954144180E-1
3.521084319E1,-1.318421662E-1,1.297128648E-1,2.936691046E-1
3.523086194E1,-6.448991597E-2,-1.544616371E-2,2.656740248E-1
3.525284319E1,3.083996847E-2,-7.271041721E-2,2.694962919E-1
3.527284319E1,9.428268671E-2,-4.687954485E-2,3.584033549E-1
3.529484944E1,1.247037724E-1,3.347541392E-2,4.220729768E-1
3.531684319E1,1.073377505E-1,3.657861054E-1,3.246661425E-1
3.533684319E1,-2.574360557E-2,5.749638081E-1,1.939060837E-1
3.535684319E1,-2.164906412E-1,4.319515228E-1,1.208640486E-1
3.537684319E1,-2.785719931E-1,1.861219108E-1,1.239707395E-1
3.539684319E1,-2.892010473E-2,1.009498462E-1,1.788089871E-1
3.541684319E1,2.727077007E-1,6.632251199E-3,2.366317362E-1
3.543684319E1,2.860245705E-1,-3.617543876E-1,3.086265624E-1
3.545684319E1,5.871287733E-2,-5.549798012E-1,2.382025421E-1
3.547684319E1,-1.639038622E-1,-4.054225385E-1,1.435358822E-1
3.549684319E1,-2.576105893E-1,-1.095194072E-1,1.625250578E-1
3.551684319E1,-3.028320670E-1,1.125562862E-1,2.854136825E-1
3.553684319E1,-3.068812490E-1,2.213601023E-1,4.061555564E-1
3.555684319E1,-2.280098200E-1,2.455329150E-1,4.801400900E-1
3.557684319E1,-5.918411538E-2,2.753955126E-1,5.088682175E-1
3.559684319E1,8.005825430E-2,2.968979478E-1,5.209458470E-1
3.561684319E1,1.011243761E-1,2.746450007E-1,5.291140079E-1
3.563684319E1,4.865977913E-2,1.727701426E-1,5.272814035E-1
3.565684319E1,-3.722787276E-2,7.642796636E-2,5.298819542E-1
3.567684319E1,-8.716174215E-2,2.221804112E-2,5.144008994E-1
3.569684319E1,-9.454448521E-2,3.420845419E-2,4.904375076E-1
3.571684319E1,-7.761479169E-2,4.047418386E-2,4.474500716E-1
3.573684319E1,-9.086184204E-2,1.000073627E-1,4.032932222E-1
3.575684319E1,-2.426007688E-1,2.103819847E-1,3.605152071E-1
3.577684319E1,-4.640830457E-1,3.438298702E-1,3.209137022E-1
3.579684319E1,-6.566627026E-1,3.662049770E-1,2.931978703E-1
3.581684319E1,-8.612501621E-1,7.026695460E-2,2.299122214E-1
3.583684319E1,-1.069241047E0,-2.189341038E-1,9.546951205E-2
3.585684319E1,-1.016200542E0,-1.264665574E-1,9.143780172E-2
3.587684319E1,-6.917787194E-1,3.310889602E-1,2.523920536E-1
3.589684319E1,-4.810301960E-1,6.133959889E-1,5.037020445E-1
3.591684319E1,-5.653644800E-1,5.969026089E-1,5.876872540E-1
3.593684319E1,-7.171732187E-1,2.542421222E-1,4.567701221E-1
3.595684319E1,-4.720941186E-1,-1.480388194E-1,1.940457076E-1
3.597684319E1,2.192133516E-1,-2.546086311E-1,1.270425171E-1
3.599684319E1,9.206088185E-1,-4.514119625E-1,2.419898957E-1
3.601684319E1,1.261489034E0,-7.424455881E-1,3.411245942E-1
3.603684319E1,1.312679529E0,-9.063669443E-1,2.345198840E-1
3.605684319E1,1.298106074E0,-7.393563986E-1,-8.180358261E-2
3.607684319E1,1.135092378E0,-2.501580417E-1,-4.773824513E-1
3.609684319E1,7.721860409E-1,3.823667169E-1,-7.479259372E-1
3.611684319E1,3.861366510E-1,1.024613023E0,-8.323300481E-1
3.613684319E1,1.114916354E-1,1.428115606E0,-7.701090574E-1
3.615684319E1,-2.799508162E-2,1.498679280E0,-6.560168862E-1
3.617684319E1,-8.183848858E-2,1.247683525E0,-5.251695514E-1
3.619684319E1,-9.819222242E-2,8.202698231E-1,-4.543615580E-1
3.621684319E1,-1.112821922E-1,3.463256955E-1,-4.739790559E-1
3.623684319E1,-1.537111402E-1,-7.417649496E-3,-5.018694401E-1
3.625684319E1,-2.518335581E-1,-1.359262466E-1,-4.500331581E-1
3.627684319E1,-4.300142229E-1,-6.824237108E-2,-3.857875764E-1
3.629684319E1,-6.876422763E-1,9.231046587E-2,-3.200410306E-1
3.631684319E1,-9.070824981E-1,2.352354825E-1,-2.101201862E-1
3.633684319E1,-9.722705483E-1,3.669205606E-1,-8.908160776E-2
3.635684319E1,-7.960097790E-1,3.559773564E-1,6.208136305E-2
3.637684319E1,-3.558028340E-1,5.700245500E-2,1.596976221E-1
3.639684319E1,9.016370773E-2,-3.078935444E-1,2.575233281E-1
3.641684319E1,2.973866463E-1,-4.057715833E-1,3.336545825E-1
3.643684319E1,2.937563658E-1,-1.957561225E-1,3.599392474E-1
3.645684319E1,1.087340117E-1,5.492551252E-2,3.257831633E-1
3.647684475E1,-1.011243761E-1,1.466425657E-1,2.414139360E-1
3.649884319E1,-2.923426405E-2,1.867851317E-1,2.080606967E-1
3.651884319E1,2.783276439E-1,2.818706632E-1,3.229731917E-1
3.653884319E1,4.982914925E-1,3.995233178E-1,5.120970607E-1
3.655884319E1,3.849498332E-1,3.666413128E-1,6.651624441E-1
3.657884319E1,-5.277875811E-2,1.587726027E-1,7.008892894E-1
3.659884319E1,-4.425980449E-1,2.202605456E-2,4.581140280E-1
3.661884319E1,-6.494893432E-1,1.024857312E-1,1.235867664E-1
3.663884319E1,-8.186990619E-1,1.718974710E-1,-1.325926632E-1
3.665884319E1,-8.796982765E-1,1.307426095E-1,-2.244144380E-1
3.667884319E1,-5.788908005E-1,-4.680972919E-2,-7.379251719E-2
3.670084319E1,-1.900663599E-2,-1.819854826E-1,2.152339965E-1
3.672084319E1,3.291690946E-1,-1.756673902E-1,3.973416686E-1
3.674084319E1,4.526336789E-1,-1.889493465E-1,4.639783204E-1
3.676084319E1,4.727747738E-1,-1.228188202E-1,4.985882044E-1
3.678084319E1,2.714335918E-1,5.202826485E-2,3.780034184E-1
3.680084319E1,-1.918291301E-1,3.315950930E-1,7.009242475E-2
3.682084319E1,-5.668305755E-1,4.396833479E-1,-1.883908361E-1
3.684084319E1,-6.408325434E-1,2.563539743E-1,-3.188891113E-1
3.686084319E1,-4.829325974E-1,-7.147122920E-2,-4.211479425E-1
3.688084319E1,-1.354899108E-1,-3.270572424E-1,-4.937536418E-1
3.690084319E1,3.062878251E-1,-4.232248962E-1,-3.408453465E-1
3.692084319E1,5.071752071E-1,-5.235638618E-1,-1.264840066E-1
3.694084319E1,3.669729233E-1,-7.127051950E-1,7.852236181E-2
3.696084475E1,6.209881604E-2,-7.537727952E-1,8.922123164E-2
3.698284319E1,-1.786344498E-1,-3.950203657E-1,7.175048441E-2
3.700284319E1,-2.736327052E-1,1.183507740E-1,1.210909411E-1
3.702284319E1,-4.965287149E-1,4.598768055E-1,3.666936606E-2
3.704284319E1,-8.646361232E-1,2.931629419E-1,-2.789559662E-1
3.706284319E1,-8.238303065E-1,-2.247111350E-1,-7.228106260E-1
3.708284319E1,-9.450957924E-2,-6.610609293E-1,-9.463349581E-1
3.710284319E1,8.310036063E-1,-8.081921339E-1,-7.206988335E-1
3.712284319E1,1.237176657E0,-8.185419440E-1,-4.323878586E-1
3.714484475E1,1.037406206E0,-5.618040562E-1,-4.568050206E-1
3.716684319E1,6.534337997E-1,3.345796093E-2,-7.502472401E-1
3.718684319E1,3.776718080E-1,4.572064579E-1,-9.387776852E-1
3.720684319E1,2.271196991E-1,6.507809162E-1,-9.041154385E-1
3.722684319E1,1.332209855E-1,5.454154015E-1,-7.334396839E-1
3.724884163E1,9.498082101E-2,2.233148813E-1,-5.583308339E-1
3.726884162E1,1.416683793E-1,-5.169665068E-2,-4.683067501E-1
3.728884162E1,2.118306160E-1,-2.025978118E-1,-4.556182027E-1
3.730884162E1,1.564513147E-1,-2.645221055E-1,-4.335746765E-1
3.732884162E1,-3.787364578E-3,-2.481683642E-1,-3.822969198E-1
3.734884163E1,-1.813047975E-1,-1.651081443E-1,-3.329913616E-1
3.736884319E1,-2.909812927E-1,-1.514596790E-1,-2.978055179E-1
3.739084162E1,-2.972993851E-1,-1.541474760E-1,-2.172585875E-1
3.741084162E1,-2.695660889E-1,-1.615651250E-1,-1.117534339E-1
3.743086194E1,-2.917143404E-1,-1.416334659E-1,1.197295822E-2
3.745284163E1,-4.672769904E-1,-1.576206833E-1,4.300491139E-2
3.747284162E1,-5.848074555E-1,-2.016553432E-1,-5.897467583E-2
3.749284163E1,-5.318192840E-1,-2.553940415E-1,-1.112996489E-1
3.751284162E1,-2.785021961E-1,-2.175378352E-1,-5.340707488E-3
3.753284162E1,4.415682983E-3,-8.829620481E-2,1.985661089E-1
3.755284319E1,1.156804189E-1,6.531021744E-2,3.891037107E-1
3.757484944E1,6.389650702E-2,2.106612362E-2,3.354348242E-1
3.759684162E1,6.785839796E-2,-2.150245607E-1,9.197884798E-2
3.761684319E1,4.116184413E-1,-1.804146916E-1,9.709266573E-2
3.763884163E1,8.368679285E-1,2.340486459E-2,3.358536959E-1
3.765884162E1,7.031407952E-1,-1.180540696E-1,4.623377025E-1
3.767884163E1,1.933999360E-1,-3.711268008E-1,3.451563120E-1
3.769884162E1,-1.923003793E-1,-4.478689432E-1,4.701916873E-2
3.771884319E1,-3.101275563E-1,-4.108330607E-1,-2.086017579E-1
3.774084162E1,-3.261147738E-1,-4.273438752E-1,-2.559525371E-1
3.776084163E1,-2.801602483E-1,-3.693465889E-1,-1.274613887E-1
3.778084162E1,-1.974840015E-1,-2.173458487E-1,3.522074595E-2
3.780084163E1,-1.022588387E-1,-1.398183256E-1,1.330813617E-1
3.782084162E1,1.409178823E-1,-2.450442314E-2,1.908168495E-1
3.784084162E1,3.979874253E-1,-3.193952609E-3,2.543119192E-1
3.786084162E1,4.267329872E-1,-1.191710830E-1,2.988701761E-1
3.788084319E1,2.671051919E-1,-3.082600534E-1,2.891836166E-1
3.790284162E1,1.407433450E-1,-4.361228645E-1,1.777094305E-1
3.792284163E1,1.074773744E-1,-3.410547972E-1,-1.455604564E-2
3.794284162E1,5.480333697E-3,-2.055125237E-1,-1.387362182E-1
3.796284162E1,-1.266759932E-1,-1.495398134E-1,-2.177821845E-1
3.798284162E1,-2.004859746E-1,-2.475575060E-1,-2.802475095E-1
3.800284162E1,-2.175378352E-1,-3.963642716E-1,-2.754129469E-1
3.802284163E1,-3.497988880E-1,-6.155601740E-1,-2.388832122E-1
3.804284162E1,-6.493322849E-1,-5.906019807E-1,-1.815142483E-1
3.806284319E1,-8.448964357E-1,-1.174082980E-1,-5.825908855E-2
3.808484319E1,-8.175820112E-1,4.239579141E-1,1.264316440E-1
3.810485100E1,-8.045095205E-1,4.780631363E-1,2.490584850E-1
3.812684319E1,-9.314473271E-1,1.244419739E-1,1.041787043E-1
3.814684319E1,-7.752228975E-1,-2.573837042E-1,-1.991595179E-1
3.816684319E1,-1.372876018E-1,-3.622430861E-1,-2.925346494E-1
3.818684319E1,5.878269076E-1,-1.867851317E-1,-9.512044489E-2
3.820684319E1,7.392691374E-1,-9.827949107E-2,8.433430642E-2
3.822684319E1,4.346393347E-1,2.762856148E-2,-2.827433404E-3
3.824684319E1,2.375916690E-1,2.616074085E-1,-2.439795732E-1
3.826684319E1,2.254965454E-1,5.295677781E-1,-4.606971145E-1
3.828884162E1,1.840798706E-1,6.877295375E-1,-4.900535345E-1
3.830884162E1,8.419468254E-2,6.988472939E-1,-4.107283354E-1
3.832884162E1,6.091198884E-3,5.879665017E-1,-3.477045000E-1
3.834884319E1,-3.103195317E-2,3.116285503E-1,-3.492054641E-1
3.837084163E1,4.759512842E-2,-6.330309063E-2,-3.511951566E-1
3.839084319E1,1.405862719E-1,-3.481582701E-1,-2.943846881E-1
3.841284319E1,1.712691635E-1,-5.932025313E-1,-1.548106968E-1
3.843484163E1,1.236565784E-1,-6.879738569E-1,-4.052654654E-2
3.845484319E1,5.616469681E-2,-6.455624104E-1,-6.859143730E-3
3.847684319E1,4.536110535E-2,-4.220380783E-1,3.478441015E-2
3.849884319E1,1.637118869E-2,-1.536413282E-1,1.379857361E-1
3.852084162E1,-1.707979143E-1,1.179493517E-1,2.493028343E-1
3.854084163E1,-2.586927116E-1,3.334975243E-1,3.203377426E-1
3.856084162E1,-1.343729049E-1,3.953345418E-1,3.441265821E-1
3.858084319E1,3.331833705E-2,2.567553818E-1,2.894454002E-1
3.860084319E1,9.231046587E-2,3.817034885E-2,1.179668009E-1
3.862284319E1,2.076941775E-3,1.284562331E-2,-3.588397056E-2
3.864484163E1,-4.590216093E-3,1.278977245E-1,3.303908184E-2
3.866484319E1,2.246936858E-1,4.440117627E-2,1.148775741E-1
3.868684319E1,6.255958080E-1,-2.088286430E-1,7.614871860E-2
3.870884319E1,7.960795760E-1,-4.711341858E-1,9.066985548E-2
3.873086038E1,5.845806003E-1,-6.419495344E-1,9.051277488E-2
3.875284162E1,2.860594690E-1,-4.672420919E-1,-8.464846760E-3
3.877284319E1,1.185078546E-2,-9.285151958E-2,-1.477421224E-1
3.879484319E1,-3.651577830E-1,1.643576622E-1,-2.688854337E-1
3.881484319E1,-5.594478250E-1,1.877799779E-1,-2.657263875E-1
3.883684319E1,-4.517784715E-1,1.687907875E-1,-1.525592357E-1
3.885884163E1,-1.495572627E-1,5.414011329E-2,-2.708750963E-2
3.887884162E1,4.576253146E-2,-1.062905509E-2,7.358308136E-2
3.889884162E1,1.283166111E-1,-7.375761122E-2,6.684610993E-2
3.891884162E1,1.940631568E-1,-2.180614322E-1,-3.469714522E-2
3.893884162E1,3.045250475E-1,-3.128502667E-1,-1.781632155E-1
3.895884163E1,4.201356471E-1,-2.231403440E-1,-3.261496723E-1
3.897884162E1,4.436976016E-1,-2.097885683E-2,-4.815363288E-1
3.899884319E1,3.087312877E-1,1.362404078E-1,-5.560793281E-1
3.902084162E1,-2.659881860E-2,1.325403005E-1,-6.319313645E-1
3.904084163E1,-3.509159088E-1,-6.515314430E-2,-7.151312232E-1
3.906084162E1,-5.072275996E-1,-2.918539643E-1,-7.457792163E-1
3.908084163E1,-3.995582163E-1,-4.064871669E-1,-5.743878484E-1
3.910084162E1,-1.399579495E-1,-3.486818671E-1,-1.448274255E-1
3.912084163E1,1.935570128E-2,-1.969604045E-1,2.407681644E-1
3.914084162E1,1.050339118E-1,1.741314977E-1,5.410346389E-1
3.916084162E1,1.220508739E-1,4.340110123E-1,6.829822659E-1
3.918084162E1,-3.118903376E-2,3.427826762E-1,5.504943132E-1
3.920084162E1,-2.127381861E-1,-3.003711626E-2,1.266759932E-1
3.922084163E1,-1.820901930E-1,-2.748719156E-1,-4.261395931E-1
3.924084319E1,8.998917788E-2,-4.885176420E-1,-6.311634183E-1
3.926284162E1,3.827856183E-1,-6.567150354E-1,-3.874107301E-1
3.928284319E1,3.343876302E-1,-5.702165365E-1,-4.380776361E-2
3.930484631E1,8.789478242E-2,-5.537929758E-2,-5.883504823E-2
3.932684319E1,-1.139525473E-1,3.133563995E-1,-2.407507151E-1
3.934884163E1,-2.007652223E-1,4.439943135E-1,-2.583436370E-1
3.936884319E1,-1.703790426E-1,3.649308980E-1,-1.387885809E-1
3.938884319E1,-1.039867178E-1,2.028596252E-1,-2.293362655E-2
3.941084162E1,9.442231618E-3,7.365289610E-3,6.984807551E-2
3.943086194E1,1.022413895E-1,-5.541420355E-2,1.501681209E-1
3.945284163E1,1.230282560E-1,-1.318770796E-1,2.170142382E-1
3.947284162E1,1.192932576E-1,-1.735031754E-1,2.564412355E-1
3.949284163E1,1.048070192E-1,-1.296430528E-1,3.169343472E-1
3.951284162E1,3.141592606E-4,-1.205498874E-1,3.518758416E-1
3.953284162E1,-1.999623775E-1,-1.824043542E-1,3.485597074E-1
3.955284319E1,-3.848974705E-1,-2.828480601E-1,3.048566580E-1
3.957484163E1,-4.659505486E-1,-4.339237511E-1,2.637192607E-1
3.959484319E1,-4.587074220E-1,-5.079431534E-1,2.831447721E-1
3.961684319E1,-3.455228209E-1,-5.926614404E-1,3.524168730E-1
3.963884163E1,-2.252347320E-1,-5.919458866E-1,4.044626057E-1
3.965884319E1,-9.066985548E-2,-3.182607889E-1,3.396236300E-1
3.968084162E1,6.977826357E-2,2.067167908E-1,2.396162450E-1
3.970084162E1,8.328711241E-2,4.320038855E-1,2.739294171E-1
3.972084163E1,-1.155408006E-2,2.072229385E-1,1.033758521E-1
3.974084319E1,5.989969894E-2,1.653699428E-1,-9.206611663E-2
3.976284162E1,2.426182181E-1,3.118030727E-1,-5.286602303E-2
3.978284162E1,1.839227974E-1,2.170491517E-1,1.647416204E-1
3.980284162E1,-1.101302728E-1,5.939355493E-2,2.309594154E-1
3.982284162E1,-4.583583772E-1,4.150392860E-2,8.817403018E-2
3.984284319E1,-6.170436740E-1,7.990117371E-2,-4.331907257E-2
3.986484631E1,-6.176894903E-1,1.707804650E-1,3.993313387E-2
3.988484944E1,-4.810999930E-1,2.253045589E-1,2.837556303E-1
3.990485100E1,-2.257408798E-1,1.862615347E-1,4.684463739E-1
3.992684162E1,6.841690745E-3,1.205498874E-1,4.751309752E-1
3.994684163E1,1.228886321E-1,8.309512585E-2,4.035026729E-1
3.996684319E1,2.082701325E-1,6.508332491E-2,3.516838551E-1
3.998684319E1,3.077189922E-1,-2.305579931E-2,3.327993751E-1
4.000684319E1,3.103370070E-1,-1.248783097E-1,2.932327688E-1
4.002684319E1,1.406037211E-1,-1.982170492E-1,2.796715498E-1
4.004684319E1,-4.057890549E-2,-2.643301189E-1,2.740690410E-1
4.006684319E1,-6.312856078E-2,-2.803173363E-1,2.411346883E-1
4.008684319E1,5.761331692E-2,-3.658384681E-1,1.952150762E-1
4.010684319E1,1.588075012E-1,-3.599043489E-1,1.774476171E-1
4.012684319E1,4.853760451E-2,-3.585255444E-1,1.478817463E-1
4.014684319E1,-8.344419301E-2,-2.824640870E-1,1.968556792E-1
4.016684319E1,-1.298175901E-1,-1.024333760E-1,1.916371584E-1
4.018684475E1,-2.463357747E-1,1.381428093E-1,-9.334021062E-2
4.020884475E1,-4.793197811E-1,4.658981860E-1,-4.160166681E-1
4.023086194E1,-4.976980984E-1,3.455577493E-1,-4.821472168E-1
4.025284631E1,-4.759512842E-1,-4.442735612E-1,-6.472204328E-1
4.027484319E1,-4.984311163E-1,-1.104496717E0,-9.102240801E-1
4.029484319E1,-3.714933395E-1,-1.443910837E0,-9.659001231E-1
4.031484319E1,-8.550368249E-2,-1.630364418E0,-7.376633883E-1
4.033684319E1,2.500882149E-1,-9.654812217E-1,-4.007275999E-1
4.035884319E1,2.889043391E-1,3.695560098E-1,-2.826909721E-1
4.038084319E1,-1.262745708E-1,1.304267049E0,-3.555759192E-1
4.040284162E1,-5.272116065E-1,1.664293647E0,-4.400498569E-1
4.042284163E1,-5.140169263E-1,1.552505255E0,-3.466049433E-1
4.044284162E1,-2.204001844E-1,1.230317473E0,-1.829105020E-1
4.046284162E1,9.908234328E-2,8.395033479E-1,-4.694935679E-2
4.048284319E1,3.003362417E-1,4.764748812E-1,1.193805225E-2
4.050288538E1,3.795742095E-1,2.530552745E-1,-3.848451003E-2
4.052484319E1,3.438298702E-1,2.030341476E-1,-6.832963973E-2
4.054484944E1,1.970476657E-1,2.016378939E-1,-3.687880561E-2
4.056684319E1,-1.499237865E-2,8.948303014E-2,-1.221730490E-4
4.058684319E1,-2.907718532E-2,-1.563815027E-2,-3.584906086E-2
4.060684319E1,1.304633617E-1,-4.633849114E-2,-9.519025683E-2
4.062684319E1,2.925520837E-1,-1.431868076E-1,-9.635962546E-2
4.064684319E1,3.681772053E-1,-2.239431888E-1,7.644542027E-3
4.066884944E1,4.181285203E-1,-1.479515582E-1,2.022138536E-1
4.069084163E1,4.423885942E-1,-7.017968595E-2,2.552020550E-1
4.071084319E1,4.853585958E-1,-6.091199070E-2,1.874658167E-1
4.073086194E1,5.182406306E-1,-3.373721614E-2,5.181882530E-2
4.075285100E1,3.904650509E-1,-2.459168993E-2,-1.262396574E-1
4.077484319E1,2.642253935E-1,1.638864130E-1,-2.721142769E-1
4.079484319E1,4.564210474E-1,4.751484394E-1,-2.210459560E-1
4.081484788E1,7.419568896E-1,5.220454335E-1,-2.127556317E-2
4.083684319E1,7.980692387E-1,1.211433038E-1,1.552470326E-1
4.085684319E1,5.863782763E-1,-2.327745557E-1,1.265538186E-1
