"Time (s)","Linear Acceleration x (m/s^2)","Linear Acceleration y (m/s^2)","Linear Acceleration z (m/s^2)"
1.199218800E-2,9.009999782E-2,7.829999924E-2,2.766999900E-1
3.200156300E-2,2.101999968E-1,-1.929999888E-2,3.949999809E-2
6.199062500E-2,1.943999976E-1,-4.580000043E-2,-1.463999897E-1
8.199843800E-2,2.545999885E-1,-1.270999908E-1,-1.656999886E-1
1.119921880E-1,3.330000043E-1,-2.962999940E-1,-1.847999990E-1
1.319921880E-1,2.373999953E-1,-1.759999990E-1,-5.959999934E-2
1.519921880E-1,6.079999730E-2,-8.020000160E-2,-1.453000009E-1
1.719921880E-1,2.950000018E-2,-1.264999956E-1,-4.719999805E-2
1.919921880E-1,9.969999641E-2,-1.252000034E-1,1.627999991E-1
2.219921880E-1,-3.309999779E-2,-2.889999934E-2,1.801999956E-1
2.419921880E-1,-9.779999405E-2,4.380000010E-2,2.210000008E-1
2.619921880E-1,-1.238999963E-1,1.090999991E-1,2.105999887E-1
2.819953130E-1,-1.156999990E-1,1.384999901E-1,1.516000032E-1
3.119921880E-1,1.068999991E-1,-9.619999677E-2,-8.689999580E-2
3.319937500E-1,1.730999947E-1,-1.493999958E-1,-1.083999947E-1
3.619921880E-1,7.769999653E-2,-1.105000004E-1,-1.557999998E-1
3.819921880E-1,2.049999870E-2,-2.609999850E-2,-3.472999930E-1
4.019921880E-1,-1.960999966E-1,1.075999960E-1,-1.162000000E-1
4.219984380E-1,-1.828999966E-1,6.979999691E-2,2.389999852E-2
4.519921880E-1,-8.320000023E-2,-1.500000013E-3,1.686999947E-1
4.719953130E-1,-1.463999897E-1,7.959999889E-2,-2.278999984E-1
5.019921880E-1,-1.955999881E-1,1.204999983E-1,1.480000000E-2
5.219984380E-1,-1.063999981E-1,1.273999959E-1,-1.445000023E-1
5.519921880E-1,4.939999804E-2,-1.579999924E-2,-4.816999733E-1
5.719921880E-1,3.929999769E-1,-8.709999919E-2,-3.368999958E-1
5.919921880E-1,4.073999822E-1,-4.900000058E-3,3.405999839E-1
6.119921880E-1,-3.385999799E-1,5.350000039E-2,3.046999872E-1
6.319921880E-1,-7.684999704E-1,2.619000077E-1,-4.000999928E-1
6.519921880E-1,-3.871999979E-1,2.663999796E-1,-5.712999701E-1
6.719921880E-1,-6.455000043E-1,2.906000018E-1,-9.329999983E-2
6.919921880E-1,-7.247999907E-1,1.473999918E-1,1.160999984E-1
7.219921880E-1,1.824999899E-1,-1.427000016E-1,6.126999855E-1
7.419921880E-1,4.291999936E-1,-1.138999984E-1,-1.825999916E-1
7.619921880E-1,3.025999963E-1,-4.739999771E-1,9.479999542E-2
7.819921880E-1,6.601999998E-1,-2.847000062E-1,2.751999795E-1
8.119906250E-1,3.680000007E-1,-1.953999996E-1,-1.944999993E-1
8.319921880E-1,-6.920000166E-2,-2.502000034E-1,-9.429000020E-1
8.619921880E-1,3.480999768E-1,-3.384000063E-1,-1.446999907E-1
8.819921880E-1,2.019999921E-1,-3.726999760E-1,-2.659999952E-2
9.019921880E-1,-2.243999988E-1,-6.250000000E-2,-2.920999825E-1
9.319906250E-1,2.599999905E-1,-1.048999950E-1,-3.799999831E-3
9.519921880E-1,1.081799984E0,-4.725999832E-1,2.506999969E-1
9.719921880E-1,2.397999913E-1,-2.540999949E-1,-1.683000028E-1
9.919921880E-1,-3.680000082E-2,-2.436999977E-1,-9.209999442E-2
1.011992188E0,8.859999478E-2,-1.750999987E-1,5.259000063E-1
1.031992188E0,2.230999917E-1,-1.961999983E-1,5.681999922E-1
1.051992188E0,1.849000007E-1,-1.700000018E-1,1.838999987E-1
1.081992188E0,-1.279999968E-2,-2.883000076E-1,-1.179999951E-2
1.101992188E0,-6.589999795E-2,-1.960999966E-1,2.143999934E-1
1.121992188E0,-9.059999883E-2,-5.374000072E-1,2.556999922E-1
1.151992188E0,-1.650999904E0,-1.420400023E0,7.917000055E-1
1.181992188E0,-1.548099995E0,1.809999943E-1,7.731999755E-1
1.211990625E0,1.660599947E0,-1.861999929E-1,-1.366199970E0
1.231990625E0,1.594299912E0,1.022400022E0,-1.494699955E0
1.251992188E0,1.531599998E0,8.696999550E-1,-1.179499984E0
1.271992188E0,1.216599941E0,9.878999591E-1,-2.811000049E-1
1.291992188E0,8.089999557E-1,9.113999605E-1,-1.174999997E-1
1.311992188E0,5.026999712E-1,7.584999800E-1,-4.314999878E-1
1.331992188E0,4.377000034E-1,5.101000071E-1,-4.554999769E-1
1.351992188E0,1.771000028E-1,1.876000017E-1,-2.930999994E-1
1.371992188E0,-2.261999995E-1,4.509999976E-2,-2.694000006E-1
1.391992188E0,-3.429999948E-1,6.300000101E-2,-2.584999800E-1
1.411992188E0,-1.714999974E-1,6.390000135E-2,1.488000005E-1
1.431992188E0,-3.749999776E-2,5.819999799E-2,4.174000025E-1
1.451992188E0,1.658999920E-1,1.773999929E-1,3.933999836E-1
1.471993750E0,4.157999754E-1,1.403999925E-1,3.501999974E-1
1.501992188E0,5.406000018E-1,2.078000009E-1,3.902999759E-1
1.521992188E0,6.308000088E-1,2.405999899E-1,1.709999889E-1
1.541992188E0,4.930999875E-1,2.186999917E-1,-2.129999995E-1
1.561992188E0,2.858999968E-1,1.195999980E-1,-5.694000125E-1
1.581992188E0,4.230000079E-2,1.211999953E-1,-9.123999476E-1
1.601992188E0,7.369999588E-2,2.707000077E-1,-8.768999577E-1
1.621992188E0,5.077999830E-1,8.410000056E-2,-6.416999698E-1
1.641992188E0,4.271000028E-1,-1.667999923E-1,-4.961999953E-1
1.661992188E0,1.489000022E-1,-2.811000049E-1,-2.559999824E-1
1.681992188E0,2.410999984E-1,-3.445000052E-1,2.076999992E-1
1.701992188E0,6.212999821E-1,-4.065999985E-1,5.842999816E-1
1.721992188E0,9.170999527E-1,-4.867999852E-1,3.700999916E-1
1.741992188E0,8.648999929E-1,-5.501999855E-1,4.508999884E-1
1.761992188E0,9.556999803E-1,-5.918999910E-1,6.680999994E-1
1.781992188E0,8.866999745E-1,-5.834000111E-1,6.791999936E-1
1.811990625E0,3.227999806E-1,-4.510999918E-1,5.220000148E-1
1.831992188E0,3.515999913E-1,-3.806999922E-1,2.447999865E-1
1.851992188E0,1.453000009E-1,-2.425999939E-1,1.542000026E-1
1.871992188E0,-8.199999481E-2,-1.331999898E-1,-2.520000003E-2
1.891993750E0,-2.180000022E-2,3.309999779E-2,-7.739999890E-2
1.921992188E0,-9.499999881E-2,1.956999898E-1,7.899999619E-3
1.941992188E0,-5.509999767E-2,1.771999896E-1,2.624000013E-1
1.961992188E0,9.399999864E-3,1.724999994E-1,2.151999921E-1
1.981992188E0,1.133999974E-1,1.842999905E-1,1.591999978E-1
2.001992188E0,3.832999766E-1,1.097999960E-1,1.215999946E-1
2.021992188E0,4.169999808E-2,1.764999926E-1,3.366999924E-1
2.041992188E0,-2.689000070E-1,1.607999951E-1,2.680000067E-1
2.061992188E0,-2.089999914E-1,2.080000006E-2,1.527999938E-1
2.081992188E0,-2.199999988E-1,-1.603000015E-1,1.665000021E-1
2.111992188E0,-3.373999894E-1,-3.685999811E-1,4.589999840E-2
2.141990625E0,-4.666999876E-1,-2.955999970E-1,2.960000001E-2
2.161992188E0,-5.985999703E-1,-1.424999982E-1,6.889999658E-2
2.181992188E0,-6.995999813E-1,-1.567000002E-1,1.841000021E-1
2.211990625E0,-3.161000013E-1,-4.909999967E-1,8.015999794E-1
2.231992188E0,-9.030000120E-2,-6.812999845E-1,8.253999949E-1
2.251992188E0,-1.072999984E-1,-6.287999749E-1,5.029999614E-1
2.271992188E0,-1.609999985E-1,-4.975999892E-1,6.939999759E-2
2.291992188E0,-2.251999974E-1,-4.328999817E-1,-3.872999847E-1
2.311992188E0,-2.366999984E-1,-3.709999919E-1,-7.577999830E-1
2.331992188E0,-2.073999941E-1,-3.158999979E-1,-9.233999848E-1
2.351992188E0,-3.062999845E-1,-3.116999865E-1,-6.926999688E-1
2.371992188E0,-5.444999933E-1,-2.920999825E-1,-5.062999725E-1
2.391992188E0,-5.496000051E-1,-3.515000045E-1,-5.877999663E-1
2.411992188E0,-4.797999859E-1,-3.682000041E-1,-3.536999822E-1
2.441992188E0,-6.405999660E-1,-2.761999965E-1,3.601000011E-1
2.461992188E0,-8.205999732E-1,-2.566999793E-1,6.996999979E-1
2.481992188E0,-8.281999826E-1,-1.944999993E-1,6.200000048E-1
2.501992188E0,-7.890999913E-1,5.590000004E-2,2.357999980E-1
2.521992188E0,-7.391999960E-1,2.307000011E-1,-2.489999868E-2
2.541992188E0,-7.597999573E-1,2.872000039E-1,-1.771999896E-1
2.561992188E0,-5.716999769E-1,1.333999932E-1,-7.959999889E-2
2.581992188E0,-4.318999946E-1,-1.202999949E-1,1.882999986E-1
2.601992188E0,-6.664999723E-1,-2.092999965E-1,4.826999903E-1
2.621992188E0,-9.317999482E-1,-2.514999807E-1,4.865999818E-1
2.641992188E0,-8.935999870E-1,-2.334999889E-1,1.534999907E-1
2.661992188E0,-6.947000027E-1,-2.585999966E-1,-1.288999915E-1
2.681992188E0,-7.195000052E-1,-2.097999901E-1,-1.384999901E-1
2.701992188E0,-6.757000089E-1,-2.326999903E-1,2.599999867E-2
2.721992188E0,-3.888999820E-1,-2.547999918E-1,1.411999911E-1
2.741992188E0,-3.261999786E-1,-1.656000018E-1,1.116999984E-1
2.761992188E0,-2.836999893E-1,-1.317999959E-1,1.136000007E-1
2.781992188E0,-5.059999824E-1,2.909999788E-1,1.000999957E-1
2.801992188E0,-4.529999793E-1,4.799000025E-1,-5.769999698E-2
2.821992188E0,3.202999830E-1,8.929999918E-2,1.132999957E-1
2.841992188E0,2.399999946E-1,1.164999977E-1,6.650999784E-1
2.861992188E0,-5.559999868E-2,-1.614999920E-1,1.277799964E0
2.881992188E0,-4.299999774E-2,-4.044999778E-1,1.400900006E0
2.901992188E0,9.849999845E-2,-3.511999846E-1,1.392300010E0
2.931990625E0,-1.667999923E-1,-2.219999954E-2,4.528999925E-1
2.951990625E0,-1.333999932E-1,1.850000024E-1,-4.544999897E-1
2.971992188E0,-1.796000004E-1,2.707000077E-1,-1.189700007E0
3.001990625E0,-3.366000056E-1,1.097999960E-1,-1.710799932E0
3.021992188E0,-2.642999887E-1,-2.034000009E-1,-1.357800007E0
3.041992188E0,-1.969999969E-1,-4.827999771E-1,-6.735000014E-1
3.071990625E0,-1.353999972E-1,-5.403000116E-1,9.979999810E-2
3.091990625E0,1.114999950E-1,-4.341000021E-1,2.109999955E-1
3.111992188E0,2.421999872E-1,-4.136999846E-1,2.365999967E-1
3.131992188E0,1.608999968E-1,-4.386999905E-1,2.053999901E-1
3.151992188E0,2.011999935E-1,-4.788999856E-1,1.172999963E-1
3.171992188E0,2.490999997E-1,-5.018000007E-1,1.380999982E-1
3.191992188E0,2.726999819E-1,-4.504999816E-1,5.249999836E-2
3.211992188E0,3.880999982E-1,-4.781999886E-1,-1.209999993E-1
3.241990625E0,4.731999934E-1,-5.435000062E-1,-9.209999442E-2
3.261992188E0,5.616999865E-1,-5.988000035E-1,-7.899999619E-3
3.291992188E0,5.661000013E-1,-6.362999678E-1,5.139999837E-2
3.311992188E0,4.084999859E-1,-5.742999911E-1,-1.020999998E-1
3.331992188E0,2.689999938E-1,-4.272999763E-1,-2.199999988E-3
3.351992188E0,1.745999902E-1,-2.002999932E-1,3.497000039E-1
3.371992188E0,2.131000012E-1,-3.009999916E-2,5.424999595E-1
3.391992188E0,2.287999988E-1,-4.600000102E-3,7.296999693E-1
3.411992188E0,8.410000056E-2,-1.889999956E-2,7.306999564E-1
3.441992188E0,-2.611999810E-1,-1.480000000E-2,5.591999888E-1
3.461992188E0,-3.155999780E-1,-5.209999904E-2,2.403999865E-1
3.481992188E0,-7.039999962E-2,-1.058999971E-1,-1.759999990E-2
3.501992188E0,-2.889999934E-2,-1.297999918E-1,-9.939999878E-2
3.531990625E0,-4.539999738E-2,-2.603999972E-1,6.939999759E-2
3.551992188E0,-1.829999872E-2,-2.742999792E-1,-6.699999794E-3
3.571992188E0,3.619999811E-2,-2.602999806E-1,-6.269999593E-2
3.601992188E0,4.120000079E-2,-2.019999921E-1,-1.455999911E-1
3.621992188E0,1.715999991E-1,-2.578999996E-1,-1.911000013E-1
3.651992188E0,5.709999800E-2,-2.906999886E-1,-1.983999908E-1
3.671992188E0,-8.609999716E-2,-2.982999980E-1,-1.200999990E-1
3.691992188E0,-5.109999701E-2,-2.371999919E-1,-1.596999913E-1
3.721992188E0,6.999999750E-4,-1.851999909E-1,-2.964999974E-1
3.751992188E0,1.498000026E-1,-6.279999763E-2,1.983999908E-1
3.771992188E0,4.950999916E-1,7.199999690E-2,4.790000021E-1
3.791992188E0,7.233999968E-1,2.325999886E-1,3.037999868E-1
3.821992188E0,9.569000006E-1,2.831999958E-1,2.133999914E-1
3.851990625E0,1.087199926E0,5.349999666E-1,6.746000051E-1
3.871992188E0,1.134299994E0,4.542999864E-1,5.911999941E-1
3.891992188E0,1.092700005E0,4.663999975E-1,2.479999885E-2
3.921990625E0,6.297999620E-1,3.103999794E-1,-3.835999966E-1
3.941990625E0,1.756999940E-1,1.973999888E-1,-5.041999817E-1
3.961992188E0,-2.800000012E-1,1.358999908E-1,-6.003999710E-1
3.991990625E0,-4.790999889E-1,-1.699000001E-1,-2.492999882E-1
4.011990625E0,-6.839999557E-1,-3.112999797E-1,-1.781999916E-1
4.031990625E0,-8.456999660E-1,-4.171999991E-1,-1.279999912E-1
4.051990625E0,-8.683999777E-1,-4.928999841E-1,1.339000016E-1
4.071990625E0,-9.286999702E-1,-4.585999846E-1,2.565000057E-1
4.091990625E0,-9.316999912E-1,-3.727999926E-1,9.609999508E-2
4.111990625E0,-1.004400015E0,-2.414999902E-1,1.569999941E-2
4.131990625E0,-1.155900002E0,-1.237000003E-1,-1.419000030E-1
4.151990625E0,-1.092199922E0,2.999999933E-2,-3.571999967E-1
4.171990625E0,-9.000999928E-1,2.080999911E-1,-5.446999669E-1
4.191990625E0,-6.222000122E-1,2.027999908E-1,-5.022999644E-1
4.211990625E0,-5.036000013E-1,7.649999857E-2,-2.111999989E-1
4.231990625E0,-4.086999893E-1,-2.300000051E-3,7.759999484E-2
4.251990625E0,-3.754999936E-1,-4.089999944E-2,2.097999901E-1
4.271990625E0,-3.771999776E-1,2.699999837E-3,-1.469999924E-2
4.291990625E0,-4.300999939E-1,1.147999987E-1,-2.585999966E-1
4.311990625E0,-5.479999781E-1,1.710999906E-1,-3.957999945E-1
4.331990625E0,-9.415999651E-1,-2.479999885E-2,-5.837999582E-1
4.351990625E0,-1.727599978E0,-1.809999943E-1,-6.857999563E-1
4.371990625E0,-2.507599831E0,-1.551999897E-1,-7.633000016E-1
4.391990625E0,-2.773799896E0,-9.399999864E-3,-1.282599926E0
4.411990625E0,-2.589400053E0,1.427000016E-1,-1.551599979E0
4.431990625E0,-1.889999986E0,2.989999950E-2,-1.533599973E0
4.451990625E0,-9.044999480E-1,-2.489999868E-2,-8.984999657E-1
4.471992188E0,1.491999924E-1,1.114000008E-1,-5.379999802E-2
4.501990625E0,1.683499932E0,5.162999630E-1,5.997999907E-1
4.521990625E0,2.046499968E0,8.578999639E-1,4.073999822E-1
4.541990625E0,2.098799944E0,1.235399961E0,1.322000027E-1
4.561990625E0,2.285799980E0,1.526600003E0,-1.847999990E-1
4.581990625E0,2.385499954E0,1.754599929E0,-5.277999640E-1
4.601990625E0,2.296399832E0,2.019500017E0,-8.404999971E-1
4.621990625E0,2.124300003E0,2.222199917E0,-9.677999616E-1
4.641990625E0,1.852999926E0,2.202299833E0,-7.933999896E-1
4.661990625E0,1.346599936E0,2.179899931E0,-4.189999998E-1
4.681990625E0,1.003999949E0,2.019099951E0,-1.591999978E-1
4.701990625E0,5.680999756E-1,1.751500010E0,7.949999720E-2
4.721990625E0,-1.108999997E-1,1.337099910E0,5.976999998E-1
4.741990625E0,-7.098999619E-1,7.613999844E-1,8.133999705E-1
4.761990625E0,-1.040400028E0,5.141999722E-1,6.710000038E-1
4.781990625E0,-7.755999565E-1,5.066999793E-1,6.850999594E-1
4.801990625E0,-1.955000013E-1,1.372999996E-1,9.802999496E-1
4.821990625E0,1.061000004E-1,-4.993999898E-1,1.701699972E0
4.841990625E0,-3.048999906E-1,-9.928999543E-1,2.517199993E0
4.861990625E0,-6.843000054E-1,-1.014400005E0,2.864599943E0
4.881990625E0,-3.071999848E-1,-7.705999613E-1,2.286499977E0
4.901990625E0,1.529999971E-1,-8.227999806E-1,1.597700000E0
4.921990625E0,-7.265999913E-1,-7.901999950E-1,9.714999795E-1
4.941990625E0,-1.588499904E0,-8.579999804E-1,-2.654999793E-1
4.961990625E0,-1.569700003E0,-9.082999825E-1,-1.225499988E0
4.981990625E0,-1.032099962E0,-9.637999535E-1,-1.136199951E0
5.001990625E0,-6.220999956E-1,-1.049000025E0,-4.944999814E-1
5.021990625E0,-4.372999966E-1,-1.080399990E0,5.529999733E-2
5.041990625E0,-5.519999862E-1,-9.661999941E-1,3.675999939E-1
5.061990625E0,-9.371999502E-1,-8.279999495E-1,4.531999826E-1
5.081990625E0,-1.297199965E0,-6.114999652E-1,3.233000040E-1
5.101990625E0,-1.356499910E0,-4.172999859E-1,-8.999999613E-2
5.121990625E0,-1.176800013E0,-2.188999951E-1,-4.436999857E-1
5.141990625E0,-9.821999669E-1,-2.929999866E-2,-5.719000101E-1
5.161990625E0,-8.736999631E-1,1.562999934E-1,-6.996999979E-1
5.181990625E0,-7.552999854E-1,3.328999877E-1,-7.877999544E-1
5.201990625E0,-4.060999751E-1,4.026999772E-1,-6.317999959E-1
5.221990625E0,-1.538999975E-1,3.720999956E-1,-9.539999813E-2
5.241990625E0,2.349999920E-2,4.230999947E-1,3.032999933E-1
5.261990625E0,1.817999929E-1,5.253999829E-1,2.924999893E-1
5.281990625E0,2.437999994E-1,7.220999599E-1,-9.730000049E-2
5.301990625E0,3.833999932E-1,8.245999813E-1,-4.749999940E-1
5.321990625E0,4.199000001E-1,9.183999896E-1,-6.187999845E-1
5.341990625E0,2.463999987E-1,1.007799983E0,-6.651999950E-1
5.361990625E0,-9.779999405E-2,1.195199966E0,-7.422999740E-1
5.381990625E0,2.518000007E-1,1.018499970E0,-1.340000033E-1
5.401990625E0,5.697000027E-1,1.064499974E0,8.554999828E-1
5.421990625E0,6.862999797E-1,9.721999764E-1,1.200500011E0
5.441990625E0,4.230999947E-1,8.194999695E-1,1.100499988E0
5.461992188E0,-1.946000010E-1,9.123999476E-1,6.608999968E-1
5.491990625E0,4.474999905E-1,1.544999927E-1,-8.470999599E-1
5.511990625E0,9.803999662E-1,-8.915999532E-1,-6.316999793E-1
5.531990625E0,3.729999959E-1,-2.001899958E0,1.074800014E0
5.551990625E0,-2.892999947E-1,-2.447700024E0,2.447099924E0
5.571990625E0,2.759000063E-1,-2.456399918E0,2.626299858E0
5.591990625E0,1.286800027E0,-2.015599966E0,1.230899930E0
5.611990625E0,1.830399990E0,-1.487200022E0,-1.187999994E-1
5.631990625E0,1.852999926E0,-1.091599941E0,-4.628999829E-1
5.651990625E0,1.241799951E0,-9.169999957E-1,-4.326999784E-1
5.671990625E0,5.586000085E-1,-6.758999825E-1,-4.267999828E-1
5.691990625E0,1.909999996E-1,-3.896999955E-1,-4.120999873E-1
5.711990625E0,-3.499999875E-3,-9.449999779E-2,-5.329999924E-1
5.731990625E0,-1.342999935E-1,1.277000010E-1,-8.181999922E-1
5.751990625E0,-2.028999925E-1,1.662999988E-1,-1.043399930E0
5.771990625E0,-3.676999807E-1,6.650000066E-2,-9.756999612E-1
5.791990625E0,-5.645999908E-1,-1.083000004E-1,-6.550999880E-1
5.811990625E0,-7.066999674E-1,-1.471000016E-1,-3.048999906E-1
5.831990625E0,-8.147000074E-1,-9.449999779E-2,-6.149999797E-2
5.851990625E0,-9.251999855E-1,2.600000007E-3,-6.089999899E-2
5.871990625E0,-1.032199979E0,1.159999967E-1,-3.915999830E-1
5.891990625E0,-1.351300001E0,2.563000023E-1,-5.471000075E-1
5.911990625E0,-1.862100005E0,2.757000029E-1,-4.501999915E-1
5.931990625E0,-2.163599968E0,2.260999978E-1,-1.894000024E-1
5.951990625E0,-2.486199856E0,-3.920000046E-2,8.248999715E-1
5.971990625E0,-3.680199862E0,-7.134000063E-1,2.618899822E0
5.991990625E0,-4.690099716E0,-1.295899987E0,2.324800014E0
6.011990625E0,-4.146999836E0,-1.644199967E0,8.567999601E-1
6.031990625E0,-3.559399843E0,-2.604399920E0,-7.465999722E-1
6.051990625E0,-4.416399956E0,-3.243599892E0,-7.548999786E-1
6.071990625E0,-4.943999767E0,-3.559299946E0,1.102999970E-1
6.091990625E0,-4.792099953E0,-3.719999790E0,2.813999951E-1
6.111992188E0,-4.440599918E0,-3.956299782E0,-2.633999884E-1
6.141990625E0,-1.349499941E0,-5.129899979E0,4.165000021E-1
6.161990625E0,2.626000047E-1,-5.463699818E0,2.234099865E0
6.181992188E0,2.766000032E-1,-5.713099957E0,4.682499886E0
6.211990625E0,-1.239499927E0,-4.831199646E0,4.275000095E0
6.231990625E0,-1.225999951E0,-4.117700100E0,2.729199886E0
6.251990625E0,-1.419600010E0,-3.488099813E0,2.975100040E0
6.271990625E0,-1.814000010E0,-3.175099850E0,2.855799913E0
6.291990625E0,-1.762899995E0,-2.951599836E0,1.487299919E0
6.311990625E0,-1.723199964E0,-2.776499987E0,-7.930000126E-2
6.331990625E0,-1.902999997E0,-2.726599932E0,-9.475999475E-1
6.351990625E0,-2.013099909E0,-2.716699839E0,-1.060199976E0
6.371992188E0,-1.942799926E0,-2.762399912E0,-9.569999576E-1
6.401990625E0,-2.185999870E0,-2.874899864E0,-1.203799963E0
6.421990625E0,-3.528100014E0,-3.161499977E0,-4.713999927E-1
6.441990625E0,-4.078400135E0,-3.178799868E0,7.125999928E-1
6.461990625E0,-2.265199900E0,-3.284099817E0,9.779999852E-1
6.481990625E0,-5.133999586E-1,-2.585999966E0,2.041999996E-1
6.501990625E0,-2.809999883E-1,-1.480599999E0,-1.096699953E0
6.521990625E0,-1.178399920E0,-4.767999947E-1,-1.350499988E0
6.541990625E0,-9.186999798E-1,-5.357999802E-1,-1.034299970E0
6.561990625E0,-8.166999817E-1,-7.258999944E-1,4.514999986E-1
6.581990625E0,-2.365299940E0,-1.105700016E0,2.141000032E0
6.601990625E0,-4.217499733E0,-1.308099985E0,2.363499880E0
6.621990625E0,-4.221099854E0,-1.567099929E0,1.494499922E0
6.641990625E0,-3.703399897E0,-1.687500000E0,9.493999481E-1
6.661992188E0,-3.349200010E0,-1.746699929E0,7.608000040E-1
6.681993750E0,-3.267799854E0,-1.778499961E0,1.533999890E-1
6.711990625E0,-2.515599966E0,-1.631699920E0,-1.054899931E0
6.731990625E0,-1.363999963E0,-1.212499976E0,-1.065500021E0
6.751990625E0,-2.014999986E-1,-1.372599959E0,-2.802000046E-1
6.771990625E0,1.011999995E-1,-2.477799892E0,6.736999750E-1
6.791990625E0,-5.460000038E-2,-3.417999983E0,1.405200005E0
6.811990625E0,3.534999788E-1,-3.699100018E0,1.339399934E0
6.831990625E0,1.131899953E0,-3.240199804E0,5.340999961E-1
6.851990625E0,2.571199894E0,-2.607300043E0,-4.325999916E-1
6.871990625E0,4.330699921E0,-1.914399981E0,-1.490099907E0
6.891990625E0,5.412299633E0,-1.343699932E0,-1.544600010E0
6.911990625E0,4.945300102E0,-1.258899927E0,-1.079999924E0
6.931990625E0,3.747999907E0,-1.482599974E0,1.480000019E-1
6.951990625E0,2.929399967E0,-1.671000004E0,8.305999637E-1
6.971990625E0,1.929999948E0,-1.429499984E0,1.365000010E0
6.991990625E0,1.387599945E0,-1.150900006E0,1.129899979E0
7.011990625E0,1.212499976E0,-4.795999825E-1,5.058000088E-1
7.031990625E0,1.306199908E0,-9.769999981E-2,-3.303000033E-1
7.051990625E0,1.315400004E0,2.819999866E-2,-7.397999763E-1
7.071990625E0,1.080500007E0,-1.059999969E-2,-3.691000044E-1
7.091990625E0,6.742999554E-1,1.028999984E-1,-4.030000046E-2
7.111992188E0,6.090999842E-1,8.949999511E-2,4.560000002E-1
7.141990625E0,3.833999932E-1,2.507999837E-1,7.349999547E-1
7.161990625E0,3.105999827E-1,4.998999834E-1,-9.160000086E-2
7.181992188E0,2.838999927E-1,8.297999501E-1,-1.023499966E0
7.211990625E0,2.243999988E-1,9.987999797E-1,-7.609999776E-1
7.231990625E0,1.938000023E-1,9.348999858E-1,-7.726999521E-1
7.251992188E0,-5.260000005E-2,1.046700001E0,-1.175799966E0
7.281990625E0,-3.380999863E-1,1.736699939E0,-3.727999926E-1
7.301990625E0,-6.200000048E-1,2.058799982E0,4.859999940E-2
7.321990625E0,-6.981999874E-1,2.050499916E0,2.060000002E-1
7.341990625E0,-6.919999719E-1,1.744099975E0,8.320999742E-1
7.361990625E0,-4.316999912E-1,1.787299991E0,1.967599988E0
7.381990625E0,-1.699999906E-2,1.661899924E0,1.290599942E0
7.401992188E0,4.318999946E-1,1.315699935E0,-1.727999896E-1
7.431990625E0,1.639299989E0,6.836999655E-1,8.272999525E-1
7.451990625E0,1.553200006E0,7.592999935E-1,8.235999942E-1
7.471992188E0,8.874999881E-1,4.368999898E-1,3.810999990E-1
7.501990625E0,1.750499964E0,9.475999475E-1,-3.879999816E-1
7.521990625E0,2.062099934E0,-1.497399926E0,2.665699959E0
7.541998438E0,6.768000126E-1,-3.325999975E0,5.501100063E0
7.571990625E0,-1.780799985E0,-3.704699993E0,8.421199799E0
7.591990625E0,3.989999741E-2,-3.081099987E0,5.852200031E0
7.611992188E0,2.305099964E0,-1.950399995E0,1.794600010E0
7.641990625E0,1.928599954E0,-1.188099980E0,-8.855999708E-1
7.661990625E0,3.400999904E-1,-1.143000007E0,-1.204999983E-1
7.681992188E0,4.874999821E-1,-9.386999607E-1,-9.950000048E-2
7.711990625E0,2.394500017E0,-3.430999815E-1,-2.013000011E0
7.731990625E0,3.107499838E0,1.372999996E-1,-7.376999855E-1
7.751990625E0,2.230000019E0,9.980999827E-1,-1.640699983E0
7.771990625E0,-4.380000010E-2,1.745700002E0,-3.175999880E0
7.791990625E0,4.391999841E-1,-7.479999661E-1,-6.572299957E0
7.811990625E0,2.099099874E0,-2.004099846E0,-3.846999884E0
7.831990625E0,-8.854999542E-1,1.485299945E0,3.732399940E0
7.851990625E0,-2.205999941E-1,4.535000026E-1,9.211999774E-1
7.871990625E0,2.106699944E0,-1.220399976E0,-1.939399958E0
7.891992188E0,3.095999956E0,-1.346899986E0,-4.696199894E0
7.921990625E0,2.601500034E0,-4.059999883E-1,-1.855699897E0
7.941990625E0,6.732000113E-1,5.249999836E-2,-2.020699978E0
7.961990625E0,-1.205299973E0,1.428900003E0,-4.432999790E-1
7.981990625E0,-6.577999592E-1,1.884499907E0,4.715699673E0
8.001990625E0,-5.590000153E-1,7.279999554E-2,-2.327999920E-1
8.021990625E0,1.348399997E0,7.119999826E-2,-3.988399982E0
8.041990625E0,1.618199944E0,-2.106999904E-1,-5.097300053E0
8.061990625E0,1.204599977E0,-2.350299835E0,4.920700073E0
8.081990625E0,1.036700010E0,-3.245199919E0,9.188799858E0
8.101990625E0,1.081399918E0,-1.197199941E0,-6.528999805E-1
8.121990625E0,1.442099929E0,-6.626999974E-1,-3.490999937E-1
8.141990625E0,-3.285000026E-1,-9.422999620E-1,8.576799393E0
8.161990625E0,-5.289999843E-1,1.220799923E0,8.118999600E-1
8.181990625E0,-9.156000018E-1,1.767300010E0,1.680999994E0
8.201990625E0,-8.429999948E-1,7.382000089E-1,1.726399899E0
8.221990625E0,-4.257999957E-1,1.391000003E-1,1.313799977E0
8.241990625E0,4.490000010E-2,1.559999958E-2,6.286999583E-1
8.261990625E0,-3.646000028E-1,3.088999987E-1,-3.588999808E-1
8.281990625E0,-8.369999528E-1,7.536000013E-1,-5.365999937E-1
8.301990625E0,-6.360999942E-1,6.241999865E-1,-1.039999962E0
8.321990625E0,-3.208000064E-1,3.937000036E-1,-1.659799933E0
8.341990625E0,-8.999999613E-2,1.105000004E-1,-1.534600019E0
8.361990625E0,2.593999803E-1,-4.264999926E-1,-8.399999738E-1
8.381990625E0,3.730999827E-1,-5.418999791E-1,-7.069999576E-1
8.401990625E0,7.433999777E-1,-7.335000038E-1,-1.100299954E0
8.421990625E0,9.815999866E-1,-6.456999779E-1,-1.598899961E0
8.441990625E0,5.889999866E-1,-3.929999769E-1,-1.509199977E0
8.461990625E0,3.283999860E-1,-6.272999644E-1,-5.084999800E-1
8.481990625E0,6.056999564E-1,-1.060500026E0,-2.515999973E-1
8.501990625E0,8.042999506E-1,-1.237100005E0,-3.538999856E-1
8.521990625E0,6.547999978E-1,-1.265699983E0,1.305000037E-1
8.541992188E0,1.132099986E0,-1.031999946E0,7.443000078E-1
8.571990625E0,1.013899922E0,2.459999919E-2,-2.694999874E-1
8.591990625E0,-5.669000149E-1,1.017999947E-1,-1.117299914E0
8.611990625E0,-6.331999898E-1,-1.910599947E0,2.585299969E0
8.631990625E0,9.041000009E-1,-3.410300016E0,5.163499832E0
8.651990625E0,2.432299852E0,-2.967099905E0,3.130899906E0
8.671990625E0,2.369199991E0,-1.637199998E0,5.661999583E-1
8.691990625E0,7.398999929E-1,-1.223099947E0,-2.518000007E-1
8.711990625E0,-6.983999610E-1,-7.720999718E-1,1.054099917E0
8.731990625E0,-9.414999485E-1,-9.139999747E-1,2.639299870E0
8.751990625E0,-2.222999930E-1,-1.296399951E0,3.035199881E0
8.771990625E0,8.955000043E-1,-1.303799987E0,1.307899952E0
8.791990625E0,1.362800002E0,-5.794999599E-1,-4.645999968E-1
8.811990625E0,1.352199912E0,-5.359999835E-2,-1.373999953E0
8.831990625E0,1.373799920E0,3.819999993E-1,-1.880499959E0
8.851990625E0,1.581099987E0,4.560999870E-1,-2.121500015E0
8.871990625E0,1.936800003E0,5.365999937E-1,-2.344899893E0
8.891990625E0,1.896699905E0,8.150999546E-1,-2.245300055E0
8.911990625E0,1.556499958E0,1.032999992E0,-1.512300014E0
8.931990625E0,1.533800006E0,7.633999586E-1,-5.386999846E-1
8.951990625E0,1.727599978E0,5.060999990E-1,-1.640999913E-1
8.971990625E0,1.701699972E0,5.647999644E-1,1.108999997E-1
8.991990625E0,1.314099908E0,7.918999791E-1,5.910999775E-1
9.011990625E0,1.055699944E0,1.135999918E0,7.906000018E-1
9.031990625E0,1.099599957E0,1.166499972E0,8.183000088E-1
9.051990625E0,1.310999990E0,1.048200011E0,6.204999685E-1
9.071990625E0,1.022400022E0,1.323400021E0,4.399999976E-1
9.091990625E0,8.851000071E-1,1.501699924E0,3.281999826E-1
9.111992188E0,8.068999648E-1,1.266299963E0,2.575999796E-1
9.131992188E0,6.983000040E-1,9.767999649E-1,3.648999929E-1
9.151992188E0,4.734999835E-1,8.562999964E-1,5.240000039E-2
9.171992188E0,1.689999923E-2,6.599999666E-1,7.999999449E-3
9.191992188E0,-5.442000031E-1,6.301000118E-1,-1.211999953E-1
9.221992188E0,-1.407099962E0,-5.891000032E-1,-4.041999876E-1
9.241992188E0,-2.399799824E0,-1.355299950E0,1.035999954E-1
9.261992188E0,-2.908499956E0,-2.464299917E0,2.755499840E0
9.281992188E0,-2.621700048E0,-3.532699823E0,4.777999878E0
9.301992188E0,-1.616400003E0,-3.691099882E0,3.310199976E0
9.321992188E0,-1.264099956E0,-2.848799944E0,7.128999829E-1
9.341992188E0,-1.487999916E0,-2.445499897E0,-5.739999935E-2
9.361992188E0,-1.661000013E0,-2.564299822E0,1.036399961E0
9.381992188E0,-9.682999849E-1,-2.881399870E0,1.770699978E0
9.401992188E0,3.979999945E-2,-3.206699848E0,1.401799917E0
9.421992188E0,8.690999746E-1,-3.065399885E0,-9.439999610E-2
9.441992188E0,1.455299973E0,-2.358999968E0,-1.470899940E0
9.461992188E0,1.744799972E0,-1.686699986E0,-2.494599819E0
9.481992188E0,1.689999938E0,-1.109300017E0,-2.443500042E0
9.511992188E0,1.628199935E0,-9.448999763E-1,-1.401700020E0
9.531995313E0,1.723299980E0,-9.350999594E-1,-8.628999591E-1
9.561992188E0,2.357800007E0,-6.330999732E-1,-5.701000094E-1
9.581992188E0,2.943199873E0,-8.672999740E-1,-8.173999786E-1
9.601992188E0,2.864899874E0,-5.267999768E-1,-9.760999680E-1
9.621992188E0,2.223099947E0,-8.899999410E-2,-4.700999856E-1
9.651992188E0,1.287699938E0,-3.367999792E-1,-1.088999957E-1
9.681990625E0,8.940999508E-1,-4.093999863E-1,5.875999928E-1
9.701990625E0,5.903999805E-1,-6.427999735E-1,2.909999788E-1
9.721990625E0,1.630000025E-1,-7.588999867E-1,3.599999845E-1
9.741990625E0,3.099999949E-2,-9.141999483E-1,4.616999924E-1
9.761990625E0,-8.549999446E-2,-1.136799932E0,7.400000095E-1
9.781990625E0,-2.647999823E-1,-1.049600005E0,1.290199995E0
9.801990625E0,-7.078999877E-1,-5.281999707E-1,1.544799924E0
9.821990625E0,-7.486000061E-1,-4.977999926E-1,1.285899997E0
9.841990625E0,-8.758999705E-1,-7.149999738E-1,6.999999881E-1
9.861990625E0,-1.172899961E0,-5.837999582E-1,-7.243999839E-1
9.881990625E0,-1.490299940E0,1.846999973E-1,-2.035300016E0
9.901992188E0,-1.341799974E0,1.120999977E-1,-1.689299941E0
9.931990625E0,1.393999904E-1,-1.810499907E0,2.002599955E0
9.951990625E0,8.652999997E-1,-2.679699898E0,3.682099819E0
9.971992188E0,9.085999727E-1,-2.030099869E0,3.666899920E0
1.000199063E1,8.172999620E-1,-8.506999612E-1,1.271899939E0
1.002199062E1,1.210999966E0,-1.166999936E-1,-7.549999654E-2
1.004199062E1,1.570400000E0,9.269999713E-2,-8.610000014E-1
1.006199062E1,1.736299992E0,1.409000009E-1,-1.604499936E0
1.008199063E1,1.676999927E0,3.607999980E-1,-2.332299948E0
1.010199063E1,1.337899923E0,4.603999853E-1,-2.465600014E0
1.012199375E1,6.943999529E-1,2.421999872E-1,-1.888000011E0
1.015199219E1,6.706999540E-1,3.422999978E-1,-1.108600020E0
1.017199219E1,1.036499977E0,4.086999893E-1,-8.570999503E-1
1.019199375E1,1.320299983E0,1.284999996E-1,-1.077600002E0
1.022199219E1,9.753999710E-1,-1.078199983E0,1.054199934E0
1.024199219E1,1.494899988E0,-2.017299891E0,4.048599720E0
1.026199219E1,2.992599964E0,-2.318599939E0,4.726399899E0
1.028199219E1,3.901999950E0,-1.287799954E0,1.734899998E0
1.030199219E1,3.914699793E0,-1.244999990E-1,-2.642199993E0
1.032199219E1,3.561100006E0,1.627999991E-1,-3.648999929E0
1.034199219E1,2.807600021E0,-2.081999928E-1,-2.960700035E0
1.037199219E1,9.054999948E-1,-3.937999904E-1,-1.054799914E0
1.040199219E1,-7.628999949E-1,-1.879599929E0,1.706999987E-1
1.043199063E1,-6.596999764E-1,-4.941999912E-1,-8.834999800E-1
1.045199219E1,-5.383999944E-1,-4.620999992E-1,-2.260799885E0
1.047199219E1,-1.413599968E0,-8.810999990E-1,-2.208299875E0
1.049199219E1,-2.839099884E0,-7.700999975E-1,-7.512999773E-1
1.051199219E1,-3.118099928E0,-2.177999914E-1,5.733000040E-1
1.053199219E1,-1.653999925E0,2.865999937E-1,4.152999818E-1
1.055199219E1,-5.199999735E-2,6.359999627E-2,5.218999982E-1
1.057199219E1,7.289999723E-1,4.609999806E-2,1.034399986E0
1.059199219E1,8.673999906E-1,8.630000055E-2,1.899199963E0
1.061199219E1,6.374999881E-1,3.572999835E-1,2.236000061E0
1.064199062E1,4.879999757E-1,5.764999986E-1,2.808499813E0
1.066199063E1,1.082499981E0,1.497000009E-1,2.996500015E0
1.068199063E1,1.608399987E0,-3.145000041E-1,2.503999949E0
1.070199062E1,1.977499962E0,-5.243999958E-1,1.329199910E0
1.072199062E1,2.188999891E0,-3.251999915E-1,2.838999927E-1
1.074199063E1,2.371399879E0,-2.736999989E-1,-9.752999544E-1
1.076199219E1,2.381899834E0,-2.204999924E-1,-2.360699892E0
1.079199062E1,1.739300013E0,-1.654799938E0,-2.740799904E0
1.081199062E1,6.919999719E-1,-2.057699919E0,-1.722700000E0
1.083199063E1,-5.297999978E-1,-2.106600046E0,2.124999911E-1
1.085199063E1,-1.492900014E0,-1.544699907E0,6.085000038E-1
1.087199062E1,-2.229300022E0,-3.129999936E-1,-6.089999676E-1
1.089199062E1,-2.721400023E0,4.560000002E-1,-7.360999584E-1
1.091199063E1,-2.547099829E0,5.802999735E-1,7.181999683E-1
1.093199063E1,-1.847299933E0,3.007999957E-1,1.714100003E0
1.095199062E1,-1.303099990E0,2.020999938E-1,1.685899973E0
1.097199062E1,-1.239199996E0,1.466999948E-1,1.678999901E0
1.099199063E1,-1.037599921E0,-7.409999520E-2,2.462100029E0
1.101199063E1,-4.037999809E-1,-4.013999999E-1,2.796000004E0
1.103199062E1,3.156999946E-1,-6.380000114E-1,2.715499878E0
1.105199062E1,9.363999963E-1,-4.970999956E-1,2.300999880E0
1.107199063E1,1.263999939E0,-4.559999704E-2,1.029600024E0
1.109199063E1,1.246999979E0,2.081999928E-1,1.988999993E-1
1.111199219E1,1.236400008E0,-3.123999834E-1,8.069999814E-1
1.114199062E1,2.481899977E0,-2.305399895E0,5.458999872E-1
1.116199063E1,3.353899956E0,-2.795300007E0,-1.600399971E0
1.118199219E1,2.914599895E0,-2.442100048E0,-2.722800016E0
1.121199062E1,-1.029399991E0,-2.117100000E0,-8.253999949E-1
1.123199062E1,-3.197599888E0,-1.166399956E0,-4.945999980E-1
1.125199219E1,-3.557999849E0,-1.358999908E-1,-9.336999655E-1
1.128199062E1,-2.579799891E0,1.220399976E0,-1.894999981E0
1.130199062E1,-2.285500050E0,1.678900003E0,-1.986599922E0
1.132199219E1,-2.191499949E0,1.992399931E0,-2.332000017E0
1.135199063E1,-2.104099989E0,2.507999897E0,-3.586299896E0
1.137199062E1,-1.689899921E0,2.405099869E0,-4.517600060E0
1.139199062E1,-1.639499903E0,1.789299965E0,-4.747699738E0
1.141199063E1,-2.392799854E0,8.655999899E-1,-3.369400024E0
1.143199063E1,-2.384899855E0,1.269000024E-1,-1.808399916E0
1.145199062E1,-1.217499971E0,-5.393999815E-1,-1.537599921E0
1.147199062E1,2.080999911E-1,-8.481000066E-1,-9.312999845E-1
1.149199063E1,1.053900003E0,-1.009999990E0,1.055699944E0
1.151199063E1,1.809199929E0,-1.622599959E0,2.852699995E0
1.153199219E1,3.269599915E0,-1.830799937E0,3.018199921E0
1.155199375E1,4.108099937E0,-2.168499947E0,2.495699883E0
1.158199219E1,3.538800001E0,-2.041899920E0,2.409299850E0
1.160199219E1,3.006700039E0,-2.021499872E0,1.571900010E0
1.162199219E1,2.552599907E0,-2.313599825E0,3.777999878E-1
1.165199063E1,2.032299995E0,-2.373999834E0,-3.799999878E-2
1.167199063E1,2.285599947E0,-2.160599947E0,-1.406999946E0
1.169199062E1,2.420699835E0,-1.459999919E0,-2.412799835E0
1.171199062E1,2.950799942E0,-1.855199933E0,-2.123600006E0
1.173199062E1,2.714099884E0,-1.953199983E0,-1.388199925E0
1.175199063E1,2.180099964E0,-1.990299940E0,-3.662000000E-1
1.177199062E1,2.628700018E0,-2.350600004E0,8.760000020E-2
1.179199062E1,2.243399858E0,-2.122299910E0,-6.927999854E-1
1.181199062E1,1.229900002E0,-1.217000008E0,-1.440400004E0
1.183199219E1,-4.580000043E-2,-3.401999772E-1,-2.180199862E0
1.186199062E1,-2.165499926E0,-3.759999946E-2,-2.018599987E0
1.188199062E1,-3.174499989E0,2.825999856E-1,-2.442800045E0
1.190199063E1,-3.356199980E0,8.389999866E-1,-2.193199873E0
1.192199063E1,-2.835599899E0,7.379999757E-1,-1.475899935E0
1.194199062E1,-2.290400028E0,1.564799905E0,-1.257900000E0
1.196199062E1,-1.933999896E0,2.442199945E0,-6.506999731E-1
1.198199062E1,-1.050499916E0,3.268199921E0,4.120999873E-1
1.200199063E1,-4.241999984E-1,3.927399874E0,5.634999871E-1
1.202199062E1,6.732999682E-1,3.972999811E0,3.572999835E-1
1.204199219E1,1.431599975E0,2.888700008E0,1.852199912E0
1.207199063E1,2.471199989E0,9.761999846E-1,3.916199923E0
1.209199063E1,3.574299812E0,-5.353999734E-1,4.356199741E0
1.211199219E1,3.696999788E0,-1.724900007E0,4.236299992E0
1.214199062E1,2.408299923E0,-2.216099977E0,2.921700001E0
1.216199063E1,1.241599917E0,-1.737800002E0,1.952199936E0
1.218199219E1,5.673999786E-1,-1.906499982E0,1.896600008E0
1.221199062E1,-2.140000015E-1,-2.701699972E0,2.218600035E0
1.223199062E1,-5.080999732E-1,-2.877499819E0,3.569099903E0
1.225199063E1,-8.876999617E-1,-3.350999832E0,4.001299858E0
1.227199062E1,-9.741999507E-1,-2.822700024E0,2.820699930E0
1.229199062E1,-8.079999685E-1,-2.541299820E0,1.163999915E0
1.231199062E1,-9.491999745E-1,-2.378999949E0,8.258999586E-1
1.233199063E1,-1.540300012E0,-2.697399855E0,5.213999748E-1
1.235199063E1,-2.311599970E0,-2.828599930E0,6.990000010E-1
1.237199062E1,-3.179299831E0,-3.353399992E0,1.390699983E0
1.239199062E1,-3.544499874E0,-3.092799902E0,1.291700006E0
1.241199063E1,-3.732100010E0,-2.306999922E0,2.126999944E-1
1.243199063E1,-4.380599976E0,-1.838899970E0,1.932999939E-1
1.245199062E1,-3.647899866E0,-2.213999987E0,2.684900045E0
1.247199219E1,-1.371999979E0,-5.490999818E-1,2.546200037E0
1.250199063E1,6.477999687E-1,1.469499946E0,-3.280499935E0
1.252199219E1,2.606000006E-1,-4.460999966E-1,-2.359099865E0
1.254199531E1,1.158999950E-1,-2.359599829E0,3.619199991E0
1.257199063E1,7.082999945E-1,-1.172399998E0,8.016799927E0
1.259199063E1,8.849999905E-1,2.363999933E-1,5.194799900E0
1.261199062E1,9.703999758E-1,2.876600027E0,8.659999818E-2
1.263199062E1,7.182999849E-1,5.652699947E0,-5.213900089E0
1.265199063E1,1.142400026E0,6.211099625E0,-6.500199795E0
1.267199063E1,1.372999907E0,4.538599968E0,-4.114399910E0
1.269199062E1,1.905499935E0,2.197999954E0,-8.631999493E-1
1.271199062E1,2.364500046E0,7.181000113E-1,1.502799988E0
1.273199063E1,2.481699944E0,-1.083999947E-1,2.034199953E0
1.275199063E1,2.522300005E0,-2.074999958E-1,1.105599999E0
1.277199062E1,2.450299978E0,-2.057999969E-1,-4.919999838E-2
1.279199062E1,2.482199907E0,-4.857999980E-1,-6.550999880E-1
1.281199062E1,2.219099998E0,-5.234999657E-1,-4.687999785E-1
1.283199063E1,1.956200004E0,-9.522999525E-1,2.203999907E-1
1.285199063E1,2.081500053E0,-1.060199976E0,3.994999826E-1
1.287199062E1,2.224999905E0,-9.078999758E-1,-9.633999467E-1
1.289199062E1,2.094799995E0,-7.027999759E-1,-2.012199879E0
1.291199063E1,1.356999993E0,-7.346000075E-1,-1.541000009E0
1.293199063E1,6.365999579E-1,-8.746999502E-1,-5.956000090E-1
1.295199062E1,3.832999766E-1,-8.885999918E-1,-6.485999823E-1
1.297199062E1,1.248999983E-1,-3.784999847E-1,-8.447999954E-1
1.299199219E1,-9.470000118E-2,-9.149999917E-2,-2.502999902E-1
1.301199219E1,-2.390999943E-1,-1.464999914E-1,5.277000070E-1
1.304199062E1,-4.175999761E-1,4.059999809E-2,1.056599975E0
1.306199062E1,-3.919000030E-1,1.527999938E-1,1.164399981E0
1.308199063E1,-4.250999987E-1,5.127999783E-1,1.209900022E0
1.310199063E1,-3.807999790E-1,8.004999757E-1,7.529000044E-1
1.312199062E1,6.849999726E-2,4.132999778E-1,2.917999923E-1
1.314199062E1,4.459999800E-1,-2.040999979E-1,5.551999807E-1
1.316199063E1,5.898000002E-1,-7.213999629E-1,9.400999546E-1
1.318199219E1,5.453999639E-1,-1.102800012E0,8.596000075E-1
1.321199062E1,1.809999906E-2,-1.455799937E0,6.796000004E-1
1.323199063E1,-4.839999974E-2,-1.473999977E0,8.727999926E-1
1.325199063E1,1.216999963E-1,-1.351199985E0,6.310999990E-1
1.327199062E1,-2.066999972E-1,-7.768999934E-1,3.332999945E-1
1.329199062E1,-1.084900022E0,-9.759999812E-2,2.629999816E-1
1.331199062E1,-1.011899948E0,3.394999802E-1,-6.391999722E-1
1.333199063E1,-6.997999549E-1,5.803999901E-1,-1.549999952E0
1.335199063E1,-6.692000031E-1,5.425999761E-1,-6.268999577E-1
1.337199062E1,-6.143999696E-1,7.729999721E-2,5.651999712E-1
1.339199062E1,-1.105000004E-1,-4.745000005E-1,7.986999750E-1
1.341199063E1,6.524999738E-1,-7.692999840E-1,5.701999664E-1
1.343199063E1,1.122799993E0,-7.556999922E-1,1.060899973E0
1.345199062E1,8.112999797E-1,-7.186999917E-1,1.488099933E0
1.347199219E1,8.107999563E-1,-6.473999619E-1,1.621399999E0
1.350199219E1,1.532499909E0,-6.373999715E-1,3.050000072E-1
1.353199062E1,1.250100017E0,-9.400999546E-1,3.352999985E-1
1.355199062E1,7.405999899E-1,-1.059000015E0,6.808999777E-1
1.357199219E1,5.758000016E-1,-8.266999722E-1,3.529999852E-1
1.359199219E1,1.841000021E-1,-4.870999753E-1,2.799999900E-3
1.361199219E1,-2.299999893E-1,-5.609999970E-2,-6.665999889E-1
1.363199219E1,-4.463000000E-1,4.097999930E-1,-1.529099941E0
1.365199219E1,-6.322000027E-1,7.558000088E-1,-1.798399925E0
1.367199219E1,-6.987000108E-1,4.743999839E-1,-1.158299923E0
1.369199219E1,-5.279999971E-1,-2.389999852E-2,-6.820999980E-1
1.371199219E1,-3.262999952E-1,-1.481000036E-1,-5.216000080E-1
1.373199219E1,2.939999849E-2,-2.759999931E-1,-2.928999960E-1
1.375199219E1,3.805999756E-1,-4.354999959E-1,-7.220000029E-2
1.377199219E1,5.338999629E-1,-2.525999844E-1,-6.459999830E-2
1.380199062E1,8.624999523E-1,-3.186999857E-1,-1.884000003E-1
1.382199063E1,8.633999825E-1,-3.933999836E-1,-1.349999905E-1
1.384199063E1,5.785999894E-1,-2.348999977E-1,3.009999916E-2
1.386199062E1,7.191999555E-1,2.890000045E-1,-3.680999875E-1
1.388199062E1,3.157999814E-1,8.859999776E-1,-6.597999930E-1
1.390199219E1,-5.949999690E-1,7.871999741E-1,1.394999921E-1
1.393199063E1,-9.169999510E-2,1.524000019E-1,1.121399999E0
1.395199062E1,4.630999863E-1,-1.833999902E-1,1.968799949E0
1.397199062E1,8.806999922E-1,-2.981999815E-1,1.977399945E0
1.399199063E1,7.777999640E-1,7.249999791E-2,1.423799992E0
1.401199063E1,2.389999926E-1,4.757999778E-1,8.416000009E-1
1.403199062E1,2.906999886E-1,2.854999900E-1,2.795000076E-1
1.405199062E1,4.244000018E-1,-1.150999963E-1,-3.452000022E-1
1.407199063E1,5.886999965E-1,-6.399999857E-1,-9.787999988E-1
1.409199063E1,7.804999948E-1,-1.386799932E0,-1.197600007E0
1.411199062E1,5.745999813E-1,-1.865599990E0,-1.012799978E0
1.413199062E1,4.900000058E-3,-1.709899902E0,-6.197999716E-1
1.415199063E1,-2.431999892E-1,-1.425099969E0,-6.628999710E-1
1.417199063E1,1.655000001E-1,-8.873999715E-1,-9.283999801E-1
1.419199062E1,1.407999992E-1,-2.597000003E-1,-7.340999842E-1
1.421199062E1,-2.011999935E-1,2.850999832E-1,4.989999905E-2
1.423199063E1,6.780000031E-2,9.009999633E-1,-3.247999847E-1
1.425199063E1,3.982999921E-1,1.459399939E0,-6.010000110E-1
1.427199062E1,8.321999907E-1,1.562999964E0,-4.949999973E-2
1.429199062E1,1.167899966E0,1.060799956E0,1.151999950E0
1.431199063E1,1.343899965E0,6.983999610E-1,1.634400010E0
1.433199063E1,1.171000004E0,7.285999656E-1,1.651600003E0
1.435199063E1,1.127300024E0,4.055999815E-1,1.434499979E0
1.437199062E1,1.005499959E0,-8.940000087E-2,1.202299953E0
1.439199062E1,7.763999701E-1,-6.387000084E-1,9.666000009E-1
1.441199063E1,4.781999886E-1,-9.455999732E-1,6.686999798E-1
1.443199063E1,4.229999781E-1,-1.224699974E0,5.789999962E-1
1.445199219E1,6.344999671E-1,-1.113399982E0,-1.577000022E-1
1.447199375E1,5.633999705E-1,-7.842999697E-1,-8.154999614E-1
1.450199219E1,2.280999869E-1,-4.948000014E-1,-1.711999923E-1
1.452199219E1,1.436000019E-1,-3.522999883E-1,5.319999903E-2
1.454199219E1,8.309999853E-2,-4.019999877E-2,-2.180999964E-1
1.456199219E1,-2.300000004E-2,1.219999939E-1,-1.094999984E-1
1.458199219E1,-2.778999805E-1,1.403999925E-1,1.001999974E-1
1.460199219E1,-2.779999971E-1,9.579999745E-2,-8.159999549E-2
1.462199219E1,-3.184999824E-1,-1.807999909E-1,5.979999900E-2
1.465199063E1,-2.689999938E-1,-7.265999913E-1,-6.300000101E-2
1.467199063E1,-2.443999946E-1,-9.540999532E-1,-1.005999967E-1
1.469199062E1,-4.273999929E-1,-1.210699916E0,4.325999916E-1
1.471199062E1,-3.574000001E-1,-1.184399962E0,8.701999784E-1
1.473199063E1,-3.430999815E-1,-8.988999724E-1,8.618999720E-1
1.475199063E1,-5.740000010E-1,-2.682999969E-1,6.852999926E-1
1.477199062E1,-4.879999757E-1,2.843999863E-1,2.500000000E-1
1.479199062E1,-2.256999910E-1,6.024000049E-1,-2.037999928E-1
1.481199063E1,-7.140000165E-2,5.674999952E-1,-1.416999996E-1
1.483199063E1,1.166999936E-1,4.059000015E-1,2.669999935E-2
1.485199063E1,3.641999960E-1,1.800999939E-1,-1.996999979E-1
1.487199062E1,7.137999535E-1,-1.999999881E-1,-4.807999730E-1
1.489199063E1,1.032199979E0,-5.667999983E-1,-5.904999971E-1
1.491199063E1,1.165699959E0,-8.080999851E-1,-4.950999916E-1
1.493199063E1,9.577999711E-1,-7.622999549E-1,-2.725999951E-1
1.495199062E1,6.768999696E-1,-6.590999961E-1,-1.273999959E-1
1.497199219E1,6.171000004E-1,-6.295999885E-1,2.153999954E-1
1.500199063E1,7.138999701E-1,-4.923999906E-1,1.034999937E-1
1.502199062E1,7.479999661E-1,-2.449999899E-1,-2.603999972E-1
1.504199062E1,5.565999746E-1,-2.520000003E-2,-3.170000017E-1
1.506199063E1,1.986999959E-1,1.996999979E-1,-1.938999891E-1
1.508199063E1,-6.250000000E-2,2.242999971E-1,6.499999668E-3
1.510199063E1,-2.155999988E-1,1.613999903E-1,2.649999857E-1
1.512199219E1,-2.155999988E-1,-7.360000163E-2,7.963999510E-1
1.515199063E1,2.219999954E-2,-3.242000043E-1,1.175999999E0
1.517199063E1,2.870000005E-1,-2.026000023E-1,6.818000078E-1
1.519199062E1,4.029999971E-1,-1.400000006E-1,2.369999886E-1
1.521199062E1,5.188999772E-1,-4.779999703E-2,2.532999814E-1
1.523199063E1,4.869000018E-1,-3.390000015E-2,4.509999752E-1
1.525199063E1,2.220999897E-1,-1.894000024E-1,6.845999956E-1
1.527199062E1,-6.949999928E-2,-2.540000081E-1,8.120999932E-1
1.529199062E1,-1.418000013E-1,-2.558999956E-1,5.209999681E-1
1.531199063E1,-3.260000050E-2,-2.035999894E-1,1.122999936E-1
1.533199063E1,-3.094999790E-1,-5.929999799E-2,-2.204999924E-1
1.535199063E1,-5.134999752E-1,1.559999958E-2,-2.277999967E-1
1.537199219E1,-4.229999781E-1,-8.100000024E-2,-2.979999781E-1
1.540199063E1,1.638000011E-1,-2.119999975E-1,-9.458999634E-1
1.542199063E1,3.334999979E-1,-2.460999936E-1,-1.205699921E0
1.544199062E1,4.214999974E-1,-4.558999836E-1,-8.837999701E-1
1.546199062E1,4.660999775E-1,-3.419999778E-1,-4.253999889E-1
1.548199219E1,4.626999795E-1,-2.558999956E-1,1.983999908E-1
1.551199063E1,5.557000041E-1,5.150000006E-2,-2.589999884E-2
1.553199062E1,5.706999898E-1,3.750999868E-1,-1.661999971E-1
1.555199062E1,6.157000065E-1,4.903999865E-1,-2.290000021E-2
1.557199063E1,7.590999603E-1,7.135999799E-1,-3.634999990E-1
1.559199063E1,1.481499910E0,1.041899920E0,-1.193300009E0
1.561199219E1,2.260299921E0,9.312999845E-1,-1.714199901E0
1.564199063E1,2.349400043E0,6.978999972E-1,-1.684099913E0
1.566199063E1,2.030099869E0,4.250999987E-1,-8.007000089E-1
1.568199219E1,2.024600029E0,3.461999893E-1,9.640000015E-2
1.571199062E1,2.300299883E0,1.139299989E0,-8.403999805E-1
1.573199063E1,2.278499842E0,1.955899954E0,-2.112200022E0
1.575199063E1,1.713899970E0,2.393399954E0,-2.128700018E0
1.577199062E1,1.660499930E0,1.826799989E0,-1.019899964E0
1.579199062E1,2.174900055E0,1.712700009E0,-2.660000026E-1
1.581199063E1,1.190099955E0,1.279600024E0,-7.563999891E-1
1.583199063E1,-6.908000112E-1,1.443199992E0,2.529000044E-1
1.585199063E1,-2.177599907E0,1.497200012E0,1.529899955E0
1.587199062E1,-2.214200020E0,8.968999982E-1,1.074100018E0
1.589199063E1,-1.841399908E0,-8.436999917E-1,7.494999766E-1
1.591199063E1,-2.077100039E0,-2.626899958E0,1.627099991E0
1.593199063E1,-2.821699858E0,-3.231299877E0,2.472800016E0
1.595199062E1,-2.734400034E0,-3.225199938E0,2.721400023E0
1.597199062E1,-2.456300020E0,-2.918799877E0,3.364499807E0
1.599199063E1,-2.668200016E0,-1.796499968E0,3.413800001E0
1.601199062E1,-2.475100040E0,-5.108999610E-1,2.921200037E0
1.603199063E1,-1.832999945E0,2.935999930E-1,3.691699982E0
1.605199063E1,-1.823499918E0,-1.774999946E-1,5.961799622E0
1.607199062E1,-2.309000015E0,-9.880999923E-1,8.020099640E0
1.609199062E1,-2.014999866E0,-1.695599914E0,8.023799896E0
1.611199219E1,-1.873699903E0,-1.532400012E0,6.339999676E0
1.614199063E1,-3.093799829E0,-5.548999906E-1,4.464600086E0
1.616199062E1,-3.115599871E0,2.155999988E-1,2.987900019E0
1.618199219E1,-2.581899881E0,2.655999959E-1,1.943199992E0
1.621199063E1,-2.381799936E0,4.140000045E-2,1.020200014E0
1.623199062E1,-2.460099936E0,3.210999966E-1,-2.979999967E-2
1.625199062E1,-2.163100004E0,5.228999853E-1,-8.596999645E-1
1.627199219E1,-1.408599973E0,-3.062999845E-1,-4.296000004E-1
1.630199063E1,-1.310999990E-1,-8.374999762E-1,-1.103500009E0
1.632199062E1,1.744999886E-1,-5.661999583E-1,-1.473399997E0
1.634199062E1,3.143000007E-1,-6.897000074E-1,-1.012400031E0
1.636199062E1,3.915999830E-1,-7.123999596E-1,-1.017899990E0
1.638199062E1,3.436000049E-1,-4.914999902E-1,-1.740199924E0
1.640199062E1,3.994999826E-1,-3.301999867E-1,-1.872299910E0
1.642199062E1,3.052999973E-1,-6.917999983E-1,-1.210399985E0
1.644199063E1,1.246999949E-1,-1.021399975E0,-7.617999911E-1
1.646199063E1,-1.860999912E-1,-1.143599987E0,-5.353999734E-1
1.648199062E1,-3.804999888E-1,-1.084299922E0,-6.263999939E-1
1.650199062E1,-5.737999678E-1,-1.217199922E0,-2.496999949E-1
1.652199062E1,-5.619999766E-1,-1.437299967E0,-4.977999926E-1
1.654199219E1,-2.091999948E-1,-1.427799940E0,-1.736699939E0
1.657199062E1,-1.815000027E-1,-1.641699910E0,-2.320999861E0
1.659199062E1,1.932999939E-1,-1.990899920E0,-2.995599985E0
1.661199219E1,4.629999995E-1,-1.817999959E0,-3.512599945E0
1.664199063E1,2.556000054E-1,-1.554099917E0,-3.418200016E0
1.666199062E1,6.872000098E-1,-1.357399940E0,-3.868299961E0
1.668199219E1,1.329599977E0,-1.106500030E0,-4.025599957E0
1.671199063E1,1.617900014E0,-1.151799917E0,-3.358299971E0
1.673199062E1,1.792499900E0,-1.329299927E0,-2.719300032E0
1.675199062E1,2.085000038E0,-1.402699947E0,-2.242599964E0
1.677199062E1,1.920399904E0,-1.320500016E0,-1.714299917E0
1.679199062E1,1.665599942E0,-1.278199911E0,-1.005299926E0
1.681199062E1,1.817999959E0,-1.487200022E0,-5.637999773E-1
1.683199062E1,1.861699939E0,-1.244899988E0,-3.158999979E-1
1.685199063E1,1.500999928E0,-8.660999537E-1,-5.291000009E-1
1.687199063E1,1.316299915E0,-6.286000013E-1,-7.375999689E-1
1.689199063E1,9.408999681E-1,-2.505999804E-1,-7.789999843E-1
1.691199062E1,6.762999892E-1,9.319999814E-2,-7.579999566E-1
1.693199062E1,5.367999673E-1,4.057999849E-1,-1.006999969E0
1.695199062E1,4.068000019E-1,5.958999991E-1,-8.992999792E-1
1.697199219E1,1.491999924E-1,6.680999994E-1,-7.002999783E-1
1.700199062E1,-1.752000004E-1,9.663999677E-1,-3.154000044E-1
1.702199219E1,-2.014999986E-1,9.861999750E-1,-5.098999739E-1
1.704199219E1,-5.518999696E-1,1.279699922E0,-2.648999989E-1
1.707199062E1,-4.393999875E-1,1.179299951E0,-5.522999763E-1
1.709199062E1,-3.822000027E-1,1.161700010E0,-6.597999930E-1
1.711199219E1,-3.255999982E-1,1.141199946E0,-6.622999907E-1
1.714199063E1,-2.386000007E-1,7.313999534E-1,-3.172000051E-1
1.716199062E1,-5.264999866E-1,3.121999800E-1,1.087999940E-1
1.718199062E1,-5.867999792E-1,1.852999926E-1,1.620000005E-1
1.720199062E1,-4.941999912E-1,1.881999969E-1,3.039000034E-1
1.722199062E1,-5.300999880E-1,3.360999823E-1,1.232999936E-1
1.724199062E1,-9.175999761E-1,7.605999708E-1,-6.682999730E-1
1.726199219E1,-1.582399964E0,6.097999811E-1,-5.695999861E-1
1.729199062E1,-1.408999920E0,-1.082199931E0,1.126999974E0
1.731199062E1,-1.133000016E0,-1.968299985E0,1.838400006E0
1.733199219E1,-1.493799925E0,-2.523799896E0,2.527699947E0
1.736199062E1,-2.145999908E0,-2.518199921E0,3.213999987E0
1.738199062E1,-2.519500017E0,-2.028800011E0,2.515300035E0
1.740199062E1,-3.017999887E0,-1.350700021E0,8.702999949E-1
1.742199062E1,-3.261999846E0,-5.450999737E-1,-4.966999888E-1
1.744199063E1,-3.020999908E0,-2.527000010E-1,-9.289000034E-1
1.746199063E1,-2.623800039E0,-2.604999840E-1,-7.585999966E-1
1.748199062E1,-2.197700024E0,-2.568999827E-1,-6.187999845E-1
1.750199062E1,-1.764199972E0,-2.383999974E-1,-7.324999571E-1
1.752199062E1,-1.175300002E0,-3.590999842E-1,-6.688999534E-1
1.754199219E1,-6.001999974E-1,-5.284000039E-1,-4.620999992E-1
1.757199219E1,1.039999947E-1,-3.175999820E-1,-8.432999849E-1
1.759199219E1,1.045499921E0,-2.228000015E-1,-1.919199944E0
1.761199219E1,1.531599998E0,2.645999789E-1,-2.625499964E0
1.764199219E1,1.101999998E0,5.304999948E-1,-9.975999594E-1
1.766199219E1,5.090999603E-1,2.658999860E-1,-1.044999957E-1
1.768199219E1,8.069999516E-2,1.675999910E-1,9.512999654E-1
1.770199219E1,2.399999881E-3,-2.360000014E-1,2.416499853E0
1.773199062E1,4.834999740E-1,-1.934999973E-1,2.977900028E0
1.775199062E1,9.193999767E-1,1.041299939E0,1.436499953E0
1.777199219E1,1.433099985E0,2.142099857E0,-1.310000010E-2
1.780199063E1,1.843699932E0,2.661200047E0,-1.647300005E0
1.782199062E1,2.117100000E0,2.690399885E0,-1.645900011E0
1.784199219E1,2.758599997E0,2.638900042E0,-1.938699961E0
1.787199063E1,2.417599916E0,2.886999846E0,-1.654199958E0
1.789199063E1,1.928499937E0,2.721599817E0,-5.490999818E-1
1.791199062E1,2.205999851E0,2.631399870E0,3.306999803E-1
1.793199062E1,2.559000015E0,2.453799963E0,7.418999672E-1
1.795199062E1,1.973399997E0,2.163199902E0,1.614599943E0
1.797199219E1,1.734699965E0,2.004699945E0,2.682699919E0
1.800199062E1,1.481699944E0,1.416700006E0,2.748800039E0
1.802199062E1,8.696999550E-1,9.461999536E-1,2.640699863E0
1.804199062E1,1.238399982E0,-1.300000004E-3,1.593500018E0
1.806199062E1,1.222299933E0,-1.137799978E0,1.231299996E0
1.808199062E1,-7.173999548E-1,-2.369400024E0,1.599399924E0
1.810199063E1,-2.427999973E0,-2.540799856E0,3.181099892E0
1.812199219E1,-2.031199932E0,-2.812099934E0,3.185199976E0
1.815199062E1,-9.624999762E-1,-2.241799831E0,6.099999696E-2
1.817199062E1,-4.463999867E-1,-1.096300006E0,-2.543999910E0
1.819199219E1,-1.103999987E-1,-4.791999757E-1,-4.839399815E0
1.822199062E1,-2.678000033E-1,-6.184999943E-1,-7.937999964E-1
1.824199062E1,3.423999846E-1,-1.771699905E0,-1.573999971E-1
1.826199219E1,1.064499974E0,-1.318999976E-1,-4.779299736E0
1.829199062E1,1.292500019E0,-1.220899940E0,-1.503700018E0
1.831199062E1,1.379199982E0,-3.928000033E-1,-4.923999906E-1
1.833199219E1,1.396099925E0,-1.930999905E-1,-1.243999958E0
1.835199219E1,1.185699940E0,2.152999938E-1,-8.256999850E-1
1.837199219E1,4.805999994E-1,5.780999660E-1,-6.582999825E-1
1.839199219E1,4.189999774E-2,5.956999660E-1,-3.570000082E-2
1.841199219E1,-3.289999813E-2,4.688999951E-1,1.139999926E-2
1.843199219E1,-7.400000095E-2,2.865999937E-1,2.766000032E-1
1.845199219E1,-7.969999909E-1,6.209999919E-1,7.953999639E-1
1.847199219E1,-1.369300008E0,8.305000067E-1,1.132099986E0
1.849199219E1,-1.517199993E0,1.021000028E0,1.221499920E0
1.851199219E1,-8.517000079E-1,1.013399959E0,8.337999582E-1
1.853199219E1,-2.375999987E-1,1.157999992E0,2.349999994E-1
1.855199219E1,2.617000043E-1,1.422999978E0,-5.486999750E-1
1.857199219E1,7.149999738E-1,1.807599902E0,-6.028000116E-1
1.859199219E1,3.475999832E-1,1.243700027E0,5.304999948E-1
1.861199375E1,5.357999802E-1,2.031999975E-1,2.370599985E0
1.864199219E1,2.189800024E0,2.219999954E-2,3.373799801E0
1.866199219E1,1.866499901E0,5.457999706E-1,1.763399959E0
1.868199219E1,9.208999872E-1,3.556999862E-1,1.568499923E0
1.870199219E1,7.243999839E-1,-7.107999921E-1,2.745299816E0
1.873199062E1,9.601999521E-1,-2.207700014E0,3.627699852E0
1.875199062E1,9.611999989E-1,-2.325099945E0,1.713599920E0
1.877199062E1,-2.799999900E-2,-2.352999896E-1,-7.732999921E-1
1.879199062E1,-3.522000015E-1,-1.314099908E0,-1.878899932E0
1.881199062E1,-2.520000003E-2,1.542000026E-1,-1.781399965E0
1.883199219E1,-5.243999958E-1,-2.080000006E-2,-1.949599981E0
1.886199062E1,-1.160999984E-1,3.486000001E-1,-1.895599961E0
1.888199062E1,1.501999944E-1,6.606000066E-1,-2.039200068E0
1.890199219E1,1.835999936E-1,3.791999817E-1,-1.941799998E0
1.893199062E1,7.382000089E-1,1.868999898E-1,-1.459999919E0
1.895199062E1,1.117399931E0,2.386999875E-1,-2.042399883E0
1.897199219E1,1.422099948E0,7.171999812E-1,-3.228999853E0
1.899199219E1,1.582399964E0,1.063499928E0,-4.242599964E0
1.901199219E1,1.589599967E0,1.209499955E0,-4.287300110E0
1.903199219E1,1.307799935E0,1.248000026E0,-4.104199886E0
1.905199219E1,7.418999672E-1,1.138499975E0,-3.209999800E0
1.907199219E1,-1.706999987E-1,6.577000022E-1,-1.112999916E0
1.909199219E1,-1.342899919E0,1.008000016E0,6.080999970E-1
1.911199219E1,-1.585999966E0,1.261199951E0,1.456799984E0
1.913199219E1,-1.563300014E0,1.268800020E0,1.401899934E0
1.915199219E1,-1.611599922E0,8.245999813E-1,1.759599924E0
1.917199219E1,-1.778599977E0,5.198999643E-1,2.181900024E0
1.919199219E1,-1.508799911E0,7.404999733E-1,1.987100005E0
1.921199219E1,-9.241999984E-1,1.014199972E0,1.123399973E0
1.923199219E1,-8.276000023E-1,7.439999580E-1,-1.179999951E-2
1.925199219E1,-1.373199940E0,-3.779000044E-1,3.516999781E-1
1.927199219E1,-9.533999562E-1,-1.786499977E0,2.966500044E0
1.930199219E1,1.383000016E0,-3.595099926E0,3.194199800E0
1.932199219E1,1.356999993E0,-3.103600025E0,1.666899920E0
1.934199219E1,7.903999686E-1,-1.916700006E0,4.796999991E-1
1.937199063E1,4.064999819E-1,-1.261299968E0,1.869999990E-2
1.939199063E1,-6.870000064E-2,-1.637199998E0,1.129999995E0
1.941199219E1,-7.637999654E-1,-1.473199964E0,2.057399988E0
1.943199219E1,-1.057299972E0,-8.057999611E-1,2.326699972E0
1.946199219E1,-1.243600011E0,2.372999936E-1,1.191399932E0
1.948199219E1,-1.300400019E0,6.270999908E-1,3.340999782E-1
1.950199219E1,-1.049700022E0,7.845999599E-1,3.390000015E-2
1.952199219E1,-5.328999758E-1,4.214999974E-1,-5.020000041E-2
1.954199219E1,-1.589999944E-1,1.129999980E-1,-4.474999905E-1
1.957199062E1,-1.737999916E-1,1.732999980E-1,-8.150999546E-1
1.959199062E1,-4.293999970E-1,1.489999890E-1,-5.737000108E-1
1.961199219E1,-5.582999587E-1,7.299999893E-2,-6.442999840E-1
1.963199219E1,-3.886999786E-1,-2.579999901E-2,-1.103999972E0
1.965199219E1,-1.005999967E-1,-1.138999984E-1,-1.277499914E0
1.968199062E1,6.376000047E-1,1.252000034E-1,-1.712199926E0
1.970199219E1,1.276700020E0,8.673999906E-1,-1.921000004E0
1.972199219E1,1.574299932E0,1.568300009E0,-1.953599930E0
1.974199219E1,1.467999935E0,1.920799971E0,-1.570899963E0
1.976199219E1,1.858599901E0,1.548099995E0,-5.218999982E-1
1.978199219E1,2.584499836E0,1.162199974E0,9.896999598E-1
1.980199219E1,3.172899961E0,1.061599970E0,2.529500008E0
1.982199219E1,3.848500013E0,1.470999956E0,2.933699846E0
1.984199219E1,4.124499798E0,2.426599979E0,2.801199913E0
1.986199219E1,3.849299908E0,2.781100035E0,2.325199842E0
1.988199219E1,2.602900028E0,2.495100021E0,1.472899914E0
1.990199219E1,4.594999850E-1,5.647999644E-1,2.454099894E0
1.992199219E1,-9.490999579E-1,-2.561300039E0,5.756899834E0
1.994199219E1,-2.570999861E-1,-4.317999840E0,5.018499851E0
1.996199219E1,3.315999806E-1,-4.506799698E0,1.296599984E0
1.998199219E1,-7.597000003E-1,-3.338999987E0,-6.721999645E-1
2.001199063E1,-2.013399839E0,-2.040999889E0,-8.802999854E-1
2.003199063E1,-1.951299906E0,-2.227499962E0,-9.348999858E-1
2.005199063E1,-1.535699964E0,-1.949799895E0,-1.728099942E0
2.007199062E1,-1.289999962E0,-1.256799936E0,-2.455299854E0
2.009199219E1,-1.111199975E0,-8.240999579E-1,-2.692600012E0
2.011199219E1,-1.015599966E0,-7.497000098E-1,-2.593899965E0
2.013199219E1,-7.788999677E-1,-7.608999610E-1,-2.492199898E0
2.015199219E1,-8.339999914E-1,-8.387999535E-1,-2.049000025E0
2.017199219E1,-1.013999939E0,-8.884999752E-1,-1.449100018E0
2.019199375E1,-2.184000015E-1,-8.199999928E-1,-1.199000001E0
2.022199219E1,8.129999638E-1,1.071999967E-1,-2.858299971E0
2.024199219E1,4.326999784E-1,1.114699960E0,-3.403999805E0
2.026199375E1,-1.679999977E-1,1.380999923E0,-2.769299984E0
2.029199062E1,1.296000034E-1,4.105999768E-1,-5.974999666E-1
2.031199062E1,8.754999638E-1,-5.959999934E-2,2.004999965E-1
2.033199219E1,1.435699940E0,-1.745999902E-1,5.981999636E-1
2.036199062E1,2.062500000E0,-1.050999984E-1,9.876999855E-1
2.038199062E1,2.459800005E0,7.000000030E-2,1.210699916E0
2.040199062E1,2.947000027E0,1.776999980E-1,1.119300008E0
2.042199063E1,3.258199930E0,1.837999970E-1,3.892999887E-1
2.044199063E1,3.095999956E0,2.709999979E-1,-2.228999883E-1
2.046199063E1,2.609999895E0,3.529999852E-1,-6.049999967E-2
2.048199062E1,2.339699984E0,2.335999906E-1,1.651999950E-1
2.050199062E1,2.173099995E0,1.923999935E-1,2.360999882E-1
2.052199062E1,2.052199841E0,1.341999918E-1,-5.649999902E-2
2.054203438E1,1.958899975E0,1.717000008E-1,-3.981999755E-1
2.057199219E1,2.163699865E0,5.152999759E-1,-1.317299962E0
2.059199219E1,2.122400045E0,8.359999657E-1,-1.988199949E0
2.061199219E1,1.871299982E0,3.155999780E-1,-1.298699975E0
2.063199219E1,1.247200012E0,-4.747999907E-1,-5.990999937E-1
2.065199219E1,6.133999825E-1,-9.501999617E-1,-3.276999891E-1
2.067199219E1,4.059999883E-1,-1.924199939E0,2.513999939E-1
2.069199219E1,5.945999622E-1,-2.856099844E0,1.658800006E0
2.071199219E1,1.294899940E0,-2.324899912E0,1.806699991E0
2.073199219E1,-3.874000013E-1,-1.695199966E0,1.823000014E-1
2.075199219E1,-1.985599995E0,-2.204999924E0,2.665799856E0
2.077199219E1,-2.075700045E0,-3.177799940E0,6.385799885E0
2.079199219E1,-1.342999935E0,-4.547699928E0,8.475799561E0
2.081199219E1,-8.693999648E-1,-5.187500000E0,8.268599510E0
2.083199219E1,-7.969999909E-1,-3.559099913E0,6.347499847E0
2.085199219E1,-1.200500011E0,-8.970999718E-1,2.869599819E0
2.087199219E1,-1.463599920E0,8.459999561E-1,-5.346999764E-1
2.089199219E1,-1.310500026E0,1.741199970E0,-3.010200024E0
2.091199219E1,-9.417999983E-1,1.813499928E0,-4.482800007E0
2.093199219E1,-8.021000028E-1,1.574599981E0,-4.916899681E0
2.095199219E1,-7.326999903E-1,1.248399973E0,-5.162399769E0
2.097199219E1,-8.165999651E-1,1.161199927E0,-4.652699947E0
2.099199219E1,-8.086999655E-1,1.172099948E0,-3.930799961E0
2.102199219E1,-8.266999722E-1,1.421399951E0,-2.748600006E0
2.104199219E1,-7.590999603E-1,2.129299879E0,-1.272199988E0
2.106199219E1,-4.248999953E-1,2.426399946E0,-3.346000016E-1
2.108199219E1,-2.468999922E-1,1.975899935E0,-5.091999769E-1
2.110199219E1,-2.727999985E-1,1.534899950E0,7.860999703E-1
2.112199219E1,-8.349999785E-2,7.637999654E-1,2.538899899E0
2.114199219E1,3.380999863E-1,2.298999876E-1,3.496099949E0
2.116199219E1,5.518999696E-1,1.499999966E-2,2.906599998E0
2.118199219E1,7.904999852E-1,1.409999933E-2,1.804099917E0
2.120199219E1,1.127799988E0,3.835999966E-1,1.012199998E0
2.123199219E1,1.508999944E0,1.050999999E0,-6.548999548E-1
2.126199219E1,1.628099918E0,1.071900010E0,-1.137300014E0
2.128199219E1,2.039099932E0,1.067499995E0,-8.165999651E-1
2.130199219E1,2.416499853E0,1.361400008E0,-4.490999877E-1
2.132199219E1,2.516099930E0,1.760199904E0,-1.890999973E-1
2.134199219E1,2.378499985E0,1.990899920E0,2.070000023E-2
2.136199219E1,2.260299921E0,1.494799972E0,4.581999779E-1
2.138199219E1,1.255999923E0,6.699000001E-1,1.350199938E0
2.140199219E1,3.754999936E-1,-1.199999973E-1,2.476899862E0
2.142199219E1,-2.733999789E-1,-1.246799946E0,4.272200108E0
2.144199219E1,-7.111999989E-1,-2.252899885E0,5.305200100E0
2.146199219E1,-9.337999821E-1,-2.826900005E0,3.813899994E0
2.148199219E1,-2.020299911E0,-2.752899885E0,1.790300012E0
2.150199219E1,-3.207999945E0,-1.934099913E0,5.619999766E-2
2.152199219E1,-3.718799829E0,-8.211999536E-1,-8.121999502E-1
2.154199219E1,-3.463899851E0,-3.174999952E-1,-1.245599985E0
2.156199219E1,-2.912199974E0,-1.598999947E-1,-1.892799973E0
2.158199219E1,-2.443399906E0,-1.530999988E-1,-2.438999891E0
2.160199844E1,-2.208199978E0,-2.909999900E-2,-2.393300056E0
2.163199219E1,-1.825899959E0,1.304000020E-1,-2.165400028E0
2.165199219E1,-1.557399988E0,1.747999936E-1,-1.774099946E0
2.168199219E1,-6.470999718E-1,1.530999988E-1,-1.787199974E0
2.170199219E1,1.257999986E-1,1.608999968E-1,-1.861699939E0
2.172199219E1,1.054399967E0,1.938999891E-1,-1.714899898E0
2.175199219E1,2.465699911E0,4.799999762E-3,-1.339699984E0
2.177199219E1,3.103699923E0,7.859999686E-2,-1.246899962E0
2.179199219E1,3.661199808E0,-1.030999944E-1,-1.046800017E0
2.181199219E1,3.982100010E0,-2.654999793E-1,-3.662000000E-1
2.183199219E1,3.970899820E0,-2.155999988E-1,4.971999824E-1
2.185199219E1,3.146299839E0,7.229999900E-1,7.712999582E-1
2.187199219E1,1.921099901E0,2.098000050E0,2.556000054E-1
2.189199219E1,7.447999716E-1,3.251399994E0,-3.113999963E-1
2.191199219E1,2.318999916E-1,3.732800007E0,1.354999989E-1
2.193199219E1,3.066000044E-1,3.184099913E0,1.193199992E0
2.196199219E1,4.230000079E-2,2.620699883E0,1.845799923E0
2.198199219E1,-6.083999872E-1,3.266700029E0,2.482300043E0
2.200199219E1,-7.529999614E-1,2.428799868E0,3.126899958E0
2.202199219E1,1.886999905E-1,5.780000091E-1,3.022199869E0
2.204199219E1,1.568799973E0,-1.866999984E0,4.433199883E0
2.206199219E1,2.369600058E0,-3.082700014E0,4.668699741E0
2.208199219E1,2.295699835E0,-2.750999928E0,3.169499874E0
2.210199219E1,1.934399962E0,-2.209199905E0,2.202999830E0
2.212199219E1,1.849799991E0,-1.915799975E0,1.700399995E0
2.214199219E1,1.525299907E0,-1.603999972E0,8.370999694E-1
2.216199219E1,1.057899952E0,-1.196099997E0,-2.786999941E-1
2.218199219E1,6.462000012E-1,-8.405999541E-1,-1.322799921E0
2.220199219E1,2.694000006E-1,-5.988999605E-1,-2.100399971E0
2.222199219E1,-8.049999923E-2,-3.714999855E-1,-2.733500004E0
2.224199219E1,-3.657999933E-1,-4.749999940E-2,-3.229199886E0
2.226199219E1,-7.578999996E-1,5.429999903E-2,-3.292199850E0
2.228199219E1,-9.935999513E-1,-3.089999966E-2,-3.113899946E0
2.230199219E1,-1.120299935E0,-2.633000016E-1,-2.465399981E0
2.232199219E1,-1.421199918E0,-1.801999956E-1,-1.808699965E0
2.234199219E1,-1.416499972E0,-4.123999774E-1,-2.053099871E0
2.236199219E1,-1.745599985E0,-5.040999651E-1,-2.213500023E0
2.238199219E1,-2.128499985E0,-1.184999943E0,-2.664799929E0
2.240199219E1,-1.980999947E0,-2.100399971E0,-3.120899916E0
2.242199219E1,-1.343699932E0,-1.867499948E0,-2.063899994E0
2.244200313E1,-4.514999986E-1,-8.747999668E-1,-1.290399909E0
2.247199219E1,-1.799600005E0,1.023999974E-1,8.305000067E-1
2.249199219E1,-1.918899894E0,-1.426899910E0,5.641599655E0
2.251199219E1,4.327999949E-1,-3.563399792E0,6.835599899E0
2.253199219E1,1.105199933E0,-4.535299778E0,5.639400005E0
2.255199219E1,-1.073599935E0,-3.597999811E0,4.171599865E0
2.257199219E1,-3.313599825E0,-1.742299914E0,4.146800041E0
2.259199219E1,-3.440599918E0,-7.694000006E-1,4.406899929E0
2.261199219E1,-2.300999880E0,-1.201300025E0,3.832899809E0
2.263199219E1,-9.577999711E-1,-1.125699997E0,1.518999934E0
2.265199219E1,-1.565999985E-1,-3.569999933E-1,-8.334999681E-1
2.267199219E1,4.523999989E-1,3.475999832E-1,-2.038300037E0
2.269199219E1,1.067199945E0,7.202000022E-1,-2.561199903E0
2.271199219E1,1.337899923E0,4.848999977E-1,-2.272099972E0
2.273199219E1,1.373199940E0,2.186999917E-1,-1.719099998E0
2.275199219E1,8.545999527E-1,2.050999999E-1,-1.398199916E0
2.277199219E1,4.386999905E-1,1.611000001E-1,-1.059199929E0
2.279199219E1,1.133999974E-1,-2.106999904E-1,-3.136999905E-1
2.281199219E1,1.942999959E-1,-6.013999581E-1,-1.074000001E-1
2.283199219E1,2.225999981E-1,-1.028599977E0,-3.880999982E-1
2.286199219E1,-2.687999904E-1,-1.132200003E0,-4.263999760E-1
2.288199219E1,-3.538999856E-1,-1.314000010E0,1.402999908E-1
2.290199219E1,-4.339999706E-2,-1.144199967E0,-6.268999577E-1
2.292199219E1,6.849999726E-2,-5.270999670E-1,-1.311100006E0
2.294199219E1,-3.380999863E-1,-3.577999771E-1,-7.430999875E-1
2.296199219E1,-5.684999824E-1,-1.282199979E0,1.449399948E0
2.298199219E1,-3.137999773E-1,-1.979599953E0,2.979399920E0
2.300199219E1,3.050000072E-1,-1.836799979E0,2.565099955E0
2.302199219E1,9.396999478E-1,-1.421599984E0,6.582999825E-1
2.304199219E1,1.265100002E0,-1.512499928E0,2.865000069E-1
2.306199219E1,1.052600026E0,-1.641199946E0,5.284000039E-1
2.309199219E1,9.675999880E-1,-2.405499935E0,5.507999659E-1
2.311199219E1,1.085199952E0,-2.874199867E0,1.062500000E0
2.313199219E1,1.076699972E0,-2.894599915E0,1.545300007E0
2.315199219E1,9.007999897E-1,-2.191799879E0,1.505899906E0
2.317199219E1,9.925999641E-1,-1.596599936E0,4.330999851E-1
2.319199219E1,1.197899938E0,-1.361699939E0,-3.003000021E-1
2.321199219E1,1.258099914E0,-1.271899939E0,-4.339999855E-1
2.323199219E1,1.044099927E0,-1.271700025E0,-3.729999959E-1
2.325199219E1,9.072999954E-1,-1.475600004E0,1.603000015E-1
2.327199219E1,7.741999626E-1,-1.498099923E0,4.826999903E-1
2.329199219E1,7.069999576E-1,-1.445699930E0,3.524000049E-1
2.331199219E1,5.101999640E-1,-1.340600014E0,5.882999897E-1
2.333199219E1,7.211999893E-1,-1.343799949E0,6.322999597E-1
2.335199219E1,1.225199938E0,-1.317099929E0,-2.749999985E-2
2.337199219E1,1.304000020E0,-1.216799974E0,-4.851000011E-1
2.339199219E1,8.869999647E-1,-1.109899998E0,1.077999994E-1
2.341199219E1,6.735999584E-1,-1.454899907E0,7.621999979E-1
2.343199219E1,7.827999592E-1,-1.909199953E0,9.978999496E-1
2.345199219E1,7.580999732E-1,-2.056900024E0,1.348999977E0
2.347199219E1,8.789999783E-2,-1.537099957E0,1.508799911E0
2.349199219E1,-1.233999953E-1,-9.125999808E-1,9.651999474E-1
2.351199219E1,7.552999854E-1,-1.103399992E0,9.174000025E-1
2.353199219E1,1.124199986E0,-1.274500012E0,1.055599928E0
2.355199219E1,1.019600034E0,-8.725999594E-1,7.142999768E-1
2.358199063E1,8.863999844E-1,-3.583999872E-1,3.919999897E-1
2.360199063E1,8.889999986E-1,2.515999973E-1,4.487999976E-1
2.362199219E1,1.087800026E0,4.226000011E-1,-1.821999997E-1
2.365199062E1,1.331499934E0,5.719999969E-2,-4.838999808E-1
2.367199063E1,1.276499987E0,-1.727999896E-1,5.895000100E-1
2.369199219E1,8.215999603E-1,-1.678999960E-1,2.435999960E-1
2.372199219E1,2.920999825E-1,-4.668999910E-1,-9.024999738E-1
2.375199062E1,-2.152999938E-1,-8.068000078E-1,-1.254400015E0
2.377199062E1,-3.481999934E-1,-1.400399923E0,-9.887999892E-1
2.379199062E1,-4.156000018E-1,-1.677599907E0,-1.097299933E0
2.381199062E1,-8.299999684E-2,-1.472700000E0,-1.663199902E0
2.383199219E1,6.830999851E-1,-1.083799958E0,-2.166800022E0
2.386199062E1,-4.057999849E-1,5.605999827E-1,-4.114999771E0
2.388199062E1,-2.902799845E0,4.696999788E-1,-2.332999945E0
2.390199219E1,-3.735699892E0,-1.025900006E0,2.126100063E0
2.393199062E1,-1.929199934E0,-2.128700018E0,3.433199883E0
2.395199062E1,-5.525999665E-1,-1.387499928E0,4.790999889E0
2.397199219E1,-1.722299933E0,1.141999960E0,-5.151700020E0
2.400199062E1,-4.936999977E-1,3.515799999E0,-5.173599720E0
2.402199062E1,-1.426100016E0,3.574499846E0,-4.594999790E0
2.404199062E1,-2.205999851E0,3.602999926E0,-2.758100033E0
2.406199062E1,-2.457499981E0,3.044999838E0,-1.341199994E0
2.408199063E1,-2.395999908E0,2.431799889E0,-1.327700019E0
2.410199063E1,-1.946900010E0,2.047299862E0,-1.875599980E0
2.412199063E1,-1.666299939E0,1.834999919E0,-2.054899931E0
2.414199063E1,-1.771199942E0,1.593899965E0,-1.585799932E0
2.416199219E1,-1.698899984E0,1.049399972E0,-7.226999998E-1
2.419199219E1,-1.349699974E0,1.735999882E-1,-3.587999940E-1
2.422199062E1,-9.799999595E-1,-3.765999973E-1,3.546999991E-1
2.424199375E1,-8.093000054E-1,-5.245999694E-1,6.017999649E-1
2.427199062E1,-1.076099992E0,-2.292999923E-1,-1.509999949E-2
2.429199062E1,-1.199899912E0,-1.412999928E-1,-2.843999863E-1
2.431199062E1,-1.518599987E0,5.599999800E-2,-3.474999964E-1
2.433199219E1,-1.739099979E0,2.078000009E-1,-2.930999994E-1
2.436199062E1,-1.847399950E0,3.429999948E-1,-1.079999935E-2
2.438199062E1,-1.630999923E0,4.530999959E-1,-1.719999872E-2
2.440199219E1,-1.265900016E0,4.903999865E-1,1.689999923E-2
2.443199062E1,-2.624000013E-1,7.439999580E-1,-4.323999882E-1
2.445199062E1,-3.362999856E-1,1.222999930E0,-1.585000008E-1
2.447199219E1,-9.019999504E-1,1.018899918E0,3.398999870E-1
2.450199062E1,-9.551999569E-1,-8.713999987E-1,1.986999989E0
2.452199062E1,4.237999916E-1,-1.803699970E0,1.900699973E0
2.454199062E1,1.296700001E0,-1.448499918E0,-2.339999937E-2
2.456199219E1,7.953000069E-1,-8.768999577E-1,-9.351999760E-1
2.459199062E1,-1.906199932E0,-8.919000030E-1,8.509999514E-1
2.461199219E1,-2.695400000E0,-9.533999562E-1,2.501399994E0
2.463199219E1,-1.727899909E0,-1.141299963E0,2.246199846E0
2.465199219E1,-4.339999855E-1,-1.418900013E0,1.072899938E0
2.467199219E1,8.351999521E-1,-1.143800020E0,-1.494999975E-1
2.469199219E1,1.513899922E0,-4.764999747E-1,-1.074100018E0
2.471199219E1,2.185400009E0,-5.421000123E-1,-2.056400061E0
2.473199219E1,2.364500046E0,-1.544799924E0,-1.738699913E0
2.475199219E1,1.703400016E0,-2.393499851E0,-4.089999795E-1
2.477199219E1,1.152599931E0,-2.313299894E0,1.296599984E0
2.479199219E1,8.288999796E-1,-2.000099897E0,1.595199943E0
2.482199062E1,7.942000031E-1,-1.431399941E0,1.070999950E-1
2.484199062E1,1.371999979E0,-1.327700019E0,-9.696999788E-1
2.486199219E1,1.799600005E0,-1.144899964E0,-1.624599934E0
2.488199219E1,2.132699966E0,-5.055999756E-1,-1.647799969E0
2.490199219E1,2.153899908E0,-5.755999684E-1,-1.209699988E0
2.492199219E1,1.752900004E0,-9.106000066E-1,-1.409999933E-2
2.494199219E1,1.380899906E0,-1.386399984E0,1.111999989E0
2.496199219E1,1.485599995E0,-1.850299954E0,1.801800013E0
2.498199219E1,1.717000008E0,-2.239500046E0,2.141700029E0
2.500199219E1,1.955999970E0,-2.213399887E0,1.563699961E0
2.502199219E1,2.040499926E0,-1.926199913E0,3.677999973E-1
2.505199219E1,1.584199905E0,-2.026599884E0,-2.640999854E-1
2.507199219E1,8.700000048E-1,-2.485800028E0,-2.118999958E-1
2.509199219E1,1.169999968E-2,-3.293399811E0,-2.669000030E-1
2.511199219E1,-6.505999565E-1,-3.488799810E0,3.049999848E-2
2.513199219E1,-6.219999790E-1,-4.017099857E0,4.909999967E-1
2.516199219E1,-3.861999810E-1,-4.481100082E0,1.971099973E0
2.518199219E1,-1.270999908E-1,-4.251299858E0,2.551100016E0
2.520199219E1,-5.523999929E-1,-2.898499966E0,2.664099932E0
2.523199062E1,-2.304699898E0,-2.479999959E-1,2.700000048E0
2.525199062E1,-2.612299919E0,1.809999906E-2,2.521100044E0
2.527199219E1,-2.354500055E0,-1.013000011E-1,2.556699991E0
2.530199063E1,-8.550999761E-1,-5.572000146E-1,1.140599966E0
2.532199062E1,2.329999954E-2,-9.235999584E-1,5.812000036E-1
2.534199219E1,2.118999958E-1,-1.257699966E0,-5.999999703E-4
2.537199063E1,5.062999725E-1,-1.887299895E0,2.663999796E-1
2.539199063E1,7.374999523E-1,-2.395099878E0,1.882999986E-1
2.541199062E1,8.276000023E-1,-2.729899883E0,-3.819999993E-1
2.543199062E1,6.161000133E-1,-2.677000046E0,-9.433999658E-1
2.545199062E1,2.827999890E-1,-2.449699879E0,-1.112299919E0
2.547199219E1,1.246999949E-1,-2.414000034E0,-6.071000099E-1
2.550199062E1,1.198999956E-1,-2.710899830E0,-4.849999845E-1
2.552199844E1,-1.605999917E-1,-2.623800039E0,-3.183999956E-1
2.555199219E1,-5.616999865E-1,-2.790099859E0,3.686999977E-1
2.558199063E1,-1.074599981E0,-3.034199953E0,1.387599945E0
2.560199063E1,-1.314999938E0,-3.093699932E0,2.105099916E0
2.562199219E1,-1.476599932E0,-2.905799866E0,2.387399912E0
2.565199062E1,-1.776999950E0,-2.331799984E0,1.474799991E0
2.567199063E1,-1.558599949E0,-2.080699921E0,3.087999821E-1
2.569199219E1,-9.399999976E-1,-1.949799895E0,-7.472999692E-1
2.572199062E1,-1.585000008E-1,-2.004999876E0,-2.265599966E0
2.574199063E1,-1.529199958E0,-1.648000002E0,-1.292099953E0
2.576199219E1,-2.776000023E0,-8.822000027E-1,1.070899963E0
2.579199219E1,-1.382200003E0,-1.179799914E0,1.666199923E0
2.581199219E1,8.445999622E-1,-1.381699920E0,4.124999940E-1
2.583199219E1,2.870899916E0,-1.069199920E0,-2.935000062E-1
2.586199062E1,3.985399961E0,-2.046499968E0,4.050000012E-2
2.588199062E1,4.074800014E0,-3.122200012E0,1.834800005E0
2.590199063E1,4.476900101E0,-3.959899902E0,3.945799828E0
2.592199063E1,4.617899895E0,-3.401499987E0,4.465699673E0
2.594199063E1,4.570300102E0,-2.105399847E0,2.399499893E0
2.596199063E1,4.407499790E0,-9.337999821E-1,1.919000000E-1
2.598199062E1,4.298900127E0,-2.542999983E-1,-8.615999818E-1
2.600199062E1,4.073299885E0,-1.553999931E-1,-1.024600029E0
2.602199219E1,3.974999905E0,-5.529999733E-1,-4.126999974E-1
2.605199063E1,3.681099892E0,-9.836999774E-1,1.999999862E-3
2.607199062E1,3.388199806E0,-1.110299945E0,2.300000004E-2
2.609199062E1,2.941200018E0,-9.662999511E-1,2.879999951E-2
2.611199062E1,2.612200022E0,-6.613999605E-1,-7.779999822E-2
2.613199062E1,2.402400017E0,-3.078999817E-1,-8.619999886E-1
2.615199063E1,2.032999992E0,1.605999917E-1,-1.473399997E0
2.617199063E1,1.802199960E0,5.740000010E-1,-1.384799957E0
2.619199219E1,1.472899914E0,8.631999493E-1,-8.295999765E-1
2.622199062E1,7.163999677E-1,1.465199947E0,-1.819999889E-2
2.624199063E1,4.720000029E-1,1.769299984E0,4.196999967E-1
2.626199063E1,6.980999708E-1,1.942999959E0,4.338999987E-1
2.628199063E1,1.219299912E0,2.076400042E0,2.099999934E-1
2.630199063E1,1.259999990E0,2.126399994E0,2.811999917E-1
2.632199062E1,9.556999803E-1,1.839999914E0,8.217999935E-1
2.634199062E1,9.212999940E-1,1.447199941E0,1.749300003E0
2.636199062E1,1.268299937E0,1.017099977E0,1.936399937E0
2.638199219E1,1.825099945E0,6.893999577E-1,1.252200007E0
2.640199219E1,2.348799944E0,3.077999949E-1,8.725999594E-1
2.642199219E1,2.585700035E0,2.249999940E-1,3.364999890E-1
2.644199219E1,2.241600037E0,5.981999636E-1,-1.393000036E-1
2.646199219E1,1.543799996E0,1.018899918E0,-2.522000074E-1
2.648199219E1,1.289099932E0,1.055699944E0,-5.153999925E-1
2.650199219E1,1.069800019E0,1.008499980E0,-5.187000036E-1
2.652199219E1,7.671999931E-1,4.499000013E-1,-1.516999900E-1
2.655199219E1,-4.027999938E-1,-2.791000009E-1,9.212999940E-1
2.657199219E1,-9.312999845E-1,-6.330999732E-1,1.646699905E0
2.659199219E1,-1.282899976E0,-1.075999975E0,2.344599962E0
2.661199219E1,-1.595699906E0,-1.619399905E0,2.477999926E0
2.663199219E1,-1.921499968E0,-1.898499966E0,2.025799990E0
2.665199219E1,-2.284800053E0,-1.804699898E0,1.114199996E0
2.668199062E1,-2.046200037E0,-1.777199984E0,-4.521999955E-1
2.670199062E1,-1.706999898E0,-1.822999954E0,-1.271600008E0
2.672199062E1,-1.538499951E0,-1.726899981E0,-2.286299944E0
2.674199063E1,-1.669799924E0,-1.399699926E0,-2.928400040E0
2.676199219E1,-1.826499939E0,-1.073899984E0,-2.806900024E0
2.679199062E1,-1.765199900E0,-1.079100013E0,-1.474099994E0
2.681199062E1,-1.267799973E0,-1.228299975E0,-8.513000011E-1
2.683199219E1,-9.664999843E-1,-1.256699920E0,-3.878999949E-1
2.686199062E1,-7.256000042E-1,-1.236899972E0,4.847999811E-1
2.688199062E1,-4.903999865E-1,-1.223899961E0,1.000800014E0
2.690199219E1,-2.104000002E-1,-1.139699936E0,1.222700000E0
2.692199219E1,2.964999974E-1,-1.052600026E0,9.351999760E-1
2.695200781E1,9.781999588E-1,-8.055999875E-1,-6.480000019E-1
2.698199219E1,1.559799910E0,-6.159999967E-1,-2.194900036E0
2.700199219E1,1.898799896E0,-5.960999727E-1,-2.709499836E0
2.702199219E1,1.968299985E0,-6.484999657E-1,-2.076900005E0
2.705199219E1,2.452299833E0,-2.082999945E-1,-6.897999644E-1
2.708199219E1,4.105799675E0,1.341799974E0,-3.950999975E-1
2.710199219E1,3.930399895E0,1.775200009E0,-6.121000051E-1
2.712199375E1,2.434900045E0,1.594499946E0,3.251000047E-1
2.715199219E1,3.601999879E-1,1.173399925E0,4.149099827E0
2.717199219E1,6.764000058E-1,-6.269999593E-2,6.750599861E0
2.719199375E1,1.704800010E0,-1.096799970E0,7.186899662E0
2.722199219E1,2.177899837E0,-6.939999759E-2,2.446899891E0
2.724199219E1,1.579499960E0,9.703999758E-1,-3.610999882E-1
2.726199375E1,9.680999517E-1,1.594200015E0,-2.040499926E0
2.729199062E1,3.452000022E-1,1.473599911E0,-3.637099981E0
2.731199062E1,-3.756999969E-1,1.458299994E0,-3.677899837E0
2.733199219E1,-1.275799990E0,8.851000071E-1,-2.039900064E0
2.735199219E1,-2.075599909E0,-4.305999875E-1,-8.879999816E-2
2.738199062E1,-1.653999925E0,-6.918999553E-1,1.228299975E0
2.740199219E1,-2.119699955E0,-4.630999863E-1,-1.687999964E-1
2.743199062E1,-3.516199827E0,-4.438999891E-1,1.916199923E0
2.745199062E1,-3.989300013E0,-2.240000010E0,5.745999813E0
2.747199062E1,-2.942299843E0,-3.577499866E0,5.672299862E0
2.749199063E1,-2.484400034E0,-3.389499903E0,2.456099987E0
2.751199063E1,-3.421899796E0,-1.797399998E0,1.195999980E-1
2.753199063E1,-4.472799778E0,-8.251999617E-1,5.166999698E-1
2.755199219E1,-4.723499775E0,-1.184899926E0,1.117499948E0
2.758199219E1,-4.171199799E0,-1.316999912E0,-7.617999911E-1
2.760199219E1,-4.220299721E0,-1.174499989E0,-1.997399926E0
2.762199219E1,-4.124700069E0,-1.283100009E0,-2.714999914E0
2.764199219E1,-3.646499872E0,-1.778399944E0,-2.595099926E0
2.766199219E1,-3.311499834E0,-2.228499889E0,-2.291899920E0
2.768199219E1,-2.946599960E0,-2.249799967E0,-1.851199985E0
2.770199219E1,-2.706499815E0,-2.048599958E0,-1.741499901E0
2.773199062E1,-2.763299942E0,-2.161799908E0,-1.017199993E0
2.775199688E1,-2.592700005E0,-2.124199867E0,-5.460999608E-1
2.778199063E1,-1.992899895E0,-2.137599945E0,-2.304999977E-1
2.780199063E1,-1.337099910E0,-2.068799973E0,-6.201999784E-1
2.782199062E1,-9.291999936E-1,-1.905599952E0,-7.486999631E-1
2.784199219E1,-8.542000055E-1,-1.723199964E0,-3.680999875E-1
2.787199063E1,-8.312999606E-1,-1.283100009E0,-9.659999609E-2
2.789199063E1,-5.081999898E-1,-8.161999583E-1,-7.193999887E-1
2.791199219E1,-2.429999970E-2,-6.606000066E-1,-1.157099962E0
2.793199219E1,2.116999924E-1,-6.359999776E-1,-1.191599965E0
2.795199375E1,-1.332999915E-1,-5.141000152E-1,-8.631999493E-1
2.798199219E1,-4.672999978E-1,-2.913999856E-1,-7.117999792E-1
2.800199219E1,-1.774999946E-1,-9.959999472E-2,-6.213999987E-1
2.802199219E1,-2.569999918E-2,3.366999924E-1,-9.563999772E-1
2.804199219E1,-4.009999931E-1,3.306999803E-1,-5.769000053E-1
2.806199219E1,-6.506999731E-1,-1.002300024E0,1.572999954E0
2.808199219E1,-5.051999688E-1,-1.965299964E0,4.498399734E0
2.810199219E1,3.968999982E-1,-1.996099949E0,6.144799709E0
2.812199219E1,9.517999887E-1,-1.343699932E0,5.120100021E0
2.814199219E1,9.911999702E-1,-2.474999875E-1,2.922699928E0
2.816199219E1,9.732999802E-1,9.250000119E-2,1.888999939E0
2.818199219E1,1.144199967E0,-4.769999906E-2,6.065999866E-1
2.820199219E1,2.316200018E0,-5.512999892E-1,9.481999874E-1
2.822199219E1,2.364899874E0,-2.037799835E0,2.767699957E0
2.824199219E1,2.424099922E0,-2.237200022E0,1.709499955E0
2.826199219E1,6.503999829E-1,1.635999978E-1,-1.010499954E0
2.828199219E1,-1.070699930E0,2.096400023E0,-2.093099833E0
2.830199219E1,-1.285799980E0,2.951000035E-1,-2.364300013E0
2.832199219E1,-6.223999858E-1,-8.786999583E-1,-3.297799826E0
2.834199219E1,1.046700001E0,-8.204999566E-1,-2.855099916E0
2.837199063E1,1.090299964E0,-1.398999989E-1,-1.021399975E0
2.839199063E1,-4.776999950E0,5.172100067E0,6.107699871E0
2.841199062E1,-2.652699947E0,4.023699760E0,1.880999953E-1
2.843199062E1,2.526399851E0,-6.439399719E0,-6.619999558E-2
2.845199062E1,1.421999931E-1,4.856999815E-1,-2.601000071E-1
2.847199062E1,3.424099922E0,1.177699924E0,2.079200029E0
2.849199063E1,3.670899868E0,2.572999895E-1,-3.405999839E-1
2.851199063E1,1.869099975E0,1.640000008E-2,-2.527099848E0
2.853199063E1,4.408999979E-1,-4.900999963E-1,-1.526999950E0
2.855199219E1,-8.879999518E-1,2.108999938E-1,-6.991999745E-1
2.858199219E1,-5.939999968E-2,2.492199898E0,-3.080899954E0
2.860199219E1,-4.469999969E-1,1.385599971E0,7.581999898E-1
2.862199219E1,3.638999760E-1,1.457199931E0,4.193999767E-1
2.865199063E1,1.380800009E0,3.833999932E-1,-2.851099968E0
2.867199063E1,-5.599999800E-2,-7.174999714E-1,-2.525099993E0
2.869199063E1,-3.955599785E0,-4.120000079E-2,2.289999962E0
2.871199063E1,-6.632599831E0,-1.321599960E0,2.682799816E0
2.873199062E1,-6.035899639E0,-6.376999617E-1,2.247900009E0
2.875199062E1,-2.734699965E0,-1.722999960E-1,3.611899853E0
2.877199062E1,2.096199989E0,-1.711399913E0,6.253399849E0
2.879199062E1,1.352899909E0,-6.567999721E-1,4.434999943E0
2.881199063E1,5.963000059E-1,-8.313999772E-1,4.319999814E-1
2.883199219E1,-6.578999758E-1,2.298999876E-1,-3.539199829E0
2.885199219E1,-9.569000006E-1,4.679999948E-1,-4.777199745E0
2.888199219E1,-4.183999896E-1,3.973999918E-1,-2.986599922E0
2.890199219E1,-8.782999516E-1,9.969999641E-2,-3.574399948E0
2.892199219E1,-9.871999621E-1,7.019999623E-2,-1.544799924E0
2.895199219E1,-1.099999994E-1,-2.199999988E-3,-3.336400032E0
2.897199219E1,4.671999812E-1,4.083999991E-1,-1.741199970E0
2.899199219E1,5.871999860E-1,6.642999649E-1,-9.099999443E-3
2.902199062E1,3.477999866E-1,5.756999850E-1,8.835999966E-1
2.904199062E1,2.953000069E-1,4.353999794E-1,4.982999861E-1
2.906199063E1,-4.429000020E-1,8.938999772E-1,-5.005999804E-1
2.908199063E1,-2.339999974E-1,1.018000007E0,-1.738999963E0
2.910199063E1,1.450999975E-1,7.953000069E-1,-4.438999891E-1
2.912199219E1,3.703999817E-1,4.879999757E-1,5.645999908E-1
2.915199063E1,-4.114999771E-1,6.653000116E-1,1.871799946E0
2.917199063E1,4.417999983E-1,7.192999721E-1,1.504299998E0
2.919199219E1,3.718799829E0,2.264999896E-1,1.411999941E0
2.922199062E1,1.671999991E-1,2.022099972E0,9.671999812E-1
2.924199063E1,-8.185999990E-1,-4.050000012E-2,-4.007000029E-1
2.926199219E1,-2.541999817E-1,-1.963599920E0,-8.653999567E-1
2.928199219E1,8.701999784E-1,-2.993399858E0,2.528300047E0
2.930199219E1,2.190700054E0,-3.189800024E0,5.760900021E0
2.932199219E1,2.006999969E0,-3.174799919E0,5.383899689E0
2.934199219E1,4.914999902E-1,-1.688499928E0,2.413800001E0
2.936199219E1,-1.177999973E-1,-8.975999951E-1,-5.779999867E-2
2.938199219E1,2.379999906E-1,-3.977999985E-1,-7.062999606E-1
2.941199219E1,-7.580000162E-2,1.657999903E-1,-1.467499971E0
2.943199219E1,-2.610000074E-1,3.790999949E-1,-1.423900008E0
2.945199219E1,1.142400026E0,2.374999970E-1,-2.191599846E0
2.948199219E1,-4.156999886E-1,4.086000025E-1,-2.628999949E0
2.950199219E1,-1.921199918E0,4.834999740E-1,-2.617300034E0
2.952199219E1,-2.381500006E0,1.635999978E-1,-2.505100012E0
2.955199219E1,-6.969999671E-1,4.925999939E-1,-1.497799993E0
2.957199219E1,5.457000136E-1,2.740000002E-2,-2.630300045E0
2.959199219E1,2.322999984E-1,5.042999983E-1,-2.145299911E0
2.961199219E1,-2.392999977E-1,6.125000119E-1,-1.539399981E0
2.963199375E1,-4.099999741E-2,8.235999942E-1,-9.954999685E-1
2.966199219E1,-3.460000083E-2,9.408999681E-1,3.261999786E-1
2.968199219E1,2.197999954E-1,2.861999869E-1,1.888599992E0
2.970199219E1,3.367999792E-1,5.780000091E-1,2.402299881E0
2.972199219E1,4.262999892E-1,7.669999599E-1,1.748600006E0
2.974199219E1,3.856000006E-1,9.904999733E-1,1.213500023E0
2.976199219E1,5.383999944E-1,5.619999766E-1,1.065299988E0
2.978199219E1,4.681999981E-1,-5.439999700E-2,1.598799944E0
2.980199219E1,-2.909999900E-2,-2.788999975E-1,3.025699854E0
2.982199219E1,-6.608999968E-1,-5.539000034E-1,3.127699852E0
2.984199219E1,-5.040999651E-1,-6.207000017E-1,2.331899881E0
2.986199219E1,2.277999967E-1,-9.118999839E-1,1.986199975E0
2.988199219E1,1.065099955E0,-1.259999990E0,1.760599971E0
2.990199219E1,1.072000027E0,-1.366299987E0,1.481099963E0
2.992199219E1,3.996999860E-1,-1.201499939E0,6.766999960E-1
2.995199219E1,-2.106999904E-1,-7.418999672E-1,-8.414999843E-1
2.998199219E1,-1.189999953E-1,-3.673999906E-1,-2.168599844E0
3.001199063E1,-6.981999874E-1,1.097999960E-1,-2.576799870E0
3.003199063E1,8.889999986E-1,-2.245000005E-1,-2.349099874E0
3.005199063E1,5.906000137E-1,-6.419000030E-1,-3.092000008E0
3.007199062E1,1.111599922E0,-3.754999936E-1,-3.317299843E0
3.009199375E1,1.680299997E0,-2.802000046E-1,-3.109299898E0
3.012199219E1,1.304000020E-1,3.585999906E-1,-3.565999985E0
3.015199063E1,-7.339999825E-2,4.240999818E-1,-2.498199940E0
3.017199063E1,2.187999934E-1,6.487999558E-1,-1.853599906E0
3.019199219E1,-4.483999908E-1,9.240999818E-1,-1.429600000E0
3.022199062E1,2.679999918E-2,1.245999932E0,3.495999873E-1
3.024199063E1,3.779000044E-1,3.252999783E-1,-8.667999506E-1
3.026199219E1,9.601999521E-1,4.998999834E-1,1.738699913E0
3.028199219E1,-2.358999997E-1,1.306100011E0,4.489599705E0
3.031199219E1,-1.283999920E0,1.676899910E0,4.563199997E0
3.033199219E1,-8.014999628E-1,2.108599901E0,4.707399845E0
3.035199219E1,4.959999770E-2,1.649399996E0,3.558099985E0
3.037199219E1,2.226699829E0,-4.140000045E-2,3.733599901E0
3.039199219E1,3.306299925E0,-1.289600015E0,3.448899984E0
3.041199219E1,2.302500010E0,-1.624499917E0,3.359400034E0
3.043199219E1,1.294199944E0,-1.418999910E0,1.208699942E0
3.045199219E1,-4.352999926E-1,-8.587999940E-1,-1.167799950E0
3.047199219E1,3.627300024E0,-1.425099969E0,2.025399923E0
3.049199219E1,4.082299709E0,-9.799000025E-1,2.491799831E0
3.051199688E1,3.707299948E0,-1.620299935E0,-4.544000030E-1
3.054199062E1,1.234799981E0,-3.229999840E-1,2.845000029E-1
3.056199219E1,1.317899942E0,-4.869999886E-1,-7.031999826E-1
3.059199219E1,6.649999619E-1,-8.479999751E-2,-1.496099949E0
3.061199219E1,8.289999515E-2,1.008000001E-1,-1.825599909E0
3.064199063E1,2.399999881E-3,2.874999940E-1,-3.636899948E0
3.066199219E1,-8.879999816E-2,2.447999865E-1,-3.310899973E0
3.068199219E1,-1.727000028E-1,6.599999964E-2,-3.313499928E0
3.070199219E1,-8.247999549E-1,-3.012999892E-1,-3.536299944E0
3.072199219E1,-4.160000011E-2,4.226000011E-1,-2.596199989E0
3.075199062E1,5.478000045E-1,2.592999935E-1,-1.349699974E0
3.077199062E1,3.483999968E-1,3.685999811E-1,-1.131399989E0
3.079199062E1,1.546999961E-1,5.697000027E-1,-6.057999730E-1
3.081199063E1,1.964999884E-1,8.824999928E-1,-4.459999874E-2
3.083199375E1,5.888000131E-1,1.064700007E0,4.478999972E-1
3.086199219E1,8.813999891E-1,1.327700019E0,1.417199969E0
3.088199219E1,6.141999960E-1,1.371199965E0,1.517199993E0
3.090199219E1,8.348000050E-1,1.210699916E0,1.980999947E0
3.092199375E1,8.108999729E-1,7.269999981E-1,2.612200022E0
3.095200000E1,-1.714999974E-1,1.539999992E-2,3.927099943E0
3.098199219E1,-1.690499902E0,-4.910999835E-1,3.190799952E0
3.100199219E1,-9.419999719E-1,-7.919999957E-1,2.121700048E0
3.102199219E1,-2.192000002E-1,-5.295999646E-1,1.116699934E0
3.104199219E1,5.462999940E-1,-8.720999956E-1,7.050999999E-1
3.106199219E1,6.858999729E-1,-8.844999671E-1,6.460999846E-1
3.108199219E1,3.492999971E-1,-7.127000093E-1,6.947000027E-1
3.110199219E1,2.763999999E-1,-7.899999619E-1,1.182999983E-1
3.112199219E1,2.405999899E-1,-6.703999639E-1,-9.479999542E-1
3.114199219E1,2.787999809E-1,-4.799999893E-1,-1.828199983E0
3.117199219E1,3.754999936E-1,-2.714000046E-1,-2.854199886E0
3.119199219E1,3.827999830E-1,-1.788999885E-1,-3.184299946E0
3.121199219E1,4.682999849E-1,-2.072999924E-1,-3.290499926E0
3.123199219E1,6.818000078E-1,-1.899999976E-1,-2.947499990E0
3.125199219E1,6.667000055E-1,-2.047999948E-1,-2.506299973E0
3.127199219E1,5.374999642E-1,-1.271999925E-1,-2.407399893E0
3.129199219E1,4.517000020E-1,1.879999973E-2,-2.249799967E0
3.131199219E1,5.435000062E-1,2.150999904E-1,-1.866699934E0
3.133199219E1,7.342000008E-1,3.763999939E-1,-1.342999935E0
3.135199219E1,6.509000063E-1,4.368999898E-1,-5.026000142E-1
3.137199219E1,4.687999785E-1,3.713999987E-1,4.026999772E-1
3.139199219E1,3.403999805E-1,3.667999804E-1,1.051399946E0
3.141199219E1,2.249999940E-1,1.029099941E0,1.584199905E0
3.143199375E1,-4.279999807E-2,1.697899938E0,1.943699956E0
3.146199219E1,2.108999938E-1,1.693899989E0,2.397500038E0
3.148199219E1,8.578999639E-1,1.145399928E0,2.622900009E0
3.150199219E1,1.870499969E0,-3.399999812E-3,3.425199986E0
3.152199219E1,2.205600023E0,-8.998000026E-1,3.735199928E0
3.154199219E1,1.739099979E0,-1.322799921E0,3.312199831E0
3.156199219E1,1.712599993E0,-1.601699948E0,2.798699856E0
3.158199219E1,2.631199837E0,-1.538499951E0,2.137399912E0
3.160199219E1,3.698400021E0,-1.427500010E0,1.504799962E0
3.162199219E1,3.503199816E0,-1.331399918E0,7.031999826E-1
3.164199219E1,2.088899851E0,-1.135200024E0,-8.540000021E-2
3.166199219E1,7.838999629E-1,-8.233000040E-1,-7.128999829E-1
3.169199219E1,4.672999978E-1,-1.523000002E-1,-1.730899930E0
3.171199219E1,8.240999579E-1,1.581999958E-1,-2.156899929E0
3.173199219E1,7.938999534E-1,2.796999812E-1,-2.358399868E0
3.175199531E1,4.746999741E-1,4.227999747E-1,-2.519000053E0
3.178199219E1,4.430999756E-1,5.230999589E-1,-2.962299824E0
3.180199219E1,5.004999638E-1,4.709999859E-1,-3.060799837E0
3.182199219E1,3.797000051E-1,3.916999996E-1,-2.842200041E0
3.184199219E1,2.013999969E-1,4.529999793E-1,-2.424000025E0
3.186199219E1,1.990999877E-1,6.448000073E-1,-1.598799944E0
3.188199219E1,4.330999851E-1,6.915000081E-1,-8.804000020E-1
3.190199219E1,5.297999978E-1,8.763999939E-1,3.069999814E-1
3.192199219E1,6.959999800E-1,7.448999882E-1,1.173799992E0
3.194199219E1,5.564000010E-1,7.971999645E-1,1.638799906E0
3.196199219E1,4.803999960E-1,7.760999799E-1,2.079699993E0
3.198199219E1,9.529999644E-2,9.873999953E-1,1.992299914E0
3.200199219E1,-7.213999629E-1,1.745099902E0,1.820699930E0
3.202199219E1,6.033999920E-1,4.138000011E-1,2.023599863E0
3.204199219E1,1.416599989E0,-6.757999659E-1,2.685899973E0
3.206199219E1,3.894999921E-1,-7.820000052E-1,3.212499857E0
3.208199219E1,-1.087499976E0,-9.551999569E-1,2.719399929E0
3.210199219E1,-1.854900002E0,-4.675999880E-1,1.965999961E0
3.212199219E1,-4.277999997E-1,-7.718999982E-1,1.268499970E0
3.214199219E1,1.115399957E0,-1.070500016E0,1.456099987E0
3.216199219E1,1.345799923E0,-1.029199958E0,1.443499923E0
3.218199219E1,4.984999895E-1,-9.484999776E-1,3.734999895E-1
3.220199219E1,-1.580999941E-1,-6.674999595E-1,-7.206999660E-1
3.223199219E1,3.104999959E-1,-4.899999797E-1,-1.986299992E0
3.225199219E1,8.240999579E-1,-5.525999665E-1,-2.406999826E0
3.227199375E1,9.935999513E-1,-4.299999774E-1,-2.559099913E0
3.230199219E1,9.379999638E-1,-4.456999898E-1,-2.563499928E0
3.232199219E1,8.348999619E-1,-4.390999973E-1,-2.529099941E0
3.234199219E1,7.802999616E-1,-4.576999843E-1,-2.339200020E0
3.236199219E1,7.364999652E-1,-3.676999807E-1,-2.085299969E0
3.238199219E1,5.586999655E-1,-2.488999963E-1,-1.697899938E0
3.240199219E1,4.457999766E-1,-2.099999925E-3,-1.456900001E0
3.242199219E1,2.040999979E-1,2.193000019E-1,-8.452999592E-1
3.245199219E1,2.949999869E-1,2.351000011E-1,-1.650999933E-1
3.247199219E1,5.751999617E-1,3.551999927E-1,6.732000113E-1
3.249199219E1,3.738999963E-1,7.407000065E-1,1.684499979E0
3.251199219E1,8.489999920E-2,1.001500010E0,2.295899868E0
3.253199219E1,-1.655000001E-1,1.527999997E0,2.359699965E0
3.255199688E1,3.419999778E-2,1.617499948E0,2.230999947E0
3.258199219E1,1.207599998E0,5.245000124E-1,2.192999840E0
3.260199219E1,1.932799935E0,-2.604999840E-1,1.948699951E0
3.262199219E1,1.623899937E0,-9.254999757E-1,1.718099952E0
3.265199062E1,9.774999619E-1,-1.246299982E0,1.500999928E0
3.267199062E1,1.423699975E0,-1.255999923E0,1.282499909E0
3.269199219E1,1.936599970E0,-9.284999967E-1,9.600999951E-1
3.272199063E1,1.293299913E0,-2.284999937E-1,4.223999977E-1
3.274199062E1,6.347999573E-1,-3.425999880E-1,-5.869999900E-2
3.276199219E1,1.634999961E-1,-4.194999933E-1,-4.041999876E-1
3.279199063E1,2.017000020E-1,-2.416999936E-1,-1.254599929E0
3.281199062E1,2.534999847E-1,-9.589999914E-2,-1.721699953E0
3.283199062E1,1.184999943E-1,-5.399999768E-2,-2.310199976E0
3.285199062E1,-2.031999975E-1,-5.559999868E-2,-2.740499973E0
3.287199062E1,-2.619999945E-1,8.999999613E-3,-3.078299999E0
3.289199063E1,-3.209999949E-2,1.348000020E-1,-2.784499884E0
3.291199219E1,3.228999972E-1,-2.441999912E-1,-2.347899914E0
3.294199062E1,1.550000012E-1,-1.449999958E-2,-1.487599969E0
3.296199219E1,1.269000024E-1,1.184999943E-1,-9.247999787E-1
3.299199062E1,3.743000031E-1,6.240000129E-1,1.153999940E-1
3.301199219E1,7.116000056E-1,1.188499928E0,9.400999546E-1
3.303199219E1,1.273499966E0,1.577299953E0,1.718499899E0
3.305199219E1,1.873399973E0,1.342199922E0,2.400499821E0
3.307199219E1,1.743699908E0,1.482499957E0,2.531999826E0
3.309199219E1,6.908000112E-1,1.698799968E0,2.571300030E0
3.311199219E1,2.533999979E-1,9.441999793E-1,2.821899891E0
3.313199219E1,2.597999871E-1,2.442999929E-1,3.030699968E0
3.315199531E1,-1.810999960E-1,2.569999918E-2,2.274600029E0
3.318199063E1,-1.060400009E0,1.273999959E-1,9.344999790E-1
3.320199219E1,-5.842999816E-1,-7.293999791E-1,-1.125999928E0
3.323199062E1,-1.309199929E0,-1.419399977E0,6.801999807E-1
3.325199063E1,-1.032699943E0,-1.967499971E0,1.033499956E0
3.327199219E1,-6.107999682E-1,-1.789199948E0,7.919999957E-2
3.330199062E1,2.120999992E-1,-1.372200012E0,-5.467000008E-1
3.332199063E1,5.900999904E-1,-1.129400015E0,-1.076200008E0
3.334199219E1,8.403999805E-1,-9.073999524E-1,-1.731799960E0
3.337199062E1,1.060599923E0,-6.121999621E-1,-2.212800026E0
3.339199063E1,9.970999956E-1,-6.410999894E-1,-2.596499920E0
3.341199219E1,1.048699975E0,-4.240999818E-1,-2.657500029E0
3.344199062E1,5.924999714E-1,-4.350999892E-1,-1.449800014E0
3.346199375E1,3.455999792E-1,-4.747999907E-1,-1.037400007E0
3.349199062E1,6.984999776E-1,-9.539999813E-2,-1.518599987E0
3.351199375E1,6.554999948E-1,-1.076999977E-1,-1.506399989E0
3.354199063E1,1.438999921E-1,-1.371999979E-1,-1.136500001E0
3.356199531E1,2.969000041E-1,2.316999882E-1,-3.752999902E-1
3.359199062E1,3.069999814E-1,1.008599997E0,6.060999632E-1
3.361199844E1,1.435000002E-1,1.561299920E0,6.355999708E-1
3.364199063E1,-3.775999844E-1,2.498800039E0,1.107999980E-1
3.366199219E1,-5.943999887E-1,2.513200045E0,1.118099928E0
3.369199062E1,1.067099929E0,1.078599930E0,3.033200026E0
3.371199063E1,2.261899948E0,-1.533999890E-1,3.412699938E0
3.373199062E1,1.847199917E0,-6.705999970E-1,3.264099836E0
3.375199688E1,8.435999751E-1,-8.410999775E-1,2.786099911E0
3.378199062E1,1.230899930E0,-7.763999701E-1,1.740199924E0
3.380199844E1,2.074800014E0,-6.566999555E-1,8.858999610E-1
3.383199062E1,1.871699929E0,-4.654999971E-1,-4.826999903E-1
3.385199531E1,9.625999928E-1,-4.928999841E-1,-7.611999512E-1
3.388199062E1,-1.769999973E-2,-4.463999867E-1,-1.076200008E0
3.390199688E1,2.989999950E-2,-3.204999864E-1,-1.351599932E0
3.393199063E1,2.105000019E-1,-1.747999936E-1,-1.718299985E0
3.395201250E1,1.321000010E-1,-1.772999913E-1,-2.067999840E0
3.398199219E1,2.489999980E-1,-9.449999779E-2,-2.658299923E0
3.400199844E1,2.175000012E-1,3.419999778E-2,-2.544600010E0
3.403199219E1,1.190999970E-1,5.549999699E-2,-2.535300016E0
3.405199531E1,1.184000000E-1,1.846999973E-1,-1.951299906E0
3.408199219E1,2.944999933E-1,4.846999943E-1,-1.386899948E0
3.410199219E1,5.381999612E-1,6.028999686E-1,-9.183999896E-1
3.412199219E1,5.134999752E-1,8.831999898E-1,2.399999946E-1
3.415199062E1,1.759999990E-2,1.058599949E0,1.513099909E0
3.417199219E1,-7.289999723E-2,8.867999911E-1,1.422999978E0
3.419199219E1,-3.082000017E-1,9.493999481E-1,1.366500020E0
3.421199219E1,-5.960999727E-1,1.261600018E0,1.364499927E0
3.423199219E1,6.939999759E-2,8.596000075E-1,2.026599884E0
3.425199219E1,7.875999808E-1,-7.999999821E-2,3.119199991E0
3.427199219E1,9.470000118E-2,-2.813999951E-1,3.953399897E0
3.429199219E1,-1.166199923E0,-2.324000001E-1,2.557399988E0
3.431199219E1,-1.589800000E0,-1.115999967E-1,8.633999825E-1
3.433199219E1,-9.964999557E-1,-2.950000018E-2,-5.408999920E-1
3.435199219E1,5.119999871E-2,-6.651999950E-1,-9.380000085E-2
3.437199219E1,1.573999971E-1,-9.772999883E-1,5.335999727E-1
3.439199219E1,-2.863000035E-1,-1.178399920E0,5.690999627E-1
3.441199219E1,-5.286999941E-1,-1.336499929E0,2.034999877E-1
3.443199219E1,-3.814999759E-1,-1.315899968E0,1.919999905E-2
3.445199219E1,7.660000026E-2,-1.135100007E0,-2.193999887E-1
3.447199219E1,4.608999789E-1,-7.755999565E-1,-9.352999926E-1
3.449199219E1,8.136999607E-1,-5.253999829E-1,-1.928299904E0
3.451199219E1,9.929999709E-1,-4.195999801E-1,-2.536000013E0
3.453199219E1,9.788999557E-1,-2.737999856E-1,-2.667399883E0
3.455199219E1,1.119799972E0,-2.229999900E-1,-2.405699968E0
3.457199219E1,1.111199975E0,-1.341999918E-1,-2.304100037E0
3.459199219E1,9.592999816E-1,8.959999681E-2,-2.256799936E0
3.462199219E1,8.466999531E-1,2.447999865E-1,-1.769599915E0
3.464199219E1,5.848999619E-1,3.985999823E-1,-1.275599957E0
3.466199219E1,4.469999969E-1,4.891999960E-1,-9.963999987E-1
3.468199219E1,3.771999776E-1,5.899999738E-1,-8.107999563E-1
3.470199219E1,1.136000007E-1,6.991999745E-1,-1.595999897E-1
3.472199219E1,-1.444000006E-1,9.386000037E-1,7.211999893E-1
3.474199219E1,-5.652999878E-1,1.674399972E0,1.240000010E0
3.476199219E1,-5.832999945E-1,2.012699842E0,1.586799979E0
3.478199219E1,-5.055999756E-1,1.732199907E0,2.267600060E0
3.481199219E1,8.559999615E-2,8.759999871E-1,3.263799906E0
3.483199219E1,1.336199999E0,-2.023999989E-1,4.033899784E0
3.485199219E1,1.590699911E0,-9.818999767E-1,4.544300079E0
3.487199219E1,7.815999985E-1,-1.364399910E0,4.713599682E0
3.490199219E1,5.593999624E-1,-1.175400019E0,3.530099869E0
3.492199375E1,1.800399899E0,-8.945999742E-1,2.083799839E0
3.495199219E1,2.068500042E0,-5.606999993E-1,-9.609999508E-2
3.497199219E1,1.024600029E0,-6.071000099E-1,-1.699499965E0
3.499199219E1,1.105999947E-1,-5.582999587E-1,-2.606499910E0
3.501199219E1,-4.299999774E-1,-4.869000018E-1,-2.703199863E0
3.503199219E1,-4.948999882E-1,-4.848999977E-1,-2.687899828E0
3.505199219E1,-5.124999881E-1,-3.026999831E-1,-2.739699841E0
3.507199219E1,-5.672999620E-1,-2.712000012E-1,-2.941099882E0
3.509199219E1,-6.426999569E-1,-2.459999919E-1,-3.021199942E0
3.511199219E1,-5.652999878E-1,-3.093999922E-1,-3.001999855E0
3.513199219E1,-5.177000165E-1,-2.884999812E-1,-2.991499901E0
3.515199219E1,-5.406000018E-1,-1.118000001E-1,-2.688199997E0
3.517199219E1,-3.845999837E-1,6.839999557E-2,-2.153300047E0
3.519199219E1,-1.729999930E-1,3.314999938E-1,-1.638199925E0
3.521199219E1,-4.479999840E-2,6.453999877E-1,-9.153999686E-1
3.524199219E1,-1.711999923E-1,1.013499975E0,4.418999851E-1
3.526199219E1,-3.502999842E-1,9.928999543E-1,1.097599983E0
3.528199219E1,-1.290999949E-1,9.228000045E-1,1.875199914E0
3.530199219E1,7.168999910E-1,8.590999842E-1,2.440700054E0
3.532199219E1,7.637000084E-1,1.565599918E0,2.530299902E0
3.534199219E1,2.741000056E-1,1.646399975E0,2.675599813E0
3.536199219E1,1.679999940E-2,8.751999736E-1,3.073799849E0
3.538199219E1,-1.284999996E-1,2.942000031E-1,3.528800011E0
3.540199219E1,-3.612999916E-1,-2.412000000E-1,3.259099960E0
3.542199219E1,-6.736999750E-1,-5.051999688E-1,2.496000051E0
3.544199219E1,-1.114999950E-1,-8.062999845E-1,1.546000004E0
3.547199219E1,1.133999974E-1,-1.041700006E0,1.013599992E0
3.549199219E1,-3.466999829E-1,-1.219099998E0,7.687999606E-1
3.551203438E1,-6.108999848E-1,-1.282199979E0,2.120999992E-1
3.554199063E1,-2.228000015E-1,-1.277199984E0,-7.785999775E-1
3.556199219E1,7.819999754E-2,-1.142300010E0,-1.336399913E0
3.558199219E1,3.076999784E-1,-1.077799916E0,-2.190899849E0
3.560199219E1,3.500999808E-1,-8.959999681E-1,-3.085899830E0
3.562199219E1,3.786000013E-1,-9.023999572E-1,-3.689399958E0
3.565199062E1,5.059999824E-1,-7.307999730E-1,-4.099599838E0
3.567199219E1,7.353999615E-1,-7.080000043E-1,-4.021399975E0
3.569199219E1,8.578999639E-1,-6.358999610E-1,-3.682600021E0
3.571199219E1,8.950999975E-1,-5.127999783E-1,-3.196699858E0
3.573199219E1,8.587999940E-1,-4.205999970E-1,-3.072599888E0
3.575199219E1,6.011999846E-1,-1.548999995E-1,-2.977999926E0
3.577199219E1,2.775999904E-1,1.353999972E-1,-2.387599945E0
3.579199219E1,-1.657999903E-1,4.105999768E-1,-1.168299913E0
3.581199219E1,-3.270999789E-1,5.900999904E-1,4.606999755E-1
3.583199219E1,-1.516000032E-1,6.793000102E-1,1.900599957E0
3.585199219E1,-3.046000004E-1,8.590999842E-1,3.298199892E0
3.587199219E1,-1.013399959E0,1.123799920E0,3.960899830E0
3.589199219E1,-1.317099929E0,1.223299980E0,3.974599838E0
3.591199219E1,-7.863999605E-1,1.490999937E0,4.111199856E0
3.593199219E1,3.227999806E-1,1.260599971E0,5.167099953E0
3.595199219E1,1.158900023E0,4.102999866E-1,6.740399837E0
3.597199219E1,8.909999728E-1,-2.547000051E-1,6.957900047E0
3.599199219E1,6.708999872E-1,-8.201999664E-1,6.103600025E0
3.601199219E1,1.497299910E0,-1.235899925E0,4.551000118E0
3.603199219E1,2.817199945E0,-1.509699941E0,3.002199888E0
3.605199219E1,3.665399790E0,-1.708999991E0,1.317499995E0
3.607199219E1,3.441799879E0,-1.677299976E0,-8.722999692E-1
3.609199219E1,2.473500013E0,-1.476599932E0,-2.967000008E0
3.611199219E1,1.539699912E0,-1.314700007E0,-4.384099960E0
3.613199219E1,7.875999808E-1,-1.055299997E0,-5.089900017E0
3.615199219E1,3.907999992E-1,-6.809999943E-1,-5.412399769E0
3.617199219E1,1.600999981E-1,-1.331000030E-1,-5.383399963E0
3.619199219E1,3.457999825E-1,7.889999449E-2,-5.083999634E0
3.621199219E1,4.432999790E-1,3.134000003E-1,-4.535799980E0
3.623199219E1,5.119000077E-1,1.359999925E-1,-4.193900108E0
3.625199219E1,4.487999976E-1,-6.700000167E-2,-3.898499966E0
3.627199219E1,1.736999899E-1,1.484999955E-1,-3.437699795E0
3.629199219E1,-1.916999966E-1,4.032999873E-1,-2.668499947E0
3.631199219E1,-3.319000006E-1,7.463999987E-1,-1.160200000E0
3.633199219E1,-3.129000068E-1,7.883999944E-1,5.985999703E-1
3.635199219E1,-3.010999858E-1,8.728999496E-1,2.518599987E0
3.637199219E1,-4.689999819E-1,1.042199969E0,4.053100109E0
3.639199219E1,-6.567999721E-1,1.086599946E0,4.320699692E0
3.641199219E1,-4.271999896E-1,1.000699997E0,3.865700006E0
3.643199219E1,-1.591999978E-1,1.085299969E0,3.317600012E0
3.645199219E1,-8.709999919E-2,1.280900002E0,3.015899897E0
3.647199219E1,3.830000013E-2,1.070199966E0,3.365799904E0
3.649199219E1,1.052000001E-1,2.043999881E-1,3.859299898E0
3.651199219E1,-3.589999974E-1,-6.132000089E-1,3.425699949E0
3.653199219E1,-7.754999995E-1,-1.021399975E0,1.917099953E0
3.655199219E1,-8.032000065E-1,-1.026600003E0,4.167999923E-1
3.657199219E1,-4.603999853E-1,-8.004999757E-1,-5.468999743E-1
3.659199219E1,4.518999755E-1,-8.657999635E-1,-3.222000003E-1
3.661199219E1,9.756000042E-1,-1.035599947E0,-2.300999910E-1
3.663199219E1,8.095999956E-1,-1.124899983E0,-5.467000008E-1
3.665199219E1,3.440999985E-1,-1.068599939E0,-5.713999867E-1
3.667199219E1,-8.359999955E-2,-9.738999605E-1,1.184000000E-1
3.669199219E1,1.965999901E-1,-1.143299937E0,-8.089999855E-2
3.671199219E1,6.754999757E-1,-1.032500029E0,-1.153800011E0
3.673199219E1,9.329999685E-1,-7.254999876E-1,-2.045199871E0
3.675199219E1,1.117100000E0,-6.150999665E-1,-2.676199913E0
3.677199219E1,1.593799949E0,-4.233999848E-1,-3.703999996E0
3.679199219E1,1.493699908E0,2.540999949E-1,-4.612199783E0
3.681199219E1,6.392999887E-1,1.221599936E0,-4.034199715E0
3.683199219E1,-1.162999943E-1,1.480700016E0,-2.718600035E0
3.685199219E1,-3.099999949E-2,1.291000009E0,-1.540499926E0
3.687199219E1,-2.842999995E-1,9.883999825E-1,-7.082999945E-1
3.689199219E1,-7.777000070E-1,1.084699988E0,-1.588999927E-1
3.691199375E1,-7.261999846E-1,8.283999562E-1,-2.127999961E-1
3.694199219E1,-3.199999779E-2,1.243399978E0,2.302999943E-1
3.696199219E1,6.952999830E-1,1.221699953E0,8.119999766E-1
3.698199219E1,7.339000106E-1,1.560799956E0,1.575399995E0
3.700199219E1,5.482000113E-1,1.890799999E0,2.263700008E0
3.702199219E1,8.317999840E-1,2.160699844E0,2.742699862E0
3.704199219E1,1.370299935E0,1.750199914E0,4.556900024E0
3.706199219E1,1.840499997E0,-8.529999852E-2,6.967199802E0
3.708199219E1,1.303799987E0,-1.745499969E0,7.746999741E0
3.710199219E1,8.682000041E-1,-2.470499992E0,5.955100060E0
3.712199219E1,1.812199950E0,-2.620800018E0,3.212100029E0
3.715199062E1,3.247799873E0,-2.472199917E0,-2.149999887E-1
3.717199062E1,2.822199821E0,-2.245599985E0,-1.519400001E0
3.719199062E1,1.669499993E0,-1.946900010E0,-2.422699928E0
3.721199063E1,8.825999498E-1,-1.682500005E0,-3.213299990E0
3.723199062E1,6.003999710E-1,-1.260499954E0,-3.700599909E0
3.725199063E1,7.016999722E-1,-8.097999692E-1,-3.934000015E0
3.727199062E1,8.585999608E-1,-4.925999939E-1,-4.062500000E0
3.729199063E1,8.524000049E-1,-2.608999908E-1,-4.443699837E0
3.731199062E1,6.025999784E-1,1.647000015E-1,-4.622900009E0
3.733199062E1,3.998000026E-1,4.718999863E-1,-4.416299820E0
3.735199062E1,4.526999891E-1,5.036000013E-1,-3.840399981E0
3.737199062E1,3.441999853E-1,6.340999603E-1,-2.829599857E0
3.739199063E1,4.299999680E-3,8.653999567E-1,-1.931899905E0
3.741199219E1,-3.140999973E-1,1.162500024E0,-1.213299990E0
3.744199062E1,-2.545000017E-1,1.463199973E0,-3.624999821E-1
3.746199063E1,6.300000008E-3,1.490399957E0,7.629999518E-1
3.748199219E1,-1.562999934E-1,1.197499990E0,2.385699987E0
3.751199062E1,-8.560999632E-1,7.706999779E-1,4.646899700E0
3.753199062E1,-1.091599941E0,1.115100026E0,4.917900085E0
3.755199219E1,-5.681999922E-1,1.314199924E0,4.691400051E0
3.758199062E1,8.945999742E-1,4.658999741E-1,4.620699883E0
3.760199062E1,5.439999700E-1,-1.057999954E-1,4.793799877E0
3.762199219E1,-2.307000011E-1,-9.132999778E-1,3.860299826E0
3.765199062E1,-5.266999602E-1,-8.844999671E-1,1.048300028E0
3.767199062E1,5.651999712E-1,-9.273999929E-1,-2.157999873E-1
3.769199375E1,1.268499970E0,-8.098999858E-1,-9.359999746E-2
3.772199063E1,7.013999820E-1,-1.049299955E0,1.212999970E-1
3.774199062E1,5.309999734E-2,-1.080600023E0,-4.444999993E-1
3.776199062E1,-6.069999933E-2,-1.069700003E0,-1.161000013E0
3.778199062E1,1.202999949E-1,-9.752999544E-1,-1.914999962E0
3.780199062E1,3.686999977E-1,-7.396000028E-1,-2.140699863E0
3.782199063E1,5.791000128E-1,-6.911999583E-1,-2.536200047E0
3.784199219E1,5.018000007E-1,-5.982999802E-1,-3.155999899E0
3.787199062E1,6.541999578E-1,-2.906000018E-1,-4.078599930E0
3.789199063E1,9.107999802E-1,9.299999475E-2,-3.722100019E0
3.791199219E1,1.196399927E0,1.938999891E-1,-3.333400011E0
3.794199062E1,6.891999841E-1,5.270000100E-1,-3.133100033E0
3.796199063E1,2.996000051E-1,6.220999956E-1,-2.607599974E0
3.798199062E1,-2.480999976E-1,7.972999811E-1,-1.460500002E0
3.800199063E1,-7.256000042E-1,8.152999878E-1,-2.845000029E-1
3.802199062E1,-7.818999887E-1,6.949999928E-1,6.782000065E-1
3.804199063E1,-7.181000113E-1,7.103999853E-1,1.647399902E0
3.806199219E1,-8.923999667E-1,8.307999969E-1,2.702699900E0
3.809199062E1,-1.258399963E0,8.537999988E-1,3.733500004E0
3.811199063E1,-3.058999777E-1,5.163999796E-1,3.976099968E0
3.813199219E1,9.435999990E-1,-4.509999976E-2,5.138499737E0
3.815199219E1,1.251600027E0,-7.013999820E-1,6.329499722E0
3.817199219E1,8.770999908E-1,-1.140499949E0,6.189799786E0
3.820199219E1,1.512399912E0,-1.446999907E0,2.791699886E0
3.823199062E1,2.854499817E0,-9.881999493E-1,2.080999911E-1
3.825199063E1,2.773099899E0,-8.143999577E-1,-5.773000121E-1
3.827199062E1,1.781799912E0,-4.891999960E-1,-1.910200000E0
3.829199063E1,8.082000017E-1,-1.299999952E-1,-3.199199915E0
3.831199062E1,3.957999945E-1,8.639999479E-2,-4.202300072E0
3.833199062E1,3.630000055E-1,2.638999820E-1,-4.579299927E0
3.835199219E1,4.043000042E-1,3.446999788E-1,-4.440499783E0
3.838199219E1,2.003999949E-1,3.454999924E-1,-4.162899971E0
3.841199219E1,-6.659999490E-2,4.120000005E-1,-3.475999832E0
3.844199062E1,2.675999999E-1,5.284999609E-1,-2.247099876E0
3.846199063E1,4.723999798E-1,4.254999757E-1,-1.110599995E0
3.848199219E1,2.838999927E-1,5.440999866E-1,-2.356999964E-1
3.851199062E1,7.090000063E-2,8.186999559E-1,3.682999909E-1
3.853199063E1,1.499999911E-1,1.027999997E0,1.464599967E0
3.855199219E1,3.330000043E-1,1.125199914E0,2.639899969E0
3.858199062E1,5.967999697E-1,1.440999985E0,3.038100004E0
3.860199062E1,7.109999657E-1,1.396799922E0,2.944200039E0
3.862199219E1,2.311999947E-1,1.477999926E0,3.034499884E0
3.865199062E1,-8.309999853E-2,6.385999918E-1,4.487299919E0
3.867199062E1,1.673000008E-1,-5.605999827E-1,5.040599823E0
3.869199062E1,1.911000013E-1,-1.603999972E0,4.207699776E0
3.871199063E1,1.319999993E-1,-1.617799997E0,3.092799902E0
3.873199062E1,6.283999681E-1,-1.811399937E0,2.144599915E0
3.875199063E1,8.393999934E-1,-1.800899982E0,1.386999965E0
3.877199219E1,7.339999676E-1,-1.619899988E0,2.721000016E-1
3.880199062E1,8.020000160E-2,-1.283200026E0,-8.730999827E-1
3.882199063E1,-2.195999920E-1,-1.110899925E0,-1.211099982E0
3.884199219E1,-3.185999990E-1,-8.308999538E-1,-1.468199968E0
3.887199062E1,-1.609999873E-2,-5.315999985E-1,-2.889199972E0
3.889199063E1,2.936999798E-1,-2.170999944E-1,-3.554999828E0
3.891199219E1,6.592000127E-1,-2.322999984E-1,-3.582000017E0
3.894199062E1,1.179600000E0,-2.459999919E-1,-3.528100014E0
3.896199063E1,1.212800026E0,-2.956999838E-1,-3.825599909E0
3.898199219E1,6.863999963E-1,-1.990999877E-1,-4.076699734E0
3.901199062E1,-5.739999935E-2,-6.939999759E-2,-4.019599915E0
3.903199063E1,-4.885999858E-1,1.957999915E-1,-2.614199877E0
3.905199219E1,-6.864999533E-1,2.326999903E-1,-8.200999498E-1
3.908199062E1,-1.077299953E0,-5.799999926E-3,1.846499920E0
3.910199062E1,-1.473799944E0,4.083999991E-1,2.922199965E0
3.912199219E1,-1.484599948E0,1.314499974E0,3.034799814E0
3.915200156E1,-1.281599998E0,2.731099844E0,2.812199831E0
3.918199063E1,2.060000040E-2,2.120699883E0,2.843099833E0
3.920199219E1,1.510199904E0,8.777999878E-1,3.509799957E0
3.923199062E1,9.325999618E-1,-1.144799948E0,4.526999950E0
3.925199063E1,2.113000005E-1,-1.973999977E0,4.210099697E0
3.927199219E1,6.139000058E-1,-2.211499929E0,3.135799885E0
3.930199062E1,2.145400047E0,-1.643299937E0,9.878000021E-1
3.932199063E1,1.328999996E0,-6.715999842E-1,5.779999867E-2
3.934199219E1,4.481000006E-1,-3.816999793E-1,-9.837999940E-1
3.937199062E1,-1.273999959E-1,-1.094999984E-1,-2.341599941E0
3.939199219E1,-3.561999798E-1,1.969999969E-1,-2.931200027E0
3.941199219E1,-3.852999806E-1,3.745999932E-1,-3.422099829E0
3.944199062E1,-2.430999875E-1,2.755999863E-1,-4.184700012E0
3.946199063E1,-1.963000000E-1,1.387999952E-1,-4.377999783E0
3.948199062E1,-2.524999976E-1,3.749999776E-2,-4.601699829E0
3.950199063E1,-3.716999888E-1,4.989999905E-2,-4.775799751E0
3.952199062E1,-2.942999899E-1,1.679999977E-1,-4.628299713E0
3.954199063E1,-1.748999953E-1,3.420999944E-1,-3.859499931E0
3.956199219E1,-1.405999959E-1,5.191999674E-1,-2.271600008E0
3.959199062E1,1.609999985E-1,6.498999596E-1,5.313999653E-1
3.961199063E1,3.576000035E-1,7.763999701E-1,2.490299940E0
3.963199062E1,8.513000011E-1,8.441999555E-1,3.767299891E0
3.965199062E1,1.609499931E0,1.145299911E0,4.754499912E0
3.967199062E1,1.536799908E0,1.463099957E0,5.156199932E0
3.969199062E1,8.556999564E-1,1.692099929E0,5.176099777E0
3.971199063E1,9.404999614E-1,2.145999968E-1,5.244599819E0
3.973199062E1,6.334999800E-1,-1.236899972E0,4.557099819E0
3.975199688E1,-1.868999898E-1,-1.989999890E0,3.478799820E0
3.978199063E1,-1.402899981E0,-1.343599916E0,1.828799963E0
3.980199062E1,-6.798999906E-1,-1.267499924E0,8.702999949E-1
3.982199063E1,-2.533999979E-1,-1.049099922E0,4.826999903E-1
3.984199219E1,-5.412999988E-1,-9.510999918E-1,3.939999938E-1
3.987199062E1,-1.190999985E0,-4.228999913E-1,-4.396999776E-1
3.989199063E1,-1.016000032E0,-5.249999836E-2,-9.095000029E-1
3.991199219E1,-3.188999891E-1,1.127000004E-1,-1.688499928E0
3.994199062E1,1.709000021E-1,4.633999765E-1,-2.953799963E0
3.996199219E1,9.269999713E-2,4.772999883E-1,-3.491199970E0
3.998199219E1,6.830000132E-2,2.658999860E-1,-3.664099932E0
4.000199219E1,4.619999975E-2,2.232999951E-1,-3.953199863E0
4.002199219E1,-3.350000083E-2,3.218999803E-1,-4.007100105E0
4.004199219E1,-9.999999747E-5,5.805999637E-1,-3.181200027E0
4.006199219E1,2.039999887E-2,4.226000011E-1,-2.142600060E0
4.008199219E1,-1.234999970E-1,3.237999976E-1,-9.564999938E-1
4.010199219E1,-4.013999999E-1,3.204999864E-1,-7.581999898E-1
4.012199219E1,-3.112999797E-1,3.535999954E-1,-4.993999898E-1
4.014199219E1,-1.449999958E-1,3.540000021E-1,4.056999981E-1
4.016199219E1,6.729999781E-1,3.231999874E-1,1.278599977E0
4.018199219E1,1.347899914E0,2.334999889E-1,1.404199958E0
4.020199375E1,1.139599919E0,9.119999409E-2,1.271600008E0
4.023199219E1,3.227999806E-1,8.179999888E-2,2.755599976E0
4.025199531E1,7.559999824E-1,-4.717999995E-1,3.798399925E0
4.028199063E1,1.480700016E0,-1.864199996E0,4.963200092E0
4.030199062E1,1.735000014E0,-2.340600014E0,5.502899647E0
4.032199063E1,2.703999996E0,-2.779799938E0,4.664000034E0
4.034199062E1,3.472299814E0,-2.494799852E0,2.281199932E0
4.036199063E1,2.959499836E0,-1.615599990E0,-5.099999718E-3
4.038199062E1,1.565099955E0,-7.724999785E-1,-1.688199997E0
4.040199062E1,-1.950000040E-2,-2.620000020E-2,-1.970999956E0
4.042199062E1,-9.142999649E-1,2.707999945E-1,-1.951299906E0
4.044199062E1,-1.182600021E0,5.723999739E-1,-2.356400013E0
4.046199063E1,-1.155900002E0,9.312999845E-1,-2.966899872E0
4.048199219E1,-7.777000070E-1,1.140100002E0,-3.494099855E0
4.050203438E1,-4.235000014E-1,1.089699984E0,-3.940699816E0
4.053199219E1,-4.900999963E-1,1.165300012E0,-4.267799854E0
4.055199219E1,-4.494999945E-1,1.328499913E0,-3.841899872E0
4.057199219E1,2.099999925E-3,1.413299918E0,-2.261100054E0
4.060199219E1,4.949999750E-1,1.176499963E0,3.799999831E-3
4.062199219E1,4.900000058E-3,1.285300016E0,7.404999733E-1
4.064199219E1,-3.091000021E-1,1.246699929E0,1.321599960E0
4.067199219E1,2.101999968E-1,7.313999534E-1,2.395799875E0
4.069199219E1,8.416999578E-1,6.570999622E-1,3.127499819E0
4.071199219E1,1.538399935E0,3.913999796E-1,3.616400003E0
4.073199219E1,1.808399916E0,4.400999844E-1,3.635599852E0
4.075200000E1,1.783999920E0,4.799999893E-1,3.615700006E0
4.078199063E1,9.111999869E-1,4.800000042E-2,3.637699842E0
4.080199062E1,-1.481999904E-1,-3.181999922E-1,2.951400042E0
4.082199219E1,-5.679999590E-1,-5.636000037E-1,1.984599948E0
4.085199062E1,2.421999872E-1,-1.053900003E0,4.023999870E-1
4.087199062E1,6.068999767E-1,-1.137699962E0,1.193999946E-1
4.089199063E1,6.205999851E-1,-1.303799987E0,2.780999839E-1
4.091199219E1,2.144999951E-1,-1.448400021E0,3.949999809E-1
4.094199062E1,-3.432999849E-1,-1.089299917E0,1.203999966E-1
4.096199219E1,-1.410999894E-1,-8.007999659E-1,-5.990999937E-1
4.098199219E1,4.235999882E-1,-5.899999738E-1,-9.776999950E-1
4.101199219E1,1.089299917E0,-4.545999765E-1,-2.070699930E0
4.103199219E1,1.100299954E0,-3.066999912E-1,-3.203299999E0
4.106199062E1,1.153599977E0,-3.740999997E-1,-4.053599834E0
4.108199062E1,1.152499914E0,-2.656999826E-1,-4.686100006E0
4.110199062E1,1.072799921E0,8.489999920E-2,-4.976200104E0
4.112199062E1,1.134699941E0,1.495999992E-1,-4.351200104E0
4.114199063E1,9.080999494E-1,9.349999577E-2,-3.209699869E0
4.116202031E1,3.888999820E-1,2.208999991E-1,-1.894599915E0
4.119199062E1,-7.540999651E-1,6.825000048E-1,-6.799999624E-2
4.121199063E1,-7.949999571E-1,6.789999604E-1,8.249999881E-1
4.123199062E1,-4.175999761E-1,4.544999897E-1,1.158800006E0
4.125199063E1,-4.475999773E-1,7.335000038E-1,1.936599970E0
4.127199062E1,-5.131999850E-1,1.051900029E0,2.951299906E0
4.129199063E1,1.816999912E-1,5.412999988E-1,3.473500013E0
4.131199062E1,1.174399972E0,-2.176999897E-1,4.048999786E0
4.133199062E1,9.486999512E-1,-8.873999715E-1,4.715699673E0
4.135200312E1,2.377000004E-1,-1.019699931E0,5.284899712E0
4.138199062E1,1.806499958E0,-1.549799919E0,3.281599998E0
4.140199062E1,3.638599873E0,-1.279500008E0,1.078599930E0
4.142199219E1,4.178100109E0,-1.142300010E0,-1.088699937E0
4.144199219E1,2.900199890E0,-6.676999927E-1,-1.789599895E0
4.146199219E1,1.354799986E0,-8.098999858E-1,-1.472299933E0
4.149199062E1,-4.717999995E-1,-3.964999914E-1,-1.172099948E0
4.151199062E1,-9.465000033E-1,-2.070999891E-1,-1.557799935E0
4.153199063E1,-1.276600003E0,1.303000003E-1,-2.092200041E0
4.155199688E1,-1.297999978E0,3.041000068E-1,-2.628900051E0
4.158199219E1,-1.152499914E0,5.598999858E-1,-3.237399817E0
4.160199219E1,-1.131699920E0,7.351999879E-1,-3.184799910E0
4.162199219E1,-1.064100027E0,8.175999522E-1,-3.309000015E0
4.164199219E1,-9.779999852E-1,8.991000056E-1,-3.170099974E0
4.166199219E1,-6.593999863E-1,9.373999834E-1,-2.427199841E0
4.168199219E1,-5.546000004E-1,8.281999826E-1,-1.392599940E0
4.170199219E1,-6.075999737E-1,8.460999727E-1,-6.420999765E-1
4.173199062E1,-6.378999949E-1,1.040499926E0,2.210999876E-1
4.175200312E1,-6.069999933E-2,8.700999618E-1,1.312099934E0
4.178199063E1,6.663999557E-1,6.723999977E-1,2.855399847E0
4.180199062E1,3.644999862E-1,7.734999657E-1,3.111399889E0
4.182199063E1,-4.836999774E-1,7.057999969E-1,3.463099957E0
4.184199062E1,-1.297599912E0,4.599999785E-1,4.077899933E0
4.186199063E1,-2.003000021E0,2.427999973E-1,4.440999985E0
4.188199062E1,-2.204999924E0,-2.256999910E-1,4.728899956E0
4.190199062E1,-1.638700008E0,-8.266999722E-1,5.026700020E0
4.192199062E1,-8.217999935E-1,-1.121699929E0,5.316099644E0
4.194199062E1,-3.252999783E-1,-1.420099974E0,4.848700047E0
4.196199063E1,-3.357000053E-1,-1.580099940E0,3.436999798E0
4.198199219E1,-4.648000002E-1,-1.495599985E0,1.498399973E0
4.201199062E1,-2.529999912E-1,-1.478599906E0,-6.103000045E-1
4.203199063E1,-1.947999895E-1,-1.551999927E0,-1.611599922E0
4.205199219E1,4.120000079E-2,-1.538599968E0,-2.697000027E0
4.208199062E1,1.046800017E0,-1.478699923E0,-4.209899902E0
4.210199062E1,1.819599986E0,-1.268399954E0,-5.139400005E0
4.212199062E1,2.452100039E0,-8.905999660E-1,-5.792900085E0
4.214199063E1,2.897199869E0,-6.459999681E-1,-5.707799911E0
4.216202812E1,2.496000051E0,-5.914999843E-1,-5.306399822E0
4.219199219E1,1.811499953E0,-4.227999747E-1,-4.734600067E0
4.221199219E1,1.733799934E0,-4.600000102E-3,-4.173500061E0
4.224199062E1,2.137799978E0,1.592999995E-1,-2.368099928E0
4.226199062E1,1.960399985E0,3.279999793E-1,-7.400000095E-1
4.228199063E1,1.459299922E0,5.816000104E-1,3.953000009E-1
4.230199062E1,7.497999668E-1,1.230399966E0,1.288800001E0
4.232199219E1,2.076999992E-1,2.020699978E0,2.019599915E0
4.234199219E1,2.263000011E-1,2.353099823E0,2.805599928E0
4.237199062E1,2.936100006E0,7.403999567E-1,5.118199825E0
4.239199063E1,3.189499855E0,-2.126999944E-1,7.200799942E0
4.241199219E1,1.821399927E0,-8.761999607E-1,7.856099606E0
4.244199062E1,1.257099986E0,-1.178399920E0,4.034699917E0
4.246199063E1,1.987899899E0,-6.988999844E-1,2.259899855E0
4.248199219E1,2.559099913E0,-1.075399995E0,1.558599949E0
4.251199062E1,1.188199997E0,-1.030300021E0,-6.362999678E-1
4.253199063E1,4.387999773E-1,-1.039700031E0,-2.477399826E0
4.255199531E1,-3.769999743E-2,-9.393000007E-1,-4.010699749E0
4.258199062E1,-4.199999869E-1,-7.128999829E-1,-4.827199936E0
4.260199062E1,-4.245999753E-1,-6.053000093E-1,-4.754499912E0
4.262199062E1,-2.415999919E-1,-4.256999791E-1,-4.684799671E0
4.264199063E1,-1.164999977E-1,-1.758999974E-1,-4.490499973E0
4.266199062E1,1.306999922E-1,-1.858000010E-1,-3.732100010E0
4.268199063E1,1.844999939E-1,-3.649999946E-2,-3.036000013E0
4.270199062E1,1.324999928E-1,1.906999946E-1,-2.646199942E0
4.272199063E1,5.674999952E-1,4.963999987E-1,-1.728199959E0
4.274199062E1,6.446999907E-1,1.046299934E0,-1.347599983E0
4.276199219E1,2.073999941E-1,1.954399943E0,-6.423000097E-1
4.278199219E1,-3.049999848E-2,2.361099958E0,1.570999920E-1
4.280199219E1,-7.250999808E-1,2.545899868E0,1.352100015E0
4.283199062E1,-1.712700009E0,1.390699983E0,2.729499817E0
4.285199063E1,-2.872499943E0,1.340399981E0,3.844599962E0
4.287199062E1,-2.443199873E0,9.690000117E-2,6.089699745E0
4.289199063E1,-1.765100002E0,-1.844999909E0,7.752299786E0
4.291199219E1,-2.511899948E0,-2.227900028E0,7.324599743E0
4.294199062E1,-2.917999983E0,-1.260100007E0,2.902599812E0
4.296199063E1,-1.415599942E0,-7.500999570E-1,4.800999761E-1
4.298199219E1,3.421999812E-1,-4.537999928E-1,-1.700999886E-1
4.300199375E1,1.029699922E0,-4.770999849E-1,-3.646000028E-1
4.303199063E1,-9.269999713E-2,-2.176999897E-1,-8.989999890E-1
4.305199219E1,-7.637000084E-1,-4.809999764E-1,-9.143999815E-1
4.308199062E1,-1.292799950E0,-4.120999873E-1,-1.166999936E0
4.310199063E1,-1.165499926E0,-3.759000003E-1,-2.304299831E0
4.312199062E1,-7.265999913E-1,-3.294000030E-1,-3.242499828E0
4.314199063E1,-3.170000017E-1,-2.657999992E-1,-3.649299860E0
4.316199062E1,-1.310000010E-2,-5.689999834E-2,-3.371799946E0
4.318199063E1,8.249999583E-2,6.809999794E-2,-3.163499832E0
4.320199062E1,2.472999990E-1,2.642000020E-1,-3.268899918E0
4.322199063E1,5.115999579E-1,4.556999803E-1,-3.314699888E0
4.324199219E1,4.327999949E-1,7.594000101E-1,-2.420699835E0
4.327199219E1,6.730999947E-1,5.260999799E-1,7.999999449E-3
4.330199062E1,7.549999952E-1,4.440999925E-1,1.737299919E0
4.332199219E1,4.078999758E-1,4.730999768E-1,2.666899920E0
4.334199219E1,2.188999951E-1,6.882999539E-1,2.688999891E0
4.336199219E1,1.439999975E-2,1.380699992E0,1.841899991E0
4.339199063E1,1.921199918E0,-6.460999846E-1,1.521799922E0
4.341199219E1,1.280900002E0,-1.894199967E0,3.130299807E0
4.344199062E1,-3.436000049E-1,-2.707700014E0,7.291800022E0
4.346199063E1,6.685999632E-1,-3.056999922E0,5.520999908E0
4.348199062E1,2.771899939E0,-2.963399887E0,2.365299940E0
4.350199063E1,3.428599834E0,-2.106899977E0,-1.156999946E0
4.352199062E1,2.739699841E0,-1.320400000E0,-3.209399939E0
4.354199063E1,1.345199943E0,-9.761999846E-1,-3.395399809E0
4.356199062E1,1.120999977E-1,-5.744000077E-1,-2.595899820E0
4.358199062E1,-4.452999830E-1,9.279999882E-2,-1.725699902E0
4.360199219E1,-2.633000016E-1,4.321999848E-1,-1.876299977E0
4.363199219E1,-2.136999965E-1,1.335899949E0,-2.893699884E0
