"Time (s)","Acceleration x (m/s^2)","Acceleration y (m/s^2)","Acceleration z (m/s^2)"
0.000000000E0,-6.255302429E0,5.524783134E0,6.515542030E0
2.000000000E-2,-5.339251995E0,5.757279396E0,7.518080711E0
4.200000000E-2,-3.393943548E0,4.914941788E0,8.123995781E0
6.201875000E-2,-2.180504799E0,3.642844915E0,8.602318764E0
8.399843800E-2,-3.451184273E0,4.162578106E0,9.307124138E0
1.039984380E-1,-3.434415340E0,4.210701466E0,1.100475693E1
1.240015630E-1,-2.282583952E0,3.095855951E0,1.578066254E1
1.459984380E-1,-1.153679609E0,1.284393430E0,1.409842014E1
1.660031250E-1,-4.963850379E-1,8.098722696E-1,1.285344410E1
1.880406250E-1,-3.024930060E-1,7.007158399E-1,1.114065170E1
2.099984380E-1,5.262742639E-1,-2.714354396E-1,9.588135719E0
2.299984380E-1,1.160862207E0,-1.709948540E0,1.039616966E1
2.499984380E-1,1.243845224E0,-7.670830488E-1,1.085740852E1
2.699984380E-1,4.937993288E-1,1.607945859E-1,8.673005104E0
2.900031250E-1,3.069749773E-1,-9.191914797E-1,6.391848087E0
3.119984380E-1,-4.755746424E-1,-5.647730231E-1,9.189558983E0
3.320015630E-1,-2.639741421E0,-1.617043763E-1,8.243515015E0
3.540000000E-1,-3.691447258E0,-9.837296009E-1,8.404988289E0
3.740015630E-1,-3.315538406E0,4.751915932E-1,6.613636971E0
3.959984380E-1,-1.631093025E0,1.919690013E0,8.123095512E0
4.159984380E-1,-1.190349221E0,1.464743853E0,9.970480919E0
4.359984380E-1,-1.745066524E0,8.980554938E-1,9.320177078E0
4.560062500E-1,-2.275937796E0,1.703005195E0,8.119437218E0
4.779984380E-1,-2.967344999E0,2.023042917E0,7.356510162E0
4.980218750E-1,-2.343454123E0,2.046611547E0,7.972366333E0
5.200000000E-1,-1.176568151E0,2.111465693E0,8.347078323E0
5.400031250E-1,-1.207692742E0,2.213515997E0,8.482484818E0
5.620171880E-1,-9.835954905E-1,2.166120291E0,8.263433456E0
5.839984380E-1,-1.290627956E0,2.687778711E0,8.790158272E0
6.039984380E-1,-1.827522874E0,2.766854525E0,9.708076477E0
6.239984380E-1,-1.732377291E0,2.124930620E0,9.849449158E0
6.439984380E-1,-4.598303735E-1,1.951216936E0,8.576260567E0
6.639984380E-1,8.956612349E-1,2.155930758E0,4.601598263E0
6.839984380E-1,9.656198621E-1,1.952854633E0,8.010797501E0
7.039984380E-1,4.870763794E-2,1.639214158E0,9.767970085E0
7.239984380E-1,-4.481370747E-1,2.238712549E0,1.338649940E1
7.439984380E-1,3.046018362E0,-5.880829692E-1,1.077888775E1
7.639984380E-1,7.167080879E0,-9.658880234E-1,1.069362545E1
7.839984380E-1,4.168199539E0,-8.181370497E-1,5.835464478E0
8.039984380E-1,2.016856432E0,-3.061274052E0,6.321860790E0
8.239984380E-1,-2.574916184E-1,-3.798458576E0,4.718550205E0
8.439984380E-1,8.069992065E-1,-4.187478065E0,2.882523239E-1
8.639984380E-1,2.015132666E0,-6.536247253E0,-2.617753267E0
8.839984380E-1,2.598072767E0,-9.169811249E0,-9.329725504E-1
9.039984380E-1,2.391108513E0,-1.140974998E1,-4.650976360E-1
9.239984380E-1,4.443657875E0,-1.359811687E1,-2.237822056E0
9.439984380E-1,1.101005268E1,-1.646053886E1,-3.263086081E0
9.639984380E-1,1.318865108E1,-1.689703178E1,2.083166361E0
9.839984380E-1,1.429300117E1,-1.781515884E1,6.455667973E0
1.003998438E0,1.640444756E1,-1.842121696E1,6.737705231E0
1.023998438E0,2.046754074E1,-1.777748489E1,3.381752491E0
1.043998438E0,2.094504166E1,-1.617967987E1,2.767678022E0
1.063998438E0,2.120019722E1,-1.472295189E1,2.838086605E0
1.083998438E0,2.182485390E1,-1.220057392E1,8.781931996E-1
1.103998438E0,2.171218109E1,-1.008376503E1,-4.309668541E0
1.123998438E0,2.047503090E1,-9.703968048E0,-1.074961090E1
1.143998438E0,1.795857239E1,-1.003106308E1,-7.960145950E0
1.163998438E0,1.336967278E1,-1.072947121E1,-4.914826870E0
1.183998438E0,9.639593124E0,-1.020012283E1,-3.602938414E0
1.203998438E0,7.644618988E0,-8.851143837E0,-4.056438446E0
1.223998438E0,5.240964890E0,-8.446053505E0,-3.375719070E0
1.243998438E0,3.590115070E0,-8.871867180E0,-3.531447351E-1
1.263998438E0,2.195808649E0,-8.785982132E0,2.409476757E0
1.283998438E0,2.374061823E0,-8.172951698E0,5.640662670E0
1.304000000E0,9.384312630E-1,-7.907387257E0,8.357237816E0
1.325998438E0,3.495084524E0,-4.785655022E0,7.968650341E0
1.345998438E0,3.961570501E0,-3.971070766E0,7.324571609E0
1.365998438E0,7.310043335E0,-2.679255486E0,8.125872612E0
1.385998438E0,7.268404007E0,-6.056334496E0,9.178200722E0
1.405998438E0,6.588565350E0,-6.966188431E0,4.634858608E0
1.425998438E0,5.723923206E0,-8.764578819E0,6.333640099E0
1.445998438E0,8.888856888E0,-6.762873173E0,6.172835827E0
1.465998438E0,8.238677979E0,-7.323393345E0,8.332071304E0
1.486000000E0,6.673789501E0,-5.476190567E0,8.318471909E0
1.506000000E0,6.019933224E0,-4.262435436E0,9.316700935E0
1.527998438E0,2.155538082E0,-2.536991835E-1,8.817059517E0
1.547998438E0,1.543541908E0,5.555314422E-1,3.583956957E0
1.568003125E0,1.323888183E0,-1.626563191E0,6.109427810E-1
1.589998438E0,-9.815269709E-2,-4.444825649E0,-3.218668997E-1
1.610000000E0,-6.936481595E-2,-6.883119106E0,2.261515141E0
1.631998438E0,-2.457312942E-1,-4.748429775E0,-5.199248791E-1
1.651998438E0,-4.257465303E-1,-6.067347527E0,-1.947644830E0
1.672000000E0,-2.272442102E0,-5.308529377E0,-1.063178778E0
1.692000000E0,-1.953888774E0,-4.660658360E0,-1.002720356E0
1.714000000E0,-1.923195243E0,-4.675062180E0,-1.741006017E0
1.735998438E0,-1.733718038E0,-4.691189289E0,-1.836371779E0
1.755998438E0,6.311115623E-2,-5.447968006E0,-1.763683796E0
1.775998438E0,-6.058671474E-1,-1.169994640E1,-2.461842775E0
1.795998438E0,-3.750248671E0,-2.983062363E1,-1.525336266E0
1.816000000E0,-1.351827526E1,-3.314710236E1,7.266689539E-1
1.838000000E0,-6.847196579E0,-2.000001144E1,1.006675601E0
1.858004688E0,-2.683718204E0,-1.058755302E1,8.194012046E-1
1.879998438E0,-6.307955384E-1,-1.221366596E1,2.236931324E0
1.899998438E0,-9.558994174E-1,-1.398580551E1,-9.207620621E-1
1.919998438E0,-1.244601846E0,-1.358892345E1,-1.013551712E0
1.939998438E0,-1.097913861E0,-1.434891987E1,-3.457974434E0
1.959998438E0,6.481295824E-1,-1.419447422E1,-5.545485687E1
1.979998438E0,-2.619151354E0,-9.003242493E0,-5.768264294E0
1.999998438E0,-9.431334734E-1,-7.687169075E0,-1.003017306E0
2.019998438E0,-1.010592580E0,-8.385165215E0,-2.749146938E0
2.039998438E0,-2.159904957E0,-1.111761951E1,-3.700707912E0
2.059998438E0,-2.400685310E0,-1.359422970E1,-2.111130476E0
2.079998438E0,-3.928808451E0,-1.279076385E1,7.088848352E-1
2.100000000E0,-3.838365078E0,-1.235606384E1,-1.034304738E0
2.120015625E0,-3.288713932E0,-1.105590630E1,-5.818293691E-1
2.141998438E0,-3.183866978E0,-9.052554131E0,-8.972510695E-2
2.162017188E0,-3.011398077E0,-7.346311092E0,2.898994982E-1
2.184042188E0,-2.889763117E0,-7.139126301E0,-1.017152667E-1
2.205998438E0,-3.112720728E0,-7.078782558E0,5.442595482E-1
2.225998438E0,-3.361688852E0,-6.936127186E0,3.233225644E-1
2.245998438E0,-3.637596846E0,-6.731843948E0,1.959989369E-1
2.265998438E0,-3.430804968E0,-7.181398392E0,-1.473966390E-1
2.286010938E0,-3.482356787E0,-7.526757240E0,-5.428134277E-2
2.307998438E0,-3.534416199E0,-7.238121986E0,9.758287072E-1
2.327998438E0,-3.046276808E0,-7.085879326E0,2.018446207E0
2.348000000E0,-2.496807575E0,-6.539129734E0,1.859126329E0
2.369998438E0,-1.857565284E0,-6.130353451E0,2.052012682E0
2.389998438E0,-1.572569132E0,-6.674861908E0,1.739416242E0
2.409998438E0,-1.577357531E0,-8.559855461E0,1.418564439E0
2.429998438E0,-1.778824806E0,-1.067377281E1,1.403768301E0
2.449998438E0,-2.045778275E0,-1.325720215E1,7.546906471E-1
2.469998438E0,-2.392822742E0,-1.538020802E1,2.137160152E-1
2.489998438E0,-3.114233971E0,-1.514222431E1,-2.802173793E-1
2.509998438E0,-3.018695831E0,-1.450404453E1,-7.406224012E-1
2.530017188E0,-3.000653028E0,-1.433761883E1,-1.429683208E0
2.551998438E0,-2.142628670E0,-1.378588104E1,-2.024144173E0
2.571998438E0,-4.493054748E-1,-1.193655109E1,-1.416639566E0
2.591998438E0,1.573287368E0,-1.164634514E1,-2.906223869E1
2.611998438E0,-2.606481314E0,-1.322007370E1,-1.433879757E1
2.631998438E0,-4.105912209E0,-1.295655727E1,-3.367013693E0
2.651998438E0,-4.912097454E0,-1.197190952E1,-9.131293893E-1
2.671998438E0,-5.476381779E0,-1.066321850E1,-5.424878001E-1
2.691998438E0,-5.081271648E0,-9.892046928E0,-8.155130148E-1
2.711998438E0,-4.860306263E0,-8.606206894E0,-5.498140454E-1
2.732000000E0,-4.945367336E0,-7.261211395E0,-8.909302950E-2
2.752000000E0,-4.793478966E0,-6.200129986E0,2.396404445E-1
2.773998438E0,-4.024777412E0,-5.435479641E0,3.649625182E-1
2.793998438E0,-3.365807056E0,-4.778357506E0,4.254400730E-1
2.813998438E0,-2.971347809E0,-4.641849518E0,4.768196344E-1
2.833998438E0,-2.794167519E0,-4.965171814E0,6.267253757E-1
2.853998438E0,-2.538083792E0,-5.561146259E0,6.460322142E-1
2.873998438E0,-2.295962811E0,-6.051603317E0,6.880361438E-1
2.893998438E0,-2.071683645E0,-6.801409721E0,9.204364419E-1
2.913998438E0,-1.884907126E0,-8.127769470E0,1.051676989E0
2.934000000E0,-1.500245094E0,-9.681777954E0,1.224634171E0
2.955998438E0,-9.198043942E-1,-1.124324799E1,1.356889844E0
2.975998438E0,-3.549547791E-1,-1.215493107E1,1.299247026E0
2.995998438E0,-1.060152519E-2,-1.293759537E1,1.235685825E0
3.015998438E0,3.751618266E-1,-1.364881706E1,1.451930046E0
3.035998438E0,9.437847137E-1,-1.419790363E1,1.403030872E0
3.055998438E0,3.706406355E0,-1.490711403E1,-3.160049200E0
3.075998438E0,8.536803246E0,-2.030935097E1,-3.081268501E1
3.095998438E0,-1.492918849E0,-1.064404583E1,-2.414063931E0
3.115998438E0,-3.921721458E0,-7.350658894E0,-1.806415677E0
3.135998438E0,-3.291816711E0,-8.755470276E0,-1.436195493E0
3.155998438E0,-3.489051104E0,-1.117299175E1,-1.502601057E-1
3.175998438E0,-4.471794128E0,-1.196817398E1,-1.289325505E-1
3.196000000E0,-5.299019337E0,-1.105887508E1,6.635769606E-1
3.216000000E0,-5.429800510E0,-1.080895901E1,9.766044021E-1
3.238000000E0,-4.455005646E0,-1.058949661E1,1.714985847E0
3.259998438E0,-3.422271967E0,-1.010945892E1,1.694117904E0
3.279998438E0,-2.731448889E0,-9.202439308E0,1.372040391E0
3.299998438E0,-2.619246960E0,-8.422648430E0,1.137226701E0
3.319998438E0,-2.652612686E0,-8.011985779E0,6.071982980E-1
3.339998438E0,-2.762238264E0,-7.790138721E0,1.998679489E-1
3.359998438E0,-2.873089790E0,-7.309104919E0,-7.587704062E-2
3.379998438E0,-2.824343920E0,-6.774882317E0,-3.540545702E-2
3.399998438E0,-2.611566305E0,-6.220011711E0,-3.385401145E-2
3.419998438E0,-2.370489597E0,-6.057426453E0,2.124135755E-2
3.439998438E0,-2.203192472E0,-6.105990410E0,1.168370433E-2
3.459998438E0,-2.168160439E0,-6.336292744E0,-6.904877722E-3
3.479998438E0,-2.111657143E0,-6.817317009E0,6.426037289E-3
3.499998438E0,-2.049043894E0,-7.870832443E0,-1.128243655E-1
3.520004688E0,-1.973099947E0,-9.540769577E0,-1.807047725E-1
3.541998438E0,-1.662888050E0,-1.165522289E1,1.136383861E-1
3.562017188E0,-1.531063199E0,-1.285782146E1,-1.414494310E-2
3.583998438E0,-1.194505453E0,-1.285100174E1,-2.322758734E-1
3.603998438E0,-1.306142330E0,-1.346832371E1,-4.722036123E-1
3.623998438E0,-1.164702535E0,-1.524152660E1,-1.202281833E0
3.643998438E0,-4.487787485E-1,-1.423574162E1,-3.384855270E0
3.663998438E0,-4.625501931E-1,-1.104767990E1,-7.105703354E0
3.683998438E0,-3.365740061E0,-1.103020191E1,-1.005512047E1
3.703998438E0,-5.250225544E0,-1.253506374E1,-2.733948469E0
3.723998438E0,-5.386340618E0,-1.185928535E1,-6.282385439E-2
3.743998438E0,-5.839142323E0,-1.072592735E1,2.264148742E-1
3.763998438E0,-4.863226891E0,-1.057560062E1,-4.741764367E-1
3.783998438E0,-3.947895050E0,-1.012381458E1,-1.367414832E0
3.803998438E0,-3.435468674E0,-8.448926926E0,-5.979470611E-1
3.823998438E0,-3.199467421E0,-6.954332352E0,8.508992940E-2
3.843998438E0,-2.828212976E0,-6.092898369E0,3.533554375E-1
3.863998438E0,-2.487096786E0,-5.565973282E0,5.778453946E-1
3.883998438E0,-2.228905916E0,-5.514066696E0,6.688537598E-1
3.903998438E0,-2.181127548E0,-5.697989464E0,5.498331785E-1
3.923998438E0,-1.904644847E0,-5.977545738E0,6.461184025E-1
3.943998438E0,-1.536905169E0,-6.354192257E0,7.758650184E-1
3.963998438E0,-1.303729057E0,-6.849753380E0,8.914091587E-1
3.983998438E0,-1.043431401E0,-7.426516533E0,9.621530771E-1
4.003998438E0,-8.315349817E-1,-8.034768105E0,9.950015545E-1
4.023998438E0,-4.908209145E-1,-8.732352257E0,1.039361238E0
4.043998438E0,-3.282354772E-1,-9.537981987E0,9.947333336E-1
4.063998438E0,-1.543876976E-1,-1.032148933E1,9.883647561E-1
4.083998438E0,1.652669460E-1,-1.140119839E1,7.718331814E-1
4.103998438E0,1.058160543E0,-1.289451981E1,-1.946466804E0
4.123998438E0,4.296806812E0,-1.581889248E1,-1.466785622E1
4.143998438E0,3.565742016E0,-1.280852890E1,-9.698432922E0
4.164000000E0,3.104436874E0,-1.122192001E1,-5.066456318E0
4.185998438E0,2.938643098E-1,-1.232911396E1,-2.939112663E0
4.205998438E0,-2.503722191E0,-1.198609161E1,-2.517177582E0
4.226000000E0,-4.324167252E0,-1.157176113E1,-3.852749243E-2
4.248000000E0,-4.778807640E0,-1.262077522E1,1.355539560E0
4.269998438E0,-5.023801327E0,-1.227788734E1,1.321398139E0
4.289998438E0,-4.823847294E0,-1.276261806E1,1.982150078E0
4.309998438E0,-3.976318836E0,-1.344637299E1,2.633841991E0
4.329998438E0,-3.123408556E0,-1.277062416E1,2.780654430E0
4.349998438E0,-2.756808281E0,-1.108061409E1,2.481446266E0
4.369998438E0,-2.399210453E0,-9.694946289E0,2.101658821E0
4.389998438E0,-2.201497316E0,-8.290354729E0,1.790738344E0
4.409998438E0,-2.318142653E0,-7.086703300E0,1.360672712E0
4.429998438E0,-2.528525829E0,-6.410015106E0,9.570103288E-1
4.449998438E0,-2.840863943E0,-5.683451653E0,6.687196493E-1
4.469998438E0,-3.176894903E0,-5.030055046E0,4.339346886E-1
4.489998438E0,-3.467790604E0,-4.770389557E0,3.818655908E-1
4.509998438E0,-3.619056225E0,-4.938624859E0,4.540172517E-1
4.529998438E0,-4.025515079E0,-5.369418621E0,3.164751530E-1
4.549998438E0,-4.132803917E0,-5.825437546E0,3.758034706E-1
4.569998438E0,-4.056074619E0,-6.198300838E0,4.667256773E-1
4.589998438E0,-3.607726812E0,-7.421307087E0,4.036145210E-1
4.609998438E0,-2.936967373E0,-9.505067825E0,2.048287541E-1
4.629998438E0,-2.065056324E0,-1.158469963E1,-2.147024423E-1
4.649998438E0,-1.468612909E0,-1.348720932E1,-6.917806268E-1
4.669998438E0,-5.824230909E-1,-1.501531219E1,-1.061407089E0
4.689998438E0,9.065405130E-1,-1.541313267E1,-1.361687899E0
4.710003125E0,2.815466404E0,-1.514385223E1,-3.830588579E0
4.731998438E0,3.766098499E0,-1.546315193E1,-1.143176746E1
4.751998438E0,1.586369276E0,-1.539217854E1,-1.266692638E1
4.771998438E0,-1.021902800E0,-1.340843010E1,-4.211966038E0
4.791998438E0,-2.233742237E0,-1.039603519E1,-8.228775859E-1
4.811998438E0,-3.729811907E0,-9.252709389E0,6.369150877E-1
4.831998438E0,-4.964731216E0,-1.030093765E1,1.830472589E0
4.851998438E0,-5.348569870E0,-1.189491081E1,2.233052731E0
4.871998438E0,-4.717936993E0,-1.167237473E1,1.725022316E0
4.891998438E0,-3.629676819E0,-1.096727371E1,1.643916368E0
4.911998438E0,-3.171350002E0,-9.603497505E0,1.352360010E0
4.931998438E0,-2.999551773E0,-8.556943893E0,1.104301691E0
4.952000000E0,-2.751914501E0,-8.016324043E0,9.777058363E-1
4.973998438E0,-2.508309364E0,-7.795376778E0,7.653592825E-1
4.993998438E0,-2.386913776E0,-7.826204777E0,9.619710445E-1
5.013998438E0,-2.321427584E0,-7.565237045E0,1.032992721E0
5.033998438E0,-2.094419003E0,-7.213566780E0,1.094791889E0
5.053998438E0,-1.769899249E0,-6.813830853E0,1.034678221E0
5.073998438E0,-1.550389290E0,-6.388735771E0,8.585032821E-1
5.093998438E0,-1.320852280E0,-6.433565140E0,6.951996088E-1
5.113998438E0,-1.127324224E0,-7.043319702E0,5.631067157E-1
5.134000000E0,-8.227626085E-1,-8.007120132E0,2.995816767E-1
5.154000000E0,-3.186874092E-1,-8.954485893E0,-3.650487363E-1
5.174000000E0,2.679973841E-1,-9.629173279E0,-2.250061274E0
5.195998438E0,1.176797986E0,-1.052093697E1,-4.707153797E0
5.215998438E0,2.244420528E0,-1.182679081E1,-6.521728992E0
5.235998438E0,2.516238928E0,-1.283733559E1,-6.953365326E0
5.255998438E0,1.330697298E0,-1.251192570E1,-6.537463188E0
5.275998438E0,7.363989949E-1,-1.129758644E1,-6.788711071E0
5.295998438E0,2.417952120E-1,-1.124849606E1,-5.731805325E0
5.315998438E0,-1.215488315E0,-1.204653168E1,-2.347093582E0
5.335998438E0,-2.796590328E0,-1.272870636E1,-9.698431939E-2
5.355998438E0,-3.136921406E0,-1.222511005E1,6.904878020E-1
5.375998438E0,-3.255520582E0,-9.724510193E0,8.675437570E-1
5.395998438E0,-3.557381630E0,-8.869894981E0,1.176022291E0
5.415998438E0,-3.814279318E0,-1.072579384E1,1.553061128E0
5.435998438E0,-3.955355167E0,-1.143597126E1,1.749826312E0
5.455998438E0,-3.563386202E0,-1.057364750E1,1.880444288E0
5.475998438E0,-2.632721663E0,-1.021065712E1,1.653943181E0
5.495998438E0,-1.912564993E0,-9.897783279E0,1.458308220E0
5.515998438E0,-1.586311936E0,-9.154708862E0,1.325583220E0
5.535998438E0,-1.603664994E0,-8.158519745E0,9.570485950E-1
5.555998438E0,-1.961598158E0,-7.707280159E0,6.132699847E-1
5.575998438E0,-2.284671783E0,-7.635242939E0,4.418738782E-1
5.595998438E0,-2.598043919E0,-7.586363316E0,2.028559297E-1
5.615998438E0,-2.753619194E0,-7.642320156E0,-1.765005440E-1
5.635998438E0,-2.387076616E0,-8.061220169E0,-3.224893808E-1
5.655998438E0,-2.271924973E0,-8.198551178E0,-9.468684793E-1
5.675998438E0,-1.701492071E0,-8.730446815E0,-1.305931687E0
5.695998438E0,-1.044207096E0,-9.249701500E0,-1.589721203E0
5.715998438E0,-6.189011335E-1,-9.487981796E0,-1.797164440E0
5.735998438E0,-3.595229089E-1,-9.740761757E0,-1.755265832E0
5.755998438E0,-2.287803292E-1,-1.001176643E1,-1.944829226E0
5.775998438E0,1.525393873E-1,-1.077344799E1,-1.878567219E0
5.795998438E0,1.699787378E-1,-1.129725075E1,-2.330496788E0
5.816000000E0,3.093308806E-1,-1.201087666E1,-1.484634876E0
5.836000000E0,1.394287199E-1,-1.193868637E1,-8.669978976E-1
5.858007813E0,-8.799169958E-2,-1.141134930E1,-6.920487881E-1
5.880000000E0,-6.731441617E-1,-1.213938808E1,-3.642346859E-1
5.901998438E0,-1.608893871E0,-1.295527458E1,2.106897384E-1
5.921998438E0,-2.632645130E0,-1.154400826E1,4.826136231E-1
5.941998438E0,-3.098384380E0,-9.932518959E0,7.069407105E-1
5.962017188E0,-3.535766602E0,-9.846613884E0,9.208387136E-1
5.983998438E0,-4.078982353E0,-1.099051571E1,1.013475180E0
6.003998438E0,-4.412398815E0,-1.173965263E1,8.216612935E-1
6.023998438E0,-4.174386024E0,-1.151374531E1,4.459918737E-1
6.043998438E0,-3.425097227E0,-1.099619484E1,-8.518186808E-1
6.063998438E0,-2.316265583E0,-1.077881050E1,-4.429436207E0
6.083998438E0,-2.450024843E0,-9.437598228E0,-4.769422531E0
6.103998438E0,-2.772380114E0,-7.499798298E0,-1.504324794E0
6.123998438E0,-2.707468510E0,-6.447335720E0,-8.041070104E-1
6.143998438E0,-2.730989218E0,-6.000032425E0,-1.598177552E-1
6.164000000E0,-2.929392099E0,-5.919309616E0,1.485650092E-1
6.185998438E0,-2.875982285E0,-6.078811169E0,4.130093753E-1
6.205998438E0,-2.539931774E0,-6.332404613E0,4.790414572E-1
6.225998438E0,-2.150117636E0,-6.641889095E0,6.352008581E-1
6.246000000E0,-1.544317484E0,-7.017357349E0,6.940695047E-1
6.267998438E0,-8.431707621E-1,-7.926904678E0,7.125623226E-1
6.287998438E0,-2.167135626E-1,-8.741077423E0,6.159610748E-1
6.307998438E0,5.145522356E-1,-9.470254898E0,-2.216456085E-1
6.327998438E0,1.166483760E0,-1.003922272E1,-3.031116724E0
6.347998438E0,1.813148022E0,-1.098676205E1,-7.088963032E0
6.367998438E0,1.921481013E0,-1.310146427E1,-9.351291656E0
6.387998438E0,-1.656787470E-2,-1.151395512E1,-6.212484360E0
6.407998438E0,-8.577850461E-1,-1.027704430E1,-3.972967148E0
6.427998438E0,-5.293483734E-1,-1.154096222E1,-4.052770615E0
6.447998438E0,-1.429913044E-1,-1.235164833E1,-2.338416815E0
6.467998438E0,-3.727101684E-1,-1.226728630E1,-3.447937667E-1
6.487998438E0,-7.221774459E-1,-1.245780754E1,-6.626192480E-2
6.507998438E0,-1.577596903E0,-1.208173561E1,4.228926301E-1
6.527998438E0,-2.652938128E0,-9.976935387E0,-2.141373977E-2
6.547998438E0,-3.468614101E0,-8.091405869E0,-1.605360061E-1
6.567998438E0,-3.825321198E0,-9.105062485E0,8.266795874E-1
6.587998438E0,-3.644358158E0,-1.094440365E1,1.463632941E0
6.607998438E0,-3.174108267E0,-1.207805729E1,1.771996617E0
6.627998438E0,-2.223303556E0,-1.236513329E1,1.461640954E0
6.647998438E0,-1.756702423E0,-1.143967819E1,1.024354339E0
6.668020313E0,-1.697508216E0,-1.019897366E1,6.472197175E-1
6.689998438E0,-2.011933804E0,-9.120567322E0,3.816549182E-1
6.709998438E0,-2.542891026E0,-8.436880112E0,2.982983589E-1
6.730000000E0,-2.900106192E0,-7.760651588E0,3.890769482E-1
6.751998438E0,-2.987896681E0,-7.203913689E0,1.999445707E-1
6.771998438E0,-2.734465599E0,-7.064053535E0,-2.272767723E-1
6.791998438E0,-2.287717342E0,-7.052465916E0,-7.086262107E-1
6.811998438E0,-1.834111691E0,-6.986759186E0,-1.002136230E0
6.831998438E0,-1.293931842E0,-7.102121353E0,-1.002911925E0
6.851998438E0,-7.671309710E-1,-7.768868446E0,-1.071146727E0
6.871998438E0,-5.121197701E-1,-8.575829506E0,-9.774280190E-1
6.891998438E0,-3.988835812E-1,-9.015586853E0,-1.024613023E0
6.912000000E0,-2.342103869E-1,-9.424526215E0,-1.285849094E0
6.934000000E0,-1.271416843E-1,-9.754916191E0,-1.422012210E0
6.955998438E0,4.412992299E-2,-1.059877682E1,-1.174250603E0
6.976000000E0,3.616202250E-2,-1.150608253E1,-7.753478289E-1
6.998000000E0,1.640507020E-2,-1.205654907E1,-4.048594832E-1
7.018000000E0,2.825158183E-3,-1.210546684E1,-4.224616587E-1
7.039998438E0,-2.967277765E-1,-1.246668434E1,-4.463270903E-1
7.059998438E0,-8.144978881E-1,-1.355551052E1,3.169923089E-3
7.079998438E0,-7.609347701E-1,-1.284285259E1,2.527510822E-1
7.099998438E0,-6.163440943E-1,-1.045285416E1,-1.413057894E-1
7.120001563E0,-1.417664289E0,-9.351655960E0,-3.937599659E-1
7.142012500E0,-2.427423477E0,-1.065711784E1,-3.199228346E-1
7.162018750E0,-2.544413805E0,-1.194512177E1,1.714918762E-1
7.183998438E0,-2.143844843E0,-1.156695271E1,2.301402390E-1
7.203998438E0,-1.983672738E0,-1.127432442E1,-2.836458683E-1
7.223998438E0,-2.297111988E0,-1.092638969E1,-1.215258479E0
7.243998438E0,-2.730500698E0,-1.014916515E1,-1.844847322E0
7.263998438E0,-3.004952908E0,-9.185939789E0,-1.902748704E0
7.283998438E0,-2.990003586E0,-8.235612869E0,-1.616708636E0
7.303998438E0,-2.681994438E0,-7.275796890E0,-1.176146865E0
7.323998438E0,-2.342649698E0,-6.546370029E0,-4.497460127E-1
7.343998438E0,-1.974823713E0,-6.336427212E0,1.411429793E-1
7.363998438E0,-1.649183631E0,-6.408042431E0,4.905623496E-1
7.383998438E0,-1.403538465E0,-6.576527119E0,7.064427733E-1
7.403998438E0,-1.032916069E0,-7.060682774E0,6.083570719E-1
7.423998438E0,-6.051201224E-1,-7.714069843E0,4.346625507E-1
7.443998438E0,-1.489959508E-1,-8.425004005E0,2.312224209E-1
7.463998438E0,2.352638394E-1,-8.838214874E0,-2.335687429E-1
7.483998438E0,7.997782826E-1,-9.451322556E0,-1.005670071E0
7.503998438E0,1.648350477E0,-1.015147305E1,-3.221225977E0
7.523998438E0,2.922017813E0,-1.173099422E1,-6.878158092E0
7.543998438E0,1.805333376E0,-1.206120300E1,-5.206038475E0
7.563998438E0,3.047244251E-1,-1.062711430E1,-3.805861235E0
7.583998438E0,-1.024143770E-1,-1.118745327E1,-3.517867565E0
7.603998438E0,-4.182191566E-2,-1.252340794E1,-2.739273310E0
7.623998438E0,-7.318978906E-1,-1.342293835E1,-1.029075861E0
7.643998438E0,-1.816337109E0,-1.421180820E1,7.594407536E-3
7.663998438E0,-3.633727789E0,-1.322781181E1,-4.736784399E-1
7.683998438E0,-4.303835869E0,-1.044896698E1,-1.237285137E0
7.703998438E0,-3.820963860E0,-8.303905487E0,-4.894418716E-1
7.723998438E0,-2.993757486E0,-9.132720947E0,7.219571471E-1
7.743998438E0,-2.497813225E0,-1.096826839E1,1.411056280E0
7.763998438E0,-2.377710342E0,-1.183028698E1,1.626831293E0
7.783998438E0,-2.026155472E0,-1.163685417E1,1.558146477E0
7.803998438E0,-1.863177419E0,-1.038823032E1,1.330927134E0
7.823998438E0,-1.843334198E0,-9.365561485E0,1.025455713E0
7.843998438E0,-1.976786971E0,-8.738165855E0,9.814119935E-1
7.863998438E0,-2.152780056E0,-7.877192020E0,9.149106741E-1
7.883998438E0,-2.472357988E0,-6.993692875E0,7.893491387E-1
7.903998438E0,-2.584923744E0,-6.556664944E0,7.384101152E-1
7.923998438E0,-2.505685329E0,-6.503025532E0,6.107225418E-1
7.943998438E0,-2.944983006E0,-6.882860661E0,6.034345627E-1
7.963998438E0,-2.895432711E0,-7.453753471E0,5.840799212E-1
7.983998438E0,-2.783977747E0,-7.934958935E0,4.154706001E-1
8.003998438E0,-2.536944151E0,-8.330337524E0,2.527702451E-1
8.023998438E0,-2.210173845E0,-8.637848854E0,7.226658612E-2
8.043998438E0,-1.559381843E0,-9.125510216E0,-1.151132211E-2
8.063998438E0,-8.407766223E-1,-9.994565964E0,-4.072441459E-1
8.083998438E0,-1.993699670E-1,-1.087757587E1,-9.105340838E-1
8.103998438E0,2.537279129E-1,-1.153505230E1,-2.001801729E0
8.123998438E0,6.527934670E-1,-1.222560787E1,-2.786592245E0
8.143998438E0,3.049446642E-1,-1.175768566E1,-3.193664074E0
8.163998438E0,-4.819048941E-2,-1.113929176E1,-2.464246511E0
8.183998438E0,-1.512177754E-2,-1.122637272E1,-1.797777295E0
8.203998438E0,-1.938537359E-1,-1.149765491E1,-1.349860430E0
8.223998438E0,-6.374897361E-1,-1.224722290E1,-8.496255279E-1
8.243998438E0,-1.132648945E0,-1.269746685E1,-1.908849180E-1
8.263998438E0,-1.652161956E0,-1.233321285E1,3.351691067E-1
8.284000000E0,-2.232123852E0,-1.034828472E1,7.199556231E-1
8.305998438E0,-2.623930216E0,-9.186331749E0,1.219175458E0
8.325998438E0,-2.868473768E0,-1.031721878E1,1.411295652E0
8.345998438E0,-3.175487041E0,-1.187395668E1,1.493541360E0
8.365998438E0,-2.892492533E0,-1.210859871E1,1.560684323E0
8.385998438E0,-2.482040167E0,-1.086350822E1,1.130925179E0
8.405998438E0,-2.324750662E0,-9.866169930E0,2.436339706E-1
8.425998438E0,-2.349822760E0,-9.213941574E0,-9.908068776E-1
8.446015625E0,-2.165172338E0,-8.186474800E0,-2.082821369E0
8.467998438E0,-1.917113900E0,-7.423605442E0,-1.906799674E0
8.488009375E0,-1.930052161E0,-6.834650993E0,-1.240636945E0
8.509998438E0,-1.893085718E0,-6.628481388E0,-5.083752275E-1
8.530000000E0,-1.963331580E0,-6.870028019E0,-3.299784660E-1
8.551998438E0,-2.061302185E0,-7.100407124E0,-3.916243613E-1
8.571998438E0,-1.884524107E0,-7.177730560E0,-2.832531929E-1
8.591998438E0,-1.600562096E0,-7.335920334E0,8.150820434E-2
8.611998438E0,-1.175591350E0,-7.698460102E0,3.642825484E-1
8.631998438E0,-7.323480248E-1,-8.166152954E0,4.468154907E-1
8.651998438E0,-2.326302230E-1,-8.602529526E0,3.689656258E-1
8.671998438E0,2.950422764E-1,-9.258435249E0,-3.070324287E-2
8.691998438E0,1.063667178E0,-1.008329487E1,-1.694615960E0
8.711998438E0,2.806674719E0,-1.203154373E1,-8.435844421E0
8.731998438E0,2.518642902E0,-1.287528896E1,-5.627647877E0
8.751998438E0,1.199485421E0,-1.158188343E1,-2.805784225E0
8.771998438E0,8.750902414E-1,-1.231555367E1,-2.329941511E0
8.791998438E0,-5.733921528E-1,-1.416686535E1,-1.104608059E0
8.811998438E0,-2.165737391E0,-1.414603519E1,5.529935360E-1
8.831998438E0,-2.548053265E0,-1.310448170E1,9.405477643E-1
8.851998438E0,-2.204015970E0,-1.065314484E1,2.261084169E-1
8.871998438E0,-2.452802181E0,-1.035006714E1,5.878913999E-1
8.891998438E0,-3.255271435E0,-1.132776260E1,6.757203341E-1
8.911998438E0,-3.933912754E0,-1.119166660E1,1.012574911E0
8.931998438E0,-3.737837076E0,-1.081578732E1,1.168705583E0
8.951998438E0,-3.315069199E0,-9.910146713E0,1.230686784E0
8.971998438E0,-2.932533264E0,-9.078410149E0,1.253671050E0
8.991998438E0,-2.453462839E0,-8.427005768E0,1.279490113E0
9.011998438E0,-2.307732582E0,-7.879471302E0,1.210498810E0
9.031998438E0,-2.252848148E0,-7.398159504E0,8.847628832E-1
9.051998438E0,-2.276885748E0,-6.843097687E0,4.213603437E-1
9.071998438E0,-2.519456863E0,-6.607967854E0,1.442841589E-1
9.091998438E0,-2.559104681E0,-7.055655003E0,-1.373314112E-2
9.111998438E0,-2.615856886E0,-7.642109871E0,4.616978392E-2
9.131998438E0,-2.643208265E0,-8.197649956E0,1.497716755E-1
9.151998438E0,-2.403385639E0,-8.391313553E0,2.760706246E-1
9.171998438E0,-1.980158091E0,-8.527045250E0,2.754385471E-1
9.191998438E0,-1.572913885E0,-8.845263481E0,2.583822310E-1
9.211998438E0,-1.196727276E0,-9.266911507E0,1.125466302E-1
9.231998438E0,-7.054180503E-1,-9.922375679E0,-2.588036060E-1
9.251998438E0,-1.916510612E-1,-1.041224861E1,-9.560334682E-1
9.271998438E0,2.132275999E-1,-1.097910023E1,-1.865724683E0
9.291998438E0,3.556826115E-1,-1.142752457E1,-2.306660175E0
9.311998438E0,4.519390762E-1,-1.161158085E1,-2.314742804E0
9.331998438E0,4.411747456E-1,-1.193003941E1,-2.311276197E0
9.351998438E0,-3.954646587E-1,-1.327134800E1,-2.445552588E0
9.371998438E0,-1.677751184E0,-1.412670040E1,-1.810514569E0
9.391998438E0,-2.796417952E0,-1.201055050E1,-1.056800604E0
9.411998438E0,-3.464639664E0,-9.598555565E0,-3.822390735E-1
9.431998438E0,-4.184834957E0,-8.901296616E0,4.681143165E-2
9.451998438E0,-4.699329376E0,-9.956345558E0,6.756628752E-1
9.471998438E0,-4.933233261E0,-1.090532970E1,1.116569400E0
9.491998438E0,-4.428526402E0,-1.127978325E1,1.033050179E0
9.511998438E0,-3.621775866E0,-1.110521698E1,4.523030221E-1
9.531998438E0,-3.285007477E0,-1.066756630E1,-2.093394101E-1
9.552001563E0,-2.982543230E0,-9.831368446E0,-1.227315664E0
9.573998438E0,-2.672369719E0,-8.727841377E0,-1.628325343E0
9.593998438E0,-2.325746536E0,-7.803086281E0,-1.036861658E0
9.613998438E0,-2.072133780E0,-7.373691082E0,-8.089337349E-1
9.633998438E0,-2.323180199E0,-7.171304703E0,-4.577139020E-1
9.653998438E0,-2.659373999E0,-7.139815807E0,-1.110909581E-1
9.673998438E0,-2.545994043E0,-7.017817020E0,5.481764302E-2
9.693998438E0,-2.197293043E0,-6.709855556E0,2.141374052E-1
9.714000000E0,-1.657563329E0,-6.618387699E0,3.905421793E-1
9.735998438E0,-1.108687758E0,-7.002254963E0,5.391455293E-1
9.755998438E0,-6.137584448E-1,-7.660851479E0,5.014415979E-1
9.775998438E0,-2.024536952E-2,-8.363300323E0,1.371781826E-1
9.795998438E0,6.187574863E-1,-9.087010384E0,-8.927882314E-1
9.815998438E0,1.289057374E0,-9.911947250E0,-2.403270960E0
9.835998438E0,2.733967543E0,-1.199334145E1,-8.063480377E0
9.855998438E0,1.517234325E0,-1.186448574E1,-5.480912209E0
9.875998438E0,1.623364538E-1,-1.082464504E1,-2.457782269E0
9.895998438E0,-3.496300578E-1,-1.196571255E1,-1.495073557E0
9.915998438E0,-1.562963605E0,-1.425476074E1,-5.648783445E-1
9.935998438E0,-3.214819193E0,-1.545825863E1,3.054713905E-1
9.956000000E0,-3.894092560E0,-1.341623402E1,5.908793807E-1
9.976000000E0,-3.860975742E0,-9.440337181E0,-2.445533425E-1
9.997998438E0,-3.013380527E0,-9.180480003E0,-1.388732791E-1
1.001799844E1,-3.352906942E0,-1.199500751E1,7.022289634E-1
1.003800313E1,-3.626736879E0,-1.247877026E1,1.288147569E0
1.005999844E1,-3.373334408E0,-1.103209877E1,1.484213471E0
1.007999844E1,-2.955316305E0,-1.000814629E1,1.510377288E0
1.010000000E1,-2.662400246E0,-9.219994545E0,1.400493026E0
1.012199844E1,-2.446107864E0,-8.590491295E0,1.122286916E0
1.014199844E1,-2.344325781E0,-8.028553009E0,9.225434065E-1
1.016201719E1,-2.279739857E0,-7.574239254E0,6.688633561E-1
1.018399844E1,-2.515444040E0,-7.208941460E0,4.625789225E-1
1.020399844E1,-2.664880514E0,-6.972020626E0,2.645879984E-1
1.022399844E1,-2.762525558E0,-6.608810425E0,3.189364076E-1
1.024399844E1,-2.923425436E0,-6.674325466E0,3.281684220E-1
1.026399844E1,-3.001974583E0,-7.225356102E0,3.264445961E-1
1.028400000E1,-3.027324438E0,-7.956698418E0,2.173264772E-1
1.030400000E1,-2.796887159E0,-8.355409622E0,7.549396157E-2
1.032600000E1,-2.065745831E0,-8.660670280E0,-1.253029406E-1
1.034799844E1,-1.439997435E0,-9.215588570E0,-3.200089931E-1
1.036799844E1,-9.903759360E-1,-1.015460491E1,-6.114599705E-1
1.038799844E1,-5.115355253E-1,-1.123373795E1,-1.304361105E0
1.040799844E1,-3.061130643E-1,-1.224732780E1,-1.613385439E0
1.042799844E1,-1.908274591E-1,-1.275091457E1,-1.519829750E0
1.044801562E1,-1.668471247E-1,-1.252488327E1,-1.650600910E0
1.046999844E1,-2.744042277E-1,-1.233825970E1,-1.800899386E0
1.048999844E1,-8.846766949E-1,-1.315788078E1,-1.750937104E0
1.050999844E1,-1.667073131E0,-1.337955570E1,-1.237026572E0
1.052999844E1,-2.566009521E0,-1.187336349E1,-5.190342069E-1
1.054999844E1,-3.238243818E0,-9.346043587E0,1.937388070E-2
1.056999844E1,-3.830387354E0,-7.840818882E0,4.892216027E-1
1.059000000E1,-4.405551434E0,-8.252889633E0,8.807119131E-1
1.061199844E1,-5.214006424E0,-9.920566559E0,1.293970227E0
1.063199844E1,-5.085035801E0,-1.145262623E1,1.198278785E0
1.065199844E1,-4.228849411E0,-1.161415768E1,1.874372512E-1
1.067199844E1,-2.887723446E0,-1.084821415E1,-9.729653001E-1
1.069199844E1,-1.859068871E0,-1.015853119E1,-3.825340509E0
1.071199844E1,-2.126779079E0,-9.102955818E0,-3.525490761E0
1.073199844E1,-2.592690706E0,-7.668503284E0,-1.052041054E0
1.075199844E1,-2.550351620E0,-7.112254143E0,-6.004945040E-1
1.077199844E1,-2.872275829E0,-6.839085102E0,-3.938749135E-1
1.079199844E1,-2.998000145E0,-6.602518559E0,-3.087849617E-1
1.081199844E1,-2.915993929E0,-6.435278893E0,-7.638461143E-2
1.083199844E1,-2.438935041E0,-6.508474827E0,4.088147283E-1
1.085199844E1,-1.729418039E0,-6.767871857E0,5.542960167E-1
1.087199844E1,-6.462141871E-1,-7.256567001E0,8.274840117E-1
1.089199844E1,-2.867391706E-1,-7.806035995E0,9.387568831E-1
1.091199844E1,5.384080857E-2,-8.448974609E0,7.918199301E-1
1.093199844E1,4.940291345E-1,-9.124628067E0,1.278216392E-1
1.095199844E1,7.696017623E-1,-9.907044411E0,-1.397964835E0
1.097199844E1,1.642001033E0,-1.108933926E1,-7.175585270E0
1.099199844E1,1.895393729E0,-1.332328224E1,-1.127989864E1
1.101199844E1,-1.403193623E-1,-1.145347786E1,-6.102657318E0
1.103199844E1,2.298625112E-1,-1.052468109E1,-3.499642849E0
1.105199844E1,-1.167412758E0,-1.189425945E1,-1.503568292E0
1.107199844E1,-3.023560762E0,-1.439223671E1,-6.010978222E-1
1.109199844E1,-4.629686832E0,-1.376591301E1,-6.439444423E-2
1.111199844E1,-4.195962906E0,-9.650912285E0,7.519038320E-1
1.113199844E1,-2.675501108E0,-8.134032249E0,8.286619186E-1
1.115199844E1,-2.939954996E0,-1.056242275E1,7.702242136E-1
1.117199844E1,-3.902797937E0,-1.245178318E1,1.330208898E0
1.119199844E1,-4.037361622E0,-1.264206409E1,1.690948009E0
1.121199844E1,-3.601176262E0,-1.164061832E1,1.696560025E0
1.123199844E1,-3.173657894E0,-1.022934151E1,1.761088610E0
1.125199844E1,-2.768444061E0,-9.162207603E0,1.497266769E0
1.127199844E1,-2.419273615E0,-8.342049599E0,1.190636516E0
1.129199844E1,-2.207205057E0,-7.501570225E0,8.220922351E-1
1.131199844E1,-1.951494575E0,-6.921627522E0,5.782571435E-1
1.133200156E1,-2.143203020E0,-6.898020744E0,2.465836108E-1
1.135399844E1,-2.090990543E0,-7.036903381E0,1.306180656E-1
1.137399844E1,-2.025312662E0,-7.033178329E0,1.308287531E-1
1.139399844E1,-1.939657688E0,-7.046480656E0,2.586599588E-1
1.141399844E1,-2.118198156E0,-7.186656475E0,9.650548548E-2
1.143399844E1,-2.350531578E0,-7.383564949E0,4.558559973E-3
1.145399844E1,-2.512082577E0,-8.228996277E0,1.981441304E-2
1.147400000E1,-2.380640984E0,-9.035984993E0,-2.614468336E-1
1.149599844E1,-2.079421520E0,-9.932125092E0,-2.812708020E-1
1.151599844E1,-1.435774088E0,-1.071439743E1,-8.570092916E-1
1.153599844E1,-6.286790967E-1,-1.137689304E1,-1.883039713E0
1.155600469E1,-3.465942144E-1,-1.179486275E1,-2.240321636E0
1.157800938E1,-1.269980371E-1,-1.212274361E1,-2.055498838E0
1.160000156E1,-2.094064653E-1,-1.259594345E1,-1.898649812E0
1.162199844E1,-5.602432489E-1,-1.252803421E1,-1.547966361E0
1.164199844E1,-5.239375234E-1,-1.281689930E1,-1.546989560E0
1.166201719E1,-6.735272408E-1,-1.333405685E1,-1.526859045E0
1.168399844E1,-1.250989556E0,-1.302203465E1,-9.848787785E-1
1.170399844E1,-2.117163897E0,-1.165443707E1,-4.666777849E-1
1.172399844E1,-3.123054266E0,-9.705347061E0,1.866615415E-1
1.174399844E1,-3.693324327E0,-8.339646339E0,8.098914027E-1
1.176399844E1,-3.867775440E0,-8.517861366E0,1.186738729E0
1.178399844E1,-4.366114140E0,-9.960846901E0,1.189583063E0
1.180399844E1,-4.046775341E0,-1.133030033E1,1.018349767E0
1.182399844E1,-3.261199713E0,-1.097592068E1,7.142669559E-1
1.184399844E1,-2.831727743E0,-9.829241753E0,2.918723524E-1
1.186399844E1,-2.567436457E0,-9.155015945E0,-1.167307377E0
1.188399844E1,-2.885376930E0,-8.554942131E0,-2.269521236E0
1.190399844E1,-2.854357719E0,-7.817193031E0,-1.858005881E0
1.192399844E1,-2.353193760E0,-6.925467968E0,-1.109980583E0
1.194399844E1,-1.964356303E0,-6.335258961E0,-3.626353741E-1
1.196399844E1,-1.811165690E0,-6.794332504E0,1.032858565E-1
1.198399844E1,-1.717954636E0,-7.639687061E0,6.675992161E-2
1.200399844E1,-1.762668729E0,-8.105560303E0,-1.012651548E-1
1.202399844E1,-1.668806553E0,-8.160128593E0,2.450704761E-2
1.204399844E1,-1.670731425E0,-8.127615929E0,3.350541592E-1
1.206399844E1,-1.427566648E0,-8.301464081E0,4.729889333E-1
1.208399844E1,-1.194314003E0,-8.465744019E0,5.009436011E-1
1.210399844E1,-9.998760819E-1,-8.377791405E0,4.095521569E-1
1.212399844E1,-9.681289792E-1,-8.450881004E0,9.755893052E-2
1.214399844E1,-8.380855322E-1,-8.840245247E0,-6.406213641E-1
1.216404062E1,-7.531201094E-2,-1.003079510E1,-4.681823254E0
1.218599844E1,-8.408436924E-2,-1.238545418E1,-1.079885578E1
1.220599844E1,-8.944833279E-1,-1.172481728E1,-6.941211700E0
1.222599844E1,2.669630647E-1,-1.086608410E1,-8.592214584E0
1.224599844E1,5.802395344E-1,-9.849918365E0,-8.307372093E0
1.226599844E1,-1.375066638E0,-9.300353050E0,-3.582185507E0
1.228601094E1,-3.354037046E0,-1.059283924E1,-1.128732085E0
1.230799844E1,-5.736421108E0,-1.316218185E1,-6.027833819E-1
1.232799844E1,-6.185583115E0,-1.259158611E1,-2.051352113E-1
1.234799844E1,-5.184030533E0,-9.321029663E0,-2.579225600E-1
1.236799844E1,-4.260807514E0,-8.698719025E0,7.897800803E-1
1.238800000E1,-4.822736263E0,-1.065537643E1,1.162739277E0
1.240999844E1,-4.993931293E0,-1.259319401E1,1.694328666E0
1.242999844E1,-3.973321199E0,-1.252042007E1,2.085933924E0
1.245000000E1,-2.649414062E0,-1.119892693E1,1.821527839E0
1.247199844E1,-1.716154218E0,-9.786031723E0,1.614774227E0
1.249199844E1,-1.269080043E0,-8.939164162E0,1.358077407E0
1.251199844E1,-1.064960122E0,-8.192910194E0,1.122784734E0
1.253199844E1,-8.137125373E-1,-7.628577709E0,9.058892727E-1
1.255199844E1,-7.313424349E-1,-7.466739178E0,5.152513385E-1
1.257199844E1,-7.014532089E-1,-7.390594006E0,3.161016405E-1
1.259203594E1,-1.311122298E0,-7.249987125E0,6.274724007E-2
1.261399844E1,-1.574618578E0,-7.231743813E0,-2.497822791E-1
1.263399844E1,-1.662648559E0,-6.950654984E0,-4.886182547E-1
1.265399844E1,-1.873041511E0,-7.024569035E0,-4.664288163E-1
1.267399844E1,-1.802364588E0,-7.159094334E0,-3.330813348E-1
1.269399844E1,-2.439634085E0,-7.635923386E0,8.817365766E-2
1.271399844E1,-3.331704140E0,-8.569604874E0,3.592068851E-1
1.273399844E1,-3.879708052E0,-9.895608902E0,3.479349613E-1
1.275400000E1,-3.186998606E0,-1.090049458E1,1.920915842E-1
1.277599844E1,-2.231760025E0,-1.192715645E1,-2.155260295E-1
1.279599844E1,-1.767773151E0,-1.266370869E1,-8.665956259E-1
1.281599844E1,-8.741517663E-1,-1.262342834E1,-1.320909739E0
1.283599844E1,-3.487298191E-1,-1.246680927E1,-2.307301760E0
1.285599844E1,-1.565999389E-1,-1.345358372E1,-3.942972422E0
1.287599844E1,-7.621989250E-1,-1.421056366E1,-4.718980789E0
1.289599844E1,-1.760829926E0,-1.220909786E1,-5.575463772E0
1.291599844E1,-2.221819162E0,-9.677526474E0,-7.727419853E0
1.293599844E1,-4.291175842E0,-9.491037369E0,-3.179346561E0
1.295599844E1,-5.267799377E0,-1.048266697E1,-1.320354342E-1
1.297599844E1,-5.986299515E0,-1.187022305E1,1.438216090E0
1.299599844E1,-5.699129105E0,-1.237435436E1,1.377221465E0
1.301599844E1,-4.440535545E0,-1.153973675E1,1.176060557E0
1.303599844E1,-2.843746662E0,-1.020457649E1,6.215922236E-1
1.305599844E1,-2.302656889E0,-9.083227158E0,1.952998191E-1
1.307600000E1,-2.476542950E0,-7.934547424E0,1.037838534E-1
1.309799844E1,-2.693677902E0,-6.972786427E0,2.826594412E-1
1.311799844E1,-2.351192236E0,-6.446503162E0,5.399307609E-1
1.313801719E1,-1.942176342E0,-6.211603165E0,7.638173699E-1
1.315999844E1,-1.453127146E0,-6.354498386E0,9.040409327E-1
1.317999844E1,-1.084228635E0,-6.995004654E0,7.726472020E-1
1.319999844E1,-9.225530028E-1,-7.377292156E0,7.325682640E-1
1.321999844E1,-9.207046628E-1,-7.408263206E0,6.284396648E-1
1.323999844E1,-9.939863086E-1,-7.559155941E0,5.012883544E-1
1.326000938E1,-1.165085554E0,-7.643163204E0,4.953028560E-1
1.328200625E1,-9.922050834E-1,-7.876980782E0,4.713512957E-1
1.330399844E1,-1.094648242E0,-8.490720749E0,3.312329948E-1
1.332399844E1,-1.319243431E0,-9.334581375E0,-3.409343362E-1
1.334399844E1,-1.611508369E0,-1.035529613E1,-2.875704288E0
1.336399844E1,-8.626787663E-1,-1.244642925E1,-8.454252243E0
1.338399844E1,-2.089151621E0,-1.223023319E1,-7.936357498E0
1.340399844E1,-5.552058220E-1,-1.214347744E1,-9.682429314E0
1.342399844E1,8.077174425E-1,-1.094967079E1,-1.074388504E1
1.344399844E1,-5.754703283E-1,-1.087990379E1,-9.624096870E0
1.346399844E1,-4.614220142E0,-1.013690662E1,-2.168399572E0
1.348399844E1,-6.356672287E0,-1.150968456E1,-1.804366112E-1
1.350399844E1,-5.979614735E0,-1.151625347E1,-1.895250194E-2
1.352399844E1,-4.877209187E0,-7.690339088E0,-8.017702401E-2
1.354399844E1,-4.275690079E0,-7.666827679E0,4.430805445E-1
1.356399844E1,-5.159657478E0,-1.082277870E1,6.776931882E-1
1.358399844E1,-5.617688179E0,-1.336671257E1,1.637557387E0
1.360399844E1,-4.476889133E0,-1.333736992E1,1.212538719E0
1.362399844E1,-2.896562815E0,-1.155296230E1,1.019068003E0
1.364399844E1,-1.855755329E0,-9.933581352E0,1.034113169E0
1.366399844E1,-1.408968449E0,-9.043618202E0,1.241106272E0
1.368399844E1,-1.384509444E0,-8.310503960E0,1.088768125E0
1.370399844E1,-1.348318577E0,-7.752799034E0,8.673330545E-1
1.372399844E1,-1.505177140E0,-7.425137520E0,5.819538236E-1
1.374400000E1,-1.845843315E0,-7.209841251E0,1.882608682E-1
1.376400000E1,-2.025542498E0,-6.922240257E0,-1.177085340E-1
1.378601250E1,-2.059683800E0,-6.758831501E0,-3.018322289E-1
1.380799844E1,-2.167566538E0,-6.663628578E0,-3.455407619E-1
1.382799844E1,-2.265910864E0,-6.998692036E0,-2.257827967E-1
1.384799844E1,-2.465232849E0,-7.457832813E0,-4.820007086E-2
1.386799844E1,-2.583410740E0,-7.913248539E0,1.308574826E-1
1.388799844E1,-2.657372236E0,-8.560793877E0,9.496361762E-2
1.390799844E1,-2.524551630E0,-9.575035095E0,-8.545385301E-2
1.392799844E1,-2.227575064E0,-1.099843597E1,-2.889705896E-1
1.394800156E1,-1.821681023E0,-1.240091133E1,-9.498851299E-1
1.396999844E1,-1.179182649E0,-1.322399998E1,-1.487881422E0
1.398999844E1,-3.180840611E-1,-1.353830051E1,-2.596167088E0
1.400999844E1,-9.562440962E-2,-1.439054108E1,-4.740825653E0
1.402999844E1,-5.432060361E-1,-1.478408146E1,-6.707882881E0
1.404999844E1,-9.463992119E-1,-1.269587708E1,-1.295418262E1
1.406999844E1,-4.136481285E0,-1.139564323E1,-3.943844080E0
1.408999844E1,-5.223879814E0,-1.111208439E1,4.609316885E-1
1.410999844E1,-6.837887764E0,-1.111365414E1,1.240780592E0
1.412999844E1,-7.596705914E0,-1.134811401E1,1.994647741E0
1.414999844E1,-6.333736420E0,-1.119606209E1,1.833699942E0
1.416999844E1,-4.779880047E0,-1.068806171E1,1.126931667E0
1.418999844E1,-3.707766056E0,-9.559261322E0,4.755267501E-1
1.420999844E1,-3.130830526E0,-8.130756378E0,3.242036402E-1
1.422999844E1,-2.572885752E0,-7.050033092E0,4.728261232E-1
1.424999844E1,-2.098249674E0,-6.437088966E0,5.092754364E-1
1.426999844E1,-1.537814975E0,-6.267665386E0,4.707958400E-1
1.428999844E1,-1.161178231E0,-6.400793076E0,4.658637643E-1
1.430999844E1,-8.698326349E-1,-6.743441582E0,1.707448810E-1
1.432999844E1,-6.041623950E-1,-7.068104744E0,-2.433562279E-1
1.434999844E1,-4.301518500E-1,-7.001460075E0,-4.573787153E-1
1.436999844E1,-5.087678432E-1,-6.851199627E0,-1.934419274E-1
1.438999844E1,-8.458140492E-1,-7.098147392E0,1.705629230E-1
1.440999844E1,-1.074986935E0,-7.707328320E0,4.281024039E-1
1.442999844E1,-8.415427208E-1,-8.384963989E0,2.739158273E-1
1.444999844E1,-7.649282813E-1,-8.991530418E0,-2.766931057E-1
1.446999844E1,-8.028429151E-1,-9.903261185E0,-1.598713875E0
1.448999844E1,-7.672554255E-1,-1.118768406E1,-6.597749710E0
1.450999844E1,-2.831670344E-1,-1.418160343E1,-1.225522804E1
1.452999844E1,-1.636398554E0,-1.145207977E1,-6.535222530E0
1.454999844E1,-5.361958742E-1,-1.051697159E1,-4.826748848E0
1.456999844E1,-5.753841400E-1,-1.157140636E1,-3.230936766E0
1.458999844E1,-1.526916504E0,-1.387750149E1,-2.250463486E0
1.460999844E1,-2.048670292E0,-1.335766315E1,-5.065364838E-1
1.462999844E1,-1.523114443E0,-1.079623127E1,8.233947158E-1
1.464999844E1,-2.026739597E0,-8.497768402E0,-2.633526027E-1
1.467000000E1,-2.296336412E0,-8.722133636E0,2.593016326E-1
1.469199844E1,-2.665905237E0,-1.131894302E1,8.345037699E-1
1.471199844E1,-3.124222517E0,-1.304983616E1,1.467166781E0
1.473199844E1,-3.047272921E0,-1.355907345E1,1.624925494E0
1.475199844E1,-2.399564743E0,-1.287401581E1,1.327795506E0
1.477199844E1,-2.020964861E0,-1.067184734E1,1.412320375E0
1.479199844E1,-2.054033518E0,-8.996778488E0,1.265642047E0
1.481199844E1,-2.243817091E0,-8.260321617E0,1.013934851E0
1.483199844E1,-2.379395962E0,-7.604511261E0,7.647655010E-1
1.485199844E1,-2.587681770E0,-6.911390305E0,4.768579304E-1
1.487199844E1,-2.756607294E0,-6.471967697E0,3.164943159E-1
1.489199844E1,-3.035866976E0,-6.512324333E0,2.182075530E-1
1.491199844E1,-3.190637589E0,-6.827439308E0,-4.455130547E-2
1.493199844E1,-3.233905792E0,-7.014934540E0,-1.862210035E-1
1.495199844E1,-3.413671970E0,-7.080343723E0,-2.038231790E-1
1.497199844E1,-3.632932901E0,-7.460667610E0,-2.312032580E-1
1.499199844E1,-3.784074068E0,-8.037948608E0,-2.089084685E-1
1.501199844E1,-3.361717701E0,-8.644016266E0,-2.136681378E-1
1.503199844E1,-2.620070696E0,-9.649207115E0,-4.195598960E-1
1.505199844E1,-1.806808233E0,-1.124490452E1,-1.322892189E0
1.507199844E1,-1.154445767E0,-1.277360249E1,-2.041306019E0
1.509199844E1,-6.066236496E-1,-1.352148438E1,-2.494873047E0
1.511199844E1,-1.460750252E-1,-1.320395470E1,-3.326092005E0
1.513199844E1,-1.206964925E-1,-1.322523499E1,-4.295906544E0
1.515199844E1,-1.255442739E0,-1.332510185E1,-4.657268047E0
1.517199844E1,-2.403376102E0,-1.205573463E1,-3.727925301E0
1.519199844E1,-3.733422279E0,-1.045351601E1,-1.727962375E0
1.521199844E1,-4.964856148E0,-1.020962334E1,2.965841293E-1
1.523199844E1,-6.275777340E0,-1.060098934E1,1.238338590E0
1.525199844E1,-6.828340054E0,-1.064225483E1,1.168839693E0
1.527199844E1,-5.036739826E0,-1.036885643E1,9.674202800E-1
1.529199844E1,-4.082104206E0,-9.918603897E0,2.973215282E-1
1.531199844E1,-3.387862444E0,-8.793509483E0,-2.081423253E-1
1.533199844E1,-2.680529118E0,-7.460188866E0,-4.737167358E-1
1.535199844E1,-1.687663198E0,-6.791450024E0,-6.603495479E-1
1.537199844E1,-1.005535960E0,-6.681613922E0,-8.152447939E-1
1.539199844E1,-5.748574138E-1,-6.773646355E0,-6.176178455E-1
1.541199844E1,-3.120027781E-1,-7.129300594E0,-2.897175550E-1
1.543199844E1,-2.159186900E-1,-7.663217068E0,-2.215498537E-1
1.545199844E1,-2.794128954E-1,-7.877009869E0,-1.232630759E-1
1.547200000E1,-3.421410024E-1,-7.169456005E0,2.792309523E-1
1.549399844E1,-6.612593532E-1,-7.135468483E0,7.452384233E-1
1.551399844E1,-1.063504338E0,-7.914167881E0,8.594609499E-1
1.553399844E1,-9.489274621E-1,-8.616023064E0,9.863728285E-1
1.555399844E1,-4.690719843E-1,-9.248092651E0,8.014542460E-1
1.557399844E1,-1.461708099E-1,-9.947716713E0,-5.167644843E-2
1.559399844E1,4.306402504E-1,-1.086450386E1,-2.255970001E0
1.561399844E1,1.460539699E0,-1.244490719E1,-7.749035358E0
1.563399844E1,1.630518436E0,-1.374658680E1,-1.086353683E1
1.565399844E1,-2.795182467E-1,-1.088508511E1,-4.650966644E0
1.567399844E1,-5.396530628E-1,-1.116887379E1,-2.683182001E0
1.569399844E1,-1.357703805E0,-1.260730076E1,-2.093825102E0
1.571399844E1,-3.164406776E0,-1.249908257E1,-6.290333867E-1
1.573399844E1,-4.705362797E0,-1.159808826E1,9.240660816E-2
1.575399844E1,-5.431572437E0,-1.028302956E1,4.992963970E-1
1.577399844E1,-5.085408688E0,-9.562776566E0,1.019929908E-2
1.579399844E1,-4.229290009E0,-1.075923634E1,4.232852757E-1
1.581399844E1,-3.657641172E0,-1.181275177E1,1.081700325E0
1.583399844E1,-3.087131500E0,-1.141450977E1,1.382115245E0
1.585399844E1,-2.717620134E0,-1.059610462E1,1.262539148E0
1.587399844E1,-2.538744450E0,-9.863277435E0,1.275257230E0
1.589399844E1,-2.414763212E0,-9.188524246E0,1.012833476E0
1.591400000E1,-2.129240274E0,-8.363444328E0,7.469430566E-1
1.593599844E1,-1.937215567E0,-7.241502285E0,3.867114484E-1
1.595599844E1,-1.947529912E0,-6.562583447E0,1.179862618E-1
1.597599844E1,-2.126721382E0,-6.248396873E0,-8.655518293E-2
1.599599844E1,-2.485851765E0,-6.430375576E0,-8.437166363E-2
1.601599844E1,-2.833690882E0,-7.041164875E0,-1.108132303E-1
1.603599844E1,-3.038059950E0,-7.629995346E0,-1.309724152E-1
1.605599844E1,-3.052971125E0,-8.222330093E0,-2.972640693E-1
1.607599844E1,-2.629024982E0,-8.922472000E0,-6.200025082E-1
1.609599844E1,-1.840930462E0,-9.710785866E0,-8.283746243E-1
1.611599844E1,-9.280596375E-1,-1.027425671E1,-1.120237470E0
1.613599844E1,-1.078444198E-1,-1.108584404E1,-1.829859614E0
1.615604062E1,5.561634302E-1,-1.200656700E1,-2.594175100E0
1.617799844E1,5.960317254E-1,-1.152881813E1,-2.611422777E0
1.619800156E1,-1.787989773E-2,-1.064160442E1,-1.809863329E0
1.621800156E1,-2.308077335E0,-1.259658527E1,-5.454853773E-1
1.624000000E1,-5.305043221E0,-1.343868256E1,8.922423720E-1
1.626201875E1,-6.063574314E0,-1.073392487E1,1.697718859E0
1.628399844E1,-5.998969078E0,-9.834231377E0,2.019212246E0
1.630399844E1,-6.358818054E0,-1.017756939E1,1.762687922E0
1.632399844E1,-6.913439274E0,-1.097130489E1,8.298015594E-1
1.634399844E1,-7.044038296E0,-1.148861504E1,-1.451556534E-1
1.636399844E1,-6.213662148E0,-1.046542835E1,-9.404232502E-1
1.638399844E1,-4.716874123E0,-9.332378387E0,-2.224471807E0
1.640399844E1,-4.061552525E0,-8.652377129E0,-3.861914396E0
1.642399844E1,-4.140570641E0,-8.157533646E0,-3.879238844E0
1.644399844E1,-4.146919727E0,-7.624546051E0,-2.515635490E0
1.646399844E1,-3.683728218E0,-7.128218174E0,-1.776353955E0
1.648399844E1,-3.297553301E0,-7.163403988E0,-1.389556408E0
1.650399844E1,-2.828959942E0,-7.203290939E0,-7.565102577E-1
1.652399844E1,-2.263190985E0,-7.166458607E0,-5.141787603E-2
1.654400625E1,-1.592613459E0,-7.376478195E0,1.918809116E-1
1.656599844E1,-1.009548664E0,-7.455246925E0,3.678642809E-1
1.658599844E1,-4.811866581E-1,-7.569556236E0,3.997933567E-1
1.660599844E1,-6.866570562E-3,-7.731883049E0,9.069235623E-2
1.662599844E1,3.014012873E-1,-7.888942242E0,-4.397956729E-1
1.664599844E1,4.524562359E-1,-8.360198021E0,-7.806533575E-1
1.666599844E1,4.137563407E-1,-9.665209770E0,-1.604182124E0
1.668599844E1,-7.083963603E-2,-1.080053139E1,-1.893957138E0
1.670599844E1,-1.240416765E0,-1.183695221E1,-1.106829882E0
1.672599844E1,-3.389145851E0,-1.257542992E1,-1.780146480E0
1.674599844E1,-5.335124016E0,-1.133689976E1,-3.806751966E0
1.676599844E1,-4.430891514E0,-9.604895592E0,-4.212789536E0
1.678601094E1,-2.934218645E0,-9.834432602E0,-7.938789725E-1
1.680799844E1,-3.435420990E0,-1.219499111E1,8.468482494E-1
1.682799844E1,-3.454871416E0,-1.326314926E1,1.463364840E0
1.684799844E1,-2.830760479E0,-1.178125381E1,1.364675760E0
1.686799844E1,-2.143816233E0,-1.037448692E1,1.281175613E0
1.688800469E1,-2.091344833E0,-9.506876945E0,1.088317871E0
1.690999844E1,-2.221426487E0,-8.553648949E0,1.121482372E0
1.692999844E1,-2.230256319E0,-8.242049217E0,1.158544660E0
1.694999844E1,-2.163410187E0,-8.421863556E0,1.030359030E0
1.696999844E1,-2.014299393E0,-8.378269196E0,8.142392635E-1
1.698999844E1,-1.924660444E0,-8.406942368E0,3.537480831E-1
1.700999844E1,-1.893937945E0,-8.737696648E0,-1.462378446E-2
1.702999844E1,-1.854634881E0,-8.760632515E0,-4.307360649E-1
1.704999844E1,-1.714918852E0,-8.574708939E0,-9.472419620E-1
1.706999844E1,-1.494374514E0,-8.559576988E0,-1.674112082E0
1.708999844E1,-1.392324090E0,-8.918506622E0,-2.327116251E0
1.710999844E1,-1.995777845E0,-9.469335556E0,-1.805687785E0
1.712999844E1,-2.909529686E0,-9.891720772E0,-5.625512004E-1
1.714999844E1,-3.571507215E0,-1.065343189E1,-1.889504120E-2
1.716999844E1,-3.649998665E0,-1.168377113E1,3.845854104E-1
1.718999844E1,-3.601865768E0,-1.341172504E1,8.023927808E-1
1.720999844E1,-3.252561331E0,-1.406861591E1,9.342941046E-1
1.722999844E1,-2.058055639E0,-1.070194721E1,9.038015604E-1
1.724999844E1,-2.365921497E0,-8.735255241E0,-1.184344530E0
1.726999844E1,-3.125093937E0,-8.855136871E0,-4.411661625E0
1.728999844E1,-2.752786160E0,-9.037259102E0,-6.666942120E0
1.730999844E1,-1.928050637E0,-9.086493492E0,-5.318594933E0
1.732999844E1,-1.474177003E0,-8.618254662E0,-4.026204586E0
1.734999844E1,-1.387937903E0,-8.487875938E0,-3.509870768E0
1.736999844E1,-1.901072741E0,-8.770708084E0,-2.780807972E0
1.738999844E1,-2.669563770E0,-8.905635834E0,-1.662313342E0
1.740999844E1,-2.811482430E0,-8.449549675E0,-1.083759427E0
1.742999844E1,-2.520586967E0,-8.800127983E0,-1.266676426E0
1.744999844E1,-1.692671895E0,-9.527046204E0,-2.057576895E0
1.747000000E1,-6.918955445E-1,-9.661647797E0,-2.866453171E0
1.749000000E1,-1.486799270E-1,-9.585493088E0,-3.325737715E0
1.751199844E1,-8.851363659E-1,-9.712682724E0,-2.093193054E0
1.753199844E1,-1.657438874E0,-9.405545235E0,-4.200195968E-1
1.755199844E1,-1.867534757E0,-9.525092125E0,-1.581418216E-1
1.757199844E1,-1.951858521E0,-9.635580063E0,-3.744914532E-1
1.759199844E1,-1.914576054E0,-9.641967773E0,-7.197831869E-1
1.761199844E1,-2.029890299E0,-9.623331070E0,-1.094389677E0
1.763199844E1,-2.116847992E0,-9.586297989E0,-1.405664563E0
1.765199844E1,-2.145338774E0,-9.525255203E0,-1.547200203E0
1.767199844E1,-2.235408783E0,-9.336285591E0,-1.420125484E0
1.769199844E1,-2.479195833E0,-9.219246864E0,-1.320612907E0
1.771199844E1,-2.747949600E0,-9.081312180E0,-1.255816340E0
1.773199844E1,-3.052013397E0,-8.893626213E0,-1.291212201E0
1.775199844E1,-3.139325142E0,-8.842054367E0,-1.444814563E0
1.777199844E1,-2.888958693E0,-8.828638077E0,-1.280773401E0
1.779199844E1,-2.700132847E0,-8.710373878E0,-6.953911185E-1
1.781199844E1,-2.545888662E0,-8.635913849E0,-3.560273647E-1
1.783199844E1,-2.538419008E0,-8.818065643E0,-8.904515207E-2
1.785199844E1,-2.672915459E0,-9.120969772E0,2.465165854E-1
1.787199844E1,-2.793458700E0,-9.283277512E0,5.811876655E-1
1.789199844E1,-3.095032454E0,-9.752215385E0,7.781921625E-1
1.791199844E1,-3.409611225E0,-1.043690872E1,8.114141226E-1
1.793199844E1,-3.249640465E0,-1.041439438E1,7.295324206E-1
1.795199844E1,-2.552621365E0,-9.953635216E0,6.133944988E-1
1.797199844E1,-1.843774796E0,-9.751679420E0,2.826977670E-1
1.799200000E1,-1.293529630E0,-1.026382828E1,-3.890290558E-1
1.801399844E1,-8.960634470E-1,-1.142361736E1,-1.461008906E0
1.803399844E1,-4.690336883E-1,-1.198613930E1,-2.408911705E0
1.805399844E1,-2.221627682E-1,-1.179797459E1,-2.515032291E0
1.807399844E1,-4.338293374E-1,-1.073378086E1,-1.404649377E0
1.809400000E1,-9.133496881E-1,-9.582083702E0,-7.049200535E-1
1.811600000E1,-1.346508622E0,-9.022510529E0,-7.253473997E-2
1.813800469E1,-1.432642460E0,-9.248216629E0,2.421495616E-1
1.815999844E1,-1.216369390E0,-9.596965790E0,5.026770234E-1
1.817999844E1,-9.105914831E-1,-9.766638756E0,5.142266154E-1
1.819999844E1,-6.769557595E-1,-9.988571167E0,3.077506721E-1
1.821999844E1,-6.624277234E-1,-1.020266151E1,1.619725376E-1
1.824000000E1,-8.582351208E-1,-1.017960930E1,6.361872703E-2
1.826201719E1,-1.339718580E0,-1.007798004E1,1.827254742E-1
1.828399844E1,-1.654747725E0,-9.999689102E0,3.494002223E-1
1.830399844E1,-1.934505343E0,-9.774864197E0,3.846524358E-1
1.832399844E1,-2.161887407E0,-9.480627060E0,4.881968796E-1
1.834399844E1,-2.158976078E0,-9.177501678E0,6.416460276E-1
1.836399844E1,-2.133827448E0,-9.062446594E0,6.458311081E-1
1.838399844E1,-2.199399948E0,-9.070240974E0,6.876626015E-1
1.840399844E1,-2.244717360E0,-9.043952942E0,7.506492734E-1
1.842399844E1,-2.256966114E0,-8.864387512E0,7.983418107E-1
1.844399844E1,-2.307301760E0,-8.599081993E0,8.051412702E-1
1.846399844E1,-2.531744003E0,-8.494646072E0,8.048444390E-1
1.848399844E1,-2.811156750E0,-8.645279884E0,8.903270364E-1
1.850399844E1,-3.034851789E0,-9.074436188E0,1.001370072E0
1.852399844E1,-3.213392019E0,-9.635656357E0,1.050087333E0
1.854399844E1,-3.334778309E0,-9.822107315E0,1.152243018E0
1.856399844E1,-3.374205828E0,-1.025990105E1,1.210901022E0
1.858399844E1,-3.591053486E0,-1.075290489E1,1.153430700E0
1.860399844E1,-3.900374651E0,-1.160510731E1,1.179230452E0
1.862399844E1,-4.359266758E0,-1.207287693E1,6.103777885E-1
1.864399844E1,-5.066581249E0,-1.061025906E1,-1.906933665E0
1.866399844E1,-4.868484974E0,-9.089625359E0,-3.597613811E0
1.868399844E1,-3.696838856E0,-9.076284409E0,-2.824956894E0
1.870399844E1,-3.594395638E0,-8.667057991E0,-2.633420706E0
1.872399844E1,-3.677886486E0,-7.696352959E0,-3.862814665E0
1.874400625E1,-3.820954323E0,-7.772909641E0,-6.151451111E0
1.876599844E1,-3.512676954E0,-7.781519413E0,-6.815602303E0
1.878601094E1,-3.292850733E0,-7.739324093E0,-5.784218788E0
1.880799844E1,-3.436483860E0,-8.233821869E0,-4.862154484E0
1.882799844E1,-3.158411503E0,-8.705997467E0,-3.710122108E0
1.884799844E1,-2.559133530E0,-9.187644005E0,-2.865122080E0
1.886799844E1,-2.258891106E0,-9.529124260E0,-2.090368032E0
1.888799844E1,-2.436081171E0,-9.614319801E0,-1.482192874E0
1.890799844E1,-2.835558414E0,-9.458284378E0,-1.162413716E0
1.892799844E1,-3.212625980E0,-9.053702354E0,-9.313253164E-1
1.894799844E1,-3.323400974E0,-8.758506775E0,-8.722363710E-1
1.896799844E1,-3.341788292E0,-8.702339172E0,-1.074527383E0
1.898799844E1,-3.200042009E0,-8.775553703E0,-1.494317055E0
1.900799844E1,-2.939275265E0,-8.710450172E0,-1.905995250E0
1.902799844E1,-2.713865995E0,-8.954257011E0,-2.171866417E0
1.904799844E1,-2.684512854E0,-9.266968727E0,-2.385477304E0
1.906799844E1,-2.911387682E0,-9.314220428E0,-2.503233671E0
1.908799844E1,-3.173102617E0,-9.326038361E0,-2.408212662E0
1.910799844E1,-3.354947090E0,-9.090266228E0,-2.228235483E0
1.912799844E1,-3.476217985E0,-9.051299095E0,-1.972008228E0
1.914799844E1,-3.580662489E0,-9.280701637E0,-1.953199387E0
1.916799844E1,-3.510273218E0,-9.465907097E0,-1.871049404E0
1.918799844E1,-3.149007320E0,-9.457068443E0,-1.747460842E0
1.920799844E1,-2.780894041E0,-9.669893265E0,-1.764823437E0
1.922799844E1,-2.501107693E0,-9.740436554E0,-1.693706155E0
1.924799844E1,-2.192207813E0,-9.589035988E0,-1.483447433E0
1.926799844E1,-2.004272461E0,-9.362056732E0,-1.312702537E0
1.928800156E1,-2.060766220E0,-9.233564377E0,-1.216484308E0
1.930999844E1,-2.119174957E0,-8.928476334E0,-9.865068793E-1
1.932999844E1,-2.125802040E0,-8.814617157E0,-8.288343549E-1
1.934999844E1,-2.083194733E0,-8.613983154E0,-7.286418080E-1
1.936999844E1,-2.055393219E0,-8.697272301E0,-3.431752920E-1
1.938999844E1,-2.099063635E0,-9.378767967E0,-6.421248615E-2
1.940999844E1,-2.021204233E0,-9.635540962E0,-4.785530642E-2
1.942999844E1,-1.656232119E0,-9.678867340E0,-2.641283274E-1
1.944999844E1,-1.463604212E0,-9.614319801E0,-5.715725422E-1
1.946999844E1,-1.530335426E0,-9.595146179E0,-5.840799212E-1
1.948999844E1,-1.763999820E0,-9.558218002E0,-4.878329337E-1
1.950999844E1,-1.818147182E0,-9.338353157E0,-4.606444240E-1
1.953001562E1,-1.731793046E0,-8.953653336E0,-4.285142124E-1
1.955199844E1,-1.662524104E0,-8.626997948E0,-2.143193632E-1
1.957199844E1,-1.678392768E0,-8.324821472E0,1.314321011E-1
1.959199844E1,-1.827647328E0,-8.509758949E0,3.735529184E-1
1.961199844E1,-1.969048977E0,-9.056307793E0,4.267712533E-1
1.963199844E1,-1.938594699E0,-9.577793121E0,4.468537867E-1
1.965199844E1,-1.897720814E0,-1.005414391E1,3.976673186E-1
1.967199844E1,-1.874343872E0,-1.060801888E1,2.996199727E-1
1.969200000E1,-1.895039439E0,-1.118565369E1,2.438925356E-1
1.971200000E1,-1.973770261E0,-1.161524868E1,1.380592436E-1
1.973399844E1,-2.035157681E0,-1.145138073E1,-1.389594674E-1
1.975399844E1,-1.858752847E0,-1.095220852E1,-4.897004366E-1
1.977399844E1,-1.884399533E0,-1.037799358E1,-1.391471624E0
1.979399844E1,-1.974507689E0,-9.982614517E0,-2.665254116E0
1.981399844E1,-1.693083644E0,-9.717211723E0,-2.699500799E0
1.983399844E1,-1.563413739E0,-9.687122345E0,-1.755658627E0
1.985399844E1,-1.793649793E0,-9.977605820E0,-1.233664989E0
1.987399844E1,-2.004272461E0,-9.999135017E0,-1.130225897E0
1.989399844E1,-1.867371917E0,-1.007915783E1,-6.033771634E-1
1.991399844E1,-1.731276035E0,-1.007321072E1,-1.381071359E-1
1.993399844E1,-1.686102152E0,-1.007011795E1,7.575254142E-2
1.995399844E1,-1.673700213E0,-9.983926773E0,2.244324684E-1
1.997399844E1,-1.657180190E0,-1.001491737E1,3.637271225E-1
1.999399844E1,-1.629503250E0,-1.001828766E1,2.895451784E-1
2.001399844E1,-1.500254631E0,-9.882545471E0,3.294230103E-1
2.003399844E1,-1.430717587E0,-9.772259712E0,2.351967990E-1
2.005399844E1,-1.333321333E0,-9.742993355E0,1.348222792E-1
2.007399844E1,-1.296642184E0,-9.654665947E0,2.189257927E-2
2.009399844E1,-1.163361788E0,-9.515285492E0,-2.438254841E-2
2.011399844E1,-9.895331264E-1,-9.649102211E0,-1.411525607E-1
2.013399844E1,-8.182711005E-1,-9.678195953E0,-1.474445164E-1
2.015399844E1,-6.423930526E-1,-9.479774475E0,-1.660618335E-1
2.017399844E1,-6.110385656E-1,-9.870814323E0,-1.248719841E-1
2.019399844E1,-9.183869958E-1,-1.103823757E1,-1.159655526E-1
2.021399844E1,-9.788358808E-1,-1.160683060E1,3.112462349E-3
2.023399844E1,-5.655295849E-1,-1.041167450E1,2.313181907E-1
2.025399844E1,-3.016406894E-1,-9.347040176E0,4.027047157E-1
2.027399844E1,-5.183925629E-1,-9.782545090E0,4.455130696E-1
2.029399844E1,-1.029142857E0,-1.068974686E1,4.925734997E-1
2.031399844E1,-1.133118153E0,-1.094671154E1,5.017959476E-1
2.033399844E1,-1.326981425E0,-1.021306133E1,2.979057431E-1
2.035399844E1,-1.592029214E0,-9.673388481E0,7.993760705E-2
2.037399844E1,-2.480191946E0,-9.374669075E0,-2.923990786E-1
2.039399844E1,-4.888576508E0,-8.481813431E0,-5.800585270E0
2.041399844E1,-4.692855358E0,-8.920652390E0,-4.757949352E0
2.043399844E1,-4.036279202E0,-8.100427628E0,-3.824402094E0
2.045399844E1,-3.125601530E0,-7.683156013E0,-3.544836044E0
2.047399844E1,-2.665685177E0,-8.224475861E0,-2.646607876E0
2.049399844E1,-2.893747091E0,-8.651093483E0,-9.284139276E-1
2.051399844E1,-3.165891171E0,-8.767834663E0,2.807249427E-1
2.053399844E1,-3.290313005E0,-8.870947838E0,6.259592175E-1
2.055399844E1,-3.460923910E0,-9.108300209E0,6.034537554E-1
2.057399844E1,-3.407130957E0,-9.314565659E0,3.804577887E-1
2.059399844E1,-3.156659126E0,-9.329466820E0,-2.996582724E-2
2.061399844E1,-2.758283138E0,-9.252488136E0,-3.018226326E-1
2.063399844E1,-2.161284208E0,-9.472601891E0,-1.599125624E0
2.065400000E1,-1.541482806E0,-9.930497169E0,-3.889342308E0
2.067599844E1,-1.546146750E0,-9.761658669E0,-4.542126656E0
2.069599844E1,-1.989102840E0,-9.424670219E0,-2.933356762E0
2.071599844E1,-2.688286304E0,-9.180116653E0,-1.827618599E0
2.073599844E1,-3.118945837E0,-8.850271225E0,-9.665871263E-1
2.075600000E1,-3.256248236E0,-8.642014503E0,-4.796352088E-1
2.077799844E1,-3.084354162E0,-8.842984200E0,-2.030378878E-1
2.079799844E1,-2.635364771E0,-9.034711838E0,-3.713119626E-1
2.081800781E1,-1.986344576E0,-9.298294067E0,-7.090955377E-1
2.083999844E1,-1.487843156E0,-9.520715714E0,-1.048305988E0
2.085999844E1,-1.199801564E0,-9.567143440E0,-1.477069259E0
2.087999844E1,-1.375296474E0,-9.276343346E0,-1.739339590E0
2.089999844E1,-1.526150346E0,-9.331056595E0,-1.744099379E0
2.092001719E1,-1.346489549E0,-9.515677452E0,-1.654096484E0
2.094199844E1,-8.863430023E-1,-9.430884361E0,-1.640171885E0
2.096201719E1,-5.241673589E-1,-9.532093048E0,-1.748906851E0
2.098399844E1,-2.904837132E-1,-9.554501534E0,-1.526792049E0
2.100399844E1,-3.516603634E-2,-9.780802727E0,-1.533179641E0
2.102399844E1,-5.702988431E-2,-1.013601589E1,-1.663998842E0
2.104399844E1,-6.742933989E-1,-1.094732380E1,-1.451154470E0
2.106399844E1,-2.307378531E0,-1.258057213E1,-1.106686115E0
2.108399844E1,-3.725435257E0,-1.365605736E1,-4.826327562E-1
2.110399844E1,-4.751225948E0,-1.285585785E1,2.432604730E-1
2.112399844E1,-4.903200626E0,-1.021612644E1,1.570500433E-1
2.114399844E1,-4.239000797E0,-8.095332146E0,-6.934086680E-1
2.116399844E1,-2.888690472E0,-7.711733341E0,-2.053334475E0
2.118399844E1,-2.009606600E0,-8.128563881E0,-2.274529934E0
2.120399844E1,-2.331540823E0,-9.475934982E0,-6.794074178E-1
2.122399844E1,-2.777973175E0,-1.030811977E1,4.847971201E-1
2.124399844E1,-2.665091276E0,-1.010784054E1,9.422141314E-1
2.126399844E1,-2.610398293E0,-9.543507576E0,8.425674438E-1
2.128399844E1,-2.746628284E0,-9.812568665E0,8.131187558E-1
2.130399844E1,-2.939064503E0,-1.001915073E1,8.092305660E-1
2.132399844E1,-3.008333445E0,-9.619260788E0,7.364659905E-1
2.134399844E1,-2.994811058E0,-8.800204277E0,6.489340067E-1
2.136399844E1,-3.103957891E0,-8.277300835E0,4.790701866E-1
2.138399844E1,-3.303529024E0,-8.166210175E0,5.154524446E-1
2.140399844E1,-3.321974039E0,-8.110751152E0,6.399317980E-1
2.142399844E1,-2.965151787E0,-8.437684059E0,4.704223275E-1
2.144399844E1,-2.595621109E0,-8.621367455E0,1.932695359E-1
2.146399844E1,-2.242495537E0,-8.728876114E0,1.353585869E-1
2.148399844E1,-1.819286823E0,-9.220874786E0,2.897941694E-2
2.150399844E1,-9.127367735E-1,-1.034399509E1,-3.456173837E-1
2.152399844E1,-9.975968003E-1,-1.019751740E1,-4.958008826E-1
2.154399844E1,-1.270842273E-2,-9.465428352E0,-7.676864266E-1
2.156399844E1,3.519189060E-1,-9.003118515E0,-7.364851832E-1
2.158400000E1,1.042818502E-1,-9.408858299E0,-3.720685244E-1
2.160599844E1,-5.715725422E-1,-9.664492607E0,-2.200271338E-1
2.162600000E1,-4.396137297E-1,-9.882909775E0,-7.043262124E-1
2.164801406E1,-1.685805321E-1,-1.011739826E1,-1.161034584E0
2.166999844E1,-7.591247559E-1,-1.042323303E1,-8.780399561E-1
2.168999844E1,-1.508184195E0,-1.037842369E1,-6.306040287E-1
2.170999844E1,-1.771489024E0,-1.023884201E1,-5.797895193E-1
2.172999844E1,-1.514926434E0,-1.028757858E1,-9.022213817E-1
2.174999844E1,-1.504238605E0,-1.057943153E1,-9.141827822E-1
2.176999844E1,-1.437478781E0,-1.209580326E1,-1.172890663E0
2.178999844E1,-2.019145250E0,-1.359142399E1,-1.285130858E0
2.180999844E1,-2.744875669E0,-1.187296104E1,-1.074728370E0
2.182999844E1,-2.943517923E0,-8.813611984E0,-5.664201975E-1
2.184999844E1,-3.587414265E0,-7.834498405E0,-5.135371089E-1
2.186999844E1,-4.651320934E0,-9.408417702E0,-1.388771176E0
2.188999844E1,-5.055395126E0,-1.097342110E1,-2.324233532E0
2.190999844E1,-4.207225323E0,-1.156347752E1,-2.460463524E0
2.192999844E1,-3.003286600E0,-1.147814751E1,-2.216858387E0
2.194999844E1,-2.263976336E0,-1.004465294E1,-1.701923132E0
2.196999844E1,-2.208517075E0,-8.696458817E0,-8.507460356E-1
2.199000312E1,-2.259810209E0,-8.523109436E0,-3.267510533E-1
2.201199844E1,-2.357302189E0,-8.558245659E0,-3.705936968E-1
2.203199844E1,-2.343396664E0,-7.973017216E0,-1.621257663E-1
2.205200000E1,-2.264474392E0,-7.158902168E0,3.149428666E-1
2.207399844E1,-2.139496803E0,-6.896239281E0,7.647941709E-1
2.209399844E1,-2.096899509E0,-7.553400040E0,8.088092208E-1
2.211399844E1,-1.849674106E0,-7.934192657E0,1.002902389E0
2.213399844E1,-1.133147001E0,-8.315905571E0,9.021927118E-1
2.215399844E1,-5.496034026E-1,-8.973381996E0,4.241376221E-1
2.217399844E1,-1.881267875E-1,-9.571787834E0,1.212136447E-1
2.219399844E1,8.117301017E-2,-9.818181038E0,-4.358691871E-1
2.221399844E1,3.771346509E-1,-9.800127983E0,-1.492372870E0
2.223399844E1,4.055586159E-1,-9.987412453E0,-3.901581526E0
2.225399844E1,5.379005075E-1,-1.153297424E1,-8.767173767E0
2.227399844E1,3.632099628E-1,-1.165638161E1,-6.676040173E0
2.229399844E1,-6.885723770E-2,-1.033597946E1,-3.057404995E0
2.231399844E1,-6.052924991E-1,-1.102263641E1,-1.318467736E0
2.233399844E1,-1.707678676E0,-1.305554390E1,-8.209621310E-1
2.235399844E1,-2.623776913E0,-1.361966515E1,7.374333143E-1
2.237399844E1,-1.907623291E0,-1.172592831E1,1.045251012E0
2.239399844E1,-6.241396666E-1,-8.946155548E0,9.742389321E-1
2.241399844E1,-5.283332467E-1,-7.638403893E0,2.738966644E-1
2.243399844E1,-7.266306281E-1,-8.790943146E0,4.018332362E-1
2.245399844E1,-1.425134182E0,-1.023006916E1,7.596993446E-1
2.247399844E1,-2.087159634E0,-1.054272366E1,7.918582559E-1
2.249399844E1,-2.461363792E0,-1.025875187E1,1.050441623E0
2.251399844E1,-2.204485178E0,-1.025049686E1,1.318544269E0
2.253399844E1,-1.844215155E0,-1.004732513E1,1.434672713E0
2.255399844E1,-1.689377427E0,-9.658132553E0,1.224327803E0
2.257399844E1,-1.589204073E0,-9.437119484E0,9.295823574E-1
2.259399844E1,-1.777838349E0,-9.382789612E0,7.798489332E-1
2.261399844E1,-2.124854088E0,-9.223537445E0,4.378420413E-1
2.263399844E1,-2.521582842E0,-9.275529861E0,1.388541311E-1
2.265399844E1,-2.610484362E0,-9.656715393E0,8.884403855E-2
2.267399844E1,-2.788153410E0,-9.503150940E0,2.086786181E-2
2.269399844E1,-2.520682573E0,-9.004707336E0,-1.049522236E-1
2.271399844E1,-2.265096664E0,-8.527514458E0,-5.978992581E-1
2.273399844E1,-2.026624680E0,-8.477820396E0,-9.403753877E-1
2.275399844E1,-2.090070963E0,-8.520034790E0,-1.042559981E0
2.277399844E1,-1.953103542E0,-8.521605492E0,-1.086546183E0
2.279399844E1,-1.683008909E0,-9.660690308E0,-1.508892894E0
2.281399844E1,-1.062958479E0,-1.089751530E1,-1.871595383E0
2.283399844E1,-3.513347507E-1,-1.091729164E1,-1.665751457E0
2.285399844E1,3.640144318E-2,-1.135890770E1,-1.327364683E0
2.287399844E1,-1.070562482E0,-1.178038216E1,-9.099307060E-1
2.289399844E1,-2.620693207E0,-1.051951885E1,-3.361650705E-1
2.291399844E1,-3.167672634E0,-9.330012321E0,-5.654146522E-2
2.293399844E1,-4.086988449E0,-8.328613281E0,1.540046185E-1
2.295399844E1,-4.911571026E0,-8.832573891E0,2.462580055E-1
2.297399844E1,-5.715534210E0,-1.013111210E1,6.586927921E-2
2.299399844E1,-5.817526817E0,-1.100084019E1,-1.742241502E0
2.301399844E1,-3.846495628E0,-1.117592239E1,-9.585244179E0
2.303399844E1,-3.981739521E0,-9.227770805E0,-5.706483841E0
2.305399844E1,-3.614603043E0,-9.130469322E0,-2.636006594E0
2.307399844E1,-3.098528147E0,-8.343926430E0,-1.204379320E0
2.309399844E1,-2.895470858E0,-7.388564110E0,-3.506835103E-1
2.311399844E1,-2.663242817E0,-7.059524059E0,2.064472139E-1
2.313399844E1,-2.398089886E0,-7.442079067E0,5.781326890E-1
2.315399844E1,-2.157290697E0,-8.036788940E0,5.212464333E-1
2.317399844E1,-1.422433615E0,-8.378757477E0,2.195770293E-1
2.319400000E1,-4.228447676E-1,-8.823226929E0,-1.111196876E-1
2.321599844E1,4.466431141E-1,-9.124341011E0,-6.869156361E-1
2.323599844E1,8.861228228E-1,-8.899449348E0,-9.793338776E-1
2.325599844E1,9.351559877E-1,-8.668763161E0,-1.220870495E0
2.327599844E1,9.525379539E-1,-8.651466370E0,-1.905257821E0
2.329599844E1,7.809215784E-1,-9.003692627E0,-3.274003983E0
2.331599844E1,7.649762034E-1,-9.842457771E0,-5.826174736E0
2.333599844E1,1.828767776E0,-1.266841125E1,-7.734392166E0
2.335599844E1,3.716758639E-2,-1.137411499E1,-4.092351437E0
2.337599844E1,-5.487989187E-1,-1.114466381E1,-2.998095989E0
2.339599844E1,-1.722848415E0,-1.181052017E1,-1.058897972E0
2.341599844E1,-3.290150404E0,-1.243417168E1,-5.451309681E-1
2.343599844E1,-4.619880199E0,-1.087193584E1,-6.401520967E-1
2.345599844E1,-4.716079712E0,-9.381976128E0,-3.925150037E-1
2.347599844E1,-4.148184299E0,-1.043274307E1,5.806513429E-1
2.349599844E1,-3.923703909E0,-1.274295712E1,1.407110572E0
2.351599844E1,-3.511403322E0,-1.311262131E1,1.836352706E0
2.353599844E1,-2.673835039E0,-1.129938698E1,1.357263446E0
2.355599844E1,-1.624580860E0,-9.875526428E0,9.660699368E-1
2.357599844E1,-1.387305737E0,-9.021169662E0,9.234914780E-1
2.359599844E1,-1.669668317E0,-8.530684471E0,6.659806967E-1
2.361599844E1,-1.979545116E0,-7.979998589E0,4.505408704E-1
2.363599844E1,-2.232899666E0,-7.327137947E0,3.857442141E-1
2.365599844E1,-2.503990173E0,-6.906994343E0,2.629599571E-1
2.367599844E1,-2.695995569E0,-6.678195000E0,8.451531827E-2
2.369600000E1,-2.829898357E0,-6.529639244E0,-1.922352463E-1
2.371600000E1,-2.859289885E0,-6.447805882E0,-2.348903418E-1
2.373799844E1,-2.911943197E0,-7.069091320E0,-3.854090273E-1
2.375799844E1,-2.897481918E0,-8.260263443E0,-3.437403142E-1
2.377799844E1,-2.510186434E0,-9.124006271E0,-2.808398604E-1
2.379800000E1,-1.927638769E0,-9.597196579E0,-3.392296433E-1
2.381999844E1,-1.253613591E0,-1.044511700E1,-8.561474085E-1
2.383999844E1,-8.992142677E-1,-1.168175125E1,-1.343367457E0
2.385999844E1,-2.118485421E-1,-1.269478512E1,-1.406526446E0
2.387999844E1,2.446682602E-1,-1.288115025E1,-1.195329070E0
2.389999844E1,4.737454951E-1,-1.243251419E1,-1.375775337E0
2.391999844E1,4.217625782E-2,-1.171435928E1,-1.936707973E0
2.393999844E1,-6.368863583E-1,-1.205054379E1,-1.936679363E0
2.395999844E1,-1.454458356E0,-1.287349796E1,-1.462799788E0
2.397999844E1,-2.367836714E0,-1.200712299E1,-9.452116489E-1
2.400000000E1,-2.832924843E0,-9.781300545E0,-1.595591754E-1
2.402000000E1,-3.232689381E0,-8.304059029E0,4.901314080E-1
2.404199844E1,-3.794148922E0,-9.152524948E0,9.450201392E-1
2.406201719E1,-4.184260368E0,-1.085026360E1,1.212289691E0
2.408400000E1,-3.755420208E0,-1.185910320E1,9.521070123E-1
2.410599844E1,-2.415816545E0,-1.094787025E1,-3.048776686E-1
2.412599844E1,-1.758589029E0,-1.041606998E1,-2.943814754E0
2.414599844E1,-1.954789042E0,-9.669558525E0,-3.922008753E0
2.416599844E1,-2.856665850E0,-8.182040215E0,-1.564735293E0
2.418599844E1,-3.034918785E0,-7.103414536E0,-7.357764840E-1
2.420599844E1,-3.093030691E0,-6.533670902E0,-1.415356249E-1
2.422599844E1,-3.475988388E0,-6.621969223E0,8.140285499E-3
2.424599844E1,-3.660667419E0,-6.947082520E0,3.883011937E-1
2.426599844E1,-3.510024071E0,-7.170931339E0,6.445669532E-1
2.428601094E1,-2.902576923E0,-7.486343384E0,6.646878719E-1
2.430801406E1,-2.029507399E0,-8.211585045E0,3.397946656E-1
2.432999844E1,-1.058198810E0,-8.852109909E0,-2.869211324E-2
2.434999844E1,-1.685134917E-1,-9.240671158E0,-9.364010096E-1
2.436999844E1,6.111343503E-1,-9.540893555E0,-2.850910187E0
2.438999844E1,1.115410686E0,-1.001495552E1,-5.171035290E0
2.440999844E1,1.486013889E0,-1.082826519E1,-8.935352325E0
2.442999844E1,4.397286773E-1,-1.147203827E1,-4.530452251E0
2.444999844E1,-9.769108891E-1,-1.070241737E1,-1.500388741E0
2.446999844E1,-1.226674080E0,-1.051976776E1,-4.797213972E-1
2.448999844E1,-1.264617324E0,-1.067512321E1,3.776039183E-1
2.450999844E1,-1.745995522E0,-1.215120602E1,1.525116086E0
2.452999844E1,-2.856081486E0,-1.249967670E1,1.087714553E0
2.454999844E1,-3.633478642E0,-1.042786884E1,-4.024557173E-1
2.456999844E1,-4.083492756E0,-9.283660889E0,-4.529255033E-1
2.458999844E1,-4.555390358E0,-1.047081184E1,4.558847249E-1
2.460999844E1,-4.936374664E0,-1.208657265E1,1.449009180E0
2.462999844E1,-4.888432980E0,-1.236723900E1,1.887521625E0
2.464999844E1,-4.306708813E0,-1.082328606E1,1.645123005E0
2.467000000E1,-3.346030951E0,-9.555919647E0,1.139209151E0
2.469200000E1,-2.324769735E0,-8.382655144E0,8.584649563E-1
2.471399844E1,-1.775817752E0,-7.361940384E0,5.414822102E-1
2.473399844E1,-1.460108638E0,-6.700489044E0,5.891076922E-1
2.475399844E1,-1.210661650E0,-6.682092190E0,4.028292298E-1
2.477399844E1,-1.091851711E0,-6.994200706E0,4.400447011E-1
2.479399844E1,-1.257597566E0,-7.517457962E0,4.264264703E-1
2.481399844E1,-1.610684872E0,-8.141252518E0,3.561039865E-1
2.483399844E1,-2.623786449E0,-8.613178253E0,2.305041701E-1
2.485399844E1,-3.332948923E0,-8.646439552E0,3.639186546E-2
2.487399844E1,-3.543408871E0,-8.640253067E0,1.764622331E-1
2.489399844E1,-3.856484413E0,-8.847485542E0,2.275353521E-1
2.491399844E1,-4.294269085E0,-9.813324928E0,2.795565724E-1
2.493399844E1,-3.913293839E0,-1.124937725E1,5.076282620E-1
2.495399844E1,-2.534722090E0,-1.265314579E1,-1.961042732E-1
2.497399844E1,-1.797269821E0,-1.414292240E1,-1.418708086E0
2.499399844E1,-2.054416418E0,-1.512049484E1,-2.376695395E0
2.501399844E1,-2.583171129E0,-1.332654762E1,-1.528410554E0
2.503399844E1,-2.612476349E0,-1.022066498E1,-7.251940966E-1
2.505399844E1,-3.680520058E0,-9.873783112E0,-1.046946049E0
2.507399844E1,-4.650325298E0,-9.752377510E0,-1.290924788E0
2.509399844E1,-4.010259151E0,-8.042057037E0,-1.259484172E0
2.511399844E1,-2.544816256E0,-8.013536453E0,-1.274912357E0
2.513399844E1,-2.408748865E0,-9.303101540E0,-1.445963740E0
2.515399844E1,-3.278351545E0,-1.018011761E1,-9.485826641E-2
2.517399844E1,-3.438820601E0,-1.042103100E1,7.524688840E-1
2.519399844E1,-3.717477083E0,-9.525407791E0,9.684450030E-1
2.521399844E1,-3.998833895E0,-8.835743904E0,6.681067348E-1
2.523399844E1,-4.080160141E0,-8.448926926E0,2.260317951E-1
2.525399844E1,-4.224789143E0,-8.056306839E0,-2.822668254E-1
2.527399844E1,-4.268545628E0,-7.884872437E0,-6.145436764E-1
2.529399844E1,-4.093682766E0,-8.074522018E0,-6.673884988E-1
2.531399844E1,-3.658838034E0,-8.020001411E0,-7.438497543E-1
2.533399844E1,-3.147350550E0,-8.030277252E0,-9.325990081E-1
2.535399844E1,-2.682875395E0,-7.958642483E0,-1.210881829E0
2.537399844E1,-2.379300356E0,-7.769940853E0,-1.561287761E0
2.539399844E1,-2.103229523E0,-7.494655609E0,-1.584453940E0
2.541399844E1,-1.860821366E0,-7.282011986E0,-1.132256389E0
2.543399844E1,-1.587604761E0,-7.311585426E0,-8.034079075E-1
2.545400000E1,-1.328619123E0,-7.392691612E0,-4.446319938E-1
2.547599844E1,-9.055541158E-1,-7.601226330E0,-2.782732844E-1
2.549599844E1,-3.334548473E-1,-7.987391949E0,-5.527828336E-1
2.551599844E1,4.086423218E-1,-8.328604698E0,-1.273514152E0
2.553600625E1,1.318237901E0,-8.724892616E0,-2.921988964E0
2.555800469E1,2.268544436E0,-9.202564240E0,-6.237709522E0
2.557999844E1,2.272959232E0,-1.017352867E1,-5.822008610E0
2.559999844E1,1.190588593E0,-1.011713982E1,-3.318430662E0
2.561999844E1,5.567668676E-1,-1.002836323E1,-1.977246761E0
2.563999844E1,-2.820465267E-1,-1.119097710E1,-7.834115028E-1
2.565999844E1,-2.047128677E0,-1.549926662E1,-3.265020847E-1
2.568000000E1,-4.988003254E0,-1.808842468E1,-1.022908330E0
2.570200000E1,-5.709452629E0,-1.315639687E1,-1.276741624E0
2.572399844E1,-5.284396172E0,-1.010041904E1,3.610360324E-1
2.574399844E1,-5.732197762E0,-1.143406582E1,1.432316780E0
2.576399844E1,-5.929135323E0,-1.279797554E1,2.140531301E0
2.578399844E1,-4.954675674E0,-1.233402729E1,2.262482166E0
2.580399844E1,-3.655074358E0,-1.053883457E1,1.925110579E0
2.582399844E1,-2.770550966E0,-9.295162201E0,1.567627549E0
2.584399844E1,-2.493321419E0,-8.511827469E0,1.276770234E0
2.586399844E1,-2.190713644E0,-7.831050873E0,1.125609994E0
2.588399844E1,-2.093633652E0,-7.229378223E0,8.150054216E-1
2.590399844E1,-2.009961128E0,-6.752396107E0,7.124090791E-1
2.592399844E1,-2.211016655E0,-6.651293278E0,4.331110716E-1
2.594399844E1,-2.292974949E0,-6.693096161E0,3.001179695E-1
2.596399844E1,-2.278954268E0,-6.654319763E0,1.006522402E-2
2.598399844E1,-2.121300936E0,-6.589053631E0,-1.065994352E-1
2.600399844E1,-2.029900074E0,-6.639686584E0,-1.270171851E-1
2.602399844E1,-2.039285183E0,-7.117607594E0,-2.020706190E-3
2.604399844E1,-2.290331602E0,-8.427245140E0,1.536981612E-1
2.606399844E1,-2.178426743E0,-1.036983299E1,3.690805733E-1
2.608399844E1,-1.568862915E0,-1.178828335E1,6.588651538E-1
2.610399844E1,-3.365577161E-1,-1.221593571E1,7.914081216E-1
2.612399844E1,3.707565069E-1,-1.227745724E1,-2.866232872E0
2.614399844E1,3.945548832E-1,-1.054230213E1,-5.814146519E0
2.616399844E1,-3.922947347E-1,-6.604759693E0,-2.073519516E1
2.618399844E1,-1.345091224E0,-1.152026653E1,-6.599655151E0
2.620399844E1,-4.342669964E0,-1.720889854E1,-3.263105452E-1
2.622400000E1,-9.214717865E0,-2.024554062E1,1.098478913E0
2.624400000E1,-1.024126434E1,-1.657357407E1,9.683396816E-1
2.626599844E1,-7.154094696E0,-1.188269138E1,6.725408435E-1
2.628601094E1,-5.932832241E0,-9.556493759E0,5.410225391E-1
2.630799844E1,-4.828329086E0,-7.869817257E0,9.933543205E-1
2.632800000E1,-4.106630325E0,-7.456041813E0,1.277833343E0
2.634999844E1,-3.523757219E0,-7.505400658E0,1.510731697E0
2.636999844E1,-2.626477480E0,-7.413492203E0,1.110947847E0
2.638999844E1,-1.886717200E0,-6.953814983E0,8.460534215E-1
2.640999844E1,-1.481417060E0,-6.322646141E0,5.642846227E-1
2.642999844E1,-9.976733923E-1,-6.143990517E0,3.238588870E-1
2.644999844E1,-5.921722651E-1,-6.176848412E0,2.820273638E-1
2.646999844E1,-1.946677566E-1,-6.350409031E0,2.805908620E-1
2.648999844E1,-1.120486390E-2,-6.852128506E0,3.349775374E-1
2.650999844E1,3.610647619E-1,-7.594168663E0,4.051372409E-1
2.653000000E1,8.020958900E-1,-8.442108154E0,3.587854803E-1
2.655199844E1,1.088279486E0,-9.488566399E0,-5.809482336E-1
2.657199844E1,1.119816065E0,-1.043087578E1,-1.839436412E0
2.659199844E1,1.236059308E0,-1.192847729E1,-4.793019295E0
2.661199844E1,7.678970695E-1,-1.346473122E1,-8.632926941E0
2.663199844E1,1.991784275E-1,-1.143477440E1,-4.173083782E0
2.665199844E1,7.152342796E-1,-1.064011002E1,-1.377422452E0
2.667199844E1,1.361256838E0,-1.148920918E1,-1.154321313E0
2.669199844E1,8.656475544E-1,-1.107425594E1,-1.714918762E-1
2.671199844E1,1.008907080E0,-1.235429096E1,6.848661900E-1
2.673199844E1,-1.212615296E-1,-1.290992737E1,1.461803764E-1
2.675199844E1,-1.804548144E0,-1.258173180E1,1.111867279E-2
2.677199844E1,-2.964146137E0,-1.346106339E1,1.896150231E0
2.679199844E1,-3.901696444E0,-1.271986675E1,1.502112508E0
2.681199844E1,-4.285554409E0,-1.051970100E1,1.738994837E0
2.683199844E1,-3.967556238E0,-9.719951630E0,1.845134616E0
2.685199844E1,-3.459985256E0,-9.712395668E0,1.783881307E0
2.687199844E1,-2.403567791E0,-9.150399208E0,1.734972715E0
2.689199844E1,-1.734436274E0,-8.586363792E0,1.311361670E0
2.691199844E1,-1.425287485E0,-8.022011757E0,1.071242452E0
2.693199844E1,-1.453730583E0,-7.752549648E0,8.308550119E-1
2.695199844E1,-1.721641779E0,-7.819328785E0,6.999879479E-1
2.697199844E1,-2.144132137E0,-7.553132057E0,5.077143908E-1
2.699200000E1,-2.577157021E0,-7.383507252E0,3.835798204E-1
2.701399844E1,-2.920696259E0,-7.135199547E0,2.081327289E-1
2.703399844E1,-3.034516573E0,-7.346626759E0,2.129594535E-1
2.705399844E1,-2.842242956E0,-7.849217892E0,-1.168370480E-3
2.707399844E1,-2.644309521E0,-7.929069519E0,-4.735156298E-1
2.709400000E1,-2.511038780E0,-8.326678276E0,-7.092391253E-1
2.711600000E1,-2.696282864E0,-9.100983620E0,-5.876041055E-1
2.713800625E1,-2.721441269E0,-9.851469994E0,-3.651349247E-1
2.715999844E1,-2.152148008E0,-1.027004337E1,-1.652094871E-1
2.717999844E1,-1.242427826E0,-1.122942829E1,-4.456471205E-1
2.720000000E1,-2.893057466E-1,-1.225073719E1,-1.215804338E0
2.722199844E1,-5.615839362E-2,-1.235916615E1,-2.438389063E0
2.724199844E1,1.284824312E-1,-1.180723572E1,-2.842913389E0
2.726201719E1,3.483754992E-1,-1.210258389E1,-3.212683678E0
2.728399844E1,-1.283483654E-1,-1.382563400E1,-3.749118567E0
2.730399844E1,-1.427557111E0,-1.299870491E1,-3.980705023E0
2.732399844E1,-2.529186726E0,-1.083664513E1,-2.616479397E0
2.734399844E1,-3.512466192E0,-1.046926975E1,-7.561655045E-1
2.736399844E1,-4.355818748E0,-1.121062851E1,1.574331224E-1
2.738399844E1,-5.107071877E0,-1.217508125E1,9.994451404E-1
2.740399844E1,-4.710045815E0,-1.180383587E1,1.212404490E0
2.742399844E1,-3.313326120E0,-1.034650421E1,1.021107793E0
2.744399844E1,-2.753868103E0,-8.814090729E0,5.939727426E-1
2.746399844E1,-2.644941568E0,-8.005137444E0,3.301412761E-1
2.748399844E1,-2.612313509E0,-7.585817337E0,-1.287122816E-2
2.750399844E1,-2.302638054E0,-7.289214134E0,-2.234460562E-1
2.752399844E1,-1.998842359E0,-7.232356548E0,-4.963658750E-2
2.754399844E1,-1.755102992E0,-7.136090279E0,2.554421723E-1
2.756399844E1,-1.768089175E0,-7.213930607E0,5.384750962E-1
2.758399844E1,-1.937617779E0,-7.557919979E0,6.887064576E-1
2.760399844E1,-1.901647329E0,-7.761791229E0,5.649454594E-1
2.762399844E1,-1.768376589E0,-7.612527370E0,6.443083882E-1
2.764399844E1,-1.480047584E0,-7.785350323E0,7.614614964E-1
2.766399844E1,-1.222172976E0,-8.323499680E0,6.811599731E-1
2.768399844E1,-7.697933316E-1,-9.049574852E0,4.962318242E-1
2.770399844E1,-2.166082114E-1,-9.478653908E0,-7.191223651E-2
2.772399844E1,3.835223615E-1,-9.745033264E0,-1.276578784E0
2.774399844E1,1.220554471E0,-1.054020500E1,-6.701571941E0
2.776399844E1,2.060708523E0,-1.249758911E1,-1.046609974E1
2.778399844E1,6.359861493E-1,-1.226338863E1,-6.448312759E0
2.780399844E1,6.037218869E-2,-9.997142792E0,-2.855698586E0
2.782399844E1,2.143097818E-1,-1.081478119E1,-3.751417160E0
2.784399844E1,-1.160546184E0,-1.337769794E1,-1.903859615E0
2.786399844E1,-3.008553982E0,-1.437689400E1,4.861378670E-1
2.788399844E1,-3.197648048E0,-1.288383102E1,9.156768322E-1
2.790399844E1,-2.930110455E0,-9.553286552E0,5.108460188E-1
2.792399844E1,-2.628689766E0,-9.166689873E0,1.271292329E0
2.794399844E1,-3.162845612E0,-1.168247890E1,5.460503697E-1
2.796399844E1,-3.189536333E0,-1.285305214E1,1.439298391E0
2.798399844E1,-2.524676085E0,-1.181580639E1,1.725376725E0
2.800399844E1,-1.947845936E0,-1.018618870E1,1.620223403E0
2.802399844E1,-1.741915822E0,-9.026609421E0,1.626304507E0
2.804399844E1,-1.799146891E0,-8.508447647E0,1.454199791E0
2.806399844E1,-1.956752300E0,-8.169830322E0,1.289440393E0
2.808399844E1,-2.119816542E0,-7.873322964E0,9.729365110E-1
2.810399844E1,-2.435698032E0,-7.793988228E0,6.633183360E-1
2.812399844E1,-2.618701220E0,-7.707078934E0,3.705554008E-1
2.814399844E1,-2.840883017E0,-7.286341190E0,1.926662028E-1
2.816399844E1,-2.755994320E0,-7.019483566E0,3.370078281E-2
2.818399844E1,-2.473823309E0,-7.059562683E0,-1.121444106E-1
2.820399844E1,-2.301718473E0,-7.242671013E0,-2.150567770E-1
2.822399844E1,-2.295330763E0,-7.837218285E0,-1.906167567E-1
2.824399844E1,-2.163027048E0,-7.909120560E0,-1.778796017E-1
2.826399844E1,-1.874276876E0,-7.857664585E0,-3.226426244E-2
2.828399844E1,-1.462186933E0,-8.671013832E0,2.405598164E-1
2.830399844E1,-1.070744514E0,-1.018399525E1,4.036815464E-1
2.832399844E1,-5.012117624E-1,-1.220634842E1,-1.445427388E-1
2.834399844E1,1.426944276E-3,-1.314564228E1,-1.030368686E0
2.836399844E1,1.201410443E-1,-1.285526371E1,-2.220650911E0
2.838399844E1,7.029376179E-2,-1.200586796E1,-2.907614231E0
2.840399844E1,2.582864761E-1,-1.180332851E1,-3.352619886E0
2.842399844E1,1.238185316E-1,-1.241536236E1,-4.574208260E0
2.844399844E1,-9.783474207E-1,-1.300100422E1,-5.865027905E0
2.846399844E1,-3.144400835E0,-1.232466125E1,-2.669420004E0
2.848399844E1,-4.508300781E0,-1.195697880E1,-3.429167271E-1
2.850399844E1,-5.380144596E0,-1.256219387E1,8.230882287E-1
2.852399844E1,-5.669641972E0,-1.295452690E1,1.178157926E0
2.854399844E1,-5.068007946E0,-1.179006481E1,1.130379319E0
2.856399844E1,-4.016637325E0,-1.032405663E1,1.055909991E0
2.858399844E1,-3.473421574E0,-8.518014908E0,7.798681259E-1
2.860399844E1,-2.996850967E0,-6.869357586E0,7.824634314E-1
2.862399844E1,-2.505857706E0,-6.427732468E0,7.100723386E-1
2.864399844E1,-2.283599138E0,-6.432990074E0,5.804311037E-1
2.866399844E1,-2.105192900E0,-6.475262165E0,4.494778514E-1
2.868399844E1,-2.029085875E0,-6.721568108E0,2.747969031E-1
2.870399844E1,-1.961578965E0,-7.127864361E0,3.158526719E-1
2.872399844E1,-1.674753666E0,-7.334837914E0,3.846428692E-1
2.874399844E1,-1.366179347E0,-7.535960674E0,6.072461605E-1
2.876399844E1,-1.053793430E0,-7.744888306E0,6.754522324E-1
2.878399844E1,-8.157427907E-1,-8.067559242E0,6.786412597E-1
2.880400000E1,-4.921233952E-1,-8.574747086E0,4.127412140E-1
2.882600000E1,-4.783615097E-2,-9.111268997E0,-2.232640982E-1
2.884799844E1,3.360022604E-1,-9.884490013E0,-2.211543322E0
2.886799844E1,2.252665997E0,-1.164533997E1,-9.564347267E0
2.888799844E1,1.605704784E0,-1.302977276E1,-7.928216934E0
2.890799844E1,4.000902772E-1,-1.148333836E1,-5.515522480E0
2.892799844E1,-3.385401145E-2,-1.005377960E1,-3.598303318E0
2.894799844E1,-5.843480229E-1,-1.195312881E1,-4.433448792E0
2.896799844E1,-2.959578037E0,-1.395773602E1,-1.578181148E0
2.898800469E1,-4.042054176E0,-1.354157639E1,-2.514869571E-1
2.900999844E1,-3.110853195E0,-9.497242928E0,-5.507909060E-1
2.902999844E1,-2.040290833E0,-8.506828308E0,5.820112824E-1
2.904999844E1,-3.171637297E0,-1.162079430E1,1.616201043E0
2.906999844E1,-3.866913557E0,-1.436117840E1,1.462004900E0
2.908999844E1,-2.980493784E0,-1.381732082E1,1.440639019E0
2.910999844E1,-1.955583930E0,-1.151879215E1,1.456526995E0
2.913004063E1,-1.227622151E0,-9.889383316E0,1.456680179E0
2.915199844E1,-5.606071353E-1,-9.053070068E0,1.379548550E0
2.917199844E1,-6.675034016E-2,-8.436726570E0,1.376522303E0
2.919199844E1,-1.025292948E-1,-7.647893906E0,1.060573816E0
2.921199844E1,-4.643602073E-1,-7.054649353E0,4.770398736E-1
2.923199844E1,-1.065438986E0,-7.016236782E0,5.051765591E-2
2.925199844E1,-1.618892193E0,-6.889755726E0,-2.737434506E-1
2.927199844E1,-1.951370120E0,-6.770716190E0,-4.131913185E-1
2.929199844E1,-2.106753826E0,-6.349958897E0,-2.820656896E-1
2.931199844E1,-2.463106871E0,-6.136770248E0,-1.573277861E-1
2.933199844E1,-2.590047359E0,-6.173047066E0,7.096414268E-2
2.935199844E1,-2.890050650E0,-6.483412266E0,8.828858286E-2
2.937199844E1,-3.317635775E0,-7.189050198E0,3.638516366E-1
2.939199844E1,-3.693171024E0,-8.570140839E0,3.117825389E-1
2.941199844E1,-3.189440727E0,-1.063975620E1,1.543781254E-2
2.943199844E1,-2.697652340E0,-1.248475552E1,-4.343560934E-1
2.945199844E1,-2.523957729E0,-1.329210949E1,-3.516028821E-1
2.947199844E1,-1.682970524E0,-1.227350235E1,-2.808398604E-1
2.949199844E1,-6.096212268E-1,-1.221040058E1,-3.026366532E-1
2.951199844E1,9.746412039E-1,-1.494955826E1,-3.683623075E-1
2.953200313E1,1.709546208E0,-1.612538910E1,-4.314523697E0
2.955399844E1,3.508348227E0,-1.153571415E1,-1.466350842E1
2.957399844E1,-1.378849506E0,-1.099740124E1,-9.500010490E0
2.959399844E1,-4.336617470E0,-1.359905529E1,-1.343731284E0
2.961399844E1,-4.303711414E0,-1.513152695E1,1.104119658E0
2.963399844E1,-5.009963036E0,-1.288100624E1,4.628087878E-1
2.965399844E1,-4.999485970E0,-1.062329292E1,5.801629424E-1
2.967399844E1,-4.335937500E0,-9.776750565E0,6.516729593E-1
2.969399844E1,-3.767362595E0,-8.442759514E0,4.574840665E-1
2.971399844E1,-3.096928596E0,-7.006602764E0,6.112588644E-1
2.973399844E1,-2.609325409E0,-6.035466194E0,6.871358752E-1
2.975399844E1,-2.174394846E0,-5.955203056E0,8.344941735E-1
2.977399844E1,-1.720530748E0,-6.452412128E0,9.242193103E-1
2.979399844E1,-1.463977814E0,-6.678405285E0,9.113864303E-1
2.981399844E1,-1.166091204E0,-6.424265862E0,9.550949931E-1
2.983399844E1,-9.809427261E-1,-6.315080643E0,8.935256600E-1
2.985399844E1,-1.084017992E0,-6.423078060E0,7.710286975E-1
2.987399844E1,-8.586948514E-1,-6.722621441E0,7.445201278E-1
2.989399844E1,-4.779784381E-1,-7.338391304E0,7.155119777E-1
2.991400000E1,-2.533065341E-2,-8.184961319E0,5.663052797E-1
2.993599844E1,5.132018924E-1,-9.474545479E0,1.871308126E-2
2.995599844E1,2.715178013E0,-1.202797127E1,-8.137795448E0
2.997599844E1,1.878203392E0,-1.362603378E1,-1.079170132E1
2.999599844E1,2.229806185E0,-1.196789646E1,-9.083189011E0
3.001599844E1,3.252906084E0,-1.064040756E1,-8.061142921E0
3.003599844E1,-9.624690749E-3,-1.042617416E1,-4.218966484E0
3.005599844E1,-4.026731014E0,-1.303478146E1,-4.743440628E0
3.007599844E1,-3.649654150E0,-1.417283058E1,-1.960975766E0
3.009599844E1,-3.859797955E0,-1.328187180E1,-4.200387746E-2
3.011599844E1,-4.178877831E0,-1.314430141E1,2.372443199E0
3.013599844E1,-4.844772339E0,-1.303412056E1,2.620348454E0
3.015599844E1,-4.255952358E0,-1.367989349E1,2.163276196E0
3.017599844E1,-2.951878309E0,-1.327895164E1,2.521736145E0
3.019599844E1,-2.031987667E0,-1.163843441E1,2.287286043E0
3.021599844E1,-1.497956157E0,-1.009253693E1,2.084660053E0
3.023599844E1,-1.067785263E0,-8.499118805E0,1.675807118E0
3.025600000E1,-8.504587412E-1,-7.052590370E0,1.389163733E0
3.027799844E1,-8.290929198E-1,-6.011955738E0,1.116502404E0
3.029800469E1,-1.068302393E0,-5.602652550E0,1.003237605E0
3.031999844E1,-1.425775886E0,-5.803947449E0,6.615849733E-1
3.033999844E1,-1.807593465E0,-6.064943790E0,3.212348223E-1
3.035999844E1,-1.875780344E0,-6.213068485E0,-2.002606094E-1
3.037999844E1,-1.852863193E0,-6.279100418E0,-6.659519672E-1
3.039999844E1,-2.032351732E0,-6.459718704E0,-7.022289634E-1
3.041999844E1,-2.194917917E0,-7.324562073E0,-6.651379466E-1
3.043999844E1,-2.503339052E0,-8.744017601E0,-5.428996086E-1
3.045999844E1,-2.857517958E0,-1.037514877E1,-3.623768091E-1
3.048000000E1,-3.377270460E0,-1.212838364E1,-3.997359052E-2
3.050200000E1,-3.363757610E0,-1.274695969E1,5.760257840E-1
3.052399844E1,-2.048316240E0,-1.162985325E1,-3.603273630E-1
3.054399844E1,-8.842648864E-1,-1.210042953E1,-1.382297158E0
3.056399844E1,-1.887492836E-1,-1.397413158E1,-4.704146385E0
3.058399844E1,3.876499832E-1,-1.459530258E1,-7.260521889E0
3.060399844E1,1.148010135E0,-1.278903961E1,-2.083057976E1
3.062399844E1,-3.138300419E0,-1.178879070E1,-9.220741272E0
3.064399844E1,-5.474390030E0,-1.193313217E1,-1.701817751E0
3.066399844E1,-8.105005264E0,-1.134757710E1,1.962000430E-1
3.068399844E1,-9.907599449E0,-1.195823383E1,1.373180032E0
3.070399844E1,-9.266173363E0,-1.194273758E1,1.403749108E0
3.072399844E1,-7.417189121E0,-1.105274582E1,1.746512651E0
3.074399844E1,-5.359755993E0,-9.669146538E0,1.189822555E0
3.076399844E1,-4.438782692E0,-9.036913872E0,9.584755301E-1
3.078399844E1,-3.945203781E0,-7.899084568E0,1.004472971E0
3.080399844E1,-3.145320415E0,-6.806035519E0,1.336654067E0
3.082399844E1,-2.052319288E0,-6.416077614E0,1.362999916E0
3.084399844E1,-1.120179892E0,-6.659730434E0,1.111426711E0
3.086399844E1,-3.396893442E-1,-6.886700630E0,9.199193120E-1
3.088399844E1,1.221809015E-1,-7.084701061E0,8.253483772E-1
3.090399844E1,5.052052736E-1,-7.363233566E0,5.937141180E-1
3.092399844E1,4.430039227E-1,-7.884479523E0,5.872210860E-1
3.094399844E1,4.926979542E-1,-8.536086082E0,5.642750263E-1
3.096399844E1,8.463119864E-1,-8.916303635E0,3.944399357E-1
3.098399844E1,1.266436934E0,-8.963278770E0,1.644146144E-1
3.100399844E1,1.727138758E0,-9.124695778E0,-2.040817402E-2
3.102399844E1,2.129134655E0,-9.845934868E0,-1.436224103E0
3.104399844E1,3.071578741E0,-1.167087078E1,-5.031319141E0
3.106399844E1,2.625088930E0,-1.241408920E1,-6.961064816E0
3.108399844E1,6.264189482E-1,-1.068246841E1,-3.415798187E0
3.110399844E1,-1.198135138E0,-1.136455727E1,-3.893833876E0
3.112399844E1,-3.467895746E0,-1.106189156E1,-1.510463476E0
3.114399844E1,-4.911561012E0,-1.185261059E1,-5.084518194E-1
3.116399844E1,-5.867316723E0,-1.273440456E1,8.818324208E-1
3.118399844E1,-6.198923111E0,-1.259665108E1,1.697824240E0
3.120399844E1,-5.878493309E0,-1.121650028E1,2.226272345E0
3.122399844E1,-5.076531410E0,-1.100444031E1,2.201200247E0
3.124399844E1,-4.707498550E0,-1.143086720E1,1.978156447E0
3.126399844E1,-4.011245728E0,-1.105317688E1,1.588763595E0
3.128399844E1,-3.245474339E0,-9.949995995E0,1.309369802E0
3.130399844E1,-2.669668913E0,-8.855960846E0,9.941012859E-1
3.132399844E1,-2.359275103E0,-8.076284409E0,7.871656418E-1
3.134399844E1,-2.214923859E0,-7.700116634E0,6.997964382E-1
3.136399844E1,-2.250061274E0,-7.544157982E0,7.219571471E-1
3.138399844E1,-2.339365005E0,-7.382683754E0,6.850864291E-1
3.140399844E1,-2.329912663E0,-7.224225998E0,4.947474003E-1
3.142399844E1,-2.425249815E0,-7.083963871E0,2.536896057E-2
3.144399844E1,-2.583793640E0,-7.071140766E0,-4.145512283E-1
3.146399844E1,-2.352935314E0,-7.545700073E0,-7.189500332E-1
3.148399844E1,-1.819363356E0,-8.458820343E0,-1.141574621E0
3.150399844E1,-1.203900337E0,-9.748930931E0,-1.386855721E0
3.152399844E1,-5.993548632E-1,-1.074294662E1,-1.534281015E0
3.154399844E1,-2.249017358E-1,-1.117628670E1,-1.589242339E0
3.156399844E1,-3.356383443E-1,-1.144737720E1,-1.169471860E0
3.158399844E1,-5.010872483E-1,-1.142440224E1,-7.843979597E-1
3.160399844E1,-6.744657755E-1,-1.111730289E1,-4.177211523E-1
3.162399844E1,-7.999027967E-1,-1.082216549E1,-4.639962688E-2
3.164399844E1,-1.390083075E0,-1.182731819E1,3.757172823E-1
3.166399844E1,-2.539386034E0,-1.411956501E1,9.128707647E-1
3.168399844E1,-2.818329811E0,-1.387687016E1,1.042349219E0
3.170399844E1,-2.458778143E0,-1.071847725E1,1.003745079E0
3.172400000E1,-2.050892353E0,-8.817749023E0,9.398391247E-1
3.174599844E1,-1.994973421E0,-9.546573639E0,1.056293130E0
3.176599844E1,-2.955220699E0,-1.119689655E1,8.034653068E-1
3.178601094E1,-3.595410824E0,-1.227775383E1,4.893556833E-1
3.180799844E1,-3.250080824E0,-1.205191326E1,-5.891460180E-1
3.182799844E1,-2.626946688E0,-1.047841549E1,-2.482777596E0
3.184799844E1,-2.439002037E0,-8.712117195E0,-3.626075983E0
3.186800000E1,-3.005795717E0,-7.248081684E0,-2.477242231E0
3.188999844E1,-3.342267275E0,-6.614518642E0,-1.573517203E0
3.190999844E1,-3.659068108E0,-6.511060238E0,-1.270267725E0
3.192999844E1,-3.932591200E0,-6.261076450E0,-1.124355435E0
3.194999844E1,-3.696063280E0,-6.148185730E0,-8.189606071E-1
3.196999844E1,-3.008027077E0,-6.407678604E0,-3.811281621E-1
3.198999844E1,-2.327556610E0,-7.167838097E0,3.850834072E-2
3.200999844E1,-1.637969136E0,-7.728176594E0,-3.865199164E-2
3.203000000E1,-9.701496363E-1,-7.743958950E0,-1.208018437E-1
3.205199844E1,-3.079134822E-1,-7.903077602E0,-2.309159636E-1
3.207199844E1,1.321790963E-1,-8.526489258E0,-9.566942453E-1
3.209199844E1,7.492510080E-1,-9.450795174E0,-2.410673857E0
3.211199844E1,2.105824947E0,-1.136760235E1,-6.072662830E0
3.213199844E1,1.807574391E0,-1.084943104E1,-4.149189949E0
3.215200469E1,9.535722136E-1,-1.034107399E1,-1.947338223E0
3.217399844E1,-6.267924309E-1,-1.132800293E1,-7.043550014E-1
3.219399844E1,-3.092274427E0,-1.333881664E1,7.053988576E-1
3.221399844E1,-4.453119755E0,-1.470129871E1,1.031422138E0
3.223399844E1,-4.207799911E0,-1.473113060E1,7.650048733E-1
3.225399844E1,-3.699166059E0,-1.222194004E1,7.517505884E-1
3.227399844E1,-4.153805733E0,-1.234563351E1,1.343166232E0
3.229399844E1,-4.961389065E0,-1.266951180E1,9.758765697E-1
3.231399844E1,-4.774085999E0,-1.131849289E1,1.000220776E0
3.233399844E1,-3.720809698E0,-9.409988403E0,1.347897172E0
3.235399844E1,-2.925168753E0,-8.357411385E0,1.202023268E0
3.237399844E1,-2.395973444E0,-8.078017235E0,8.307784200E-1
3.239399844E1,-2.243500948E0,-7.931550026E0,6.062884927E-1
3.241399844E1,-2.133990288E0,-7.915729046E0,5.269255042E-1
3.243399844E1,-2.045826197E0,-7.959102154E0,3.236003220E-1
3.245399844E1,-2.082237244E0,-7.740798950E0,1.961904615E-1
3.247399844E1,-1.989323020E0,-7.293399334E0,3.042551689E-2
3.249399844E1,-1.904711962E0,-6.700441360E0,-2.260126323E-1
3.251399844E1,-1.876067758E0,-6.361566544E0,-3.348051906E-1
3.253399844E1,-1.962364435E0,-6.171351433E0,-3.530010879E-1
3.255399844E1,-2.003084898E0,-6.682303429E0,-2.588993907E-1
3.257399844E1,-2.116924286E0,-7.979778290E0,-1.845163405E-1
3.259399844E1,-1.690948009E0,-9.438162804E0,-1.075379625E-1
3.261399844E1,-9.896576405E-1,-1.050945377E1,-6.092285514E-1
3.263399844E1,-6.719566584E-1,-1.124227047E1,-1.025139689E0
3.265400000E1,-1.219778657E0,-1.311735249E1,-1.110641479E0
3.267599844E1,-2.458749294E0,-1.578744221E1,-7.109916806E-1
3.269600000E1,-2.841323614E0,-1.283840847E1,-1.617522538E-2
3.271800000E1,-3.406240225E0,-1.023322964E1,-3.043030500E-1
3.273800469E1,-4.520358086E0,-1.233644009E1,-1.022668839E0
3.275999844E1,-5.450946331E0,-1.390068722E1,-3.731286526E0
3.277999844E1,-4.002223969E0,-1.335849571E1,-7.963315964E0
3.279999844E1,-2.909769058E0,-1.089596367E1,-4.592797279E0
3.281999844E1,-3.074681759E0,-9.747484207E0,-2.087274551E0
3.283999844E1,-3.290878057E0,-8.444330215E0,-5.717066526E-1
3.285999844E1,-3.163506508E0,-6.741325378E0,-3.913083300E-2
3.287999844E1,-2.774496555E0,-5.841593742E0,1.500877291E-1
3.289999844E1,-2.362531185E0,-5.411154270E0,3.193482161E-1
3.291999844E1,-2.125878572E0,-5.384617329E0,4.596867263E-1
3.293999844E1,-1.798696637E0,-5.600315571E0,6.673119068E-1
3.295999844E1,-1.352810144E0,-5.893049717E0,5.263221264E-1
3.297999844E1,-9.919752479E-1,-6.662096024E0,2.836554348E-1
3.299999844E1,-5.335717797E-1,-7.649627209E0,-1.040998939E-2
3.301999844E1,2.348233014E-2,-8.134281158E0,-4.662564099E-1
3.303999844E1,6.793308258E-1,-8.414383888E0,-1.103525877E0
3.305999844E1,1.423889160E0,-8.821349144E0,-2.480804682E0
3.307999844E1,1.945173979E0,-9.512595177E0,-4.870639801E0
3.310000000E1,3.477779150E0,-1.232690144E1,-1.274640465E1
3.312204219E1,4.253347218E-1,-1.047211361E1,-3.986843824E0
3.314399844E1,-4.592749476E-1,-1.088593769E1,-8.668350577E-1
3.316399844E1,-1.925560713E0,-1.337641430E1,-5.498811007E-1
3.318399844E1,-3.750430584E0,-1.462505722E1,-3.572819233E-1
3.320399844E1,-3.877131939E0,-1.347249889E1,-1.470997483E-1
3.322399844E1,-3.659939528E0,-1.202792358E1,1.233224630E0
3.324399844E1,-3.831010103E0,-1.289278603E1,9.107639194E-1
3.326399844E1,-4.248587608E0,-1.440695477E1,1.380333900E0
3.328399844E1,-4.087151527E0,-1.398620796E1,1.811625361E0
3.330400000E1,-3.081586599E0,-1.186136341E1,1.819564581E0
3.332400000E1,-2.353385210E0,-1.000499535E1,1.388761520E0
3.334599844E1,-1.985090137E0,-8.802052498E0,1.144591212E0
3.336599844E1,-2.039859772E0,-7.951230049E0,9.158492088E-1
3.338599844E1,-2.044973850E0,-7.108384609E0,7.181168795E-1
3.340599844E1,-2.011703968E0,-6.594541550E0,6.262178421E-1
3.342599844E1,-2.007289171E0,-6.220002174E0,3.422080278E-1
3.344601562E1,-2.154695272E0,-5.979681492E0,2.901197672E-1
3.346799844E1,-2.173743725E0,-5.531755447E0,-9.335471690E-2
3.348799844E1,-2.067766666E0,-5.410742760E0,-3.227384090E-1
3.350799844E1,-2.014213085E0,-5.553781509E0,-4.119175971E-1
3.352799844E1,-1.940979362E0,-5.988760471E0,-3.737731874E-1
3.354799844E1,-2.076519728E0,-7.224963188E0,-4.661702216E-1
3.356799844E1,-2.442871094E0,-9.468062401E0,-5.034144521E-1
3.358799844E1,-2.208497763E0,-1.166250134E1,-2.249879092E-1
3.360799844E1,-1.355165958E0,-1.314453125E1,-2.319406867E-1
3.362799844E1,2.396212816E-1,-1.311715126E1,-8.573157340E-2
3.364799844E1,9.743826389E-1,-1.279290962E1,-2.145175934E0
3.366799844E1,9.562824965E-1,-1.322066689E1,-3.796188831E0
3.368799844E1,-4.352658987E-2,-1.476794338E1,-3.861224890E0
3.370799844E1,-7.146404982E-1,-1.343556023E1,-4.199285984E0
3.372799844E1,-2.689320564E0,-1.083918381E1,-5.391895294E0
3.374799844E1,-5.180094719E0,-1.274875069E1,-1.463719130E0
3.376799844E1,-6.180603027E0,-1.440165043E1,5.766770244E-1
3.378799844E1,-5.852779388E0,-1.285153770E1,4.278055429E-1
3.380799844E1,-4.087658882E0,-1.076629353E1,2.847663462E-1
3.382800312E1,-2.972171545E0,-1.008718395E1,3.905038834E-1
3.384999844E1,-2.985291719E0,-8.795501709E0,7.112599015E-1
3.386999844E1,-2.883327723E0,-7.296444893E0,8.822154403E-1
3.388999844E1,-2.417166948E0,-6.242469311E0,1.061790109E0
3.390999844E1,-1.982408524E0,-6.075325012E0,7.681077719E-1
3.392999844E1,-1.633582950E0,-6.632618427E0,1.998775303E-1
3.394999844E1,-1.197790384E0,-6.836499691E0,-1.003553644E-1
3.396999844E1,-9.040314555E-1,-6.612191200E0,-2.628450394E-1
3.398999844E1,-7.233266830E-1,-6.568233967E0,-2.791256011E-1
3.400999844E1,-8.239597082E-1,-6.832065582E0,-1.557476074E-1
3.402999844E1,-7.480443716E-1,-7.163576126E0,5.599559098E-2
3.404999844E1,-5.495554805E-1,-7.320875168E0,-6.818686426E-2
3.406999844E1,-1.692604870E-1,-7.895320892E0,-6.333621144E-1
3.408999844E1,3.446788490E-1,-8.930506706E0,-1.691292882E0
3.410999844E1,1.159894943E0,-1.022816372E1,-5.000491142E0
3.412999844E1,3.014941692E0,-1.362932777E1,-1.262287331E1
3.414999844E1,2.461718172E-1,-1.122653580E1,-3.864337444E0
3.416999844E1,8.124962449E-2,-1.129944420E1,-1.864862919E0
3.418999844E1,-1.182323813E0,-1.415137005E1,-9.358742833E-1
3.420999844E1,-3.279252052E0,-1.629395103E1,-6.181254387E-1
3.422999844E1,-3.526141882E0,-1.309415722E1,1.461420804E-1
3.424999844E1,-3.052904129E0,-9.884039879E0,-2.586695552E-2
3.426999844E1,-2.545783520E0,-1.147759151E1,1.444776297E0
3.428999844E1,-3.081213236E0,-1.362216473E1,1.288961530E0
3.430999844E1,-2.789091825E0,-1.330365944E1,9.751487970E-1
3.433000938E1,-2.113017082E0,-1.169056129E1,1.332641363E0
3.435199844E1,-1.829620242E0,-9.959008217E0,1.465098262E0
3.437199844E1,-1.957212090E0,-8.795521736E0,1.431569815E0
3.439199844E1,-2.122737646E0,-7.930754662E0,1.294669271E0
3.441199844E1,-2.169003248E0,-7.369764805E0,1.254935145E0
3.443199844E1,-2.261725903E0,-7.355926037E0,1.084353209E0
3.445199844E1,-2.453568459E0,-7.433546543E0,5.767248273E-1
3.447199844E1,-2.742778301E0,-7.264486790E0,2.273916900E-1
3.449200000E1,-2.540937424E0,-6.551234722E0,9.419747442E-2
3.451399844E1,-2.326675653E0,-6.060002327E0,-1.369483396E-2
3.453399844E1,-2.484156847E0,-5.933052063E0,-1.614266485E-1
3.455399844E1,-2.399047613E0,-6.157494068E0,-2.627875805E-1
3.457399844E1,-2.264531851E0,-6.404269218E0,-2.280716598E-1
3.459399844E1,-2.309667349E0,-7.346052170E0,-5.155195296E-2
3.461399844E1,-2.356852055E0,-8.990284920E0,1.229949296E-1
3.463399844E1,-2.220133543E0,-1.112597942E1,1.469752491E-1
3.465399844E1,-1.878557682E0,-1.271977139E1,7.453628629E-2
3.467399844E1,-8.602941036E-1,-1.271319103E1,1.245751008E-1
3.469399844E1,4.041029215E-1,-1.191297245E1,6.355168670E-2
3.471399844E1,1.084151983E0,-1.417409611E1,-2.317300081E0
3.473399844E1,4.269915223E-1,-1.725698471E1,-3.361641169E0
3.475399844E1,1.302445773E-3,-1.315669346E1,-3.120650291E0
3.477399844E1,-8.124101162E-1,-1.003953934E1,-1.076045227E1
3.479399844E1,-4.165384293E0,-1.275291634E1,-4.854569435E0
3.481399844E1,-4.911973000E0,-1.432808113E1,-2.036795169E-1
3.483399844E1,-5.066016197E0,-1.347356129E1,7.930266261E-1
3.485399844E1,-4.440085411E0,-1.127944851E1,-3.817123771E-1
3.487399844E1,-3.786152363E0,-9.798988342E0,-4.070525765E-1
3.489399844E1,-3.505398750E0,-8.473893166E0,-2.475413084E-1
3.491399844E1,-3.340246677E0,-7.005051136E0,1.430774927E-1
3.493399844E1,-2.731362820E0,-5.984900951E0,6.331130862E-1
3.495399844E1,-2.572110176E0,-5.423575878E0,7.841393352E-1
3.497399844E1,-2.390064478E0,-5.452258110E0,8.571721315E-1
3.499399844E1,-2.330391407E0,-5.897751808E0,7.860929966E-1
3.501399844E1,-2.302858114E0,-6.455974579E0,7.542214394E-1
3.503399844E1,-1.928472042E0,-6.623989582E0,7.779048681E-1
3.505399844E1,-1.684608102E0,-6.932295799E0,7.877689600E-1
3.507399844E1,-1.289651155E0,-7.751917362E0,6.791009307E-1
3.509399844E1,-7.687781453E-1,-8.592359543E0,6.062501669E-1
3.511399844E1,-2.150280476E-1,-8.909007072E0,4.852567911E-1
3.513399844E1,5.699157715E-2,-8.965691566E0,3.493618965E-1
3.515400000E1,5.221083164E-1,-9.604004860E0,7.873092592E-2
3.517599844E1,3.570032358E0,-1.218108463E1,-6.721453190E0
3.519599844E1,5.330316544E0,-1.395682621E1,-1.094529438E1
3.521600000E1,4.101727009E0,-1.171911907E1,-8.084577560E0
3.523600000E1,1.553329349E0,-1.095104027E1,-1.725616097E0
3.525800312E1,-1.105431676E0,-1.257161808E1,-6.667181253E-1
3.527999844E1,-3.017814636E0,-1.329617977E1,7.994718105E-2
3.529999844E1,-4.225382805E0,-1.511123371E1,1.434825897E0
3.531999844E1,-5.627264500E0,-1.552300739E1,1.901532412E0
3.533999844E1,-6.806399345E0,-1.428802109E1,2.406910181E0
3.535999844E1,-6.580846786E0,-1.342779350E1,2.061819553E0
3.538003594E1,-5.616615295E0,-1.166983700E1,1.784072876E0
3.540199844E1,-4.307121277E0,-9.207859993E0,1.496270776E0
3.542199844E1,-3.418144226E0,-7.701352119E0,1.320249081E0
3.544199844E1,-2.395236015E0,-6.832190037E0,1.023875594E0
3.546201719E1,-1.827915549E0,-6.005174637E0,8.099009991E-1
3.548400000E1,-1.490294814E0,-5.571498871E0,5.407831669E-1
3.550599844E1,-1.372911811E0,-5.584724426E0,4.183627963E-1
3.552599844E1,-1.392822027E0,-5.549156189E0,2.302264422E-2
3.554599844E1,-1.669620514E0,-5.728204250E0,-1.409322768E-1
3.556599844E1,-1.934505343E0,-6.035208225E0,-1.993986964E-1
3.558599844E1,-2.278935194E0,-6.780963421E0,-2.352925688E-1
3.560599844E1,-2.338043213E0,-7.859560966E0,-3.714747727E-1
3.562599844E1,-2.373305082E0,-9.254538536E0,-6.421344876E-1
3.564599844E1,-2.076931715E0,-1.049689865E1,-6.199066639E-1
3.566599844E1,-1.800832272E0,-1.175230312E1,-2.990357876E-1
3.568599844E1,-1.169261098E0,-1.289627171E1,-1.035444364E-1
3.570599844E1,4.117931128E-1,-1.296726418E1,1.916031837E-1
3.572599844E1,1.696377993E0,-1.263176060E1,-9.198331237E-1
3.574599844E1,2.149370670E0,-1.286225510E1,-2.778222084E0
3.576599844E1,2.140560150E0,-1.285525417E1,-3.941172123E0
3.578601094E1,1.507542610E0,-1.334935093E1,-4.669833183E0
3.580799844E1,-6.714969277E-1,-1.090348148E1,-5.396157265E0
3.582799844E1,-2.498904943E0,-1.006511784E1,-1.842108369E0
3.584799844E1,-4.214781284E0,-1.222417068E1,-7.751754522E-1
3.586799844E1,-6.135659218E0,-1.508347034E1,1.412962079E-1
3.588799844E1,-7.551302910E0,-1.470080090E1,1.213649511E0
3.590799844E1,-6.458339691E0,-1.146700954E1,9.858939648E-1
3.592799844E1,-4.508780003E0,-9.013393402E0,2.930790186E-1
3.594799844E1,-3.300454855E0,-7.798297882E0,-1.862688959E-1
3.596799844E1,-2.598302603E0,-6.715026855E0,-2.793075442E-1
3.598799844E1,-2.296125650E0,-5.977478981E0,-2.150088996E-1
3.600800000E1,-2.003956318E0,-5.765582561E0,-7.769662887E-2
3.602999844E1,-1.672972441E0,-5.875217915E0,1.135521978E-1
3.604999844E1,-1.721861959E0,-6.208643913E0,3.059406877E-1
3.606999844E1,-1.504909039E0,-6.475625992E0,2.384720594E-1
3.608999844E1,-1.329911947E0,-6.484618664E0,2.948698699E-1
3.610999844E1,-1.248202682E0,-6.470626831E0,3.175669312E-1
3.612999844E1,-1.073674917E0,-6.965556145E0,2.957892418E-1
3.614999844E1,-7.803756595E-1,-7.698354721E0,2.938355803E-1
3.616999844E1,-2.401192784E-1,-8.327177048E0,3.351978064E-1
3.618999844E1,1.640315354E-1,-9.217245102E0,1.476839483E-1
3.620999844E1,6.071887016E-1,-1.015148258E1,-3.616010845E-1
3.622999844E1,2.254906893E0,-1.186443710E1,-5.592912674E0
3.624999844E1,3.180897951E0,-1.455059719E1,-1.200075436E1
3.626999844E1,1.049167991E0,-1.184017944E1,-6.402401924E0
3.629000000E1,1.369828105E0,-1.136203766E1,-4.791831970E0
3.631199844E1,3.238109946E-1,-1.256599617E1,-3.031212568E0
3.633200000E1,-1.524436116E0,-1.419675350E1,-1.904577851E0
3.635399844E1,-3.019270182E0,-1.376557732E1,-1.028865099E0
3.637399844E1,-2.685528040E0,-1.114177132E1,-2.378399968E-1
3.639399844E1,-2.413872480E0,-1.025982380E1,1.070485830E0
3.641399844E1,-3.202666283E0,-1.232742882E1,1.745535851E0
3.643399844E1,-3.763503075E0,-1.376307774E1,1.915782690E0
3.645399844E1,-3.280717134E0,-1.358043861E1,1.804481030E0
3.647399844E1,-2.869948626E0,-1.166799831E1,1.479980588E0
3.649399844E1,-2.646215439E0,-9.816763878E0,1.794655323E0
3.651399844E1,-2.485037565E0,-8.550250053E0,1.645304918E0
3.653399844E1,-2.297178984E0,-7.974415302E0,1.457561255E0
3.655399844E1,-2.073848009E0,-7.235593796E0,1.183913589E0
3.657399844E1,-1.808120251E0,-6.310627460E0,8.870230317E-1
3.659399844E1,-1.768328667E0,-5.782274723E0,5.796458125E-1
3.661399844E1,-1.975944161E0,-5.821290493E0,3.351403475E-1
3.663399844E1,-2.328284502E0,-5.928819180E0,-3.217807040E-3
3.665400000E1,-2.427682161E0,-6.253166676E0,-2.507782578E-1
3.667599844E1,-2.448875666E0,-6.487070084E0,-3.198078871E-1
3.669599844E1,-2.574494600E0,-6.548083782E0,-3.345753253E-1
3.671599844E1,-2.492402315E0,-6.993242741E0,-2.931364775E-1
3.673599844E1,-2.189554930E0,-8.159765244E0,-2.603933811E-1
3.675599844E1,-2.216446638E0,-9.930066109E0,9.405381978E-2
3.677599844E1,-1.811874390E0,-1.165712929E1,3.163698018E-1
3.679599844E1,-1.260556817E0,-1.324161148E1,3.696551621E-1
3.681599844E1,-3.936450779E-1,-1.383985519E1,-8.128793538E-2
3.683599844E1,7.762959599E-1,-1.334084702E1,-4.773367941E-1
3.685599844E1,2.661020994E0,-1.280840397E1,-6.800490618E-1
3.687599844E1,3.625913143E0,-1.351750946E1,-2.944954395E0
3.689599844E1,3.578517675E0,-1.470897007E1,-4.469552994E0
3.691599844E1,2.371418476E0,-1.317911339E1,-4.213018894E0
3.693599844E1,4.820964634E-1,-9.657501221E0,-3.860640526E0
3.695599844E1,-2.094792366E0,-7.786126137E0,-4.719785690E0
3.697599844E1,-3.774305582E0,-1.086687851E1,-3.033999443E0
3.699599844E1,-5.138732433E0,-1.368586063E1,-3.276417255E-1
3.701599844E1,-6.691946983E0,-1.309310341E1,8.351742029E-1
3.703599844E1,-5.726279259E0,-1.123016644E1,5.061342716E-1
3.705599844E1,-4.262550354E0,-1.023197556E1,-4.850844145E-1
3.707599844E1,-3.569218397E0,-9.392922401E0,-4.094468057E-1
3.709599844E1,-3.487959146E0,-8.027231216E0,5.617754906E-2
3.711599844E1,-3.189249039E0,-7.036931992E0,2.685240805E-1
3.713599844E1,-2.755984545E0,-6.475625992E0,5.869145989E-1
3.715599844E1,-2.383083105E0,-6.386111736E0,6.672640443E-1
3.717599844E1,-2.311055899E0,-6.824183464E0,5.361862779E-1
3.719599844E1,-2.163343191E0,-7.251232624E0,5.365118384E-1
3.721599844E1,-1.865830064E0,-7.031732082E0,6.260071397E-1
3.723599844E1,-1.355405569E0,-7.087517262E0,6.152715683E-1
3.725599844E1,-8.293802142E-1,-7.588316917E0,4.398435950E-1
3.727599844E1,-2.794895470E-1,-7.979424477E0,4.424197376E-1
3.729599844E1,3.444394171E-1,-8.384992599E0,3.545046747E-1
3.731599844E1,1.073809028E0,-8.704953194E0,2.583630979E-1
3.733599844E1,1.414111376E0,-9.197536469E0,-3.045807481E-1
3.735599844E1,1.737357259E0,-1.053053188E1,-4.216831207E0
3.737599844E1,2.860084772E0,-1.324379539E1,-8.738175392E0
3.739599844E1,1.343242884E0,-1.133078003E1,-5.212081432E0
3.741599844E1,1.558232665E0,-1.212794304E1,-6.257428169E0
3.743599844E1,-8.090390563E-1,-1.418978214E1,-4.557870388E0
3.745599844E1,-3.302686214E0,-1.366554832E1,-4.312656403E0
3.747599844E1,-3.085848093E0,-1.076819992E1,-1.375794411E0
3.749599844E1,-2.243252039E0,-1.021189213E1,5.999677777E-1
3.751599844E1,-2.158957005E0,-1.161221409E1,1.554986119E0
3.753599844E1,-4.037811756E0,-1.258957386E1,2.262664318E0
3.755599844E1,-6.513109684E0,-1.262670422E1,2.590028286E0
3.757599844E1,-7.195715904E0,-1.089487171E1,2.815016031E0
3.759599844E1,-6.016217232E0,-8.703995705E0,2.781267643E0
3.761600000E1,-5.038310051E0,-6.062980652E0,2.262252331E0
3.763799844E1,-3.171771526E0,-6.058039188E0,2.101668358E0
3.765800156E1,-1.965390682E0,-7.324648380E0,1.588629365E0
3.767999844E1,-1.162969112E0,-8.467065811E0,1.543513060E0
3.769999844E1,-7.987440228E-1,-8.510199547E0,1.304878116E0
3.771999844E1,-5.256134868E-1,-7.992822170E0,8.739315271E-1
3.774000000E1,-3.655754328E-1,-7.953720093E0,3.445543647E-1
3.776201719E1,-6.427665353E-1,-8.299155235E0,5.124549568E-2
3.778399844E1,-6.735463738E-1,-8.692867279E0,-1.753609180E-1
3.780399844E1,-3.118016720E-1,-8.942592621E0,-4.032697380E-1
3.782399844E1,-5.703946203E-2,-9.433279037E0,-4.611902833E-1
3.784399844E1,-8.993579447E-2,-9.873362541E0,-7.296569347E-1
3.786399844E1,1.189152077E-1,-1.046302509E1,-1.373467326E0
3.788399844E1,4.542279243E-1,-1.133588409E1,-1.757976055E0
3.790399844E1,5.964818001E-1,-1.197211933E1,-1.665397048E0
3.792399844E1,3.627215624E-1,-1.184704590E1,-1.136240244E0
3.794399844E1,1.588888019E-1,-1.118717575E1,-4.095425606E-1
3.796399844E1,-3.840203881E-1,-1.196495628E1,5.462514758E-1
3.798399844E1,-1.554105043E0,-1.368064022E1,1.573086262E0
3.800399844E1,-2.123647213E0,-1.138212109E1,1.430391788E0
3.802399844E1,-2.174040556E0,-9.481201172E0,1.467923284E0
3.804399844E1,-2.661844730E0,-1.186118126E1,8.437932730E-1
3.806399844E1,-3.664201260E0,-1.461985779E1,3.370269835E-1
3.808399844E1,-4.395055294E0,-1.444826984E1,-3.945644200E-2
3.810399844E1,-4.676354885E0,-1.278452969E1,-8.893789053E-1
3.812399844E1,-4.923187733E0,-1.089310074E1,-2.464284658E0
3.814399844E1,-4.542174339E0,-9.097544670E0,-4.634188175E0
3.816399844E1,-4.350044250E0,-7.551867485E0,-4.732474804E0
3.818399844E1,-4.024183750E0,-5.952109814E0,-2.306803703E0
3.820399844E1,-3.570721865E0,-4.752720356E0,-1.236949921E0
3.822399844E1,-3.405043125E0,-3.990166903E0,-6.558580399E-1
3.824399844E1,-3.449134827E0,-4.206622124E0,-1.301105022E-1
3.826399844E1,-3.360865593E0,-5.297525406E0,9.494446218E-2
3.828399844E1,-2.920313120E0,-6.217732430E0,2.479914129E-1
3.830399844E1,-2.316811562E0,-6.621327400E0,3.219818175E-1
3.832399844E1,-1.628947735E0,-6.916705132E0,2.763866484E-1
3.834399844E1,-1.157950759E0,-7.406922817E0,3.271437064E-2
3.836399844E1,-7.563091516E-1,-8.553323746E0,-2.814719379E-1
3.838399844E1,1.438915282E-1,-1.051791000E1,-1.426676035E0
3.840399844E1,1.969240427E0,-1.340699291E1,-7.934470654E0
3.842399844E1,2.684790850E0,-1.506890392E1,-8.842217445E0
3.844399844E1,2.260643482E0,-1.289051533E1,-3.553521872E0
3.846399844E1,1.425354481E0,-1.135660839E1,-1.702545524E0
3.848399844E1,-3.924671412E-1,-1.277206039E1,-1.545141101E0
3.850399844E1,-3.026491165E0,-1.345100784E1,-1.095969677E0
3.852399844E1,-3.880359411E0,-1.211005402E1,-2.039285302E-1
3.854399844E1,-3.639550447E0,-9.353427887E0,3.595899343E-1
3.856399844E1,-3.603091478E0,-8.633030891E0,8.834795356E-1
3.858399844E1,-4.046947956E0,-1.168186569E1,1.179106116E0
3.860399844E1,-4.379234314E0,-1.275838470E1,1.024861932E0
3.862399844E1,-4.801638603E0,-1.159012032E1,1.197924495E0
3.864399844E1,-4.567236900E0,-9.915318489E0,1.918876052E0
3.866399844E1,-3.395696402E0,-8.280518532E0,1.795067191E0
3.868399844E1,-3.038423777E0,-7.239386082E0,1.166416764E0
3.870399844E1,-2.350397348E0,-6.874490738E0,8.074684739E-1
3.872399844E1,-1.980512381E0,-7.029692173E0,6.281810999E-1
3.874399844E1,-1.536866784E0,-7.706322193E0,6.230861545E-1
3.876399844E1,-1.248422980E0,-7.928935051E0,2.426475585E-1
3.878399844E1,-1.287314296E0,-7.411979198E0,-4.655285552E-2
3.880399844E1,-1.531350613E0,-6.881960392E0,-1.130063273E-2
3.882399844E1,-1.587288737E0,-7.029337883E0,2.587653138E-2
3.884399844E1,-1.380831957E0,-7.662163734E0,-1.596645266E-1
3.886399844E1,-1.003975034E0,-8.337472916E0,-3.912029862E-1
3.888399844E1,-1.462407112E0,-8.782515526E0,-2.272193134E-1
3.890399844E1,-8.873198628E-1,-9.132050514E0,3.159292936E-1
3.892399844E1,3.638516366E-1,-1.002274132E1,-8.089528978E-2
3.894399844E1,1.457312226E0,-1.144313431E1,-6.830753088E-1
3.896399844E1,1.545715809E0,-1.314945412E1,-6.767067313E-1
3.898399844E1,1.503233075E0,-1.370283985E1,-5.417311788E-1
3.900399844E1,2.044178963E0,-1.250610256E1,-6.351912618E-1
3.902399844E1,2.220277309E0,-1.187590122E1,-6.439923644E-1
3.904399844E1,1.735777140E0,-1.327893257E1,-2.699414790E-1
3.906399844E1,-4.528488815E-1,-1.285892200E1,1.012938842E-1
3.908399844E1,-2.230735064E0,-9.953778267E0,2.420250475E-1
3.910399844E1,-2.770416975E0,-9.609108925E0,1.260020435E-1
3.912399844E1,-4.125190258E0,-1.271030998E1,2.124901861E-1
3.914399844E1,-5.471076488E0,-1.443651009E1,-2.071463317E-2
3.916399844E1,-6.186233997E0,-1.301550293E1,-4.256507456E-1
3.918399844E1,-4.620407104E0,-1.136812878E1,-1.612897038E0
3.920399844E1,-4.073916435E0,-1.002731895E1,-2.918014765E0
3.922399844E1,-3.797203779E0,-8.917501450E0,-3.980082512E0
3.924399844E1,-3.471209526E0,-7.140227318E0,-2.237802982E0
3.926399844E1,-3.052894592E0,-5.677092552E0,-1.198700190E0
3.928399844E1,-2.763071537E0,-4.746725082E0,-8.311806917E-1
3.930399844E1,-2.499517918E0,-4.840213776E0,-6.022853851E-1
3.932399844E1,-2.384959936E0,-5.504403591E0,6.488286704E-2
3.934399844E1,-2.333293200E0,-6.226897240E0,3.735050261E-1
3.936399844E1,-2.109761000E0,-6.907683372E0,5.863782763E-1
3.938399844E1,-1.867783785E0,-7.256920815E0,5.966446400E-1
3.940399844E1,-1.625500083E0,-7.247306347E0,5.782284737E-1
3.942399844E1,-1.238453507E0,-7.517266750E0,6.195236444E-1
3.944399844E1,-7.480731010E-1,-8.347001076E0,5.001966357E-1
3.946399844E1,-1.079210341E-1,-9.466463089E0,5.641313791E-1
3.948399844E1,1.073483348E0,-1.116893196E1,-2.109493017E0
3.950399844E1,5.389606476E0,-1.591826153E1,-1.887882614E1
3.952399844E1,2.575126648E0,-1.315781403E1,-7.706063747E0
3.954399844E1,2.445083141E0,-1.109573650E1,-6.578203201E0
3.956399844E1,1.128416061E0,-1.005513000E1,-3.170009375E0
3.958399844E1,-6.757299304E-1,-1.139047146E1,-1.290014982E0
3.960399844E1,-1.851206303E0,-1.347761250E1,-1.624657393E0
3.962399844E1,-2.640632153E0,-1.201762772E1,2.447831929E-1
3.964399844E1,-3.577378035E0,-1.066076756E1,2.156716108E0
3.966400000E1,-3.976424217E0,-1.186876678E1,2.018656731E0
3.968600000E1,-4.195781231E0,-1.341787243E1,2.174653292E0
3.970799844E1,-3.415568113E0,-1.418957138E1,2.610436440E0
3.972800000E1,-2.553598166E0,-1.312921810E1,2.253269434E0
3.974999844E1,-2.116445541E0,-1.074771500E1,1.935233235E0
3.976999844E1,-1.894349813E0,-9.113643646E0,1.506699800E0
3.978999844E1,-1.564869404E0,-7.795233250E0,1.264291763E0
3.980999844E1,-1.382383347E0,-6.767708778E0,9.825899601E-1
3.982999844E1,-1.498128653E0,-5.889171600E0,7.344357371E-1
3.984999844E1,-1.777369142E0,-5.481773853E0,4.779113829E-1
3.986999844E1,-1.972956300E0,-5.379397869E0,1.876000613E-1
3.988999844E1,-2.408107281E0,-5.632158279E0,1.241154224E-2
3.990999844E1,-2.845709801E0,-6.054141045E0,-1.348701566E-1
3.993000625E1,-2.945260763E0,-6.347497940E0,-3.503004313E-1
3.995199844E1,-2.696014643E0,-6.453341007E0,-6.417226791E-1
3.997199844E1,-2.897778988E0,-6.687589169E0,-7.736240029E-1
3.999200000E1,-3.186787844E0,-8.048004150E0,-4.554442167E-1
4.001399844E1,-3.454631805E0,-1.040732574E1,-1.228704397E-2
4.003399844E1,-3.141202211E0,-1.263146400E1,3.709671795E-1
4.005399844E1,-2.366247177E0,-1.359995651E1,-1.080742627E-1
4.007399844E1,-1.081020355E0,-1.295816708E1,-6.668618321E-1
4.009399844E1,1.940452605E-1,-1.290456581E1,-1.074738026E0
4.011399844E1,1.433485270E0,-1.509790325E1,-2.467856884E0
4.013399844E1,1.460386515E0,-1.713699532E1,-5.738958836E0
4.015399844E1,2.379041433E0,-1.414910984E1,-1.106412315E1
4.017399844E1,-1.396681547E0,-9.707425117E0,-9.037862778E0
4.019399844E1,-3.606366873E0,-1.093688583E1,-1.325583220E0
4.021399844E1,-5.381207466E0,-1.402752209E1,7.414268255E-1
4.023399844E1,-7.058279037E0,-1.478132248E1,1.639865398E0
4.025399844E1,-6.758611202E0,-1.263721848E1,1.186403513E0
4.027399844E1,-4.923676014E0,-1.062996769E1,9.023171663E-1
4.029399844E1,-4.282814980E0,-9.221736908E0,2.927438319E-1
4.031399844E1,-3.739302397E0,-7.726950645E0,3.844130337E-1
4.033399844E1,-3.014625549E0,-6.307917118E0,4.548504353E-1
4.035399844E1,-2.262491941E0,-5.401941299E0,6.453523040E-1
4.037399844E1,-1.847011685E0,-5.290237904E0,8.614721298E-1
4.039399844E1,-1.240483761E0,-5.552287579E0,9.898874760E-1
4.041399844E1,-8.441380858E-1,-6.106717587E0,8.326650262E-1
4.043399844E1,-7.558494806E-1,-6.469765186E0,5.956487060E-1
4.045399844E1,-6.415311098E-1,-6.525549889E0,4.295868278E-1
4.047399844E1,-6.146969199E-1,-7.045723438E0,3.804673851E-1
4.049399844E1,-5.915976763E-1,-8.118700027E0,3.711874783E-1
4.051400000E1,-4.915296137E-1,-8.646697044E0,1.894388050E-1
4.053599844E1,6.104256958E-2,-8.967349052E0,-2.190407217E-1
4.055599844E1,8.399721384E-1,-9.861055374E0,-2.553148031E0
4.057599844E1,4.250665665E0,-1.433057976E1,-1.997768784E1
4.059599844E1,1.182093978E0,-1.243189240E1,-7.987746716E0
4.061599844E1,7.225700468E-2,-1.119981766E1,-3.774851561E0
4.063599844E1,-2.416697502E0,-1.343611622E1,-1.682271481E0
4.065599844E1,-4.717659473E0,-1.463151264E1,-1.204838872E0
4.067599844E1,-5.453847885E0,-1.227737999E1,5.166400075E-1
4.069599844E1,-4.745240688E0,-1.160502148E1,1.721890688E0
4.071599844E1,-4.439644814E0,-1.345922565E1,1.888335586E0
4.073599844E1,-4.132832527E0,-1.381495571E1,2.105116129E0
4.075599844E1,-2.731515884E0,-1.167083263E1,1.724342465E0
4.077599844E1,-1.724409461E0,-9.196664810E0,1.348155856E0
4.079599844E1,-1.251506686E0,-7.916217327E0,1.056599498E0
4.081599844E1,-1.188318968E0,-7.017156124E0,9.654091597E-1
4.083599844E1,-1.164865375E0,-6.396646023E0,9.936416149E-1
4.085599844E1,-1.468976855E0,-6.644177914E0,8.421077728E-1
4.087599844E1,-2.065094709E0,-7.334445477E0,4.574936628E-1
4.089599844E1,-2.584952593E0,-7.862586975E0,2.175850421E-2
