"Time (s)","Gyroscope x (rad/s)","Gyroscope y (rad/s)","Gyroscope z (rad/s)"
1.528494380E-1,-1.093675613E0,-2.194734097E0,-1.093274236E0
1.728494380E-1,-5.482777357E-1,-1.934627652E0,-1.055505276E0
1.928494380E-1,-2.391101094E-3,-1.252675176E0,-6.479011178E-1
2.128494380E-1,1.258207858E-1,-6.656162143E-1,-4.079706967E-1
2.328510000E-1,-9.356710315E-2,-1.763480604E-1,-3.932750523E-1
2.548494380E-1,-4.443608224E-2,-1.605877429E-1,-1.163436472E-1
2.748510000E-1,8.571311831E-2,5.042780042E-1,5.970596671E-1
2.968494380E-1,1.010371074E-1,2.013917923E0,8.499928117E-1
3.168494380E-1,4.710294604E-1,1.728591561E0,9.109222293E-1
3.368494380E-1,9.188984036E-1,1.549014568E0,1.164797783E0
3.568541250E-1,9.118298292E-1,1.195986867E0,9.985203147E-1
3.788494380E-1,3.745650947E-1,8.900830150E-1,2.451314926E-1
3.988541250E-1,-2.557081878E-1,2.268404365E-1,-3.072652221E-1
4.208494380E-1,-6.239552051E-2,-3.898018301E-1,-6.113015413E-1
4.408494380E-1,4.561243355E-1,-6.911503617E-3,-8.073369265E-1
4.608494380E-1,2.586228848E-1,-3.019768596E-1,-6.891083717E-1
4.808494380E-1,-1.438674927E-1,-4.187044799E-1,-3.070557714E-1
5.008510000E-1,-3.019244969E-1,-2.038370073E-1,-2.017600648E-2
5.208510000E-1,-2.696010172E-1,-2.058092207E-1,-6.120869517E-2
5.408541250E-1,-2.305405438E-1,-1.441467404E-1,-1.199739352E-1
5.628681880E-1,-2.368935347E-1,-2.786243558E-1,-1.308298856E-1
5.848494380E-1,-3.691022396E-1,-5.512098670E-1,-2.479414791E-1
6.048494380E-1,-1.824916303E-1,-7.884350419E-1,-2.698279023E-1
6.248494380E-1,1.087863743E-1,-8.582656384E-1,-1.710771769E-1
6.448494380E-1,1.564513147E-1,-9.407499433E-1,-6.424556673E-2
6.648494380E-1,-4.715355933E-1,-5.698674321E-1,-2.254616320E-1
6.848494380E-1,-1.026812077E0,5.011189580E-1,-7.162830979E-2
7.048494380E-1,-1.164710522E0,4.203101993E-1,2.929011583E-1
7.248494380E-1,-1.027196050E0,-1.963024139E0,1.349052191E0
7.448494380E-1,1.162738353E-1,-4.085571289E0,1.483268023E0
7.648494380E-1,1.350815058E0,-6.423754215E0,1.616872996E-1
7.848494380E-1,1.610956311E0,-7.965717793E0,-1.342158169E-1
8.048494380E-1,1.783010960E0,-8.860931396E0,8.219279051E-1
8.248494380E-1,2.705539465E0,-1.071302319E1,2.098217249E0
8.448494380E-1,3.177040339E0,-1.227427197E1,3.133110285E0
8.648494380E-1,2.861310244E0,-1.275383663E1,4.285882950E0
8.848494380E-1,3.278356552E0,-1.150480938E1,5.396907330E0
9.048494380E-1,4.512007713E0,-1.006527901E1,6.533290863E0
9.248494380E-1,5.418095589E0,-8.421754837E0,7.411627769E0
9.448494380E-1,5.105437279E0,-5.590394497E0,7.761636257E0
9.648494380E-1,4.984608173E0,-2.766556263E0,7.608920097E0
9.848494380E-1,5.977141857E0,-1.551632643E0,7.390125275E0
1.004849438E0,7.095112324E0,-1.665323377E0,7.029435635E0
1.024849438E0,7.615656853E0,-1.108318925E0,5.827776432E0
1.044849438E0,7.500273228E0,-3.234094977E-1,4.442281723E0
1.064849438E0,7.518337250E0,2.001892589E-2,3.154089212E0
1.084849438E0,7.404297352E0,-7.539822254E-3,1.472586632E0
1.104849438E0,6.626439095E0,3.683517277E-1,-4.288623035E-1
1.124849438E0,4.588173866E0,1.727073073E0,-2.329892397E0
1.144849438E0,2.990813732E0,2.668817759E0,-4.092605114E0
1.164849438E0,2.018752575E0,2.964529037E0,-5.327111244E0
1.184849438E0,1.347638488E0,2.850436926E0,-5.775835514E0
1.204849438E0,5.687155128E-1,2.323347330E0,-6.203947544E0
1.224849438E0,-4.374842346E-1,1.469253063E0,-6.362667561E0
1.244849438E0,-1.329469681E0,8.796284795E-1,-6.239168167E0
1.264849438E0,-1.981105804E0,6.510776281E-1,-5.838510513E0
1.284849438E0,-2.249345541E0,5.859419107E-1,-5.494593143E0
1.304851000E0,-2.107380390E0,6.685658097E-1,-4.746370316E0
1.326849438E0,-1.875059605E0,5.405110121E-1,-4.115887642E0
1.346849438E0,-1.937908888E0,-3.282964230E-1,-3.814155340E0
1.366849438E0,-3.215158224E0,-5.262866020E-1,-4.411895752E0
1.386849438E0,-3.248022795E0,-2.036101073E-1,-4.018777847E0
1.406849438E0,-3.995215654E0,8.855276704E-1,-3.881193399E0
1.426849438E0,-4.292550087E0,3.106651068E0,-3.252455950E0
1.446849438E0,-4.311591625E0,2.929168701E0,-3.755826473E0
1.466849438E0,-4.164617538E0,1.324024200E0,-4.625157356E0
1.486851000E0,-4.054085732E0,-1.146803498E0,-4.874372959E0
1.506851000E0,-3.542809010E0,-3.542582035E0,-4.443311691E0
1.528849438E0,-2.516921759E0,-4.915929317E0,-2.828759909E0
1.548849438E0,-1.563849926E0,-3.920725107E0,-1.909041107E-1
1.568854125E0,-1.115055919E0,-2.557937145E0,2.383892775E0
1.590849438E0,-1.084181070E0,-1.884571671E0,4.755708218E0
1.610851000E0,-1.446336865E0,-3.194825172E0,5.412196159E0
1.632849438E0,-1.537652493E0,-4.583915234E0,5.231484890E0
1.652849438E0,-1.180139303E0,-3.500746489E0,5.989760399E0
1.672851000E0,-1.112211108E0,-3.213884115E0,6.807168007E0
1.692851000E0,-9.389173388E-1,-3.009244442E0,7.992351532E0
1.714851000E0,-5.815436840E-1,-2.373281240E0,8.571276665E0
1.736849438E0,-3.911806345E-1,-1.357569456E0,8.860809326E0
1.756849438E0,-5.084318519E-1,-8.793492317E-1,8.480310440E0
1.776849438E0,-4.169591665E-1,-7.201054096E-1,7.300817013E0
1.796849438E0,-1.315891027E0,-7.780677825E-2,2.827346087E0
1.816851000E0,-1.246409416E0,-1.119977832E0,-1.138164163E0
1.838851000E0,-1.459775925E0,-1.796397567E0,1.854063272E-1
1.858855688E0,-1.754212976E0,-2.247268438E0,9.464571476E-1
1.880849438E0,-1.209635377E0,-3.964044094E0,1.118162632E0
1.900849438E0,-2.575233281E-1,-4.213207245E0,2.530552745E-1
1.920849438E0,6.270269752E-1,-4.095798969E0,-5.251695514E-1
1.940849438E0,1.415200233E0,-4.456593513E0,-1.031925917E0
1.960849438E0,-7.418347597E-1,8.734500408E-1,-1.436458349E0
1.980849438E0,-1.011715055E0,1.942533970E0,-2.715732455E-1
2.000849438E0,9.135925770E-1,1.016130671E-1,2.383945286E-1
2.020849438E0,1.379420996E0,1.162581205E0,6.124360487E-2
2.040849438E0,1.165059686E0,2.513082027E0,-3.825761750E-2
2.060849438E0,6.462430358E-1,2.998458147E0,-3.969227672E-1
2.080849438E0,6.341479421E-1,2.866685867E0,-5.375962853E-1
2.100851000E0,4.416206479E-1,3.197251081E0,-3.522074521E-1
2.120866625E0,8.225736767E-2,3.369340658E0,-3.683691919E-1
2.142849438E0,-2.120051384E-1,3.121154785E0,-3.535862565E-1
2.162868188E0,-3.006329536E-1,2.816856623E0,-2.880665958E-1
2.184893188E0,-3.255562782E-1,2.610035181E0,-2.247285992E-1
2.206849438E0,-4.147251248E-1,2.084551334E0,-2.610663474E-1
2.226849438E0,-4.252145588E-1,1.790184259E0,-2.030690610E-1
2.246849438E0,-4.800702631E-1,1.908255696E0,-4.738568887E-2
2.266849438E0,-6.716201305E-1,1.843346953E0,-5.654866807E-3
2.286861938E0,-9.382889867E-1,1.966584682E0,-9.978047013E-2
2.308849438E0,-1.115108252E0,1.817358971E0,-2.150071114E-1
2.328849438E0,-1.075332284E0,1.273549318E0,-3.123964965E-1
2.348851000E0,-9.452528954E-1,6.729989648E-1,-2.617993951E-1
2.370849438E0,-7.137174606E-1,-9.909979254E-2,-3.213151172E-2
2.390849438E0,-4.212177694E-1,-8.312305212E-1,2.800031602E-1
2.410849438E0,-9.264207631E-2,-1.535104394E0,6.086311936E-1
2.430849438E0,2.972470224E-1,-2.346734762E0,8.334121704E-1
2.450849438E0,7.555181384E-1,-3.164316893E0,8.073369265E-1
2.470849438E0,1.226181030E0,-3.715299845E0,3.946538568E-1
2.490849438E0,1.597063541E0,-4.061485767E0,7.398450375E-2
2.510849438E0,1.752938867E0,-4.121961594E0,1.053131670E-1
2.530868188E0,1.841339827E0,-3.828152895E0,2.501755059E-1
2.552849438E0,1.820064187E0,-3.714479446E0,3.149621189E-1
2.572849438E0,2.048981667E0,-5.113326073E0,1.436405927E-1
2.592849438E0,-8.693484962E-2,-8.214863777E0,-4.827929735E-1
2.612849438E0,-4.714291573E0,-5.015203476E0,-5.516811013E-1
2.632849438E0,-3.046734095E0,-7.990291715E-1,-5.301437378E-1
2.652849438E0,-1.065750360E0,2.144887447E0,-4.714134336E-1
2.672849438E0,-2.268928103E-2,3.578640461E0,-3.414038420E-1
2.692849438E0,3.779859543E-1,4.514817715E0,-3.987902701E-1
2.712849438E0,4.095589519E-1,5.006354809E0,-6.290341020E-1
2.732851000E0,3.011740148E-1,4.921689034E0,-6.604849696E-1
2.752851000E0,1.196772233E-1,4.351768970E0,-5.048888326E-1
2.774849438E0,-1.507615447E-1,3.341921568E0,-3.182607889E-1
2.794849438E0,-4.265410006E-1,2.401276350E0,-1.861742735E-1
2.814849438E0,-6.642199755E-1,1.725851417E0,-3.181735054E-2
2.834849438E0,-7.767238617E-1,1.269220829E0,1.879370511E-1
2.854849438E0,-7.925016284E-1,9.739809632E-1,3.798709214E-1
2.874849438E0,-7.644541860E-1,7.871609330E-1,5.419596434E-1
2.894849438E0,-6.893701553E-1,5.870240331E-1,6.403961778E-1
2.914849438E0,-5.882457495E-1,3.344225287E-1,7.136476636E-1
2.934851000E0,-4.359658062E-1,8.018042892E-2,7.611730099E-1
2.956849438E0,-1.995085925E-1,-2.146755010E-1,7.552562952E-1
2.976849438E0,7.410667837E-2,-4.047942162E-1,7.056715488E-1
2.996849438E0,3.534640670E-1,-6.374465823E-1,6.296100616E-1
3.016849438E0,6.652322412E-1,-1.153627753E0,5.509131551E-1
3.036849438E0,9.982585311E-1,-2.425693512E0,4.326845706E-1
3.056849438E0,1.129926205E0,-5.248501778E0,1.048942879E-1
3.076849438E0,-1.934034228E0,-4.357301712E0,-1.226233363E0
3.096849438E0,-1.185602188E0,-2.734704018E0,-7.919780612E-1
3.116849438E0,1.588249579E-2,-1.608826995E0,2.386214137E-1
3.136849438E0,3.941651583E-1,2.515194118E-1,7.161260247E-1
3.156849438E0,5.544038415E-1,1.537861943E0,6.665412337E-2
3.176849438E0,5.150291920E-1,2.943619967E0,-9.412037134E-1
3.196851000E0,4.007973969E-1,3.499088526E0,-1.160539269E0
3.216851000E0,1.705710292E-1,3.171210766E0,-7.286749482E-1
3.238851000E0,-6.328564137E-2,2.059628248E0,-3.955788612E-1
3.260849438E0,-1.157851443E-1,6.733131409E-1,-3.244741559E-1
3.280849438E0,-1.246688664E-1,-5.014156103E-1,-3.175103068E-1
3.300849438E0,-9.560913593E-2,-1.417556405E0,-2.405238301E-1
3.320849438E0,-6.440265104E-3,-1.782138228E0,-1.438151300E-1
3.340849438E0,6.414084882E-2,-1.744421721E0,-9.627236426E-2
3.360849438E0,9.906488657E-2,-1.482255816E0,-4.321435094E-2
3.380849438E0,1.158898622E-1,-1.182687402E0,4.089306295E-2
3.400849438E0,1.259604096E-1,-9.668949246E-1,1.447227001E-1
3.420849438E0,1.717054844E-1,-8.534136415E-1,2.267531753E-1
3.440849438E0,2.476098537E-1,-7.795687318E-1,2.824815512E-1
3.460849438E0,3.652625084E-1,-6.697701216E-1,3.529404700E-1
3.480849438E0,4.953069985E-1,-5.667258501E-1,4.087561071E-1
3.500849438E0,5.832540989E-1,-5.281715393E-1,4.567352235E-1
3.520855688E0,6.067985892E-1,-6.068684459E-1,4.574682415E-1
3.542849438E0,5.546830893E-1,-1.044038534E0,3.584906161E-1
3.562868188E0,5.043128729E-1,-1.524230957E0,2.473131567E-1
3.584849438E0,5.341056585E-1,-1.917313933E0,2.207492441E-1
3.604849438E0,7.126179338E-1,-2.198276997E0,2.683269083E-1
3.624849438E0,9.993755221E-1,-2.322771311E0,2.962870896E-1
3.644849438E0,9.386904240E-1,-1.965973735E0,1.072504818E-1
3.664849438E0,-5.530948564E-2,-1.348982453E0,-2.116735280E-1
3.684849438E0,-2.468960285E0,-5.155178905E-1,-1.896998286E-1
3.704849438E0,-2.504878998E0,1.459740996E0,-2.504547499E-2
3.724849438E0,-1.309607744E0,3.102968454E0,-2.885727286E-1
3.744849438E0,-1.596976221E-1,4.125434875E0,-3.952472508E-1
3.764849438E0,2.808234692E-1,3.978006840E0,-3.328342736E-1
3.784849438E0,-1.178097259E-2,3.034132719E0,-3.786142766E-1
3.804849438E0,-3.205995262E-1,2.217370987E0,-3.316998184E-1
3.824849438E0,-3.399028778E-1,1.794512630E0,-1.891238838E-1
3.844849438E0,-2.507340014E-1,1.565298557E0,-5.729915947E-2
3.864849438E0,-1.613207757E-1,1.317828298E0,4.694935866E-3
3.884849438E0,-7.864453644E-2,1.010074377E0,5.475097895E-2
3.904849438E0,-3.063052893E-2,7.816980481E-1,1.385965943E-1
3.924849438E0,-2.228785492E-2,5.439842343E-1,2.703863978E-1
3.944849438E0,-1.635373570E-2,2.395289838E-1,3.756995797E-1
3.964849438E0,7.679448463E-3,-8.087855577E-2,4.502251446E-1
3.984849438E0,7.246606797E-2,-3.755599558E-1,4.968603253E-1
4.004849438E0,1.674468815E-1,-6.240424514E-1,4.912578166E-1
4.024849438E0,3.048741221E-1,-8.262388706E-1,4.552342296E-1
4.044849438E0,4.781678617E-1,-9.584475756E-1,4.170987904E-1
4.064849438E0,6.276553273E-1,-1.126644969E0,3.826983571E-1
4.084849438E0,7.181680799E-1,-1.415287495E0,3.105638921E-1
4.104849438E0,4.370304346E-1,-2.389024019E0,1.352630109E-1
4.124849438E0,-1.742344737E0,-3.430200338E0,-4.972442985E-1
4.144849438E0,-2.228418827E0,-2.827939510E0,-7.238927484E-1
4.164851000E0,-3.193079829E-1,-8.207410574E-1,-5.994158983E-1
4.186849438E0,1.201065779E0,1.206319213E0,-7.219903469E-1
4.206849438E0,1.115806460E0,1.989814997E0,-5.746845603E-1
4.226851000E0,6.375338435E-1,1.779642463E0,-1.920909435E-1
4.248851000E0,1.142841578E-1,5.425006747E-1,-4.970348477E-1
4.270849438E0,-4.858472943E-1,-1.324006766E-1,-9.627934098E-1
4.290849438E0,-8.256629109E-1,-3.720169365E-1,-6.906268001E-1
4.310849438E0,-8.977624774E-1,-5.837253928E-1,-4.309915900E-1
4.330849438E0,-7.559719086E-1,-9.398074150E-1,-4.414635897E-1
4.350849438E0,-5.246110559E-1,-1.317374468E0,-4.526162446E-1
4.370849438E0,-3.069161475E-1,-1.642546773E0,-4.565432370E-1
4.390849438E0,-1.059589386E-1,-1.819401026E0,-4.520053566E-1
4.410849438E0,1.281595230E-1,-1.810325265E0,-4.060333967E-1
4.430849438E0,3.257133365E-1,-1.585212708E0,-3.434807956E-1
4.450849438E0,4.679751396E-1,-1.342577100E0,-3.232000768E-1
4.470849438E0,5.917015076E-1,-1.083203673E0,-2.426356673E-1
4.490849438E0,7.302457690E-1,-6.982364058E-1,-1.075471863E-1
4.510849438E0,8.760156631E-1,-4.165402651E-1,1.075122785E-2
4.530849438E0,9.927432537E-1,-1.530304700E-1,1.443736404E-1
4.550849438E0,1.092960119E0,7.206464559E-2,2.978753448E-1
4.570849438E0,1.094984651E0,-3.630284918E-3,4.698775411E-1
4.590849438E0,9.533162713E-1,-5.433035493E-1,6.770830154E-1
4.610849438E0,7.219903469E-1,-1.343798757E0,7.963588238E-1
4.630849438E0,5.061280131E-1,-2.089700222E0,7.748563886E-1
4.650849438E0,3.564136922E-1,-2.526364088E0,7.159689665E-1
4.670849438E0,3.421543539E-1,-2.761093378E0,6.376734972E-1
4.690849438E0,6.758438349E-1,-3.129899025E0,5.569694638E-1
4.710854125E0,1.405548573E0,-3.426046371E0,3.705857694E-1
4.732849438E0,1.016305208E0,-2.413179398E0,-1.765749604E-1
4.752849438E0,-1.411360502E0,8.454374969E-2,-4.000469148E-1
4.772849438E0,-2.244475842E0,2.946063519E0,5.658357590E-2
4.792849438E0,-2.120068789E0,4.023943901E0,1.469567232E-2
4.812849438E0,-1.817289114E0,4.181232929E0,-2.301914692E-1
4.832849438E0,-1.365667820E0,3.777573109E0,-4.675562382E-1
4.852849438E0,-8.207236528E-1,3.232838392E0,-5.621531010E-1
4.872849438E0,-4.651477039E-1,2.731475115E0,-4.570319057E-1
4.892849438E0,-3.112620115E-1,2.131587982E0,-4.470311701E-1
4.912849438E0,-3.092025220E-1,1.446877956E0,-4.342379272E-1
4.932849438E0,-3.783350289E-1,8.617737889E-1,-3.522772491E-1
4.952851000E0,-4.262966812E-1,5.096361637E-1,-2.297027856E-1
4.974849438E0,-4.108854234E-1,4.324227870E-1,-1.288925707E-1
4.994849438E0,-3.396061659E-1,4.182507098E-1,-4.614650458E-2
5.014849438E0,-2.704038620E-1,2.027199864E-1,5.061454698E-2
5.034849438E0,-1.660331786E-1,-3.801327199E-2,1.960877478E-1
5.054849438E0,-4.756022245E-2,-3.229557276E-1,3.101624548E-1
5.074849438E0,7.829546928E-2,-5.648059845E-1,4.161737561E-1
5.094849438E0,2.453932911E-1,-6.749013662E-1,5.040336251E-1
5.114849438E0,4.272915125E-1,-7.286749482E-1,5.603204966E-1
5.134851000E0,5.241922140E-1,-8.954935074E-1,5.860466361E-1
5.154851000E0,4.113740921E-1,-1.328108311E0,5.592907667E-1
5.174851000E0,-9.864600748E-2,-2.100416422E0,5.068784952E-1
5.196849438E0,-8.967501521E-1,-2.755491018E0,4.695982933E-1
5.216849438E0,-1.399457335E0,-2.593402147E0,3.404788375E-1
5.236849438E0,-1.203945518E0,-2.160927057E0,1.059240326E-1
5.256849438E0,-3.349461257E-1,-4.834387600E-1,-1.930508614E-1
5.276849438E0,4.829325899E-2,1.210211277E0,-4.621806443E-1
5.296849438E0,3.036872949E-3,2.181679010E0,-4.792324901E-1
5.316849438E0,3.512649536E-1,2.540396452E0,-3.748792708E-1
5.336849438E0,6.307445168E-1,2.519923925E0,-3.011041880E-1
5.356849438E0,4.917290509E-1,2.001386404E0,-4.667533934E-1
5.376849438E0,1.970476657E-1,1.328666806E0,-6.743428707E-1
5.396849438E0,-1.492082030E-1,6.422462463E-1,-5.359557271E-1
5.416849438E0,-4.641179442E-1,-4.649557173E-2,-2.193180770E-1
5.436849438E0,-4.907167852E-1,-2.883807421E-1,-1.379508227E-1
5.456849438E0,-2.380803674E-1,-2.763728797E-1,-1.010894701E-1
5.476849438E0,-8.482299745E-3,-5.001590252E-1,-1.391376406E-1
5.496849438E0,9.829694033E-2,-8.888089061E-1,-1.404815465E-1
5.516849438E0,1.679530293E-1,-1.357028365E0,-8.286823332E-2
5.536849438E0,2.674891651E-1,-1.739971042E0,-9.128072299E-3
5.556849438E0,4.253192842E-1,-1.900872946E0,3.495894372E-2
5.576849438E0,6.317568421E-1,-1.982606769E0,7.707373798E-2
5.596849438E0,8.565028906E-1,-2.093749285E0,1.522450745E-1
5.616849438E0,1.042380452E0,-2.155254841E0,2.736676335E-1
5.636849438E0,1.118476748E0,-2.192342997E0,3.713362515E-1
5.656849438E0,1.058524728E0,-2.165255547E0,4.823741019E-1
5.676849438E0,9.545554519E-1,-2.042995214E0,5.392718315E-1
5.696849438E0,8.134106994E-1,-1.770269990E0,5.133711696E-1
5.716849438E0,6.956533194E-1,-1.374935508E0,4.798259139E-1
5.736849438E0,6.612877846E-1,-9.855699539E-1,4.357738197E-1
5.756849438E0,6.821968555E-1,-6.469237208E-1,3.651228845E-1
5.776849438E0,5.791700482E-1,-1.566781998E-1,2.293188125E-1
5.796849438E0,2.797588110E-1,5.748067498E-1,7.464773208E-2
5.816851000E0,-5.452408642E-2,1.099068761E0,-9.424777818E-4
5.836851000E0,-2.272767723E-1,1.255956411E0,-4.553563893E-2
5.858858813E0,-3.301813900E-1,1.365702629E0,-1.686337143E-1
5.880851000E0,-4.691270590E-1,1.630608797E0,-2.619215548E-1
5.902849438E0,-6.032207012E-1,1.808806896E0,-2.686759830E-1
5.922849438E0,-7.500727177E-1,1.722151279E0,-2.229134440E-1
5.942849438E0,-8.636587262E-1,1.407276392E0,-2.245540619E-1
5.962868188E0,-8.606916666E-1,9.745918512E-1,-2.953446209E-1
5.984849438E0,-6.742381454E-1,5.733231902E-1,-3.006155193E-1
6.004849438E0,-3.816511333E-1,3.332008123E-1,-2.522175312E-1
6.024849438E0,-1.562244147E-1,1.167974323E-1,-2.612234354E-1
6.044849438E0,-1.244245246E-1,-6.691592187E-2,-2.832145691E-1
6.064849438E0,-6.405532956E-1,-1.465727538E-1,-3.326946497E-1
6.084849438E0,-1.522119045E0,5.038765445E-2,-2.666339576E-1
6.104849438E0,-1.282206178E0,4.218984246E-1,-1.147553995E-1
6.124849438E0,-6.962292790E-1,9.470505714E-1,-4.668755829E-2
6.144849438E0,-2.154434472E-1,1.277563572E0,-2.923426405E-2
6.164851000E0,8.677776903E-2,1.346259713E0,1.895427518E-2
6.186849438E0,2.005732358E-1,1.085001349E0,1.352630109E-1
6.206849438E0,1.946914792E-1,6.579192877E-1,2.507863641E-1
6.226849438E0,1.980425119E-1,2.417630106E-1,3.445279896E-1
6.246851000E0,2.656740248E-1,-8.773770183E-2,4.221951365E-1
6.268849438E0,4.293160737E-1,-4.062951803E-1,4.375540316E-1
6.288849438E0,6.348286271E-1,-7.897265553E-1,4.295255244E-1
6.308849438E0,7.866896987E-1,-1.328701735E0,3.626968563E-1
6.328849438E0,6.473251581E-1,-1.544284821E0,2.253918201E-1
6.348849438E0,-8.351400495E-2,-1.157258034E0,5.619960278E-2
6.368849438E0,-8.996474147E-1,-8.749160767E-1,-1.266236305E-1
6.388849438E0,-5.902878046E-1,-9.475392103E-2,-2.731091082E-1
6.408849438E0,1.456128210E-1,9.794089794E-1,-3.345272541E-1
6.428849438E0,3.339338303E-1,1.693684936E0,-4.064173698E-1
6.448849438E0,4.868421257E-1,2.003236532E0,-5.733231902E-1
6.468849438E0,8.494517207E-1,1.686232448E0,-6.148271561E-1
6.488849438E0,9.165596366E-1,8.999790549E-1,-5.986304879E-1
6.508849438E0,4.764399827E-1,-6.124360487E-2,-5.208062530E-1
6.528849438E0,-2.198242247E-1,-6.617590189E-1,-3.651577830E-1
6.548849438E0,-7.152533531E-1,-7.323052287E-1,-2.265088260E-1
6.568849438E0,-7.512944341E-1,-6.847275496E-1,-1.359087825E-1
6.588849438E0,-4.627566040E-1,-6.790203452E-1,-4.855506122E-2
6.608849438E0,-1.436231434E-1,-8.519824743E-1,3.166027367E-2
6.628849438E0,7.045894116E-2,-1.016671777E0,-2.192133479E-2
6.648849438E0,1.975538135E-1,-1.063621044E0,-1.389282048E-1
6.668871313E0,2.760238349E-1,-9.758310318E-1,-1.815316975E-1
6.690849438E0,3.415085673E-1,-7.787135243E-1,-1.628915817E-1
6.710849438E0,4.028918147E-1,-6.242693663E-1,-1.547059864E-1
6.730851000E0,5.170712471E-1,-6.535909176E-1,-1.062905490E-1
6.752849438E0,7.250621319E-1,-8.846026659E-1,3.508111695E-3
6.772849438E0,8.544608355E-1,-1.054684997E0,1.233424172E-1
6.792849438E0,8.114733696E-1,-1.058664322E0,2.141868025E-1
6.812849438E0,6.378654838E-1,-9.035569429E-1,2.721491754E-1
6.832849438E0,4.704186022E-1,-6.695082784E-1,3.277379274E-1
6.852849438E0,4.079706967E-1,-3.891909719E-1,3.394840062E-1
6.872849438E0,4.419871867E-1,-1.391725540E-1,2.991145253E-1
6.892849438E0,4.823042750E-1,1.329940930E-2,2.741563320E-1
6.912851000E0,4.187219441E-1,1.918814927E-1,2.534741759E-1
6.934851000E0,1.769065708E-1,4.794768393E-1,1.988802701E-1
6.956849438E0,-5.588544160E-2,8.343721032E-1,1.246339604E-1
6.976851000E0,-1.185078546E-1,1.142300487E0,3.998549283E-2
6.998851000E0,-1.494001877E-2,1.372823596E0,-6.918485463E-2
7.018851000E0,7.176794112E-2,1.601060271E0,-1.846209317E-1
7.040849438E0,2.563888580E-2,1.843591332E0,-2.807013094E-1
7.060849438E0,-1.190663576E-1,1.898289919E0,-2.924124599E-1
7.080849438E0,-1.793674827E-1,1.628304958E0,-2.122320384E-1
7.100849438E0,-2.670353651E-1,1.136924982E0,-2.050412744E-1
7.120852563E0,-4.271344244E-1,6.739763618E-1,-2.554463744E-1
7.142863500E0,-4.641005099E-1,6.311983466E-1,-2.520080805E-1
7.162869750E0,-3.593458235E-1,8.086634278E-1,-1.856157631E-1
7.184849438E0,-2.205747068E-1,7.855028510E-1,-1.436580569E-1
7.204849438E0,-2.339613885E-1,4.971395731E-1,-1.619840115E-1
7.224849438E0,-4.193502665E-1,2.666863203E-1,-1.663124263E-1
7.244849438E0,-6.315473914E-1,2.024581879E-1,-1.076868176E-1
7.264849438E0,-6.791250706E-1,4.427027702E-1,-4.094542563E-2
7.284849438E0,-6.134483218E-1,7.721336484E-1,1.581268385E-2
7.304849438E0,-5.122017860E-1,1.054109097E0,5.347688869E-2
7.324849438E0,-4.013384581E-1,1.084442854E0,1.636071652E-1
7.344849438E0,-3.068986833E-1,8.709367514E-1,2.613455951E-1
7.364849438E0,-2.040813416E-1,5.601285100E-1,3.297799528E-1
7.384849438E0,-7.681193948E-2,2.291268259E-1,4.216366410E-1
7.404849438E0,5.480333790E-2,-9.075712413E-2,4.915545285E-1
7.424849438E0,1.570621729E-1,-2.920459509E-1,4.894775748E-1
7.444849438E0,2.494424582E-1,-4.267155528E-1,4.628438652E-1
7.464849438E0,3.155206144E-1,-5.177519321E-1,4.399800599E-1
7.484849438E0,3.510729671E-1,-7.000690103E-1,3.901334405E-1
7.504849438E0,2.399653196E-1,-9.983457923E-1,2.727774978E-1
7.524849438E0,-2.575582266E-1,-8.248425722E-1,1.832595677E-3
7.544849438E0,-4.050385654E-1,-4.048291147E-1,-1.826836169E-1
7.564849438E0,-8.117526025E-2,1.150172018E-2,-1.931730360E-1
7.584849438E0,1.904852390E-1,5.914571881E-1,-2.495646328E-1
7.604849438E0,4.236263037E-1,1.162947774E0,-3.555759192E-1
7.624849438E0,6.961769462E-1,1.262239575E0,-3.741985857E-1
7.644849438E0,7.651348710E-1,7.013605833E-1,-3.191858232E-1
7.664849438E0,3.993138671E-1,-2.552543879E-1,-1.669930965E-1
7.684849438E0,-3.158522248E-1,-9.348856211E-1,-5.590289459E-2
7.704849438E0,-7.355166674E-1,-1.101808906E0,-6.810274720E-2
7.724849438E0,-7.118325233E-1,-7.450636029E-1,-3.907792270E-2
7.744849438E0,-5.120272636E-1,-4.265235662E-1,-1.583013684E-2
7.764849438E0,-2.792177796E-1,-3.061656654E-1,9.773843922E-4
7.784849438E0,-5.377359316E-2,-2.870368361E-1,-6.621779501E-2
7.804849438E0,1.207767874E-1,-2.884156704E-1,-1.650034338E-1
7.824849438E0,2.113244683E-1,-2.665466964E-1,-2.044478655E-1
7.844849438E0,2.356892675E-1,-3.144734204E-1,-2.247634977E-1
7.864849438E0,2.342929989E-1,-4.059286714E-1,-2.477494925E-1
7.884849438E0,2.431767285E-1,-5.036496520E-1,-1.743234843E-1
7.904849438E0,2.862514555E-1,-5.967804193E-1,-6.255260110E-2
7.924849438E0,3.138974607E-1,-7.620805502E-1,3.302162886E-2
7.944849438E0,3.784746528E-1,-8.536405563E-1,1.802227050E-1
7.964849438E0,4.902978837E-1,-9.415178895E-1,2.687632442E-1
7.984849438E0,5.471956134E-1,-1.144080758E0,3.059038520E-1
8.004849438E0,5.341231227E-1,-1.463510990E0,3.797487319E-1
8.024849438E0,4.915196300E-1,-1.772207260E0,4.408876300E-1
8.044849438E0,5.288696885E-1,-2.083765984E0,4.773475528E-1
8.064849438E0,6.342352033E-1,-2.370541096E0,5.139122009E-1
8.084849438E0,7.806159854E-1,-2.583715677E0,4.699997008E-1
8.104849438E0,9.735621214E-1,-2.395830870E0,3.375292122E-1
8.124849438E0,9.858841300E-1,-1.299903750E0,8.220500499E-2
8.144849438E0,6.572909951E-1,8.145451546E-2,-1.227664575E-1
8.164849438E0,1.420348883E-1,9.633693695E-1,-1.033234894E-1
8.184849438E0,-2.156703323E-1,1.427330256E0,-1.324704885E-1
8.204849438E0,-3.045774102E-1,1.798841000E0,-2.764252424E-1
8.224849438E0,-3.989473581E-1,2.251230478E0,-3.971147537E-1
8.244849438E0,-5.742831230E-1,2.614084244E0,-4.353549182E-1
8.264849438E0,-7.776489258E-1,2.738316774E0,-4.454080164E-1
8.284851000E0,-9.131737351E-1,2.642096758E0,-4.148822129E-1
8.306849438E0,-9.538747668E-1,2.081671715E0,-3.796440065E-1
8.326849438E0,-8.217533827E-1,1.471260190E0,-3.812846243E-1
8.346849438E0,-5.575803518E-1,1.060496926E0,-3.115238249E-1
8.366849438E0,-2.879269719E-1,6.417575479E-1,-3.141243458E-1
8.386849438E0,-8.600982279E-2,1.762957126E-1,-3.467096686E-1
8.406849438E0,6.562437862E-3,-2.161764801E-1,-3.488564193E-1
8.426849438E0,-1.492082030E-1,-5.272639394E-1,-3.077015579E-1
8.446866625E0,-5.500579476E-1,-7.571936250E-1,-1.763655245E-1
8.468849438E0,-7.261442542E-1,-4.949404597E-1,-2.094395086E-2
8.488860375E0,-4.744677544E-1,8.318239450E-2,1.982693933E-2
8.510849438E0,-5.232496932E-2,4.760211110E-1,9.203121066E-2
8.530851000E0,2.303660065E-1,5.522570610E-1,1.076868176E-1
8.552849438E0,3.449119627E-1,5.008222461E-1,1.836435497E-1
8.572849438E0,2.929185927E-1,3.508111835E-1,2.962521911E-1
8.592849438E0,1.952499896E-1,8.032005280E-2,4.102396369E-1
8.612849438E0,1.385616958E-1,-2.105390728E-1,4.734554589E-1
8.632849438E0,1.449670494E-1,-4.838576317E-1,4.983438551E-1
8.652849438E0,1.929810494E-1,-7.143283486E-1,4.690746963E-1
8.672849438E0,2.515543103E-1,-8.946557641E-1,4.007624984E-1
8.692849438E0,1.708677262E-1,-9.468760490E-1,2.741039693E-1
8.712849438E0,-7.780154347E-1,-1.205359340E0,4.356341809E-2
8.732849438E0,-1.183350682E0,-9.596343637E-1,-1.747772694E-1
8.752849438E0,-1.915324330E-1,-1.432740837E-1,-1.448972374E-1
8.772849438E0,3.209486008E-1,7.814013362E-1,-3.022735715E-1
8.792849438E0,4.427551329E-1,1.407136798E0,-3.902207017E-1
8.812849438E0,4.966334403E-1,1.315018296E0,-1.514771283E-1
8.832849438E0,4.277976453E-1,4.180761576E-1,-1.298175901E-1
8.852849438E0,-4.743804783E-2,-7.450112700E-1,-4.364021122E-1
8.872849438E0,-6.009517908E-1,-1.418149829E0,-4.242197275E-1
8.892849438E0,-8.963313103E-1,-1.270948768E0,-2.280970812E-1
8.912849438E0,-8.594699502E-1,-7.857297659E-1,-3.066543490E-2
8.932849438E0,-6.133610606E-1,-3.378259242E-1,5.148721114E-2
8.952849438E0,-3.465351164E-1,-1.444609016E-1,-3.885103017E-2
8.972849438E0,-1.240230948E-1,-2.454282045E-1,-7.522369176E-2
8.992849438E0,5.895722285E-2,-5.561142564E-1,-5.068436265E-2
9.012849438E0,2.088460922E-1,-9.681690335E-1,-3.085742146E-2
9.032849438E0,3.226590157E-1,-1.277720690E0,-4.852015525E-3
9.052849438E0,3.914075494E-1,-1.318578839E0,3.474950418E-2
9.072849438E0,4.210257828E-1,-1.153226256E0,1.178097278E-1
9.092849438E0,3.924023807E-1,-9.616764188E-1,1.787740737E-1
9.112849438E0,3.342305422E-1,-7.361624241E-1,2.315877378E-1
9.132849438E0,3.109129667E-1,-5.930628777E-1,2.781356573E-1
9.152849438E0,3.586651683E-1,-5.294107199E-1,3.279124498E-1
9.172849438E0,4.337841272E-1,-6.316695809E-1,3.640233278E-1
9.192849438E0,5.523094535E-1,-8.674984574E-1,4.105887115E-1
9.212849438E0,7.395309210E-1,-1.171203136E0,4.657585621E-1
9.232849438E0,9.039059877E-1,-1.470980883E0,4.927588105E-1
9.252849438E0,1.038593054E0,-1.604498625E0,3.751759827E-1
9.272849438E0,1.048366904E0,-1.214923739E0,2.155830711E-1
9.292849438E0,9.332450032E-1,-4.534539878E-1,4.742059484E-2
9.312849438E0,7.359355092E-1,3.451737761E-1,-3.469714522E-2
9.332849438E0,5.263040066E-1,8.455945849E-1,-1.820029318E-1
9.352849438E0,9.854128957E-2,1.491645694E0,-2.963045537E-1
9.372849438E0,-4.554611146E-1,1.983130336E0,-2.719921172E-1
9.392849438E0,-9.679945111E-1,2.166791439E0,-2.034879327E-1
9.412849438E0,-1.261454225E0,2.077639818E0,-1.854935884E-1
9.432849438E0,-1.230684042E0,2.014441490E0,-2.615201473E-1
9.452849438E0,-9.055640697E-1,2.053973198E0,-3.507064581E-1
9.472849438E0,-4.388106763E-1,1.847029567E0,-2.747497261E-1
9.492849438E0,-1.712691635E-1,1.355003834E0,-1.934697479E-1
9.512849438E0,-1.443561763E-1,9.183049798E-1,-1.826312542E-1
9.532849438E0,-2.482556254E-1,5.992937088E-1,-1.976759881E-1
9.552852563E0,-4.905596972E-1,4.034677744E-1,-1.556135565E-1
9.574849438E0,-7.442258596E-1,4.491779208E-1,-7.208209485E-2
9.594849438E0,-6.668728590E-1,5.409299135E-1,5.497787148E-2
9.614849438E0,-3.267605305E-1,6.967877746E-1,1.066919789E-1
9.634849438E0,5.462880712E-3,8.648455739E-1,1.402022988E-1
9.654849438E0,2.132792324E-1,8.563283682E-1,2.140122652E-1
9.674849438E0,2.791828513E-1,6.854606271E-1,2.795144916E-1
9.694849438E0,2.455154657E-1,3.649832606E-1,3.528183103E-1
9.714851000E0,2.031737715E-1,-4.628613219E-2,4.479387403E-1
9.736849438E0,2.120924145E-1,-4.865454435E-1,4.845557511E-1
9.756849438E0,3.103370070E-1,-7.916638851E-1,4.574333429E-1
9.776849438E0,4.569097459E-1,-9.993231893E-1,4.022809267E-1
9.796849438E0,5.449965000E-1,-9.796882272E-1,2.996206582E-1
9.816849438E0,4.682543874E-1,-7.119547129E-1,1.374621242E-1
9.836849438E0,-9.370672703E-2,-1.605702937E-1,-1.317374557E-1
9.856849438E0,-5.077860951E-1,3.290643692E-1,-2.465975732E-1
9.876849438E0,9.526006877E-2,6.485818028E-1,-1.480388194E-1
9.896849438E0,5.426926613E-1,1.174205184E0,-2.288824767E-1
9.916849438E0,7.223743200E-1,1.615214944E0,-2.847504616E-1
9.936849438E0,6.879215240E-1,1.512135863E0,-2.628814876E-1
9.956851000E0,4.632976353E-1,5.781926513E-1,-2.737025321E-1
9.976851000E0,-1.930334233E-2,-7.582757473E-1,-3.160616755E-1
9.998849438E0,-6.708871126E-1,-1.379927158E0,-2.311688513E-1
1.001884944E1,-9.215338230E-1,-1.107341647E0,-1.617571115E-1
1.003885412E1,-7.812093496E-1,-5.907241106E-1,-1.232027933E-1
1.006084944E1,-4.371875226E-1,-2.691995800E-1,-1.532748193E-1
1.008084944E1,-2.074323744E-1,-4.805414975E-1,-1.650034338E-1
1.010085100E1,-9.344492853E-2,-9.180606604E-1,-1.838355362E-1
1.012284944E1,-6.487388909E-2,-1.334548593E0,-1.793674827E-1
1.014284944E1,-4.965461791E-2,-1.523166299E0,-1.495747119E-1
1.016286819E1,1.254891697E-2,-1.444800973E0,-1.579872072E-1
1.018484944E1,1.392423660E-1,-1.154360771E0,-1.260302216E-1
1.020484944E1,2.639810443E-1,-8.548098803E-1,-9.690067917E-2
1.022484944E1,3.681073785E-1,-6.878517270E-1,-1.506219152E-2
1.024484944E1,4.332779944E-1,-7.170859575E-1,9.550441802E-2
1.026484944E1,4.384790659E-1,-8.814436197E-1,2.210808545E-1
1.028485100E1,4.139746428E-1,-1.065087199E0,3.051184714E-1
1.030485100E1,4.388979375E-1,-1.184607267E0,3.747396469E-1
1.032685100E1,5.372996330E-1,-1.208727717E0,4.508709013E-1
1.034884944E1,6.940476298E-1,-1.209460855E0,4.881336689E-1
1.036884944E1,8.657007813E-1,-1.158741593E0,4.700869918E-1
1.038884944E1,9.354790449E-1,-9.318661690E-1,3.644247353E-1
1.040884944E1,8.488234282E-1,-4.026125371E-1,2.442937344E-1
1.042884944E1,6.601184011E-1,5.106833205E-2,1.737126261E-1
1.044886662E1,4.238881171E-1,3.386985958E-1,1.027649865E-1
1.047084944E1,1.394692659E-1,7.108027935E-1,-9.477137588E-3
1.049084944E1,-1.368512660E-1,1.276917815E0,-1.170243248E-1
1.051084944E1,-4.452160299E-1,1.872005224E0,-2.103470862E-1
1.053084944E1,-8.128347397E-1,2.203984261E0,-2.584134340E-1
1.055084944E1,-1.102140546E0,2.216288805E0,-2.743657529E-1
1.057084944E1,-1.164675713E0,2.037113428E0,-3.218212724E-1
1.059085100E1,-1.024124265E0,1.742903233E0,-3.969576955E-1
1.061284944E1,-6.964387298E-1,1.258295178E0,-3.046821356E-1
1.063284944E1,-3.930132389E-1,7.023379207E-1,-2.092126161E-1
1.065284944E1,-2.926044464E-1,4.088608325E-1,-2.416408360E-1
1.067284944E1,-3.977256417E-1,3.920707703E-1,-3.503573835E-1
1.069284944E1,-8.913047314E-1,5.335646272E-1,-4.048989415E-1
1.071284944E1,-1.430733681E0,8.750731945E-1,-3.480535448E-1
1.073284944E1,-1.080079556E0,1.095962048E0,-1.660506278E-1
1.075284944E1,-4.236088693E-1,1.276062608E0,-1.099208370E-1
1.077284944E1,4.717624933E-2,1.449321389E0,-9.436995536E-2
1.079284944E1,2.168571651E-1,1.433805466E0,5.375613924E-3
1.081284944E1,1.870818436E-1,1.159160376E0,1.229759008E-1
1.083284944E1,1.333780587E-1,6.918135881E-1,2.457772642E-1
1.085284944E1,1.330813617E-1,1.632406414E-1,3.315776587E-1
1.087284944E1,2.520255446E-1,-8.693484962E-2,3.349810541E-1
1.089284944E1,4.334176183E-1,-4.939107299E-1,2.690075934E-1
1.091284944E1,6.647435427E-1,-1.129629493E0,2.744530141E-1
1.093284944E1,9.495289326E-1,-1.674643397E0,2.422691584E-1
1.095284944E1,1.074093103E0,-1.884798527E0,1.630661041E-1
1.097284944E1,5.363920331E-1,-1.492221594E0,7.330382708E-3
1.099284944E1,-1.102280140E0,-6.041980982E-1,-2.437177747E-1
1.101284944E1,-5.701816082E-1,2.583087236E-2,-5.166174378E-3
1.103284944E1,3.136705756E-1,1.221067190E0,-1.395390779E-1
1.105284944E1,7.861661315E-1,2.149407864E0,-2.272418737E-1
1.107284944E1,6.191381216E-1,2.441052437E0,-1.463807672E-1
1.109284944E1,2.583087236E-2,1.169265866E0,-1.244419739E-1
1.111284944E1,-5.438620448E-1,-7.387280464E-1,-2.063502818E-1
1.113284944E1,-6.951646209E-1,-1.236094475E0,-1.584758908E-1
1.115284944E1,-6.197489500E-1,-6.923720837E-1,-1.640085876E-1
1.117284944E1,-4.308694303E-1,8.194320649E-2,-2.155830711E-1
1.119284944E1,-1.650034338E-1,4.763701558E-1,-1.913404465E-1
1.121284944E1,5.328490213E-2,4.106759727E-1,-1.654397547E-1
1.123284944E1,1.918465942E-1,-1.043706853E-2,-1.155931577E-1
1.125284944E1,2.376963943E-1,-5.396383405E-1,-6.789331138E-2
1.127284944E1,2.237337530E-1,-1.019219875E0,-4.544837400E-2
1.129284944E1,2.143438905E-1,-1.312086225E0,-8.429939859E-3
1.131284944E1,2.310641408E-1,-1.433561087E0,2.792526793E-4
1.133285256E1,2.595129907E-1,-1.360955358E0,4.904375225E-2
1.135484944E1,2.836683691E-1,-1.183804512E0,1.135336682E-1
1.137484944E1,2.846457362E-1,-1.054143906E0,1.268505305E-1
1.139484944E1,2.879095078E-1,-1.074145436E0,1.592612863E-1
1.141484944E1,3.230953515E-1,-1.119052768E0,2.492679209E-1
1.143484944E1,3.814940751E-1,-1.138146639E0,3.466223776E-1
1.145484944E1,5.113291144E-1,-1.160434484E0,4.044626057E-1
1.147485100E1,7.150264978E-1,-1.165303946E0,4.618839324E-1
1.149684944E1,9.130515456E-1,-1.333850384E0,5.601634383E-1
1.151684944E1,1.020110011E0,-1.580832005E0,5.627465248E-1
1.153684944E1,9.608910084E-1,-1.456599474E0,3.906570375E-1
1.155685569E1,7.607541084E-1,-8.983733058E-1,3.104766309E-1
1.157886038E1,4.657934606E-1,-2.974390090E-1,3.027622700E-1
1.160085256E1,2.046573013E-1,1.962622702E-1,1.319119781E-1
1.162284944E1,1.347917765E-1,6.281963587E-1,-3.270747140E-2
1.164284944E1,1.251226515E-1,1.010685205E0,-1.883908361E-1
1.166286819E1,-4.398229718E-2,1.539101124E0,-3.673743606E-1
1.168484944E1,-3.799407184E-1,2.001805305E0,-4.475547671E-1
1.170484944E1,-7.465471029E-1,2.214334011E0,-4.830373228E-1
1.172484944E1,-1.018783569E0,2.279120684E0,-4.625646174E-1
1.174484944E1,-1.109505773E0,2.013080120E0,-4.617792070E-1
1.176484944E1,-1.019865632E0,1.543796062E0,-4.638212323E-1
1.178484944E1,-7.515911460E-1,1.218937993E0,-4.107457995E-1
1.180484944E1,-4.594230056E-1,1.024316311E0,-4.038517475E-1
1.182484944E1,-3.417703807E-1,7.275404930E-1,-4.096462131E-1
1.184484944E1,-3.889989853E-1,2.409427017E-1,-3.544938266E-1
1.186484944E1,-6.800326109E-1,-2.601587772E-1,-3.161664009E-1
1.188484944E1,-1.132823348E0,-3.995407820E-1,-1.616698503E-1
1.190484944E1,-1.292451262E0,2.282890677E-2,-2.597049996E-2
1.192484944E1,-1.088474631E0,5.015203357E-1,2.492330223E-2
1.194484944E1,-6.901031733E-1,7.705104947E-1,8.770279586E-2
1.196484944E1,-2.845235765E-1,6.767165065E-1,1.948485523E-1
1.198484944E1,1.809906401E-2,4.541695714E-1,3.143686950E-1
1.200484944E1,1.386664063E-1,1.656841040E-1,3.831521273E-1
1.202484944E1,1.602386832E-1,-7.716100663E-2,4.308345318E-1
1.204484944E1,1.121025011E-1,-4.316024780E-1,5.034925938E-1
1.206484944E1,8.299040794E-2,-7.978597879E-1,4.916243553E-1
1.208484944E1,1.564513147E-1,-1.026305914E0,4.456698298E-1
1.210484944E1,3.488913178E-1,-1.102664113E0,3.447199762E-1
1.212484944E1,5.265658498E-1,-1.248573661E0,2.837207317E-1
1.214484944E1,5.582261086E-1,-1.558299780E0,2.116211653E-1
1.216489163E1,-1.146855876E-1,-2.323329926E0,4.902629927E-2
1.218684944E1,-2.125741243E0,-3.231180429E0,-1.132893190E-1
1.220684944E1,-1.831339121E0,-2.210476875E0,-1.208291426E-1
1.222684944E1,-7.209606171E-1,-5.409997106E-1,-2.811900079E-1
1.224684944E1,5.263913050E-2,1.604079723E0,-3.463082314E-1
1.226684944E1,1.122578263E0,3.087121010E0,-7.614871860E-2
1.228686194E1,2.063485384E0,3.982125759E0,-1.181587856E-2
1.230884944E1,2.291931391E0,4.301259041E0,-1.942027807E-1
1.232884944E1,1.805211544E0,3.123615742E0,-4.641528726E-1
1.234884944E1,8.904844522E-1,1.560970068E0,-4.811174572E-1
1.236884944E1,1.863488108E-1,6.866474152E-1,-3.088709116E-1
1.238885100E1,-3.392745554E-1,2.729171216E-1,-6.078981608E-2
1.241084944E1,-7.801796198E-1,2.230530791E-2,1.431868076E-1
1.243084944E1,-8.757189512E-1,-3.034254909E-1,1.024159193E-1
1.245085100E1,-7.663566470E-1,-6.150365472E-1,-1.251401100E-2
1.247284944E1,-5.688900948E-1,-9.685006738E-1,-7.567747682E-2
1.249284944E1,-3.889815211E-1,-1.262693405E0,-4.190535471E-2
1.251284944E1,-1.933824867E-1,-1.457314968E0,3.263765713E-3
1.253284944E1,2.535963431E-2,-1.572210073E0,1.685987972E-2
1.255284944E1,2.040289938E-1,-1.575386524E0,-2.675589733E-2
1.257284944E1,2.272418737E-1,-1.692253828E0,-1.427679323E-2
1.259288694E1,1.261873096E-1,-1.933371067E0,7.780677825E-2
1.261484944E1,-9.651671164E-3,-2.010654211E0,1.304808110E-1
1.263484944E1,-7.408922911E-2,-1.715082645E0,9.684831649E-2
1.265484944E1,-4.014257283E-4,-1.040146470E0,8.930850029E-2
1.267484944E1,1.904154271E-1,-1.931555867E-1,7.517132908E-2
1.269484944E1,5.156051517E-1,7.424805164E-1,5.682792142E-2
1.271484944E1,8.034273982E-1,1.219321966E0,1.186649352E-1
1.273484944E1,7.951021791E-1,7.827103734E-1,2.392671853E-1
1.275485100E1,5.116956234E-1,-6.620731950E-1,3.021688461E-1
1.277684944E1,2.711892724E-1,-2.146737576E0,2.498264313E-1
1.279684944E1,2.861990929E-1,-2.873754501E0,3.195174336E-1
1.281684944E1,5.974785686E-1,-3.020815849E0,2.981894910E-1
1.283684944E1,1.094740272E0,-2.736379623E0,1.863837093E-1
1.285684944E1,1.474628687E0,-1.836243391E0,-3.967133537E-2
1.287684944E1,1.434800267E0,-3.772529066E-1,-3.328168392E-1
1.289684944E1,6.400995255E-1,8.178089261E-1,-4.514293969E-1
1.291684944E1,-1.176840663E0,1.368879199E0,-4.370478988E-1
1.293684944E1,-2.238646507E0,2.548268080E0,-2.772106528E-1
1.295684944E1,-1.984125137E0,3.470813990E0,-2.556732893E-1
1.297684944E1,-1.248573661E0,3.527013779E0,-3.305653632E-1
1.299684944E1,-5.634097457E-1,3.172065973E0,-3.830823302E-1
1.301684944E1,-2.254616320E-1,2.605951071E0,-3.717202246E-1
1.303684944E1,-2.269626111E-1,1.942830682E0,-3.713711500E-1
1.305684944E1,-3.950727284E-1,1.395652533E0,-3.275983036E-1
1.307685100E1,-5.782450438E-1,1.053585410E0,-1.675865203E-1
1.309884944E1,-6.466270089E-1,9.230871797E-1,-5.183627829E-3
1.311884944E1,-5.639682412E-1,8.567996025E-1,6.593853980E-2
1.313886819E1,-4.336096048E-1,6.132737994E-1,9.136798233E-2
1.316084944E1,-2.873510122E-1,1.437976807E-1,1.738173366E-1
1.318084944E1,-1.270774156E-1,-2.094569653E-1,2.340660989E-1
1.320084944E1,-1.083849464E-2,-5.323428512E-1,3.037047386E-1
1.322084944E1,4.101523757E-2,-8.394510150E-1,3.156428039E-1
1.324084944E1,7.454301417E-2,-1.042921543E0,3.013485372E-1
1.326086038E1,1.451415867E-1,-1.183769584E0,3.334625959E-1
1.328285725E1,2.810678184E-1,-1.269430280E0,3.257656991E-1
1.330484944E1,4.275183976E-1,-1.426736832E0,2.983640432E-1
1.332484944E1,4.038168192E-1,-1.825038433E0,2.902482450E-1
1.334484944E1,-1.554390192E-1,-2.745507717E0,2.631781995E-1
1.336484944E1,-2.114379168E0,-4.581960678E0,6.503096968E-2
1.338484944E1,-2.667438984E0,-3.951792002E0,-2.239257470E-2
1.340484944E1,-1.844114900E0,-1.871499062E0,-2.237337530E-1
1.342484944E1,-9.157393575E-1,-3.828903437E-1,-2.265961021E-1
1.344484944E1,1.224348471E-1,1.872441530E0,-1.225221157E-1
1.346484944E1,1.141096234E0,3.326859236E0,1.667312980E-1
1.348484944E1,1.780148506E0,4.083442211E0,2.647140920E-1
1.350484944E1,1.755207777E0,3.740886450E0,-2.353925556E-1
1.352484944E1,1.190907955E0,2.484249353E0,-6.139370203E-1
1.354484944E1,5.388180614E-1,1.325629950E0,-5.134235024E-1
1.356484944E1,-6.085963175E-2,6.691592336E-1,-2.658136487E-1
1.358484944E1,-5.220105052E-1,7.908086479E-2,-5.445427075E-2
1.360484944E1,-7.595323920E-1,-1.558055431E-1,1.189441904E-1
1.362484944E1,-7.680495977E-1,-1.652477682E-1,3.644247353E-2
1.364484944E1,-6.374989748E-1,-2.609267235E-1,-6.304129213E-2
1.366484944E1,-4.203625619E-1,-4.671024680E-1,-9.930923581E-2
1.368484944E1,-1.358389705E-1,-6.848148108E-1,-6.436774135E-2
1.370484944E1,1.850049049E-1,-7.762700915E-1,-3.543018550E-2
1.372484944E1,4.361752272E-1,-8.852310181E-1,-4.597197101E-2
1.374485100E1,5.374741554E-1,-9.477137923E-1,-1.766273193E-2
1.376485100E1,5.138249397E-1,-8.977624774E-1,3.272492439E-2
1.378686350E1,4.196993113E-1,-7.459013462E-1,8.532914519E-2
1.380884944E1,3.328517377E-1,-4.979249835E-1,1.332907975E-1
1.382884944E1,3.442836404E-1,-2.377662063E-1,1.869247556E-1
1.384884944E1,4.217064381E-1,-1.029395163E-1,2.384817898E-1
1.386884944E1,5.078210235E-1,-2.189515531E-1,3.098832071E-1
1.388884944E1,5.823465586E-1,-5.890486240E-1,3.928561509E-1
1.390884944E1,6.356663704E-1,-1.169510245E0,4.353025556E-1
1.392884944E1,7.184997201E-1,-1.884781003E0,4.058239460E-1
1.394885256E1,9.331926703E-1,-2.306627035E0,4.021238685E-1
1.397084944E1,1.429930806E0,-2.610907793E0,4.314104915E-1
1.399084944E1,2.057551146E0,-2.551671267E0,2.745403051E-1
1.401084944E1,2.265245438E0,-1.570796371E0,-1.663822383E-1
1.403084944E1,1.440001369E0,-2.222327739E-1,-5.848947167E-1
1.405084944E1,-1.320114732E0,7.634419203E-1,-7.080800533E-1
1.407084944E1,-2.643702507E0,3.040660143E0,-2.278876454E-1
1.409084944E1,-2.187229156E0,4.139222622E0,-4.049163759E-1
1.411084944E1,-1.385320187E0,4.140234947E0,-7.008369565E-1
1.413084944E1,-5.610709786E-1,3.699801207E0,-5.902703404E-1
1.415084944E1,-1.440594792E-1,2.757428169E0,-3.558726311E-1
1.417084944E1,-1.426981241E-1,1.791842222E0,-3.040363491E-1
1.419084944E1,-3.448770642E-1,1.094845057E0,-2.463357747E-1
1.421084944E1,-5.675985217E-1,8.032703400E-1,-1.254018992E-1
1.423084944E1,-6.606769562E-1,6.791250706E-1,-4.895648360E-2
1.425084944E1,-6.265208125E-1,6.183701754E-1,4.694935679E-2
1.427084944E1,-4.872959256E-1,4.925319254E-1,1.057844087E-1
1.429084944E1,-2.815565169E-1,2.527585924E-1,1.251226515E-1
1.431084944E1,-8.850564808E-2,3.612831468E-3,1.572192609E-1
1.433084944E1,1.525417715E-2,-1.627868563E-1,1.989849806E-1
1.435084944E1,5.057964101E-2,-2.125985622E-1,2.253918201E-1
1.437084944E1,9.615018964E-2,-2.354100049E-1,2.468942702E-1
1.439084944E1,2.356718034E-1,-3.035651147E-1,2.411172390E-1
1.441084944E1,4.009370208E-1,-4.984136820E-1,2.471211702E-1
1.443084944E1,5.309815407E-1,-8.825432062E-1,2.122669369E-1
1.445084944E1,6.100798249E-1,-1.351478219E0,2.054427117E-1
1.447084944E1,6.166248322E-1,-1.690787673E0,2.084795833E-1
1.449084944E1,2.406809106E-2,-2.063537598E0,1.924574524E-1
1.451084944E1,-1.776535749E0,-2.228296757E0,-2.857103944E-2
1.453084944E1,-1.155303240E0,-1.019708633E0,1.026253588E-2
1.455084944E1,1.050513685E-1,9.099099636E-1,-7.234390080E-2
1.457084944E1,8.620006442E-1,2.373822212E0,-2.399827689E-1
1.459084944E1,1.098841786E0,3.213988781E0,-4.160864949E-1
1.461084944E1,8.558047414E-1,2.366509438E0,-3.573386967E-1
1.463084944E1,4.030488729E-1,1.653001308E-1,-3.241774440E-1
1.465084944E1,-2.987480164E-1,-1.168009281E0,-2.999522984E-1
1.467085100E1,-9.025970101E-1,-1.442671657E0,-1.549677849E-1
1.469284944E1,-1.124498129E0,-9.294750690E-1,-1.125562862E-1
1.471284944E1,-9.571560025E-1,-3.060609400E-1,-1.378460974E-1
1.473284944E1,-6.479011178E-1,-8.871508390E-2,-2.027025372E-1
1.475284944E1,-3.654544950E-1,-1.775697917E-1,-3.426604867E-1
1.477284944E1,-1.354026496E-1,-4.866152406E-1,-4.153185487E-1
1.479284944E1,2.933898382E-2,-9.144477844E-1,-3.792425990E-1
1.481284944E1,1.724734306E-1,-1.185724378E0,-3.443883657E-1
1.483284944E1,3.155206144E-1,-1.305576086E0,-3.325724900E-1
1.485284944E1,4.255636334E-1,-1.283515096E0,-2.982418537E-1
1.487284944E1,5.132140517E-1,-1.242255569E0,-2.666688561E-1
1.489284944E1,5.533042550E-1,-1.233528852E0,-1.730668545E-1
1.491284944E1,5.314353108E-1,-1.193456173E0,-7.831292599E-2
1.493284944E1,4.869119525E-1,-1.023635626E0,-9.983283468E-3
1.495284944E1,4.670326412E-1,-8.210377693E-1,6.531021744E-2
1.497284944E1,4.746772051E-1,-6.557900310E-1,2.113070190E-1
1.499284944E1,4.880813360E-1,-6.215640903E-1,3.335673213E-1
1.501284944E1,4.923923016E-1,-8.413883448E-1,4.467519224E-1
1.503284944E1,5.707750320E-1,-1.279657960E0,5.649979711E-1
1.505284944E1,7.946658731E-1,-1.429005742E0,5.592733026E-1
1.507284944E1,1.054318547E0,-1.189302206E0,4.335572422E-1
1.509284944E1,1.322767615E0,-7.409969568E-1,3.181386292E-1
1.511284944E1,1.422094226E0,-2.186548412E-1,1.443038285E-1
1.513284944E1,1.116975784E0,7.005402446E-1,-1.417905539E-1
1.515284944E1,2.574011683E-1,1.894188404E0,-3.257482648E-1
1.517284944E1,-9.006422758E-1,2.781217098E0,-2.160019428E-1
1.519284944E1,-1.615947962E0,3.400163174E0,-1.930508614E-1
1.521284944E1,-1.648795128E0,3.618835449E0,-3.101799190E-1
1.523284944E1,-1.159177899E0,3.248040199E0,-4.584456384E-1
1.525284944E1,-4.735776484E-1,2.889933586E0,-3.124488294E-1
1.527284944E1,-8.710937947E-2,2.441436291E0,-8.794713765E-2
1.529284944E1,-9.873327613E-2,1.918448448E0,-1.265363675E-2
1.531284944E1,-2.314132005E-1,1.551824570E0,1.022064835E-1
1.533284944E1,-3.450515866E-1,1.259953141E0,2.328967303E-1
1.535284944E1,-3.256609738E-1,1.178708076E0,2.909987569E-1
1.537284944E1,-1.777966917E-1,1.207523465E0,2.742959559E-1
1.539284944E1,9.773843922E-3,1.190349460E0,2.338566631E-1
1.541284944E1,1.524370611E-1,1.074721336E0,1.867502332E-1
1.543284944E1,1.765051484E-1,9.303652048E-1,1.355771720E-1
1.545284944E1,8.663814515E-2,7.767413259E-1,1.581093818E-1
1.547285100E1,-1.846558414E-2,5.261818767E-1,2.577153146E-1
1.549484944E1,-1.544616371E-2,1.242499873E-1,3.083822131E-1
1.551484944E1,1.053480729E-1,-1.658237278E-1,3.164631128E-1
1.553484944E1,3.260449469E-1,-4.820948541E-1,3.337244093E-1
1.555484944E1,6.506412625E-1,-9.455321431E-1,3.094643354E-1
1.557484944E1,9.767735004E-1,-1.381305933E0,2.803696990E-1
1.559484944E1,1.066012144E0,-1.482779384E0,1.849525422E-1
1.561484944E1,5.156226158E-1,-1.215586901E0,-2.747148275E-2
1.563484944E1,-8.888089061E-1,-5.268450975E-1,-4.273962379E-1
1.565484944E1,-4.377111197E-1,-1.635722518E-1,-3.258180618E-1
1.567484944E1,3.835884631E-1,6.891781688E-1,-3.957708478E-1
1.569484944E1,7.628834248E-1,1.635809779E0,-5.656088591E-1
1.571484944E1,6.379004121E-1,1.998628855E0,-4.757418334E-1
1.573484944E1,2.087588310E-1,1.229148149E0,-2.130872458E-1
1.575484944E1,-2.509259880E-1,-1.669581980E-1,-6.232570857E-2
1.577484944E1,-6.971543431E-1,-9.613099098E-1,-5.169665068E-2
1.579484944E1,-9.463174939E-1,-8.135154247E-1,8.405505866E-2
1.581484944E1,-9.430363178E-1,-5.622228980E-1,1.716531366E-1
1.583484944E1,-6.876597404E-1,-4.396135211E-1,1.706757396E-1
1.585484944E1,-3.558377326E-1,-4.968254268E-1,1.286656708E-1
1.587484944E1,-3.902556375E-2,-6.477091312E-1,1.049990058E-1
1.589484944E1,2.199812979E-1,-8.357334733E-1,8.166395873E-2
1.591485100E1,3.601486981E-1,-1.026777148E0,6.129596382E-2
1.593684944E1,3.978303373E-1,-1.166316271E0,3.186971322E-2
1.595684944E1,4.304156601E-1,-1.177591085E0,1.300270297E-2
1.597684944E1,4.841543436E-1,-1.001976013E0,1.246165112E-2
1.599684944E1,5.761681199E-1,-7.848222256E-1,6.291911751E-2
1.601684944E1,6.425953507E-1,-6.692814231E-1,1.457698941E-1
1.603684944E1,7.078706622E-1,-6.996850371E-1,2.408379763E-1
1.605684944E1,7.535982728E-1,-8.282285333E-1,3.604279459E-1
1.607684944E1,7.818551660E-1,-9.023002982E-1,5.191656351E-1
1.609684944E1,7.528303266E-1,-1.007386565E0,6.246184111E-1
1.611684944E1,7.580662966E-1,-1.171953678E0,5.967978835E-1
1.613684944E1,7.115183473E-1,-1.034596324E0,4.142887890E-1
1.615689162E1,4.465075731E-1,-3.303035498E-1,1.220857799E-1
1.617884944E1,1.937315427E-2,9.556899071E-1,-1.365371048E-1
1.619885256E1,-3.771831095E-1,2.022627115E0,-2.619739175E-1
1.621885256E1,-7.816980481E-1,2.921122551E0,-4.238182902E-1
1.624085100E1,-9.518153071E-1,3.392797947E0,-3.102497160E-1
1.626286975E1,-8.311257958E-1,2.940792561E0,-1.712866127E-1
1.628484944E1,-5.359033346E-1,1.741000772E0,-3.473205268E-1
1.630484944E1,-1.058193147E-1,6.658256650E-1,-4.535587132E-1
1.632484944E1,1.900663525E-1,-6.894050632E-3,-3.878819644E-1
1.634484944E1,1.219810620E-1,-1.988977194E-1,-2.047620267E-1
1.636484944E1,-7.106980681E-2,-1.758593768E-1,-1.002866179E-1
1.638484944E1,-3.744603992E-1,-4.070107937E-1,1.195550524E-2
1.640484944E1,-7.976852655E-1,-5.060756803E-1,5.740387738E-2
1.642484944E1,-8.431685567E-1,3.774972558E-1,9.492845833E-2
1.644484944E1,-3.877947032E-1,1.430681348E0,1.254542619E-1
1.646484944E1,1.769938320E-1,1.928641200E0,1.195550561E-1
1.648484944E1,4.355992675E-1,2.176076412E0,1.206546128E-1
1.650484944E1,4.194724262E-1,2.093295574E0,1.066919789E-1
1.652484944E1,2.796366513E-1,1.785140157E0,1.366767287E-1
1.654485725E1,1.378286481E-1,1.463825107E0,1.570621729E-1
1.656684944E1,1.046848446E-1,1.143435001E0,1.661902517E-1
1.658684944E1,2.258630544E-1,8.514414430E-1,1.312662065E-1
1.660684944E1,4.127703607E-1,6.190159321E-1,2.991494350E-2
1.662684944E1,5.485220551E-1,5.707575679E-1,-8.510225266E-2
1.664684944E1,6.560867429E-1,5.106309652E-1,-1.619316489E-1
1.666684944E1,7.003657222E-1,4.922177494E-1,-2.942450643E-1
1.668684944E1,5.575104952E-1,9.653241634E-1,-5.016075969E-1
1.670684944E1,6.348286271E-1,1.075070500E0,-5.684362650E-1
1.672684944E1,5.852612853E-1,1.187661648E0,-5.352575779E-1
1.674684944E1,-1.680752076E-2,5.982115865E-1,-1.770112962E-1
1.676684944E1,-1.010213971E0,1.417556405E-1,1.246339604E-1
1.678686194E1,-9.092816114E-1,1.315629244E0,-5.541420355E-2
1.680884944E1,-4.889889061E-1,2.414680481E0,-1.865407825E-1
1.682884944E1,-1.775697917E-1,2.357032299E0,-2.637890577E-1
1.684884944E1,-5.246459693E-2,1.901082397E0,-1.969953179E-1
1.686884944E1,-1.182285994E-1,1.290670991E0,-8.374089748E-2
1.688885569E1,-2.070833147E-1,8.516857624E-1,-3.762929887E-2
1.691084944E1,-1.946565658E-1,5.606870055E-1,-3.351032268E-3
1.693084944E1,-4.499458894E-2,3.677059710E-1,3.251548484E-2
1.695084944E1,2.041337043E-1,2.164033800E-1,6.518805027E-2
1.697084944E1,4.549549818E-1,5.796238407E-2,9.054768085E-2
1.699084944E1,6.022083759E-1,-4.574507847E-2,1.418778151E-1
1.701084944E1,6.214244962E-1,-1.185602173E-1,1.960004717E-1
1.703084944E1,5.405633450E-1,-1.502204835E-1,2.614677846E-1
1.705084944E1,4.127005637E-1,-7.857472450E-2,3.100228310E-1
1.707084944E1,2.223200351E-1,1.680752039E-1,3.346843421E-1
1.709084944E1,-4.413937777E-2,7.288320661E-1,3.113492727E-1
1.711084944E1,-2.259328663E-1,1.505346417E0,2.698977292E-1
1.713084944E1,-2.218138874E-1,2.015959978E0,2.599493265E-1
1.715084944E1,-1.319818050E-1,2.203320980E0,2.945243120E-1
1.717084944E1,-6.457718462E-2,2.200563431E0,3.193952441E-1
1.719084944E1,-3.494149074E-2,2.053117990E0,3.118379712E-1
1.721084944E1,-5.475097895E-2,1.492797613E0,2.906322181E-1
1.723084944E1,1.221730467E-2,2.403318323E-2,4.516213834E-1
1.725084944E1,1.829977781E-1,-1.572402000E0,5.644394755E-1
1.727084944E1,9.876818210E-2,-1.674957514E0,5.175250173E-1
1.729084944E1,-2.713812590E-1,-6.682342291E-1,4.485146999E-1
1.731084944E1,-2.352180183E-1,5.095139742E-1,4.015129805E-1
1.733084944E1,5.907939374E-2,1.235780358E0,3.619987369E-1
1.735084944E1,-2.268928103E-2,1.429860950E0,3.308795094E-1
1.737084944E1,-2.837556303E-1,1.359855771E0,3.227462769E-1
1.739084944E1,-3.434109688E-1,1.141846776E0,3.466398418E-1
1.741084944E1,-2.142042518E-1,9.313949347E-1,3.456275463E-1
1.743084944E1,-3.726277873E-2,8.629257083E-1,3.273190558E-1
1.745084944E1,1.037074625E-1,1.013599992E0,2.819928527E-1
1.747085100E1,1.834166497E-1,1.141410470E0,1.759117395E-1
1.749085100E1,2.423738688E-1,1.162982702E0,7.925540209E-2
1.751284944E1,2.540675700E-1,1.054074168E0,-3.530801088E-2
1.753284944E1,3.608293831E-1,4.865978062E-1,-5.167919770E-2
1.755284944E1,4.867897928E-1,-2.741912194E-2,-6.726498902E-2
1.757284944E1,5.409124494E-1,-3.679852188E-1,-8.061675727E-2
1.759284944E1,5.924694538E-1,-5.859245062E-1,-1.026079059E-1
1.761284944E1,6.640279889E-1,-7.449763417E-1,-1.432740837E-1
1.763284944E1,7.150264978E-1,-8.146149516E-1,-1.585282534E-1
1.765284944E1,6.825459003E-1,-7.234564424E-1,-1.761735380E-1
1.767284944E1,6.333625317E-1,-5.683839321E-1,-1.978505254E-1
1.769284944E1,5.823814869E-1,-4.427027702E-1,-1.918814927E-1
1.771284944E1,5.031086206E-1,-4.213050306E-1,-1.730319411E-1
1.773284944E1,4.324402213E-1,-4.606098533E-1,-1.291543692E-1
1.775284944E1,3.512475193E-1,-3.801850677E-1,-7.353071868E-2
1.777284944E1,2.488664985E-1,-6.806784123E-2,-4.532619938E-2
1.779284944E1,1.696983576E-1,1.508139074E-1,-2.478367463E-2
1.781284944E1,1.382998824E-1,2.316924632E-1,5.794493016E-3
1.783284944E1,1.143190637E-1,3.051010072E-1,3.789109737E-2
1.785284944E1,1.161342114E-1,3.354871869E-1,8.281587064E-2
1.787284944E1,1.369385272E-1,2.658310831E-1,1.343030781E-1
1.789284944E1,1.888620704E-1,6.115633622E-2,2.111848444E-1
1.791284944E1,2.317971736E-1,-2.516066730E-1,3.414387703E-1
1.793284944E1,2.398780584E-1,-5.561840534E-1,4.371526241E-1
1.795284944E1,2.089682668E-1,-8.716872334E-1,4.499633312E-1
1.797284944E1,1.369036287E-1,-1.268732190E0,4.282514453E-1
1.799285100E1,3.127630055E-2,-1.727858543E0,3.965213597E-1
1.801484944E1,-1.448099613E-1,-2.048405647E0,3.426953852E-1
1.803484944E1,-2.630734742E-1,-1.766325593E0,2.537708580E-1
1.805484944E1,-2.383770645E-1,-8.997172117E-1,1.690874994E-1
1.807484944E1,-8.169886470E-2,-1.907470375E-1,9.855873883E-2
1.809485100E1,-1.127482671E-2,6.204645336E-2,5.108578876E-2
1.811685100E1,-9.543460608E-2,6.475171540E-3,4.787437990E-2
1.813885569E1,-2.681000233E-1,-2.765823305E-1,8.168140799E-2
1.816084944E1,-3.933099508E-1,-6.984633207E-1,1.076693609E-1
1.818084944E1,-4.132066965E-1,-1.053882122E0,1.153662652E-1
1.820084944E1,-3.984935880E-1,-1.263112187E0,7.860963047E-2
1.822084944E1,-4.086863101E-1,-1.263531089E0,2.693043090E-2
1.824085100E1,-4.500331581E-1,-1.157956123E0,-5.742133129E-3
1.826286819E1,-5.200383067E-1,-9.858666658E-1,-1.094321441E-2
1.828484944E1,-5.748067498E-1,-8.155574203E-1,-3.717551380E-2
1.830484944E1,-5.813691616E-1,-5.928883553E-1,-6.777113676E-2
1.832484944E1,-5.906543136E-1,-3.773052692E-1,-5.216789246E-2
1.834484944E1,-5.831494331E-1,-2.525142431E-1,-4.810127243E-2
1.836484944E1,-5.511051416E-1,-1.508313566E-1,-5.497787148E-2
1.838484944E1,-5.085191131E-1,-4.665265232E-2,-7.771950960E-2
1.840484944E1,-4.794070423E-1,2.707005665E-2,-7.429866493E-2
1.842484944E1,-4.416730106E-1,6.749188155E-2,-6.152285635E-2
1.844484944E1,-3.951425552E-1,1.085594818E-1,-4.787437990E-2
1.846484944E1,-3.516314924E-1,1.788264364E-1,-2.506292798E-2
1.848484944E1,-3.111223876E-1,2.506991029E-1,6.544984877E-3
1.850484944E1,-2.719571888E-1,2.606998384E-1,4.024729133E-2
1.852484944E1,-2.203303576E-1,2.352703810E-1,7.422885299E-2
1.854484944E1,-1.572541595E-1,1.604132056E-1,1.368338168E-1
1.856484944E1,-6.726498902E-2,4.848524556E-2,1.889493465E-1
1.858484944E1,2.825688012E-2,-1.970476657E-2,2.086541057E-1
1.860484944E1,1.249655709E-1,-1.115788966E-1,2.456900030E-1
1.862484944E1,9.016370773E-2,-3.031811416E-1,2.717826664E-1
1.864484944E1,-5.428671837E-1,-9.728989005E-1,3.683691919E-1
1.866484944E1,-1.765103817E0,-2.068913221E0,4.467344880E-1
1.868484944E1,-1.980442524E0,-1.894397855E0,2.882934809E-1
1.870484944E1,-1.513217926E0,-1.835684896E0,1.026428118E-1
1.872484944E1,-9.133482575E-1,-2.536521912E0,7.805112749E-2
1.874485725E1,-4.093320668E-1,-2.441994905E0,1.401499361E-1
1.876684944E1,-2.014633566E-1,-1.277057409E0,1.965589821E-1
1.878686194E1,-7.267551124E-2,-2.387610376E-1,2.354798168E-1
1.880884944E1,-9.302604944E-3,5.939704776E-1,2.215520889E-1
1.882884944E1,-1.078788042E-1,9.680643082E-1,1.748470813E-1
1.884884944E1,-1.929810494E-1,1.130502105E0,6.878342479E-2
1.886884944E1,-1.440943778E-1,1.198133588E0,-4.384266958E-2
1.888884944E1,6.827727705E-2,1.102384806E0,-1.387711316E-1
1.890884944E1,3.582288325E-1,9.811717272E-1,-2.324254960E-1
1.892884944E1,6.025050879E-1,7.963762879E-1,-2.779436707E-1
1.894884944E1,7.533364892E-1,5.114163756E-1,-2.880316973E-1
1.896884944E1,7.781375647E-1,1.415287554E-1,-2.831098437E-1
1.898884944E1,6.908187866E-1,-1.846383810E-1,-2.883109450E-1
1.900884944E1,5.503371954E-1,-4.118627906E-1,-2.818532288E-1
1.902884944E1,4.397880733E-1,-5.346641541E-1,-2.696533799E-1
1.904884944E1,4.230852723E-1,-4.553738534E-1,-2.754129469E-1
1.906884944E1,4.320737123E-1,-1.736777127E-1,-2.884854674E-1
1.908884944E1,4.213050306E-1,1.172337681E-1,-2.749068141E-1
1.910884944E1,3.581939340E-1,3.111747503E-1,-2.226865590E-1
1.912884944E1,2.492679209E-1,3.278950155E-1,-1.845511198E-1
1.914884944E1,1.409527957E-1,3.418925405E-1,-1.440594792E-1
1.916884944E1,4.111995548E-2,4.032583237E-1,-8.018042892E-2
1.918884944E1,-2.830924094E-2,3.890862465E-1,-4.057890549E-2
1.920884944E1,-5.185373127E-2,4.448844194E-1,-3.124139272E-2
1.922884944E1,-3.808308393E-2,5.770581961E-1,-5.859070271E-2
1.924884944E1,-1.480039209E-2,6.475346088E-1,-1.028347984E-1
1.926884944E1,2.560397983E-2,6.301685572E-1,-1.507091820E-1
1.928885256E1,4.307472706E-2,6.184749007E-1,-1.914975196E-1
1.931084944E1,2.467895485E-2,5.613502264E-1,-2.108183205E-1
1.933084944E1,-2.830924094E-2,4.817108810E-1,-2.089333683E-1
1.935084944E1,-9.456194192E-2,4.270646274E-1,-1.672374457E-1
1.937084944E1,-1.115614474E-1,3.199363053E-1,-1.078613475E-1
1.939084944E1,-4.118977115E-3,6.352998316E-2,-9.812241048E-2
1.941084944E1,1.441467404E-1,-2.150071114E-1,-7.333873212E-2
1.943084944E1,2.654820383E-1,-4.343077242E-1,-7.831292599E-2
1.945084944E1,3.061830997E-1,-5.118876100E-1,-9.742427617E-2
1.947084944E1,2.987654507E-1,-5.613502264E-1,-1.033933014E-1
1.949084944E1,2.648188174E-1,-6.299242377E-1,-8.335692436E-2
1.951084944E1,1.764353365E-1,-6.555805802E-1,-5.324999616E-2
1.953086662E1,7.937757671E-2,-5.975832939E-1,-2.090904489E-2
1.955284944E1,-5.846852902E-3,-5.244888663E-1,9.808750823E-3
1.957284944E1,-2.513274178E-2,-5.374392271E-1,3.618067503E-2
1.959284944E1,5.010840297E-2,-5.938133597E-1,5.152212083E-2
1.961284944E1,1.697158217E-1,-6.428047419E-1,5.749114603E-2
1.963284944E1,3.089407384E-1,-6.940650940E-1,5.962044746E-2
1.965284944E1,4.192455411E-1,-7.729539871E-1,4.850269854E-2
1.967284944E1,4.657585621E-1,-8.821941018E-1,5.235987902E-2
1.969285100E1,4.750262499E-1,-9.909107089E-1,2.190388180E-2
1.971285100E1,4.702266157E-1,-1.116766334E0,-3.939208016E-2
1.973484944E1,4.131368995E-1,-1.288018107E0,-7.969173044E-2
1.975484944E1,3.001268208E-1,-1.537251115E0,-3.530801088E-2
1.977484944E1,5.239478499E-2,-1.905044317E0,6.614797749E-3
1.979484944E1,-3.286105990E-1,-2.075283766E0,4.672246426E-2
1.981484944E1,-5.046095848E-1,-1.543150306E0,7.529350370E-2
1.983484944E1,-3.326248527E-1,-7.279244661E-1,6.696828455E-2
1.985484944E1,-1.222428605E-1,-2.160019428E-1,2.343977243E-2
1.987484944E1,-1.747947186E-1,1.736602560E-2,4.855506122E-2
1.989484944E1,-3.849323690E-1,4.413937777E-2,9.258971363E-2
1.991484944E1,-5.428148508E-1,-3.764675185E-2,1.055400595E-1
1.993484944E1,-5.940577388E-1,-9.157742560E-2,9.440486133E-2
1.995484944E1,-5.861688256E-1,-1.382300705E-1,9.290387481E-2
1.997484944E1,-5.697103739E-1,-2.366142869E-1,8.463101834E-2
1.999484944E1,-5.326395631E-1,-2.389704734E-1,8.471827954E-2
2.001484944E1,-4.826533496E-1,-2.297027856E-1,8.063421398E-2
2.003484944E1,-4.494920969E-1,-2.272593230E-1,7.925540209E-2
2.005484944E1,-4.155105352E-1,-2.222676724E-1,7.120943069E-2
2.007484944E1,-4.152487218E-1,-1.915673316E-1,6.328564137E-2
2.009484944E1,-4.373969734E-1,-2.221804112E-1,7.953465730E-2
2.011484944E1,-4.534539878E-1,-1.939758956E-1,8.616690338E-2
2.013484944E1,-4.622853696E-1,-1.730668545E-1,6.564183533E-2
2.015484944E1,-4.901408255E-1,-1.528733820E-1,6.099925563E-2
2.017484944E1,-5.043128729E-1,-1.672548950E-1,4.722860828E-2
2.019484944E1,-5.215916634E-1,-1.533620805E-1,3.106686100E-2
2.021484944E1,-5.833588243E-1,-1.591391265E-1,3.628539667E-2
2.023484944E1,-6.693686843E-1,-3.105289936E-1,6.143558770E-3
2.025484944E1,-7.241894603E-1,-6.043202281E-1,-5.707226694E-2
2.027484944E1,-6.683214903E-1,-8.218057156E-1,-1.351233870E-1
2.029484944E1,-4.973141253E-1,-9.491972923E-1,-2.223898470E-1
2.031484944E1,-2.782403827E-1,-1.082208872E0,-3.366391063E-1
2.033484944E1,-1.169196069E-1,-1.264979720E0,-4.593706429E-1
2.035484944E1,-5.181882530E-2,-1.508296132E0,-5.641776919E-1
2.037484944E1,-4.431391135E-2,-1.863278627E0,-6.216513515E-1
2.039484944E1,-9.592155218E-1,-2.908364296E0,-4.156152606E-1
2.041484944E1,-1.948677540E0,-3.764710188E0,-4.165751934E-1
2.043484944E1,-1.291561127E0,-2.813348532E0,-5.435653329E-1
2.045484944E1,-5.337914824E-1,-1.237490773E0,-4.323180616E-1
2.047484944E1,-2.536137998E-1,7.853981806E-4,-3.690847754E-1
2.049484944E1,-1.483529806E-1,5.733755827E-1,-4.130845368E-1
2.051484944E1,-9.731955826E-2,2.205921561E-1,-4.052479863E-1
2.053484944E1,-1.327148378E-1,-5.911954045E-1,-3.653497696E-1
2.055484944E1,-1.831199378E-1,-1.307705402E0,-3.034952879E-1
2.057484944E1,-1.796292812E-1,-1.763794780E0,-2.446253449E-1
2.059484944E1,-1.067966968E-1,-1.960283995E0,-2.179741710E-1
2.061484944E1,8.274605870E-2,-2.065946341E0,-2.070135027E-1
2.063484944E1,2.701420486E-1,-2.058825254E0,-2.284985036E-1
2.065485100E1,2.084272206E-1,-1.731418967E0,-2.881887555E-1
2.067684944E1,-3.413863853E-2,-1.115911126E0,-2.548878789E-1
2.069684944E1,-5.881759524E-2,-7.209082246E-1,-1.843067706E-1
2.071684944E1,-4.623377323E-2,-4.231550694E-1,-1.711295396E-1
2.073684944E1,-7.192502171E-2,-3.385415077E-1,-1.298001409E-1
2.075685100E1,-1.749867052E-1,-4.728271365E-1,-4.930555075E-2
2.077884944E1,-2.750289738E-1,-7.885397673E-1,2.720968239E-2
2.079884944E1,-2.973517478E-1,-1.040460587E0,1.133067757E-1
2.081885881E1,-2.736152709E-1,-1.145424724E0,1.833817512E-1
2.084084944E1,-2.293711752E-1,-1.176421762E0,1.907121241E-1
2.086084944E1,-2.155656219E-1,-1.092349172E0,1.668185741E-1
2.088084944E1,-2.389530241E-1,-9.765640497E-1,1.488765776E-1
2.090084944E1,-2.484999746E-1,-9.745569229E-1,1.425061375E-1
2.092086819E1,-1.692620367E-1,-9.953089356E-1,1.015781611E-1
2.094284944E1,-5.532693584E-3,-9.293703437E-1,5.417501926E-2
2.096286819E1,1.438674927E-1,-8.272860646E-1,-2.733185515E-2
2.098484944E1,2.450442314E-1,-7.571936250E-1,-1.144936010E-1
2.100484944E1,3.233397007E-1,-7.460235357E-1,-1.987231821E-1
2.102484944E1,3.821398318E-1,-6.521248221E-1,-3.203202784E-1
2.104484944E1,4.649208188E-1,-6.354219913E-1,-3.657512069E-1
2.106484944E1,4.725304544E-1,-4.540299475E-1,-4.137128592E-1
2.108484944E1,2.925695479E-1,-1.052782610E-1,-3.613704145E-1
2.110484944E1,1.099557430E-2,-2.990970612E-1,-2.402794808E-1
2.112484944E1,-1.370432526E-1,-1.065698028E0,-8.477064222E-2
2.114484944E1,-1.772905439E-1,-1.581058860E0,1.024508290E-2
2.116484944E1,-3.372848630E-1,-1.386437178E0,-9.005898610E-3
2.118484944E1,-6.026098132E-1,-6.854606271E-1,-1.052258983E-1
2.120484944E1,-5.949129462E-1,-1.068490595E-1,-2.055125237E-1
2.122484944E1,-3.090279996E-1,2.926219106E-1,-1.999623775E-1
2.124484944E1,-7.705628872E-2,2.155307084E-1,-2.453409284E-1
2.126484944E1,-6.042329967E-2,-7.941248268E-2,-2.748893499E-1
2.128484944E1,-1.568701863E-1,-3.552268744E-1,-2.780134976E-1
2.130484944E1,-2.419200838E-1,-5.559048057E-1,-2.801253498E-1
2.132484944E1,-2.320415229E-1,-6.070778966E-1,-2.951351702E-1
2.134484944E1,-1.316850930E-1,-4.286703169E-1,-3.162012994E-1
2.136484944E1,3.153809905E-2,-1.822298318E-1,-3.176150024E-1
2.138484944E1,2.168571651E-1,-1.665044017E-2,-2.718001306E-1
2.140484944E1,3.931179643E-1,-7.311183959E-2,-1.805543154E-1
2.142484944E1,4.777489603E-1,-2.441541106E-1,-1.093972400E-1
2.144484944E1,4.539775848E-1,-3.405486345E-1,-5.839871615E-2
2.146484944E1,3.612482548E-1,-4.405036569E-1,3.312635049E-2
2.148484944E1,2.860769033E-1,-4.985533059E-1,1.053655297E-1
2.150484944E1,2.030516118E-1,-5.485744476E-1,2.548180707E-2
2.152484944E1,1.471312530E-2,-9.007120728E-1,1.689827740E-1
2.154484944E1,-1.878148764E-1,-1.147117615E0,4.181285203E-1
2.156484944E1,-2.529854774E-1,-1.165164351E0,4.839797914E-1
2.158485100E1,-8.093091846E-2,-9.842435122E-1,2.899864614E-1
2.160684944E1,1.669581980E-1,-8.482300043E-1,2.026327252E-1
2.162685100E1,3.876027167E-1,-6.234664917E-1,5.120795965E-2
2.164886506E1,3.953519762E-1,-2.511005104E-1,-8.597491682E-2
2.167084944E1,1.921782047E-1,-3.159045875E-1,-1.352455616E-1
2.169084944E1,7.005751878E-2,-5.545260310E-1,-1.355946362E-1
2.171084944E1,1.251401007E-1,-6.034301519E-1,-1.418603659E-1
2.173084944E1,3.182956874E-1,-2.298773080E-1,-2.961474657E-1
2.175084944E1,4.475024045E-1,2.040813416E-1,-2.878920734E-1
2.177084944E1,4.098381996E-1,4.202927351E-1,-3.184353113E-1
2.179084944E1,2.077639997E-1,7.975107431E-1,-3.799058199E-1
2.181084944E1,-1.624028832E-1,1.137186766E0,-3.026750088E-1
2.183084944E1,-5.385038853E-1,1.107550979E0,-2.366142869E-1
2.185084944E1,-8.331678510E-1,6.623349786E-1,-2.572091818E-1
2.187084944E1,-1.153453231E0,2.476622164E-1,-2.985385656E-1
2.189084944E1,-1.318875551E0,3.917391598E-1,-2.495646328E-1
2.191084944E1,-1.224418283E0,1.048907995E0,-1.291543692E-1
2.193084944E1,-1.005117655E0,1.631237030E0,-7.045894116E-2
2.195084944E1,-7.361624241E-1,1.966567159E0,-1.263618320E-1
2.197084944E1,-4.640655816E-1,1.855162859E0,-1.140049100E-1
2.199085413E1,-2.540326715E-1,1.648899794E0,-9.845402092E-2
2.201284944E1,-8.138470352E-2,1.728224993E0,-1.374970376E-1
2.203284944E1,-4.604178667E-2,1.746289134E0,-1.622108966E-1
2.205285100E1,-9.522516280E-2,1.480702400E0,-9.147270769E-2
2.207484944E1,-1.610764414E-1,9.499652386E-1,2.501056902E-2
2.209484944E1,-1.530828327E-1,4.731587470E-1,1.774301678E-1
2.211484944E1,-8.400269598E-2,-1.727875881E-2,3.205471635E-1
2.213484944E1,7.225663215E-2,-5.357113481E-1,4.195596874E-1
2.215484944E1,2.605776489E-1,-8.065864444E-1,4.110250473E-1
2.217484944E1,4.282165170E-1,-9.604023099E-1,3.839026093E-1
2.219484944E1,5.637064576E-1,-1.055365682E0,3.697654605E-1
2.221484944E1,6.398900747E-1,-1.098196030E0,3.173532188E-1
2.223484944E1,4.568922818E-1,-9.682562947E-1,2.155830711E-1
2.225484944E1,-4.460538030E-1,-9.352172017E-1,1.676912308E-1
2.227484944E1,-8.267101049E-1,-8.259421587E-1,6.963863969E-2
2.229484944E1,-2.111848444E-2,2.073974758E-1,4.361577705E-2
2.231484944E1,5.633050203E-1,1.431414366E0,-1.746201962E-1
2.233484944E1,6.080378294E-1,2.151188135E0,-3.441963792E-1
2.235484944E1,3.907617629E-1,1.764266014E0,-2.446427941E-1
2.237484944E1,1.197470427E-1,2.738072574E-1,-3.986331820E-2
2.239484944E1,-2.707354724E-1,-9.739984274E-1,-2.021091245E-2
2.241484944E1,-5.378057361E-1,-1.431082726E0,-5.061454722E-4
2.243484944E1,-5.157098770E-1,-1.263635874E0,3.892084118E-3
2.245484944E1,-4.072551131E-1,-1.051334023E0,-1.769763790E-2
2.247484944E1,-2.775771618E-1,-7.615918517E-1,-6.764896214E-2
2.249484944E1,-1.397310644E-1,-5.670923591E-1,-8.265879005E-2
2.251484944E1,-9.072221071E-2,-8.580911160E-1,-7.571238279E-2
2.253484944E1,-6.894050539E-2,-1.304389238E0,-8.897688240E-2
2.255484944E1,-1.401499379E-2,-1.706286192E0,-1.321388781E-1
2.257484944E1,5.063199997E-2,-1.874431252E0,-1.671152711E-1
2.259484944E1,1.166403517E-1,-1.965537429E0,-1.692794859E-1
2.261484944E1,1.933650225E-1,-1.884763598E0,-1.047023013E-1
2.263484944E1,2.552543879E-1,-1.633139491E0,-2.457423508E-2
2.265484944E1,2.510307133E-1,-1.467176080E0,-1.764527895E-2
2.267484944E1,2.171538621E-1,-1.608512878E0,2.457423508E-2
2.269484944E1,1.461015046E-1,-1.974613190E0,1.585282534E-1
2.271484944E1,2.912954427E-2,-2.223113060E0,2.700373530E-1
2.273484944E1,-1.098684743E-1,-2.109230280E0,3.072128594E-1
2.275484944E1,-1.638689637E-1,-1.759693265E0,2.518335581E-1
2.277484944E1,-8.792968839E-2,-1.402057886E0,2.350260317E-1
2.279484944E1,-9.599310579E-4,-8.790874481E-1,2.224247605E-1
2.281484944E1,-5.965535343E-2,-1.069537774E-1,8.459610492E-2
2.283484944E1,-1.866629571E-1,5.276479125E-1,3.115412779E-2
2.285484944E1,-2.698453665E-1,9.615716934E-1,-6.422811747E-2
2.287484944E1,-3.068288863E-1,1.354968905E0,-1.403593719E-1
2.289484944E1,-2.681698501E-1,1.514998198E0,-1.552644968E-1
2.291484944E1,-2.083224952E-1,1.670297503E0,-1.914626211E-1
2.293484944E1,-1.875879914E-1,1.626803994E0,-2.788861692E-1
2.295484944E1,-7.066838443E-2,1.456721544E0,-2.815216184E-1
2.297484944E1,1.688431501E-1,9.982236028E-1,-2.188991904E-1
2.299484944E1,2.563714087E-1,3.640058637E-1,-1.566956639E-1
2.301484944E1,-8.117875457E-1,1.199041158E-1,-1.770636588E-1
2.303484944E1,-1.492640495E0,9.243088961E-1,1.222254038E-1
2.305484944E1,-7.065790892E-1,1.997285008E0,1.512502283E-1
2.307484944E1,4.824090004E-2,2.922449112E0,-2.946115844E-2
2.309484944E1,3.816685975E-1,2.963237524E0,-3.532546386E-2
2.311484944E1,4.185648561E-1,2.361953974E0,5.316272750E-2
2.313484944E1,3.030415177E-1,1.380572915E0,1.710248142E-1
2.315484944E1,1.808510125E-1,5.273163319E-1,3.129026294E-1
2.317484944E1,1.497492492E-1,-2.068215236E-2,4.617094100E-1
2.319485100E1,2.320066094E-1,-3.977256417E-1,5.358684659E-1
2.321684944E1,4.053701758E-1,-6.080378294E-1,4.798957407E-1
2.323684944E1,5.701816082E-1,-7.050431967E-1,4.007450342E-1
2.325684944E1,7.371223569E-1,-8.628209829E-1,3.403392136E-1
2.327684944E1,8.618785143E-1,-1.056796908E0,2.825513482E-1
2.329684944E1,8.098502159E-1,-9.774367213E-1,1.600990444E-1
2.331684944E1,4.220729768E-1,-6.291388273E-1,3.776892647E-2
2.333684944E1,-2.559874356E-1,-1.179668009E-1,-2.372775078E-1
2.335684944E1,-6.326818466E-2,3.743731380E-1,-3.457148075E-1
2.337684944E1,2.639985085E-1,9.562309980E-1,-5.102644563E-1
2.339684944E1,5.474050641E-1,1.291980028E0,-5.784021020E-1
2.341684944E1,3.953694403E-1,1.313936234E0,-5.899212956E-1
2.343684944E1,-1.687035263E-1,5.995380282E-1,-3.011216521E-1
2.345684944E1,-7.158119082E-1,-2.608045638E-1,2.588323317E-2
2.347684944E1,-8.292931914E-1,-1.349837631E-1,1.192583442E-1
2.349684944E1,-6.620382667E-1,1.920211166E-1,9.276425093E-2
2.351684944E1,-3.456973732E-1,6.565928459E-2,1.162389293E-2
2.353684944E1,-6.654940546E-2,-3.106336892E-1,-3.735004691E-3
2.355684944E1,-3.242821619E-2,-6.505889297E-1,-1.890191622E-2
2.357684944E1,-5.970771238E-2,-1.021244526E0,-6.401867419E-2
2.359684944E1,-9.791296907E-3,-1.203107834E0,-9.032078832E-2
2.361684944E1,1.008625776E-1,-1.086397648E0,-1.186300293E-1
2.363684944E1,2.538232207E-1,-8.976228237E-1,-1.180366203E-1
2.365684944E1,3.933273852E-1,-7.799178362E-1,-1.022762954E-1
2.367684944E1,5.272814035E-1,-7.307868004E-1,-5.974261835E-2
2.369685100E1,5.820149183E-1,-6.639232635E-1,3.925245628E-2
2.371685100E1,5.538976789E-1,-6.473600864E-1,1.665218621E-1
2.373884944E1,5.625196099E-1,-4.991990626E-1,2.556209266E-1
2.375884944E1,6.771877408E-1,-2.310117781E-1,3.623129129E-1
2.377884944E1,8.617563248E-1,-1.107411385E-1,4.852364361E-1
2.379885100E1,1.053777456E0,-2.799158990E-1,5.682442784E-1
2.382084944E1,1.104898095E0,-4.601211548E-1,5.429893732E-1
2.384084944E1,9.183399081E-1,-3.502003253E-1,4.333477914E-1
2.386084944E1,6.342177391E-1,-5.113814492E-3,3.330786228E-1
2.388084944E1,4.640306830E-1,2.129127085E-1,2.770710289E-1
2.390084944E1,4.520926476E-1,3.338640332E-1,1.361182332E-1
2.392084944E1,3.623303473E-1,6.488087177E-1,-6.871361285E-2
2.394084944E1,3.467969224E-2,1.193700433E0,-2.156877816E-1
2.396084944E1,-3.657861054E-1,1.571861029E0,-3.130073547E-1
2.398084944E1,-7.920478582E-1,1.846872449E0,-3.221877813E-1
2.400085100E1,-1.138129234E0,1.778019309E0,-2.698977292E-1
2.402085100E1,-1.272659183E0,1.414222836E0,-2.692868412E-1
2.404284944E1,-1.110448241E0,1.030128241E0,-3.333229721E-1
2.406286819E1,-7.502821088E-1,8.842012286E-1,-3.267081678E-1
2.408485100E1,-4.184426963E-1,5.895198584E-1,-2.956413329E-1
2.410684944E1,-3.768514991E-1,2.163859159E-1,-3.399901390E-1
2.412684944E1,-6.783047318E-1,1.894554943E-1,-3.788760602E-1
2.414684944E1,-1.111861944E0,4.264188409E-1,-3.470238149E-1
2.416684944E1,-9.826203585E-1,5.212076902E-1,-2.456376404E-1
2.418684944E1,-5.424658060E-1,6.513743401E-1,-1.560149789E-1
2.420684944E1,-2.140122652E-1,7.663915157E-1,-1.215970889E-1
2.422684944E1,-6.236061454E-2,7.370525599E-1,-3.330088034E-2
2.424684944E1,-6.393141299E-2,4.310614169E-1,9.183922410E-2
2.426684944E1,-1.339016557E-1,-8.318239450E-2,2.600016892E-1
2.428686194E1,-1.520181745E-1,-6.162408590E-1,4.178318083E-1
2.430886506E1,-8.424704522E-2,-9.992533326E-1,5.095837712E-1
2.433084944E1,1.035329327E-1,-1.275696039E0,5.346641541E-1
2.435084944E1,3.424685001E-1,-1.477264166E0,4.912578166E-1
2.437084944E1,4.965636134E-1,-1.436283827E0,4.157548845E-1
2.439084944E1,4.228409231E-1,-8.751953244E-1,2.606300116E-1
2.441084944E1,-1.004436985E-1,-7.557275891E-2,6.161012128E-2
2.443084944E1,-1.426457614E-1,3.821572959E-1,-1.164832711E-1
2.445084944E1,4.626867771E-1,1.085839152E0,-2.498089820E-1
2.447084944E1,5.897816420E-1,1.476845264E0,-3.667809367E-1
2.449084944E1,3.367263675E-1,1.359471798E0,-4.568050206E-1
2.451084944E1,1.884257495E-1,4.757069349E-1,-3.128328025E-1
2.453084944E1,2.319891602E-1,-6.112492085E-1,-1.249481216E-1
2.455084944E1,2.002939880E-1,-9.117425680E-1,-3.848451003E-2
2.457084944E1,-1.672025472E-1,-5.527632236E-1,-4.206243437E-3
2.459084944E1,-4.664217830E-1,-2.798810005E-1,7.052875310E-2
2.461084944E1,-5.015203357E-1,-3.129200935E-1,1.843765825E-1
2.463084944E1,-3.410896957E-1,-6.683389544E-1,1.383173466E-1
2.465084944E1,-5.560619012E-2,-9.582729936E-1,8.964011073E-2
2.467085100E1,1.024682820E-1,-1.114933729E0,1.507440805E-1
2.469285100E1,1.323483139E-1,-1.240004063E0,1.566083878E-1
2.471484944E1,1.046848446E-1,-1.327095985E0,1.014385372E-1
2.473484944E1,1.506742686E-1,-1.163750648E0,1.280198991E-1
2.475484944E1,2.578025758E-1,-9.451481700E-1,6.534512341E-2
2.477484944E1,3.616496623E-1,-7.875274420E-1,2.466150187E-2
2.479484944E1,4.620410204E-1,-7.311707735E-1,5.044001620E-3
2.481484944E1,5.070879459E-1,-8.494168520E-1,8.628907800E-2
2.483484944E1,4.492826462E-1,-1.091895461E0,2.329316437E-1
2.485484944E1,3.194127083E-1,-1.167590380E0,3.972893059E-1
2.487484944E1,1.702743173E-1,-1.240719676E0,3.850196302E-1
2.489484944E1,6.052801758E-2,-1.363084674E0,3.959802985E-1
2.491484944E1,1.059240326E-1,-1.366627693E0,4.683591127E-1
2.493484944E1,2.587974072E-1,-1.606942058E0,4.780980349E-1
2.495484944E1,4.198563993E-1,-2.085808039E0,3.759962916E-1
2.497484944E1,5.505466461E-1,-1.945919991E0,1.992991418E-1
2.499484944E1,4.658807218E-1,-8.085237741E-1,1.232202426E-1
2.501484944E1,1.584235430E-1,1.123642996E-1,2.575058639E-1
2.503484944E1,-4.721115530E-2,9.929177910E-2,3.493101895E-1
2.505484944E1,-8.407250792E-2,4.869468510E-3,2.489537597E-1
2.507484944E1,-1.983043104E-1,2.110277563E-1,-1.740093343E-2
2.509484944E1,-4.106585085E-1,6.910282373E-1,-1.244594306E-1
2.511484944E1,-7.055318952E-1,1.073569417E0,-1.357167959E-1
2.513484944E1,-1.008608341E0,1.491855025E0,-2.231228948E-1
2.515484944E1,-1.002133131E0,1.732413769E0,-1.974491030E-1
2.517484944E1,-7.567398548E-1,1.655619264E0,-2.886949182E-1
2.519484944E1,-5.311036706E-1,1.307879925E0,-4.220729768E-1
2.521484944E1,-3.687182665E-1,1.087165594E0,-4.072551131E-1
2.523484944E1,-2.967757881E-1,1.076693654E0,-4.198563993E-1
2.525484944E1,-3.440043926E-1,1.156088591E0,-4.075867534E-1
2.527484944E1,-4.684289098E-1,1.199442625E0,-3.338814974E-1
2.529484944E1,-5.529552102E-1,1.057564855E0,-2.640683055E-1
2.531484944E1,-5.369854569E-1,7.949451208E-1,-1.871167421E-1
2.533484944E1,-4.211130440E-1,4.826882482E-1,-1.138129234E-1
2.535484944E1,-2.108706832E-1,3.330786228E-1,-5.215043947E-2
2.537484944E1,2.190388180E-2,4.204498231E-1,1.099557383E-3
2.539484944E1,1.730144918E-1,5.405459404E-1,3.504621238E-2
2.541484944E1,2.760412693E-1,5.822418332E-1,5.855579674E-2
2.543484944E1,3.676012456E-1,5.364094973E-1,1.048942879E-1
2.545485100E1,4.413065016E-1,4.068362415E-1,1.344427168E-1
2.547684944E1,5.351528525E-1,1.666440368E-1,1.504648328E-1
2.549684944E1,6.295402646E-1,-4.214970022E-2,1.414589286E-1
2.551684944E1,7.296174169E-1,-2.278178334E-1,1.062730998E-1
2.553685725E1,7.974060178E-1,-3.620685637E-1,1.792453043E-2
2.555885569E1,5.419072509E-1,-1.007054932E-2,-1.377937496E-1
2.558084944E1,6.860889494E-2,7.463377118E-1,-3.419798017E-1
2.560084944E1,1.357167959E-1,9.793915153E-1,-3.702017963E-1
2.562084944E1,4.013035595E-1,1.047808409E0,-4.525638819E-1
2.564084944E1,6.847799420E-1,1.233406782E0,-5.056567788E-1
2.566084944E1,8.064468503E-1,1.128163338E0,-5.266879797E-1
2.568085100E1,6.091897488E-1,6.018593311E-1,-3.606199324E-1
2.570285100E1,-1.611462533E-1,3.584382534E-1,-1.694191098E-1
2.572484944E1,-8.098152876E-1,3.362725973E-1,-1.408655196E-1
2.574484944E1,-9.609957337E-1,5.269323587E-1,-1.210560352E-1
2.576484944E1,-8.561363816E-1,3.713537157E-1,-6.541494280E-2
2.578484944E1,-5.918236971E-1,1.745329238E-2,-8.536405116E-2
2.580484944E1,-2.875081003E-1,-3.942000568E-1,-6.332054734E-2
2.582484944E1,-7.771950960E-2,-7.653967142E-1,-1.811651699E-2
2.584484944E1,6.991788745E-2,-9.885894060E-1,5.885250121E-2
2.586484944E1,1.892111450E-1,-1.151480913E0,1.011941880E-1
2.588484944E1,2.652202249E-1,-1.271053433E0,1.131147891E-1
2.590484944E1,2.834240198E-1,-1.408288717E0,1.440769285E-1
2.592484944E1,2.659183741E-1,-1.439006567E0,1.985835582E-1
2.594484944E1,2.222851366E-1,-1.355841517E0,2.213252038E-1
2.596484944E1,2.030166984E-1,-1.089853406E0,2.069611400E-1
2.598484944E1,2.328618318E-1,-6.771528125E-1,1.788264364E-1
2.600484944E1,2.700547874E-1,-2.754653096E-1,1.515120268E-1
2.602484944E1,3.289422095E-1,1.514945831E-2,1.160643920E-1
2.604484944E1,4.005530477E-1,1.241801754E-1,1.390503794E-1
2.606484944E1,4.416730106E-1,-2.196322381E-1,1.678657681E-1
2.608484944E1,6.258575916E-1,-1.161848187E0,1.829803139E-1
2.610484944E1,1.176159978E0,-2.745559931E0,2.487966865E-1
2.612484944E1,1.707717419E0,-3.785881042E0,1.946042106E-2
2.614484944E1,1.301142931E0,-2.901958942E0,-5.369330645E-1
2.616484944E1,-1.174920797E0,-1.780445218E0,-5.329362750E-1
2.618484944E1,-2.811254263E0,2.569142103E0,-2.164033800E-1
2.620484944E1,-1.400748849E0,5.866749763E0,-5.443332791E-1
2.622485100E1,-4.406607151E-1,6.808075428E0,-8.047364354E-1
2.624485100E1,-2.550973296E-1,5.026303768E0,-5.589067936E-1
2.626684944E1,-4.475547671E-1,2.874539852E0,-4.249527752E-1
2.628686194E1,-4.840670526E-1,2.404452801E0,-3.561169803E-1
2.630884944E1,-5.319938064E-1,2.181644201E0,-2.090206295E-1
2.632885100E1,-5.537231565E-1,1.685097933E0,-4.677482322E-2
2.635084944E1,-3.841295242E-1,1.043864012E0,1.335700452E-1
2.637084944E1,-1.267981678E-1,5.742656589E-1,2.058790326E-1
2.639084944E1,4.722860828E-2,1.096590385E-1,2.677509487E-1
2.641084944E1,9.794788063E-2,-3.012961745E-1,3.500607014E-1
2.643084944E1,7.754497975E-2,-5.210505724E-1,4.352327585E-1
2.645084944E1,4.482005537E-2,-6.382145286E-1,4.766145051E-1
2.647084944E1,4.490732029E-2,-6.727022529E-1,4.580616653E-1
2.649084944E1,9.414306283E-2,-7.250446677E-1,4.404163957E-1
2.651084944E1,2.405587286E-1,-8.244586587E-1,4.025602043E-1
2.653085100E1,5.029864311E-1,-1.036725521E0,2.843839526E-1
2.655284944E1,7.734600902E-1,-1.072696805E0,1.107935011E-1
2.657284944E1,8.118224740E-1,-8.027293086E-1,-2.888519876E-2
2.659284944E1,4.781329334E-1,-3.649832606E-1,-1.609193534E-1
2.661284944E1,-2.140297294E-1,7.538077235E-2,-3.586302400E-1
2.663284944E1,-4.323180392E-2,3.967657089E-1,-4.344473481E-1
2.665284944E1,2.699500620E-1,9.848718643E-1,-3.878645301E-1
2.667284944E1,2.669306695E-1,1.571459532E0,-6.451958418E-1
2.669284944E1,2.608743608E-1,1.851515055E0,-8.117700815E-1
2.671284944E1,6.471331716E-1,1.314791441E0,-8.166919351E-1
2.673284944E1,8.516508341E-1,6.612529159E-1,-6.714630723E-1
2.675284944E1,2.157576084E-1,3.652450442E-1,-4.019144177E-1
2.677284944E1,-5.688900948E-1,-2.762157917E-1,-2.454980165E-1
2.679284944E1,-9.979792833E-1,-7.963937521E-1,-1.640085876E-1
2.681284944E1,-9.609084725E-1,-9.235235453E-1,-3.042108938E-2
2.683284944E1,-6.070953012E-1,-1.115160704E0,-1.055924222E-2
2.685284944E1,-3.031287789E-1,-1.407800078E0,-4.820599407E-2
2.687284944E1,-1.816713214E-1,-1.877136469E0,1.122246683E-2
2.689284944E1,-1.801179796E-1,-2.296940565E0,3.474950418E-2
2.691284944E1,-1.753706783E-1,-2.546208382E0,4.049163777E-3
2.693284944E1,-1.584235430E-1,-2.615655184E0,-3.612831468E-3
2.695284944E1,-9.400343150E-2,-2.536103010E0,-4.454080388E-2
2.697284944E1,3.448770568E-2,-2.329927206E0,-3.138101846E-2
2.699285100E1,1.923876405E-1,-2.102301359E0,5.871287733E-2
2.701484944E1,3.237411082E-1,-1.854517102E0,1.966636926E-1
2.703484944E1,3.273539543E-1,-1.834742427E0,3.193603456E-1
2.705484944E1,2.756049335E-1,-1.856524229E0,3.647040129E-1
2.707484944E1,2.364223003E-1,-1.579802275E0,2.778738737E-1
2.709485100E1,2.460216135E-1,-1.036097288E0,1.998052895E-1
2.711685100E1,3.099704683E-1,-3.769038618E-1,1.701521426E-1
2.713885725E1,4.611159861E-1,3.019419685E-2,2.270498872E-1
2.716084944E1,7.226186395E-1,-1.343903542E-1,3.772878349E-1
2.718084944E1,1.077199817E0,-6.480233073E-1,5.405633450E-1
2.720085100E1,1.210106611E0,-1.330237627E0,4.885351062E-1
2.722284944E1,1.127273202E0,-1.532940149E0,2.859547436E-1
2.724284944E1,8.545306325E-1,-1.170784354E0,2.108532190E-1
2.726286819E1,5.069657564E-1,-4.941027164E-1,1.512327790E-1
2.728484944E1,-1.300095767E-1,5.021137595E-1,-5.459389836E-2
2.730484944E1,-1.069171190E0,1.177713275E0,-1.962273717E-1
2.732484944E1,-1.909843922E0,1.494560361E0,-1.399928629E-1
2.734484944E1,-1.994841456E0,2.088181734E0,-1.339016557E-1
2.736484944E1,-1.615982890E0,2.751075268E0,-2.822022736E-1
2.738484944E1,-1.067059398E0,2.944230795E0,-4.211130440E-1
2.740484944E1,-6.499257088E-1,2.540640831E0,-4.542917609E-1
2.742484944E1,-4.532271028E-1,1.946269035E0,-4.558799863E-1
2.744484944E1,-3.277030289E-1,1.569417477E0,-4.473278821E-1
2.746484944E1,-2.306976169E-1,1.343467236E0,-4.089480937E-1
2.748484944E1,-2.398082316E-1,1.051630735E0,-3.379830122E-1
2.750484944E1,-3.366740048E-1,7.829372287E-1,-2.114466429E-1
2.752484944E1,-3.192730844E-1,6.120694876E-1,-7.471754402E-2
2.754484944E1,-2.216742635E-1,4.216715395E-1,8.988445625E-3
2.756484944E1,-5.452408642E-2,2.167000771E-1,8.433430642E-2
2.758484944E1,1.715833247E-1,7.847000659E-2,1.968033314E-1
2.760484944E1,2.928662598E-1,-8.560840040E-2,2.522873282E-1
2.762484944E1,3.073175848E-1,-3.383495212E-1,3.444232643E-1
2.764484944E1,2.982418537E-1,-6.638010740E-1,4.309915900E-1
2.766484944E1,3.049264848E-1,-9.695653319E-1,4.896171987E-1
2.768484944E1,3.491705656E-1,-1.194171667E0,4.955164194E-1
2.770484944E1,3.914424479E-1,-1.364062071E0,4.316722751E-1
2.772484944E1,3.432888091E-1,-1.528280139E0,3.382098973E-1
2.774484944E1,-2.861641943E-1,-1.835562825E0,2.649584413E-1
2.776484944E1,-1.505905032E0,-2.571254015E0,1.690351367E-1
2.778484944E1,-4.575031698E-1,-1.094984651E0,4.068362340E-2
2.780484944E1,6.568372250E-1,9.194045663E-1,-6.614797562E-2
2.782484944E1,8.442855477E-1,2.495262384E0,-2.381327152E-1
2.784484944E1,8.428543806E-1,3.497028828E0,-3.467794657E-1
2.786484944E1,7.396181822E-1,2.932554483E0,-2.365095615E-1
2.788484944E1,4.963367283E-1,8.576548100E-1,-1.022239327E-1
2.790484944E1,-8.953538723E-3,-2.835461795E-1,-1.429948211E-1
2.792484944E1,-4.388106763E-1,-8.806408048E-1,-1.255066246E-1
2.794484944E1,-7.030884624E-1,-5.531821251E-1,-5.719443783E-2
2.796484944E1,-7.167019844E-1,1.628392190E-2,-2.094395168E-4
2.798484944E1,-4.809254706E-1,1.059763953E-1,-7.246606797E-2
2.800484944E1,-2.826211751E-1,-1.778839529E-1,-1.193281636E-1
2.802484944E1,-1.205848008E-1,-6.861413121E-1,-1.235693097E-1
2.804484944E1,2.757620253E-2,-1.135109782E0,-1.084896624E-1
2.806484944E1,1.565734893E-1,-1.482988834E0,-1.171115935E-1
2.808484944E1,2.610663474E-1,-1.650575280E0,-1.117708832E-1
2.810484944E1,3.179291785E-1,-1.689408898E0,-9.206611663E-2
2.812484944E1,3.058864176E-1,-1.666038990E0,-2.642428502E-2
2.814484944E1,2.444682717E-1,-1.605912328E0,7.410667837E-2
2.816484944E1,1.777094305E-1,-1.513532043E0,1.768367589E-1
2.818484944E1,1.453510225E-1,-1.291404009E0,2.174156606E-1
2.820484944E1,1.577777565E-1,-9.654986858E-1,2.155656219E-1
2.822484944E1,2.282367051E-1,-5.799554586E-1,1.809906363E-1
2.824484944E1,3.399552405E-1,-2.203652710E-1,1.369559914E-1
2.826484944E1,4.275009334E-1,-3.260274976E-2,2.182185203E-1
2.828484944E1,4.978027940E-1,-2.472782433E-1,3.023957312E-1
2.830484944E1,7.091796398E-1,-9.755168557E-1,3.702715933E-1
2.832484944E1,9.917484522E-1,-1.619229198E0,3.892258704E-1
2.834484944E1,1.158008456E0,-2.150350332E0,2.919412255E-1
2.836484944E1,1.133975267E0,-2.066487312E0,1.501332223E-1
2.838484944E1,9.357408285E-1,-1.443369865E0,3.443534672E-2
2.840484944E1,6.076014638E-1,-5.883330107E-1,-5.972516537E-2
2.842484944E1,-6.216862798E-2,2.953795195E-1,-2.001194507E-1
2.844484944E1,-1.265695333E0,1.097794652E0,-3.464827538E-1
2.846484944E1,-2.066242933E0,1.888673186E0,-3.124837577E-1
2.848484944E1,-1.913474321E0,2.515682697E0,-2.590592206E-1
2.850484944E1,-1.344200253E0,2.811254263E0,-3.492054641E-1
2.852484944E1,-7.450985312E-1,2.806192636E0,-5.067389011E-1
2.854484944E1,-4.626867771E-1,2.448976278E0,-5.180835128E-1
2.856484944E1,-4.135034084E-1,1.907173634E0,-5.315051079E-1
2.858484944E1,-4.215493798E-1,1.469724298E0,-4.504171312E-1
2.860484944E1,-3.985110223E-1,1.133818269E0,-2.894628644E-1
2.862484944E1,-3.226241171E-1,8.134281635E-1,-1.289798319E-1
2.864484944E1,-2.149721980E-1,5.250822902E-1,-4.176572710E-2
2.866484944E1,-8.923868090E-2,3.085567653E-1,3.626793995E-2
2.868484944E1,1.549852360E-2,2.618866563E-1,9.060004354E-2
2.870484944E1,9.026842564E-2,2.679778636E-1,1.780584902E-1
2.872484944E1,1.060462072E-1,1.376541108E-1,2.564935982E-1
2.874484944E1,1.287180334E-1,-1.113694608E-1,3.404264748E-1
2.876484944E1,2.010095716E-1,-4.080056250E-1,3.665016890E-1
2.878484944E1,2.713114321E-1,-7.087956667E-1,3.742334843E-1
2.880485100E1,3.152413666E-1,-9.875945449E-1,3.572340012E-1
2.882685100E1,3.137578368E-1,-1.186230421E0,2.954842448E-1
2.884884944E1,5.747369304E-2,-1.390905261E0,1.971523911E-1
2.886884944E1,-1.214522243E0,-2.128202200E0,5.619960371E-3
2.888884944E1,-1.810604572E0,-2.544114113E0,-1.269901544E-1
2.890884944E1,-1.003564298E-1,-5.511400700E-1,-3.810053691E-2
2.892884944E1,8.227831125E-1,1.429215193E0,-2.067517042E-1
2.894884944E1,8.501324058E-1,3.031252861E0,-3.426255882E-1
2.896884944E1,7.184123993E-1,3.606600761E0,-2.809456587E-1
2.898885569E1,4.409748912E-1,1.825788975E0,-1.206022501E-2
2.901084944E1,-2.801253460E-2,4.122642279E-1,-1.211956665E-1
2.903084944E1,-3.819478452E-1,3.309318721E-1,-2.360557765E-1
2.905084944E1,-6.898239255E-1,7.695156336E-2,-1.499063224E-1
2.907084944E1,-9.545031190E-1,-1.801005304E-1,5.316272750E-2
2.909084944E1,-1.019551516E0,-2.874382734E-1,1.944296807E-2
2.911084944E1,-8.645662665E-1,-4.624947906E-1,-9.250245243E-2
2.913089162E1,-6.237457395E-1,-7.101221085E-1,-1.358040720E-1
2.915284944E1,-3.679328561E-1,-1.207697988E0,-2.003986984E-1
2.917284944E1,-1.460491568E-1,-1.777164102E0,-3.326248527E-1
2.919284944E1,8.047713339E-2,-2.311828136E0,-4.014431834E-1
2.921284944E1,3.282789886E-1,-2.375689745E0,-3.638138771E-1
2.923284944E1,4.797211885E-1,-2.162393093E0,-2.976833582E-1
2.925284944E1,5.098630190E-1,-1.706164002E0,-2.265088260E-1
2.927284944E1,4.901408255E-1,-1.095159173E0,-1.807637513E-1
2.929284944E1,4.965112507E-1,-3.733259141E-1,-1.812873483E-1
2.931284944E1,5.364792943E-1,3.177546561E-1,-9.491100162E-2
2.933284944E1,5.595874786E-1,7.267550826E-1,5.305801053E-3
2.935284944E1,5.516811013E-1,8.646011949E-1,6.318091601E-2
2.937284944E1,5.406506658E-1,6.116331816E-1,1.740442365E-1
2.939284944E1,5.015552640E-1,5.057964101E-2,3.802374303E-1
2.941284944E1,4.338713884E-1,-6.181257963E-1,3.989473581E-1
2.943284944E1,3.100228310E-1,-1.094967246E0,2.858500183E-1
2.945284944E1,2.234195918E-1,-1.397537470E0,1.826487035E-1
2.947284944E1,3.658733666E-1,-1.507248878E0,2.164906412E-1
2.949284944E1,8.090997338E-1,-1.465779901E0,4.044102430E-1
2.951284944E1,1.712569475E0,-2.137190580E0,5.385911465E-1
2.953285412E1,2.048283577E0,-2.089822292E0,1.593311131E-1
2.955484944E1,-9.644689411E-2,-2.334971189E0,-5.635668039E-1
2.957484944E1,-3.264917612E0,-6.681120396E-1,-4.916417897E-1
2.959484944E1,-2.187770128E0,2.502994061E0,1.372352391E-1
2.961484944E1,-6.889337897E-1,4.194165707E0,-6.614797562E-2
2.963484944E1,-1.025904566E-1,4.321505070E0,-5.209633112E-1
2.965484944E1,-1.883384734E-1,3.502020597E0,-6.099925637E-1
2.967484944E1,-4.347789586E-1,2.225835800E0,-4.673293531E-1
2.969484944E1,-6.769259572E-1,1.353293419E0,-3.281567991E-1
2.971484944E1,-7.820471525E-1,8.995252252E-1,-2.311688513E-1
2.973484944E1,-7.309438586E-1,7.279767990E-1,-1.369385272E-1
2.975484944E1,-5.440714955E-1,7.056715488E-1,-4.324925691E-2
2.977484944E1,-2.680651248E-1,6.936461926E-1,-1.520181727E-2
2.979484944E1,6.300638430E-3,5.890660882E-1,5.733406544E-2
2.981484944E1,1.741314977E-1,2.871415615E-1,1.643576622E-1
2.983484944E1,2.553940415E-1,-1.462585926E-1,2.759540081E-1
2.985484944E1,2.880840600E-1,-5.192005634E-1,3.333055377E-1
2.987484944E1,3.416481912E-1,-7.876321673E-1,3.756995797E-1
2.989484944E1,4.242546260E-1,-1.029814124E0,3.484026194E-1
2.991485100E1,5.364792943E-1,-1.242377758E0,2.685014606E-1
2.993684944E1,5.919982195E-1,-1.684888482E0,1.439547539E-1
2.995684944E1,-6.135705113E-1,-3.516908169E0,-1.351757497E-1
2.997684944E1,-2.884121656E0,-4.575572491E0,-4.766319692E-1
2.999684944E1,-8.702386022E-1,-2.257775307E0,-2.149198502E-1
3.001684944E1,6.022607684E-1,2.009624481E0,-7.083069682E-1
3.003684944E1,1.040512919E0,4.039006233E0,-7.082895041E-1
3.005684944E1,5.348212123E-1,3.498372793E0,-4.813618213E-2
3.007684944E1,1.442863643E-1,2.088007212E0,2.619215548E-1
3.009684944E1,-2.261946723E-2,2.339526653E0,-7.581710070E-2
3.011684944E1,-2.761634588E-1,1.796746612E0,-4.995830357E-1
3.013684944E1,-4.399974942E-1,8.999790549E-1,-4.820599258E-1
3.015684944E1,-7.290938497E-1,3.233745992E-1,-1.952848881E-1
3.017684944E1,-9.648877978E-1,-3.579844832E-1,-9.276425093E-2
3.019684944E1,-9.835453629E-1,-8.643568754E-1,-1.035154760E-1
3.021684944E1,-7.806857824E-1,-1.133137584E0,-1.286831200E-1
3.023684944E1,-5.151863098E-1,-1.348511219E0,-1.353677362E-1
3.025685100E1,-2.605602145E-1,-1.551353335E0,-1.181064323E-1
3.027884944E1,4.117231816E-2,-1.720231414E0,-1.042834222E-1
3.029885569E1,3.193254471E-1,-1.886229634E0,-1.330464482E-1
3.032084944E1,5.325697660E-1,-2.123088360E0,-1.345997900E-1
3.034084944E1,6.491228342E-1,-2.280691624E0,-3.602359444E-2
3.036084944E1,6.726324558E-1,-2.243132114E0,4.356341809E-2
3.038084944E1,5.930978060E-1,-1.895479918E0,8.958774805E-2
3.040084944E1,4.834387600E-1,-1.415409684E0,1.131496951E-1
3.042084944E1,4.460538030E-1,-8.372693658E-1,1.650383323E-1
3.044084944E1,4.861614704E-1,-2.929884195E-1,2.101027369E-1
3.046084944E1,5.976356268E-1,1.494176388E-1,2.503674924E-1
3.048085100E1,7.576474547E-1,2.358637899E-1,2.757445574E-1
3.050285100E1,1.011418343E0,-8.595572114E-1,3.381401002E-1
3.052484944E1,1.486758709E0,-2.416024446E0,4.283038080E-1
3.054484944E1,2.230077028E0,-3.587821007E0,4.512723386E-1
3.056484944E1,3.009174585E0,-3.518199682E0,2.322335094E-1
3.058484944E1,2.936062574E0,-1.913544059E0,-2.740341425E-1
3.060484944E1,-6.248103976E-1,-1.924644351E0,-7.738789916E-1
3.062484944E1,-2.768668175E0,2.637803316E0,-1.544790864E-1
3.064484944E1,-2.205921650E0,6.667681217E0,2.271196991E-1
3.066484944E1,-1.954768777E0,7.221980572E0,2.347467840E-2
3.068484944E1,-1.682759166E0,6.119438648E0,-1.802925169E-1
3.070484944E1,-9.949598312E-1,5.034873486E0,-1.244943365E-1
3.072484944E1,-3.267430961E-1,4.225634098E0,5.859070271E-2
3.074484944E1,-5.916666240E-2,3.569547415E0,1.429250091E-1
3.076484944E1,-4.035201296E-2,3.075095654E0,2.217440754E-1
3.078484944E1,-9.770353138E-2,2.709763288E0,2.905973196E-1
3.080484944E1,-1.093797833E-1,2.230129242E0,3.686484396E-1
3.082484944E1,-1.026777178E-1,1.591757774E0,4.485670626E-1
3.084484944E1,-1.302190125E-1,9.504190683E-1,4.859869182E-1
3.086484944E1,-1.679006666E-1,4.176921844E-1,4.984485805E-1
3.088484944E1,-1.473057866E-1,3.270747140E-2,4.849571884E-1
3.090484944E1,-5.845107511E-2,-1.577952206E-1,5.051332116E-1
3.092484944E1,9.896016866E-2,-3.090803623E-1,5.520825386E-1
3.094484944E1,2.957634926E-1,-5.094267130E-1,5.711764693E-1
3.096484944E1,5.305975676E-1,-6.841690540E-1,4.702789783E-1
3.098484944E1,7.569667697E-1,-7.923620343E-1,2.259852290E-1
3.100484944E1,1.050251842E0,-8.849343061E-1,9.756390937E-3
3.102484944E1,1.395809650E0,-6.838898063E-1,-1.776396036E-1
3.104484944E1,1.517703414E0,8.281587064E-2,-4.643099308E-1
3.106484944E1,1.230090618E0,1.575072408E0,-8.121540546E-1
3.108484944E1,8.660148978E-1,2.321357727E0,-7.206289768E-1
3.110484944E1,5.592035055E-1,2.183755875E0,-4.027870893E-1
3.112484944E1,5.203524828E-1,1.751647353E0,9.396852553E-2
3.114484944E1,2.725331485E-1,1.723599911E0,4.245338738E-1
3.116484944E1,-1.527512223E-1,1.594759703E0,3.789284229E-1
3.118484944E1,-4.727573395E-1,1.221486092E0,1.518436372E-1
3.120484944E1,-5.370727181E-1,5.772327185E-1,1.669058353E-1
3.122484944E1,-3.895225823E-1,-8.499753661E-3,3.463954926E-1
3.124484944E1,-2.124065757E-1,-4.507661760E-1,4.547280669E-1
3.126484944E1,-9.929177910E-2,-7.136825919E-1,4.632453024E-1
3.128484944E1,-4.356341809E-2,-8.742353916E-1,4.055621624E-1
3.130484944E1,-2.127556317E-2,-9.447467327E-1,3.918613195E-1
3.132484944E1,2.504547499E-2,-9.066461921E-1,3.804294169E-1
3.134484944E1,1.175304726E-1,-8.055567145E-1,3.840596974E-1
3.136484944E1,2.480287403E-1,-7.567223907E-1,3.748269081E-1
3.138484944E1,3.888942599E-1,-8.342848420E-1,3.996105790E-1
3.140484944E1,4.697553813E-1,-1.068298578E0,4.080405235E-1
3.142484944E1,4.683067501E-1,-1.299118400E0,4.638910592E-1
3.144484944E1,3.683342934E-1,-1.548892498E0,5.767614841E-1
3.146484944E1,3.055024445E-1,-1.727858543E0,6.657558680E-1
3.148484944E1,2.725855112E-1,-1.631690860E0,7.081673145E-1
3.150484944E1,2.786243558E-1,-1.224470615E0,6.330308914E-1
3.152484944E1,2.891661525E-1,-6.138148308E-1,4.676435292E-1
3.154484944E1,2.905274928E-1,1.789835095E-1,2.446253449E-1
3.156484944E1,2.833716571E-1,9.988693595E-1,5.396557972E-2
3.158484944E1,2.252172828E-1,1.581146121E0,-1.007229537E-1
3.160484944E1,1.412494928E-1,2.000828028E0,-2.512924969E-1
3.162484944E1,9.272934496E-2,2.336664200E0,-4.232074320E-1
3.164484944E1,6.400122494E-2,2.555022478E0,-5.468465686E-1
3.166484944E1,2.405063622E-2,2.632724524E0,-5.593256354E-1
3.168484944E1,-1.170766875E-1,2.408676624E0,-4.819901288E-1
3.170484944E1,-3.460464180E-1,1.817760468E0,-3.591887653E-1
3.172485100E1,-5.028119087E-1,1.082680106E0,-2.984164059E-1
3.174684944E1,-5.310164094E-1,2.707354724E-1,-4.238008559E-1
3.176684944E1,-4.514293969E-1,-2.257932425E-1,-5.089903474E-1
3.178686194E1,-3.864507973E-1,-5.457469821E-1,-4.297175109E-1
3.180884944E1,-4.510279894E-1,-1.062521577E0,-4.144109786E-1
3.182884944E1,-7.405955791E-1,-1.372439623E0,-4.962145686E-1
3.184884944E1,-1.143766642E0,-1.315210342E0,-5.023581386E-1
3.186885100E1,-1.077880383E0,-1.055801988E0,-3.849672675E-1
3.189084944E1,-4.229805470E-1,-5.533741117E-1,-2.625847757E-1
3.191084944E1,6.967354566E-2,-1.696110964E-1,-2.124763876E-1
3.193084944E1,2.242748141E-1,1.178097278E-1,-1.142841578E-1
3.195084944E1,1.155757010E-1,7.037167251E-2,5.864306167E-2
3.197084944E1,-1.105317026E-1,-3.107907772E-1,2.400002182E-1
3.199084944E1,-2.819928527E-1,-8.238826990E-1,3.511776924E-1
3.201084944E1,-3.125535548E-1,-1.158793926E0,4.253541827E-1
3.203085100E1,-2.128254473E-1,-1.186998367E0,4.521100819E-1
3.205284944E1,4.825835302E-2,-1.141567469E0,4.112170339E-1
3.207284944E1,3.225542903E-1,-9.210625887E-1,3.112794757E-1
3.209284944E1,4.819726646E-1,-4.922875762E-1,1.772207320E-1
3.211284944E1,1.991769671E-1,2.798810005E-1,-1.237962022E-1
3.213284944E1,2.256012559E-1,8.968898058E-1,-3.044726849E-1
3.215285569E1,6.558947563E-1,1.215482235E0,-3.135483861E-1
3.217484944E1,6.862459779E-1,1.355317950E0,-5.192179680E-1
3.219484944E1,4.927413464E-1,1.002743959E0,-3.871140182E-1
3.221484944E1,2.271371484E-1,4.381649196E-1,-1.671152711E-1
3.223484944E1,-1.106713265E-1,4.036946595E-2,-3.810577393E-1
3.225484944E1,-4.441688359E-1,-3.101624548E-1,-2.939658165E-1
3.227484944E1,-5.835857391E-1,-7.484844327E-1,-2.332108915E-1
3.229484944E1,-5.604950190E-1,-7.382742763E-1,-2.619041204E-1
3.231484944E1,-4.071504176E-1,-4.577824175E-1,-2.676985860E-1
3.233484944E1,-2.426705807E-1,-6.204994321E-1,-1.823869050E-1
3.235484944E1,-1.446878016E-1,-1.159474611E0,-1.260476708E-1
3.237484944E1,-8.365362883E-2,-1.613958359E0,-1.295557916E-1
3.239484944E1,-8.066911995E-2,-1.927314758E0,-1.316152811E-1
3.241484944E1,-1.185951233E-1,-2.143770456E0,-7.122688740E-2
3.243484944E1,-1.508837193E-1,-2.187054634E0,-1.565560326E-2
3.245484944E1,-1.397659630E-1,-2.023709297E0,6.251769513E-2
3.247484944E1,-8.140215278E-2,-1.739377618E0,1.051735431E-1
3.249484944E1,-3.890338913E-2,-1.384150863E0,1.376017630E-1
3.251484944E1,7.679448463E-4,-9.921498895E-1,1.512327790E-1
3.253484944E1,2.370157093E-2,-6.026447415E-1,1.896125674E-1
3.255484944E1,5.654866621E-2,-3.304257393E-1,2.084970325E-1
3.257484944E1,6.829473376E-2,-2.685363591E-1,1.894903928E-1
3.259484944E1,1.018574163E-1,-4.704186022E-1,1.190489084E-1
3.261484944E1,1.262222081E-1,-5.806186795E-1,3.883357719E-2
3.263484944E1,9.246754646E-2,-3.452784717E-1,-5.222025141E-2
3.265485100E1,6.597344577E-2,2.710496187E-1,-1.273043156E-1
3.267684944E1,9.372418374E-2,1.042607307E0,-1.606750041E-1
3.269685100E1,3.940953314E-2,1.107655764E0,-1.760339141E-1
3.271885100E1,-9.314822406E-2,3.792600334E-1,-1.430646330E-1
3.273885569E1,-1.933126599E-1,-1.980948746E-1,-2.697057426E-1
3.276084944E1,-6.280916333E-1,-8.700990081E-1,-3.983713984E-1
3.278084944E1,-1.385023475E0,-4.288274050E-1,-3.396585286E-1
3.280084944E1,-1.278331518E0,9.615891576E-1,-1.626297832E-1
3.282084944E1,-6.911503673E-1,1.740896106E0,-1.923003793E-1
3.284084944E1,-3.145257831E-1,1.801179767E0,-3.109304011E-1
3.286084944E1,-1.231329814E-1,1.550079226E0,-2.662325203E-1
3.288084944E1,-9.143780172E-2,1.163750648E0,-1.315280050E-1
3.290084944E1,-1.253320873E-1,6.902428269E-1,8.901178953E-4
3.292084944E1,-1.513025910E-1,2.356718034E-1,1.096764877E-1
3.294084944E1,-1.037947312E-1,-2.501405776E-1,2.345373482E-1
3.296084944E1,4.118977115E-2,-6.775193810E-1,3.184353113E-1
3.298084944E1,2.502802014E-1,-9.520422220E-1,3.810751736E-1
3.300084944E1,4.508360028E-1,-1.119209886E0,3.602010608E-1
3.302084944E1,5.926963687E-1,-1.227961302E0,3.187145591E-1
3.304084944E1,7.079927921E-1,-1.289833188E0,2.380454540E-1
3.306084944E1,7.835655808E-1,-1.113677144E0,9.880308807E-2
3.308084944E1,6.044598818E-1,-5.293932557E-1,-1.374272257E-1
3.310085100E1,-4.901757240E-1,3.498337865E-1,-5.200033784E-1
3.312289319E1,2.607521974E-2,7.328463197E-1,-3.155031800E-1
3.314484944E1,7.674038410E-1,1.808859229E0,-4.327369332E-1
3.316484944E1,7.903897762E-1,2.188765049E0,-6.261194348E-1
3.318484944E1,4.518308342E-1,1.878550172E0,-5.029166341E-1
3.320484944E1,-3.761184588E-2,9.093863368E-1,-2.918016016E-1
3.322484944E1,-5.479460955E-1,-8.861036599E-2,-2.239257395E-1
3.324484944E1,-8.791223168E-1,-2.489188612E-1,-1.286831200E-1
3.326484944E1,-8.875871897E-1,-2.523746155E-2,-6.911503524E-2
3.328484944E1,-6.546381116E-1,-4.839798063E-2,-1.017003357E-1
3.330485100E1,-3.743556738E-1,-4.160341322E-1,-1.861219108E-1
3.332485100E1,-1.488591284E-1,-8.044920564E-1,-1.271995902E-1
3.334684944E1,1.312487572E-2,-1.142387748E0,-9.267698228E-2
3.336684944E1,1.169545129E-1,-1.363206863E0,-8.431685716E-2
3.338684944E1,2.071705759E-1,-1.442549586E0,-7.684684545E-2
3.340684944E1,2.916794121E-1,-1.496113658E0,-4.092797264E-2
3.342684944E1,3.537782431E-1,-1.512938619E0,-2.638937905E-2
3.344686663E1,3.703239560E-1,-1.597429991E0,5.728170648E-2
3.346884944E1,3.305304646E-1,-1.632598400E0,1.481435448E-1
3.348884944E1,2.566332221E-1,-1.547129631E0,2.448173314E-1
3.350884944E1,2.230356187E-1,-1.190157413E0,2.725331485E-1
3.352884944E1,2.690250576E-1,-7.377157807E-1,2.458819896E-1
3.354884944E1,3.694338500E-1,-2.645395398E-1,2.267357260E-1
3.356884944E1,4.693015814E-1,1.615302265E-1,2.268055379E-1
3.358884944E1,5.809851885E-1,2.324953079E-1,2.749242485E-1
3.360884944E1,8.155923486E-1,-1.568701863E-1,3.520328999E-1
3.362884944E1,1.153453231E0,-1.232918024E0,3.469365537E-1
3.364884944E1,1.456878662E0,-1.960685372E0,2.027025372E-1
3.366884944E1,1.134289503E0,-9.336813092E-1,-2.572091818E-1
3.368884944E1,4.017922580E-1,5.462706089E-1,-4.367686510E-1
3.370884944E1,-7.038389444E-1,1.224488139E0,-2.573313415E-1
3.372884944E1,-2.175779819E0,9.648354650E-1,-8.965755999E-2
3.374884944E1,-2.080676794E0,1.870783567E0,2.145009674E-2
3.376884944E1,-9.513964057E-1,2.863317251E0,-2.989749014E-1
3.378884944E1,-3.641803861E-1,2.876005888E0,-4.588121474E-1
3.380884944E1,-4.567526579E-1,2.415221453E0,-3.291690946E-1
3.382885412E1,-7.172779441E-1,1.816800475E0,-3.152064681E-1
3.385084944E1,-8.471653461E-1,1.218711019E0,-2.650806010E-1
3.387084944E1,-7.545756698E-1,8.230972886E-1,-1.280897111E-1
3.389084944E1,-5.103342533E-1,3.712664247E-1,-1.425934024E-2
3.391084944E1,-1.854761392E-1,2.677335031E-2,8.365362883E-2
3.393084944E1,6.448991597E-2,-8.129743487E-2,1.285434961E-1
3.395084944E1,1.379857361E-1,-1.937664598E-1,1.640085876E-1
3.397084944E1,1.172163114E-1,-3.621732593E-1,2.463183105E-1
3.399084944E1,1.292416304E-1,-5.053775311E-1,3.024306595E-1
3.401084944E1,2.127905488E-1,-6.051231027E-1,3.268827200E-1
3.403084944E1,3.384018838E-1,-7.584502697E-1,3.377735615E-1
3.405084944E1,4.690921307E-1,-1.017055750E0,3.373546898E-1
3.407084944E1,5.801997781E-1,-1.218972802E0,2.965489030E-1
3.409084944E1,6.236934066E-1,-1.141811848E0,1.894554943E-1
3.411084944E1,3.804817796E-1,-9.960419536E-1,3.474950418E-2
3.413084944E1,-1.095420957E0,-6.594203115E-1,-3.152064681E-1
3.415084944E1,-3.137229383E-1,-3.351032268E-3,-1.535540670E-1
3.417084944E1,5.773723722E-1,1.288628936E0,-1.595405489E-1
3.419084944E1,8.025023937E-1,2.268893003E0,-3.705508411E-1
3.421084944E1,5.998696685E-1,2.482678413E0,-3.343003690E-1
3.423084944E1,1.905201375E-1,1.401918292E0,-2.076418251E-1
3.425084944E1,-2.587450743E-1,1.986184716E-2,-1.546710730E-1
3.427084944E1,-6.079679728E-1,-6.555456519E-1,-1.703615934E-1
3.429084944E1,-7.173303366E-1,-7.263013124E-1,-1.226966456E-1
3.431084944E1,-7.040483356E-1,-2.318844497E-1,-7.504915702E-4
3.433086038E1,-5.711764693E-1,4.562290758E-2,-5.291838199E-2
3.435284944E1,-4.158421457E-1,-1.099382862E-1,-1.325054020E-1
3.437284944E1,-2.394242734E-1,-3.491531014E-1,-1.454906464E-1
3.439284944E1,-4.731587693E-2,-6.220004559E-1,-1.432217211E-1
3.441284944E1,1.299397647E-1,-9.733526707E-1,-1.522450745E-1
3.443284944E1,2.611012459E-1,-1.365807414E0,-1.273217648E-1
3.445284944E1,3.244741559E-1,-1.574286938E0,-7.927285135E-2
3.447284944E1,3.220132589E-1,-1.513444781E0,-3.050835431E-2
3.449285100E1,2.890439630E-1,-1.370746732E0,1.960004680E-2
3.451484944E1,2.952922583E-1,-1.102367401E0,6.274458766E-2
3.453484944E1,3.427477479E-1,-7.722209096E-1,1.240929067E-1
3.455484944E1,4.162610173E-1,-3.372325301E-1,1.639911383E-1
3.457484944E1,4.942947030E-1,5.728170648E-2,1.992293298E-1
3.459484944E1,5.476319790E-1,2.418851852E-1,2.473829687E-1
3.461484944E1,5.368632674E-1,1.061683744E-1,3.322583139E-1
3.463484944E1,4.348662496E-1,-3.874805570E-1,3.372674286E-1
3.465484944E1,3.437775075E-1,-8.607265949E-1,2.469640821E-1
3.467484944E1,3.943746090E-1,-1.466844559E0,2.453932911E-1
3.469484944E1,8.975006342E-1,-2.085982561E0,3.242996335E-1
3.471484944E1,1.430576563E0,-1.987336636E0,2.176425606E-1
3.473484944E1,1.181221366E0,-5.660277009E-1,-1.431693584E-1
3.475484944E1,3.918438554E-1,1.326973885E-1,-2.668433785E-1
3.477484944E1,-1.743531585E0,-7.025299072E-1,-2.297376841E-1
3.479484944E1,-2.881713152E0,5.070879459E-1,4.192280769E-2
3.481484944E1,-1.559765816E0,2.822092772E0,-2.165953629E-2
3.483484944E1,-3.489960432E-1,3.672661543E0,-3.030066192E-1
3.485484944E1,-4.899139330E-2,3.433376789E0,-5.116606951E-1
3.487484944E1,-2.167349905E-1,2.803417683E0,-4.537332356E-1
3.489484944E1,-4.260348678E-1,2.086174488E0,-3.438822329E-1
3.491484944E1,-4.658109248E-1,1.834567904E0,-2.116735280E-1
3.493484944E1,-3.913551867E-1,1.613085628E0,-1.166229025E-1
3.495484944E1,-2.874731719E-1,1.284021258E0,-2.703515068E-2
3.497484944E1,-1.939933449E-1,8.594175577E-1,7.881906629E-2
3.499484944E1,-1.334304214E-1,4.110424817E-1,2.082701325E-1
3.501484944E1,-9.295623749E-2,6.038839370E-2,3.489436805E-1
3.503484944E1,-6.904522330E-2,-2.834589183E-1,4.493524730E-1
3.505484944E1,-1.134464052E-3,-5.441936851E-1,5.379453897E-1
3.507484944E1,1.007578596E-1,-7.360227704E-1,5.931326747E-1
3.509484944E1,2.253045589E-1,-8.727518916E-1,6.059957743E-1
3.511484944E1,3.413864076E-1,-1.017928362E0,5.231100917E-1
3.513484944E1,4.216890037E-1,-1.184467673E0,4.478514791E-1
3.515485100E1,4.726526141E-1,-1.451485634E0,3.469365537E-1
3.517684944E1,2.957111299E-1,-1.639248133E0,-4.501204193E-2
3.519684944E1,9.236282110E-2,-2.769314051E-1,-6.890210509E-1
3.521685100E1,6.625618935E-1,1.247683525E0,-8.038462996E-1
3.523685100E1,6.346191764E-1,2.214700699E0,-8.357160091E-1
3.525885412E1,5.354146361E-1,2.101533413E0,-4.558101892E-1
3.528084944E1,3.038269281E-1,1.971803188E0,2.321287990E-2
3.530084944E1,1.178097259E-2,1.398200750E0,-8.820894361E-2
3.532084944E1,-3.238109350E-1,7.555006742E-1,-5.849645734E-1
3.534084944E1,-4.458443522E-1,1.620887220E-1,-5.726774335E-1
3.536084944E1,-3.391872942E-1,-2.043082416E-1,-1.632755548E-1
3.538088694E1,-1.982868612E-1,-3.907268643E-1,-8.464846760E-2
3.540284944E1,-7.920303941E-2,-6.712186933E-1,-9.564404190E-2
3.542284944E1,-1.062905509E-2,-9.895493388E-1,1.012290921E-2
3.544284944E1,4.049163777E-3,-1.341285467E0,6.686356664E-2
3.546286819E1,-1.495747175E-2,-1.641115665E0,9.405579418E-2
3.548485100E1,9.599311277E-3,-1.787164807E0,1.071457639E-1
3.550684944E1,6.564183533E-2,-1.808737040E0,1.272345036E-1
3.552684944E1,1.305157244E-1,-1.722133875E0,1.375494003E-1
3.554684944E1,1.726305187E-1,-1.571546793E0,1.986708343E-1
3.556684944E1,2.147453129E-1,-1.371863723E0,2.781007588E-1
3.558684944E1,2.691472173E-1,-1.088718891E0,3.171961308E-1
3.560684944E1,3.484549820E-1,-7.285004258E-1,3.044901490E-1
3.562684944E1,3.961548209E-1,-3.164631128E-1,2.453583926E-1
3.564684944E1,4.014257193E-1,4.909611121E-2,1.424363256E-1
3.566684944E1,4.268900752E-1,1.867851317E-1,4.948008433E-2
3.568684944E1,5.436002612E-1,1.064825356E-1,2.766346931E-2
3.570684944E1,9.240296483E-1,-7.498807311E-1,1.363102198E-1
3.572684944E1,1.619176865E0,-1.800865650E0,1.780759394E-1
3.574684944E1,1.745556116E0,-1.635129213E0,-1.090656221E-1
3.576684944E1,1.195515633E0,-7.051304579E-1,-5.973738432E-1
3.578686194E1,1.309520602E-1,2.175552845E-1,-7.583280802E-1
3.580884944E1,-1.430506706E0,1.115911126E0,-2.880142331E-1
3.582884944E1,-2.138639212E0,2.000199556E0,3.388207555E-1
3.584884944E1,-2.143019915E0,2.800171375E0,4.793895781E-1
3.586884944E1,-1.722029090E0,3.717324495E0,-1.589820385E-1
3.588884944E1,-9.748710990E-1,3.692697763E0,-6.503271461E-1
3.590884944E1,-4.999844730E-1,2.389303446E0,-5.457644463E-1
3.592884944E1,-3.998549283E-1,1.118546605E0,-3.012438416E-1
3.594884944E1,-3.951425552E-1,5.363745689E-1,-1.633104533E-1
3.596884944E1,-3.947934806E-1,5.028817058E-1,-1.184554994E-1
3.598884944E1,-3.841469586E-1,5.115908980E-1,-7.017968595E-2
3.600885100E1,-3.338116705E-1,5.005953312E-1,-2.960078418E-2
3.603084944E1,-1.814269722E-1,4.029092491E-1,-3.508111695E-3
3.605084944E1,1.570796408E-2,2.639112473E-1,6.373942643E-2
3.607084944E1,1.409353316E-1,7.049384713E-2,1.544790864E-1
3.609084944E1,2.180614322E-1,-8.211774379E-2,2.217091769E-1
3.611084944E1,2.896722853E-1,-2.214473784E-1,3.216118217E-1
3.613084944E1,3.203377426E-1,-3.711791635E-1,3.919835091E-1
3.615084944E1,3.343352675E-1,-4.964589179E-1,4.085990191E-1
3.617084944E1,3.886150122E-1,-6.194871664E-1,3.576354086E-1
3.619084944E1,4.650778770E-1,-7.819598913E-1,2.838254273E-1
3.621084944E1,5.723632574E-1,-1.005798340E0,1.923352778E-1
3.623084944E1,2.358114272E-1,-1.249271750E0,-4.148647562E-2
3.625084944E1,-1.410086393E0,-6.555107832E-1,-6.018593311E-1
3.627084944E1,-4.728097022E-1,-1.802052408E-1,-2.900038958E-1
3.629085100E1,4.979424477E-1,1.447645903E0,-1.806764901E-1
3.631284944E1,9.327563047E-1,2.939797640E0,-2.713288963E-1
3.633285100E1,1.060444593E0,3.452418327E0,-2.232799679E-1
3.635484944E1,9.572432637E-1,2.466342211E0,2.670353744E-3
3.637484944E1,5.011712909E-1,1.111966729E0,-8.161159605E-2
3.639484944E1,4.136430100E-3,1.716182232E-1,-3.404264748E-1
3.641484944E1,-2.816961408E-1,-2.694264650E-1,-4.366115630E-1
3.643484944E1,-4.076216519E-1,-3.154857159E-1,-2.423389703E-1
3.645484944E1,-4.578347802E-1,-7.311183959E-2,-1.530304700E-1
3.647484944E1,-4.496840835E-1,1.995085925E-1,-2.057743222E-1
3.649484944E1,-3.871314824E-1,9.562659264E-2,-2.151467353E-1
3.651484944E1,-3.088534772E-1,-2.936167419E-1,-1.723861694E-1
3.653484944E1,-2.208539695E-1,-7.536855340E-1,-1.104269847E-1
3.655484944E1,-1.243197992E-1,-1.186300278E0,-8.389797807E-2
3.657484944E1,-2.448697016E-2,-1.511018753E0,-2.727949619E-2
3.659484944E1,6.370452046E-2,-1.722430468E0,3.525565192E-2
3.661484944E1,1.444434524E-1,-1.773324370E0,1.335351467E-1
3.663484944E1,2.229134440E-1,-1.577428579E0,2.226341963E-1
3.665485100E1,2.715383172E-1,-1.196562767E0,2.826211751E-1
3.667684944E1,2.868623137E-1,-7.139793038E-1,2.698628008E-1
3.669684944E1,3.004758954E-1,-3.279822767E-1,3.034080267E-1
3.671684944E1,3.487167954E-1,2.321287990E-3,3.735004663E-1
3.673684944E1,3.887371719E-1,2.164033800E-1,3.964689970E-1
3.675684944E1,3.767642379E-1,1.245292425E-1,4.150567353E-1
3.677684944E1,2.975960970E-1,-3.918264210E-1,4.155105352E-1
3.679684944E1,2.035228461E-1,-1.082802296E0,3.736924529E-1
3.681684944E1,1.681450158E-1,-1.583729267E0,3.064449131E-1
3.683684944E1,2.360208780E-1,-2.034512758E0,3.443883657E-1
3.685684944E1,7.810697556E-1,-2.437020779E0,2.510481477E-1
3.687684944E1,1.499098182E0,-2.280813694E0,-3.515093029E-2
3.689684944E1,1.484419942E0,-7.585724592E-1,-5.531122684E-1
3.691684944E1,9.758135676E-1,6.029937863E-1,-8.105309010E-1
3.693684944E1,1.783377379E-1,1.398741722E0,-5.289918184E-1
3.695684944E1,-1.129594564E0,1.020720959E0,2.617993951E-2
3.697684944E1,-2.239100456E0,8.920726776E-1,3.910933733E-1
3.699684944E1,-1.798945785E0,2.358638048E0,-1.409702450E-1
3.701684944E1,-7.548199892E-1,3.698509693E0,-4.856378734E-1
3.703684944E1,-7.492698729E-2,3.521952152E0,-5.678079724E-1
3.705684944E1,-2.162637413E-1,2.101097107E0,-4.053876102E-1
3.707684944E1,-5.011887550E-1,1.143993497E0,-2.671051919E-1
3.709684944E1,-4.714308679E-1,8.712683320E-1,-1.644100100E-1
3.711684944E1,-3.335149586E-1,9.699841738E-1,-1.404990107E-1
3.713684944E1,-1.748296320E-1,1.009672999E0,-1.289449185E-1
3.715684944E1,-2.518510073E-2,8.588241339E-1,-5.085889250E-2
3.717684944E1,7.881906629E-2,6.848322749E-1,5.846852809E-2
3.719684944E1,7.869689912E-2,4.311137795E-1,2.003288865E-1
3.721684944E1,4.216715321E-2,1.145808622E-1,3.515442312E-1
3.723684944E1,2.471386269E-2,-2.075545490E-1,4.431565404E-1
3.725684944E1,1.692969352E-3,-4.842416048E-1,4.668057561E-1
3.727684944E1,5.490805954E-2,-6.242344379E-1,4.734729230E-1
3.729684944E1,1.297826767E-1,-7.734950185E-1,4.359483421E-1
3.731684944E1,2.067517042E-1,-1.018172741E0,3.065321743E-1
3.733684944E1,2.209412307E-1,-1.339470387E0,9.309586138E-2
3.735684944E1,-1.569050997E-1,-1.538804412E0,-3.036872856E-2
3.737684944E1,-1.360763431E0,-1.193944812E0,-4.381823540E-1
3.739684944E1,-3.227986395E-1,-4.934394956E-1,-2.718001306E-1
3.741684944E1,6.764721870E-1,2.429550648E0,-2.423738688E-1
3.743684944E1,8.943590522E-1,4.003087044E0,-2.785894573E-1
3.745684944E1,6.490879655E-1,3.275354624E0,1.239183769E-1
3.747684944E1,5.841093659E-1,2.476046324E0,4.705058634E-1
3.749684944E1,6.133086681E-1,2.646547556E0,2.553067505E-1
3.751684944E1,5.897991061E-1,2.699029446E0,-4.228409231E-1
3.753684944E1,6.015451550E-1,2.664384604E0,-9.155822396E-1
3.755684944E1,7.253763080E-1,2.852513790E0,-4.824962616E-1
3.757684944E1,7.660075426E-1,2.935399532E0,-7.731808349E-3
3.759684944E1,5.892231464E-1,2.244039536E0,6.051056460E-2
3.761685100E1,1.464505792E-1,9.562658668E-1,2.150071114E-1
3.763884944E1,-1.877799779E-1,-3.359584212E-1,4.420569837E-1
3.765885256E1,-2.563539743E-1,-7.171906829E-1,5.323952436E-1
3.768084944E1,-2.659358084E-1,-1.149788022E0,5.850518346E-1
3.770084944E1,-1.834166497E-1,-1.459863186E0,7.559195757E-1
3.772084944E1,-1.329417229E-1,-1.738854051E0,8.965930939E-1
3.774085100E1,-1.080009714E-1,-1.944820404E0,8.623671532E-1
3.776286819E1,-2.476622164E-2,-1.973321557E0,6.983935237E-1
3.778484944E1,6.909758598E-2,-1.942516565E0,5.539326072E-1
3.780484944E1,7.700392604E-2,-2.007844210E0,3.936240971E-1
3.782484944E1,8.119271696E-2,-2.164295435E0,2.968805134E-1
3.784484944E1,1.546012610E-1,-2.176163673E0,2.970026731E-1
3.786484944E1,2.656216621E-1,-1.727718830E0,2.707354724E-1
3.788484944E1,2.567728460E-1,-8.574453592E-1,1.013338193E-1
3.790484944E1,1.269203424E-1,1.961575598E-1,-9.065239877E-2
3.792484944E1,-7.138396613E-3,1.173821211E0,-1.657888293E-1
3.794484944E1,-4.576253146E-2,1.871254802E0,-1.505695581E-1
3.796484944E1,-6.126105785E-3,2.312700987E0,-2.158099562E-1
3.798484944E1,8.609709144E-2,2.335041046E0,-2.557430863E-1
3.800484944E1,-9.803514183E-2,1.500250101E0,-1.970651299E-1
3.802484944E1,-4.105363488E-1,7.091272622E-2,-7.740534842E-2
3.804484944E1,-6.333799958E-1,-1.337829828E0,-9.892526269E-2
3.806484944E1,-7.577870488E-1,-1.831757903E0,-2.219884247E-1
3.808484944E1,-7.785215378E-1,-2.137906075E0,-4.082325101E-1
3.810484944E1,-7.962017655E-1,-2.268753529E0,-4.534190893E-1
3.812484944E1,-9.498256445E-1,-2.387662649E0,-4.340110123E-1
3.814484944E1,-1.262867928E0,-2.087675571E0,-3.725754321E-1
3.816484944E1,-1.386594296E0,-9.621127248E-1,-1.788089871E-1
3.818484944E1,-1.050862789E0,2.495820867E-3,-3.293436393E-2
3.820484944E1,-6.446722746E-1,7.212747931E-1,-1.068141498E-2
3.822484944E1,-2.783974707E-1,1.260302305E0,-1.932079531E-2
3.824484944E1,4.050909355E-2,1.520967126E0,2.122320421E-2
3.826484944E1,2.753082216E-1,1.421867371E0,1.626995951E-1
3.828484944E1,4.177969098E-1,1.050915122E0,2.617470324E-1
3.830484944E1,5.262866020E-1,6.596297622E-1,3.291341960E-1
3.832484944E1,6.438170671E-1,3.233222365E-1,3.696258366E-1
3.834484944E1,7.359704375E-1,4.687954485E-2,4.226314723E-1
3.836484944E1,8.011934161E-1,-3.266907334E-1,4.649557173E-1
3.838484944E1,7.583630085E-1,-6.314426661E-1,3.241425455E-1
3.840484944E1,-1.090656221E-1,-3.850894570E-1,-5.544910952E-2
3.842484944E1,-1.346626282E0,3.217689097E-1,-4.824090004E-1
3.844484944E1,-5.494296551E-2,6.080378294E-1,-2.183232307E-1
3.846484944E1,7.966555357E-1,1.406717896E0,-1.779363155E-1
3.848484944E1,9.253560901E-1,1.934889436E0,-2.720968425E-1
3.850484944E1,7.324623466E-1,2.343977213E0,-3.132865950E-2
3.852484944E1,4.383569062E-1,1.972256899E0,8.553858846E-2
3.854484944E1,6.284930557E-2,9.725847244E-1,-2.314830124E-1
3.856484944E1,-2.649409771E-1,8.377580671E-4,-4.301887453E-1
3.858484944E1,-4.908738434E-1,-3.570943773E-1,-2.139250040E-1
3.860484944E1,-5.282762647E-1,1.294336170E-1,-9.583602846E-2
3.862484944E1,-1.211433038E-1,1.510303259E0,-1.014385372E-1
3.864484944E1,4.181110859E-1,2.692170382E0,-1.344776154E-1
3.866484944E1,4.829674959E-1,1.809295535E0,-3.155904412E-1
3.868484944E1,2.120924145E-1,2.355496287E-1,-4.677482322E-2
3.870484944E1,-6.928957067E-3,-9.260717034E-1,2.240130156E-1
3.872484944E1,-1.904154196E-2,-1.160277486E0,3.683342934E-1
3.874484944E1,2.172934823E-2,-1.091179848E0,4.325624108E-1
3.876484944E1,7.120943163E-3,-9.620079994E-1,4.232772589E-1
3.878484944E1,6.757915020E-2,-6.715503335E-1,4.554262161E-1
3.880484944E1,2.029294372E-1,-4.288274050E-1,5.029515028E-1
3.882484944E1,3.054151535E-1,-5.433733463E-1,5.003684163E-1
3.884484944E1,2.125810981E-1,-1.097899318E0,5.466021895E-1
3.886484944E1,9.245008975E-2,-1.414624214E0,5.701292753E-1
3.888484944E1,1.919338554E-1,-1.287442088E0,6.552140713E-1
3.890484944E1,5.937435627E-1,-1.131741285E0,7.257428169E-1
3.892484944E1,8.945161700E-1,-1.079887509E0,4.846255779E-1
3.894484944E1,6.759485602E-1,-1.092349172E0,-2.239257470E-2
3.896484944E1,2.428800166E-1,-8.961916566E-1,-4.761083722E-1
3.898484944E1,-1.267283559E-1,-6.030461788E-1,-6.285454035E-1
3.900484944E1,-2.957285941E-1,-2.069785893E-1,-5.982115865E-1
3.902484944E1,-1.074773744E-1,3.967133462E-1,-4.992165267E-1
3.904484944E1,1.579697430E-1,9.703856111E-1,-4.657760262E-1
3.906484944E1,1.212829277E-1,1.077042699E0,-3.674092591E-1
3.908484944E1,-2.222327739E-1,5.849819779E-1,1.137256548E-1
3.910484944E1,-5.820149183E-1,-2.775422633E-1,4.169068038E-1
3.912484944E1,-8.804662228E-1,-1.058873773E0,-1.339016557E-1
3.914484944E1,-1.001487374E0,-1.329888582E0,-7.944913507E-1
3.916484944E1,-9.861110449E-1,-1.412896395E0,-6.606943607E-1
3.918484944E1,-1.018609047E0,-1.370973587E0,-4.400149584E-1
3.920484944E1,-1.158933520E0,-1.121007562E0,-4.428423941E-1
3.922484944E1,-1.336573124E0,-4.391771853E-1,-3.618940115E-1
3.924484944E1,-1.146070480E0,3.160093129E-1,-2.609790862E-1
3.926484944E1,-7.303504944E-1,7.119547129E-1,-2.186024934E-1
3.928484944E1,-4.212701321E-1,8.706575036E-1,-1.806066632E-1
3.930484944E1,-1.763655245E-1,9.881181717E-1,-1.202008277E-1
3.932484944E1,1.305506285E-2,9.771400094E-1,-2.153736353E-2
3.934484944E1,1.298874021E-1,6.829648018E-1,9.803514183E-2
3.936484944E1,2.224073112E-1,3.443883657E-1,2.280796319E-1
3.938484944E1,2.960078418E-1,4.122467712E-2,3.209660351E-1
3.940484944E1,3.275983036E-1,-2.003463507E-1,3.960326612E-1
3.942484944E1,3.570769131E-1,-4.849920869E-1,4.687954485E-1
3.944484944E1,3.746349216E-1,-8.210203052E-1,4.950800836E-1
3.946484944E1,4.689525068E-1,-1.398828983E0,4.236437678E-1
3.948484944E1,5.362349749E-1,-2.360714912E0,2.663197815E-1
3.950484944E1,-1.581565022E0,-2.280063152E0,-4.947135746E-1
3.952484944E1,-7.986801267E-1,-9.199106693E-1,-4.772777259E-1
3.954484944E1,6.354743987E-2,1.124707580E0,-5.011538267E-1
3.956484944E1,4.540299475E-1,2.838778019E0,-5.828527212E-1
3.958484944E1,7.566875219E-1,3.239697695E0,-4.141840935E-1
3.960484944E1,7.176444530E-1,2.287044525E0,-2.661801577E-1
3.962484944E1,3.448770642E-1,9.965655208E-1,-3.054500818E-1
3.964484944E1,-1.652303189E-1,1.091005281E-1,-3.523296118E-1
3.966485100E1,-6.133610606E-1,-3.118903339E-1,-3.075095713E-1
3.968685100E1,-8.333074450E-1,-8.236208558E-2,-7.201228291E-2
3.970884944E1,-7.743152976E-1,-2.558303475E-1,3.179989755E-2
3.972885100E1,-5.531821251E-1,-6.052452922E-1,-3.644247353E-2
3.975084944E1,-2.613630593E-1,-8.900655508E-1,-4.415683076E-2
3.977084944E1,-2.232276089E-2,-1.096363425E0,8.150687441E-3
3.979084944E1,1.636595279E-1,-1.250999689E0,2.455678210E-2
3.981084944E1,3.323456049E-1,-1.430052996E0,-3.159045801E-2
3.983084944E1,4.820075631E-1,-1.560778141E0,-8.927359432E-2
3.985084944E1,5.975309014E-1,-1.630783319E0,-7.166321576E-2
3.987084944E1,6.502224207E-1,-1.633540869E0,-3.721041977E-2
3.989084944E1,6.456322074E-1,-1.566590071E0,4.845033959E-2
3.991084944E1,6.023131013E-1,-1.477298975E0,1.900489032E-1
3.993085725E1,5.444729328E-1,-1.278593302E0,2.892185152E-1
3.995284944E1,4.832467735E-1,-8.445997238E-1,2.989574373E-1
3.997284944E1,4.667010307E-1,-2.112895548E-1,3.087138236E-1
3.999285100E1,5.174377561E-1,4.955338836E-1,3.618067503E-1
4.001484944E1,5.151863098E-1,7.120245099E-1,4.638910592E-1
4.003484944E1,4.286354184E-1,9.410814941E-2,4.717625082E-1
4.005484944E1,3.646167219E-1,-7.435800433E-1,4.129099846E-1
4.007484944E1,4.080056250E-1,-1.658027887E0,4.235565066E-1
4.009484944E1,9.496685266E-1,-2.211000443E0,5.122366548E-1
4.011484944E1,1.973845243E0,-2.537604094E0,5.426577926E-1
4.013484944E1,2.154102802E0,-1.133573890E0,1.260127686E-2
4.015484944E1,4.764225185E-1,3.574608862E-1,-6.350554824E-1
4.017484944E1,-2.476273060E0,1.897155404E0,-4.420919120E-1
4.019484944E1,-2.504739523E0,3.986680984E0,2.359336019E-1
4.021484944E1,-1.662199259E0,4.973053932E0,-8.391542733E-2
4.023484944E1,-7.441036701E-1,4.956822395E0,-6.808005571E-1
4.025484944E1,-2.124763876E-1,4.025287628E0,-7.345043421E-1
4.027484944E1,-1.905201375E-1,2.744809389E0,-5.163905621E-1
4.029484944E1,-3.543367386E-1,1.759815454E0,-3.551221490E-1
4.031484944E1,-4.439070523E-1,1.281019330E0,-1.770811081E-1
4.033484944E1,-4.569097459E-1,1.005798340E0,-6.110397726E-2
4.035484944E1,-4.070456922E-1,7.764620781E-1,6.265731994E-3
4.037484944E1,-2.929535210E-1,4.773649871E-1,7.105235010E-2
4.039484944E1,-1.461015046E-1,4.026474431E-2,1.361531317E-1
4.041484944E1,-5.651376024E-2,-4.569795430E-1,1.737126261E-1
4.043484944E1,1.176351868E-2,-8.130790591E-1,2.469640821E-1
4.045484944E1,9.358455241E-2,-9.408372045E-1,2.884331048E-1
4.047484944E1,2.044827789E-1,-9.566149712E-1,3.241949081E-1
4.049484944E1,3.269350827E-1,-1.020493984E0,3.329739273E-1
