"Time (s)","Linear Acceleration x (m/s^2)","Linear Acceleration y (m/s^2)","Linear Acceleration z (m/s^2)"
6.000000000E-3,-3.885000050E-1,5.974000096E-1,7.378999591E-1
2.600000000E-2,9.911999702E-1,5.830000043E-1,1.672199965E0
5.599843800E-2,1.680299997E0,-7.118999958E-1,9.981999993E-1
7.599843800E-2,1.180199981E0,-1.236999989E0,9.193999767E-1
9.600000000E-2,1.807999909E-1,9.529999644E-2,2.232800007E0
1.160000000E-1,8.790999651E-1,-9.202999473E-1,6.338500023E0
1.459984380E-1,2.214099884E0,-2.744400024E0,5.802599907E0
1.660031250E-1,2.508199930E0,-2.866699934E0,4.258100033E0
1.959984380E-1,2.465600014E0,-2.974099874E0,1.766799927E0
2.159984380E-1,2.995299816E0,-3.763299942E0,3.826999962E-1
2.359984380E-1,3.262099981E0,-4.540400028E0,2.149099827E0
2.560140630E-1,2.572199821E0,-3.149699926E0,1.143899918E0
2.860109380E-1,1.673799992E0,-3.039199829E0,-2.854599953E0
3.159984380E-1,6.916999817E-1,-2.391199827E0,6.799999624E-3
3.359984380E-1,-1.184899926E0,-2.296599865E0,-1.377900004E0
3.560031250E-1,-1.912099957E0,-2.835999966E0,-1.101699948E0
3.859984380E-1,-4.569000006E-1,-1.086999997E-1,-2.408699989E0
4.060031250E-1,9.220999479E-1,-9.399999864E-3,-3.852999806E-1
4.359984380E-1,1.780999899E-1,-3.953999877E-1,-2.163999975E-1
4.560062500E-1,-3.612999916E-1,4.445999861E-1,-1.429399967E0
4.859984380E-1,-1.135499954E0,8.786000013E-1,-2.299999952E0
5.060046880E-1,-8.200000040E-3,9.047999978E-1,-1.129299998E0
5.359984380E-1,6.069999933E-1,1.126899958E0,-1.205799937E0
5.559984380E-1,4.829999804E-1,1.267499924E0,-1.126600027E0
5.759984380E-1,9.754999876E-1,1.197399974E0,-1.670699954E0
5.959984380E-1,-2.592999935E-1,2.126199961E0,-2.390999943E-1
6.159984380E-1,-3.326999843E-1,1.432699919E0,3.443000019E-1
6.359984380E-1,5.399999674E-3,1.047899961E0,-5.575000048E-1
6.559984380E-1,1.240100026E0,1.149999976E0,-1.476799965E0
6.759984380E-1,1.265499949E0,1.108399987E0,-1.581900001E0
6.959984380E-1,1.575799942E0,8.628000021E-1,-8.455999494E-1
7.159984380E-1,5.019999743E-1,1.851599932E0,2.934999943E0
7.359984380E-1,1.963199973E0,4.157999754E-1,2.072299957E0
7.559984380E-1,6.490499973E0,-1.874199986E0,1.342399955E0
7.759984380E-1,4.146199703E0,-1.145200014E0,-2.369499922E0
7.959984380E-1,-4.272999763E-1,-3.125299931E0,-3.079699993E0
8.159984380E-1,-3.982699871E0,-4.874000072E0,-2.736399889E0
8.359984380E-1,-5.322400093E0,-5.599299908E0,-5.507499695E0
8.559984380E-1,-6.786799908E0,-6.613399982E0,-7.395599842E0
8.759984380E-1,-6.214900017E0,-9.391499519E0,-5.396299839E0
8.959984380E-1,-7.236299992E0,-1.043400002E1,-1.979900002E0
9.159984380E-1,-6.996599674E0,-1.136889935E1,-3.777000010E-1
9.360000000E-1,-7.520999908E-1,-1.173629951E1,-1.231599927E0
9.659984380E-1,5.582799911E0,-1.143709946E1,5.727499962E0
9.859984380E-1,7.875299931E0,-1.098820019E1,9.251899719E0
1.005998438E0,1.154619980E1,-1.042640018E1,8.224699974E0
1.025998438E0,1.652789879E1,-8.839799881E0,3.803299904E0
1.045998438E0,1.763360023E1,-6.792299747E0,2.188299894E0
1.065998438E0,1.873559952E1,-5.133699894E0,6.079999804E-1
1.085998438E0,1.979859924E1,-2.946199894E0,-2.937899828E0
1.105998438E0,1.976910019E1,-1.695500016E0,-9.671699524E0
1.125998438E0,1.832880020E1,-1.947600007E0,-1.638689995E1
1.145998438E0,1.526879978E1,-3.132400036E0,-1.405419922E1
1.165998438E0,1.007100010E1,-4.090499878E0,-1.166359997E1
1.186040625E0,6.557399750E0,-4.259200096E0,-1.093779945E1
1.215998438E0,2.901399851E0,-3.558599949E0,-1.170119953E1
1.235998438E0,1.474999934E-1,-3.938299894E0,-9.987099648E0
1.255998438E0,-1.962999940E0,-4.556399822E0,-6.182199955E0
1.275998438E0,-1.845299959E0,-4.359200001E0,-3.353099823E0
1.295998438E0,-3.672799826E0,-4.671899796E0,-8.109999448E-2
1.315998438E0,-4.362699986E0,-2.832199812E0,2.560699940E0
1.335998438E0,-3.284699917E0,-5.717999935E-1,2.164499998E0
1.355998438E0,4.397299767E0,1.490799904E0,-5.383999825E0
1.375998438E0,-1.274399996E0,-2.347699881E0,2.661599874E0
1.395998438E0,-3.443000019E-1,-4.557199955E0,7.206999660E-1
1.415998438E0,-1.335399985E0,-5.014499664E0,-3.338399887E0
1.435998438E0,8.183999658E-1,-4.806999683E0,-6.387999654E-1
1.456000000E0,2.679199934E0,-3.336899996E0,1.537999958E-1
1.486000000E0,7.059999555E-2,-2.467499971E0,1.688099980E0
1.506000000E0,-1.037799954E0,-1.404899955E0,3.113899946E0
1.535998438E0,-6.818799973E0,3.548899889E0,1.013999939E0
1.555998438E0,-7.149799824E0,2.592200041E0,-2.184000015E0
1.575998438E0,-7.547999859E0,-1.374000013E-1,-3.113199949E0
1.596000000E0,-9.137700081E0,-1.441200018E0,-3.014499903E0
1.616000000E0,-7.616899967E0,-1.776499987E0,-1.049000025E0
1.645998438E0,-8.061900139E0,3.017999828E-1,-3.565199852E0
1.665998438E0,-8.617499352E0,5.586999655E-1,-1.743600011E0
1.686000000E0,-8.388500214E0,2.885900021E0,-1.424199939E0
1.715998438E0,-5.951399803E0,4.245399952E0,-1.282799959E0
1.735998438E0,-4.114900112E0,4.806999683E0,-1.115800023E0
1.755998438E0,-6.038999557E-1,4.317199707E0,-9.309999943E-1
1.775998438E0,3.971999884E-1,-1.976399899E0,-1.537499905E0
1.795998438E0,-1.481499910E0,-2.033440018E1,-4.840999842E-1
1.816000000E0,-1.096649933E1,-2.375009918E1,1.991299987E0
1.845998438E0,-1.962399960E0,-5.221899986E0,2.305799961E0
1.865998438E0,6.326999664E-1,-1.239599943E0,3.867999792E0
1.885998438E0,2.367699862E0,-3.724999905E0,3.153399944E0
1.905998438E0,2.182699919E0,-4.815999985E0,1.964999884E-1
1.925998438E0,2.178400040E0,-4.695399761E0,3.260999918E-1
1.945998438E0,2.370499849E0,-5.479199886E0,-5.065799713E0
1.965998438E0,5.306000113E-1,-3.774699926E0,-4.296599960E1
1.985998438E0,1.424099922E0,1.459499955E0,-1.093299985E0
2.005998438E0,1.975099921E0,1.380100012E0,-4.301999807E-1
2.025998438E0,1.309799910E0,6.222000122E-1,-2.144399881E0
2.045998438E0,7.277999520E-1,-2.828500032E0,-2.649399996E0
2.065998438E0,7.699999958E-2,-4.125400066E0,-1.717000008E-1
2.085998438E0,-1.467999935E0,-3.096199989E0,8.187999725E-1
2.105998438E0,-1.137599945E0,-2.670599937E0,-4.369999841E-2
2.125998438E0,-9.862999916E-1,-1.049600005E0,6.017000079E-1
2.145998438E0,-9.562000036E-1,8.786999583E-1,1.151399970E0
2.165998438E0,-9.520999789E-1,2.396899939E0,1.598999977E0
2.185998438E0,-9.159999490E-1,2.369499922E0,1.493799925E0
2.205998438E0,-1.320400000E0,2.426499844E0,2.195799828E0
2.225998438E0,-1.685999990E0,2.557899952E0,2.131700039E0
2.245998438E0,-2.065299988E0,2.763200045E0,2.146399975E0
2.265998438E0,-1.945199966E0,2.292599916E0,1.977299929E0
2.286010938E0,-2.081799984E0,1.917400002E0,2.268499851E0
2.315998438E0,-2.118900061E0,2.229399920E0,3.993899822E0
2.335998438E0,-1.722999930E0,2.400499821E0,4.750400066E0
2.355998438E0,-1.209200025E0,2.907399893E0,5.103499889E0
2.375998438E0,-8.154999614E-1,3.066200018E0,5.231800079E0
2.395998438E0,-5.597000122E-1,2.094199896E0,4.912199974E0
2.415998438E0,-4.041000009E-1,-1.445000023E-1,4.681399822E0
2.435998438E0,-4.519999921E-1,-2.328299999E0,4.583699703E0
2.455998438E0,-3.243999779E-1,-4.962699890E0,3.570599794E0
2.475998438E0,-5.899999738E-1,-6.370499611E0,2.681900024E0
2.495998438E0,-8.406999707E-1,-5.515500069E0,1.882499933E0
2.515998438E0,-5.091999769E-1,-5.161399841E0,8.527999520E-1
2.535998438E0,-8.810000122E-2,-4.925499916E0,-5.503000021E-1
2.555998438E0,9.724999666E-1,-4.085199833E0,-1.420499921E0
2.575998438E0,2.497599840E0,-2.124799967E0,-1.897199988E0
2.595998438E0,4.905799866E0,-2.898399830E0,-4.377379990E1
2.615998438E0,-2.840999961E-1,-3.897499800E0,-1.098820019E1
2.635998438E0,-2.061399937E0,-3.246299982E0,-2.207200050E0
2.655998438E0,-2.786599874E0,-2.197499990E0,-9.989999980E-2
2.675998438E0,-3.196300030E0,-1.008599997E0,3.028999865E-1
2.696000000E0,-3.044600010E0,-1.766999960E-1,1.639000028E-1
2.716000000E0,-3.047799826E0,1.259899974E0,6.312999725E-1
2.746000000E0,-3.461199999E0,3.175699949E0,1.349900007E0
2.775998438E0,-2.797399998E0,4.274699688E0,1.766899943E0
2.795998438E0,-2.273099899E0,4.889899731E0,1.914099932E0
2.815998438E0,-2.030200005E0,4.981100082E0,2.153899908E0
2.835998438E0,-1.881099939E0,4.583899975E0,2.464400053E0
2.855998438E0,-1.617499948E0,3.959899902E0,2.648699999E0
2.875998438E0,-1.313099980E0,3.427799940E0,2.866899967E0
2.895998438E0,-1.017499924E0,2.529199839E0,3.289199829E0
2.915998438E0,-6.852999926E-1,1.100199938E0,3.532099962E0
2.936000000E0,-1.938000023E-1,-4.643999934E-1,3.795199871E0
2.965998438E0,8.452000022E-1,-2.412199974E0,3.953999996E0
2.985998438E0,1.531499982E0,-3.291399956E0,3.905999899E0
3.005998438E0,1.977099895E0,-4.040499687E0,3.946799994E0
3.025998438E0,2.679999828E0,-4.688499928E0,3.905999899E0
3.045998438E0,3.818300009E0,-4.810199738E0,2.605700016E0
3.065998438E0,1.088929939E1,-8.931399345E0,-2.283149910E1
3.085998438E0,4.121900082E0,-5.451799870E0,-1.111999989E1
3.105998438E0,-1.011899948E0,1.207499981E0,1.129999995E0
3.125998438E0,-1.352699995E0,1.858699918E0,-4.553000033E-1
3.145998438E0,-7.987999916E-1,-7.584999800E-1,1.451200008E0
3.165998438E0,-1.470799923E0,-2.498800039E0,1.357100010E0
3.185998438E0,-2.631599903E0,-2.152400017E0,2.096099854E0
3.205998438E0,-3.575099945E0,-1.363399982E0,2.515899897E0
3.225998438E0,-3.506500006E0,-1.256299973E0,3.150799990E0
3.245998438E0,-2.738399982E0,-8.987999558E-1,3.692499876E0
3.265998438E0,-1.960999966E0,-2.951000035E-1,3.567199945E0
3.286010938E0,-1.424600005E0,6.110000014E-1,3.311800003E0
3.315998438E0,-1.426800013E0,1.449499965E0,2.681399822E0
3.335998438E0,-1.497299910E0,1.709299922E0,2.206199884E0
3.355998438E0,-1.570199966E0,2.136499882E0,1.825199962E0
3.375998438E0,-1.487100005E0,2.681799889E0,1.754999995E0
3.395998438E0,-1.272300005E0,3.234299898E0,1.709999919E0
3.415998438E0,-9.536999464E-1,3.490299940E0,1.690199971E0
3.435998438E0,-6.723999977E-1,3.489799976E0,1.614599943E0
3.455998438E0,-5.600000024E-1,3.273299932E0,1.526700020E0
3.475998438E0,-4.007000029E-1,2.870899916E0,1.447099924E0
3.495998438E0,-2.445999980E-1,1.899499893E0,1.238199949E0
3.515998438E0,-7.609999925E-2,3.987999856E-1,9.416999817E-1
3.535998438E0,3.491999805E-1,-1.631399989E0,9.751999974E-1
3.555998438E0,5.654999614E-1,-3.108500004E0,8.053999543E-1
3.575998438E0,8.308999538E-1,-3.403599977E0,4.262999892E-1
3.595998438E0,8.837999701E-1,-3.410699844E0,9.449999779E-2
3.615998438E0,7.899999619E-1,-5.033599854E0,-6.862999797E-1
3.635998438E0,1.386799932E0,-5.542699814E0,-2.652099848E0
3.655998438E0,1.857199907E0,-2.834499836E0,-5.515199661E0
3.675998438E0,2.169999853E-2,-2.511000037E-1,-1.268839931E1
3.695998438E0,-2.931999922E0,-2.681599855E0,-4.969699860E0
3.716000000E0,-3.462999821E0,-2.647500038E0,9.059999883E-2
3.745998438E0,-4.161200047E0,-1.061599970E0,1.495899916E0
3.765998438E0,-3.357100010E0,-9.812999964E-1,8.901000023E-1
3.786012500E0,-2.626699924E0,-3.983999789E-1,2.391999960E-1
3.815998438E0,-2.233299971E0,2.146100044E0,1.730999947E0
3.835998438E0,-1.988199949E0,3.215799809E0,2.213000059E0
3.855998438E0,-1.646699905E0,3.804699898E0,2.524399996E0
3.875998438E0,-1.363699913E0,3.986599922E0,2.800199986E0
3.895998438E0,-1.263899922E0,3.935899973E0,2.712499857E0
3.915998438E0,-1.054000020E0,3.662599802E0,2.784099817E0
3.935998438E0,-6.609999537E-1,3.328899860E0,2.933599949E0
3.955998438E0,-2.336999923E-1,2.868099928E0,3.037600040E0
3.975998438E0,6.769999862E-2,2.318099976E0,3.104799986E0
3.995998438E0,4.742999971E-1,1.671299934E0,3.147699833E0
4.015998438E0,9.447999597E-1,1.048399925E0,3.029700041E0
4.035998438E0,1.281700015E0,2.447999865E-1,2.973500013E0
4.055998438E0,1.587899923E0,-5.320999622E-1,2.766599894E0
4.075998438E0,1.921099901E0,-1.402199984E0,2.498899937E0
4.095998438E0,2.530999899E0,-2.749500036E0,1.381699920E0
4.116000000E0,5.593400002E0,-5.491899967E0,-9.966699600E0
4.145998438E0,5.567299843E0,-3.048699856E0,-7.735699654E0
4.165998438E0,4.928299904E0,-1.821900010E0,-3.095799923E0
4.185998438E0,2.062399864E0,-2.815599918E0,-1.269899964E0
4.205998438E0,-9.361000061E-1,-2.405999899E0,-1.014199972E0
4.226000000E0,-2.947499990E0,-1.947799921E0,1.337399960E0
4.255998438E0,-3.596599817E0,-3.082700014E0,2.541899920E0
4.275998438E0,-3.951399803E0,-2.667999983E0,2.796000004E0
4.295998438E0,-3.824599981E0,-3.377199888E0,3.694000006E0
4.315998438E0,-2.838199854E0,-3.823499918E0,4.391299725E0
4.335998438E0,-2.270400047E0,-2.608899832E0,4.448100090E0
4.355998438E0,-1.976300001E0,-1.022499919E0,4.193699837E0
4.375998438E0,-1.685699940E0,3.465999961E-1,3.857899904E0
4.395998438E0,-1.619099975E0,1.772599936E0,3.596299887E0
4.415998438E0,-1.753600001E0,2.825099945E0,2.971099854E0
4.435998438E0,-2.010499954E0,3.481400013E0,2.583099842E0
4.455998438E0,-2.280900002E0,4.220299721E0,2.125000000E0
4.475998438E0,-2.639400005E0,4.803299904E0,1.773999929E0
4.495998438E0,-2.898399830E0,4.944799900E0,1.644199967E0
4.515998438E0,-3.108299971E0,4.680900097E0,1.434000015E0
4.535998438E0,-3.386799812E0,4.266900063E0,1.157299995E0
4.555998438E0,-3.329699993E0,3.806799889E0,1.002300024E0
4.575998438E0,-3.112999916E0,3.329900026E0,7.989999652E-1
4.595998438E0,-2.381799936E0,1.743499994E0,5.110999942E-1
4.615998438E0,-1.483399987E0,-4.055999815E-1,3.119999915E-2
4.635998438E0,-5.105999708E-1,-2.462599993E0,-6.852999926E-1
4.655998438E0,3.590999842E-1,-4.296400070E0,-1.297799945E0
4.675998438E0,1.441200018E0,-5.587899685E0,-1.714999914E0
4.695998438E0,3.340199947E0,-5.847699642E0,-2.549899817E0
4.715998438E0,4.953499794E0,-5.600499630E0,-6.237699986E0
4.735998438E0,5.405999660E0,-5.975399971E0,-1.454099941E1
4.755998438E0,2.371099949E0,-5.680599689E0,-1.256279945E1
4.775998438E0,4.205999970E-1,-3.172600031E0,-4.104499817E0
4.796000000E0,-9.456999898E-1,-3.524999917E-1,-1.005599976E0
4.826000000E0,-3.079900026E0,-1.218999997E-1,1.814199924E0
4.855998438E0,-3.956899881E0,-2.269199848E0,2.988999844E0
4.875998438E0,-3.218099833E0,-1.866799951E0,2.727200031E0
4.895998438E0,-2.452999830E0,-1.002900004E0,2.758299828E0
4.915998438E0,-2.202600002E0,3.313999772E-1,2.582299948E0
4.935998438E0,-2.151599884E0,1.289699912E0,2.444499969E0
4.955998438E0,-1.921199918E0,1.724299908E0,2.387399912E0
4.975998438E0,-1.802299976E0,1.879499912E0,2.307399988E0
4.995998438E0,-1.698099971E0,1.840199947E0,2.602699995E0
5.015998438E0,-1.636199951E0,2.123399973E0,2.727599859E0
5.035998438E0,-1.344099998E0,2.467700005E0,2.844399929E0
5.055998438E0,-9.774999619E-1,2.862900019E0,2.748299837E0
5.075998438E0,-6.586999893E-1,3.240700006E0,2.554699898E0
5.095998438E0,-3.055000007E-1,3.159799814E0,2.358299971E0
5.116000000E0,2.119999938E-2,2.493399858E0,2.128900051E0
5.136000000E0,4.711999893E-1,1.534199953E0,1.738299966E0
5.156000000E0,1.124699950E0,5.927999616E-1,8.880999684E-1
5.176000000E0,1.866799951E0,-8.299999684E-2,-1.181200027E0
5.205998438E0,3.408200026E0,-1.573300004E0,-4.435899734E0
5.226000000E0,4.553100109E0,-2.919699907E0,-5.335000038E0
5.255998438E0,3.325399876E0,-3.040699959E0,-4.924799919E0
5.275998438E0,2.679899931E0,-1.819700003E0,-5.128699780E0
5.295998438E0,2.006899834E0,-1.748299956E0,-3.993899822E0
5.315998438E0,3.919000030E-1,-2.524899960E0,-5.498999953E-1
5.335998438E0,-1.369400024E0,-3.183799982E0,1.704899907E0
5.355998438E0,-1.862199903E0,-2.652499914E0,2.432699919E0
5.375998438E0,-2.155299902E0,-1.241999939E-1,2.565599918E0
5.395998438E0,-2.629999876E0,7.461000085E-1,2.882999897E0
5.415998438E0,-2.989799976E0,-1.096899986E0,3.314899921E0
5.435998438E0,-3.164799929E0,-1.834800005E0,3.578799963E0
5.455998438E0,-2.784699917E0,-9.860000014E-1,3.793200016E0
5.475998438E0,-1.847099900E0,-6.254999638E-1,3.571399927E0
5.495998438E0,-1.130699992E0,-2.964999974E-1,3.357699871E0
5.515998438E0,-7.894999981E-1,4.567999840E-1,3.172099829E0
5.535998438E0,-7.568999529E-1,1.458599925E0,2.715699911E0
5.555998438E0,-1.048599958E0,1.921700001E0,2.284699917E0
5.575998438E0,-1.289499998E0,2.008699894E0,1.948599935E0
5.595998438E0,-1.520299911E0,2.077499866E0,1.518999934E0
5.615998438E0,-1.582000017E0,2.037899971E0,9.129999876E-1
5.635998438E0,-1.111699939E0,1.639299989E0,4.895999730E-1
5.655998438E0,-8.801999688E-1,1.505999923E0,-4.154999852E-1
5.675998438E0,-1.836999953E-1,9.696999788E-1,-1.054399967E0
5.695998438E0,5.819999576E-1,4.336999953E-1,-1.599399924E0
5.715998438E0,1.095600009E0,1.820999980E-1,-1.986999989E0
5.735998438E0,1.443399906E0,-1.055999994E-1,-2.145999908E0
5.755998438E0,1.652899981E0,-3.923999965E-1,-2.506399870E0
5.775998438E0,2.062700033E0,-1.168499947E0,-2.585199833E0
5.795998438E0,2.110100031E0,-1.710199952E0,-3.119199991E0
5.816000000E0,2.276399851E0,-2.429999828E0,-2.275399923E0
5.836000000E0,2.107300043E0,-2.347899914E0,-1.582899928E0
5.865998438E0,1.707299948E0,-1.852599978E0,-1.152599931E0
5.885998438E0,1.049799919E0,-2.925699949E0,-6.056999564E-1
5.905998438E0,1.919999905E-2,-3.203999996E0,3.940000013E-2
5.925998438E0,-9.833999872E-1,-1.474999905E0,4.526000023E-1
5.945998438E0,-1.395299911E0,-1.334999949E-1,9.131999612E-1
5.965998438E0,-1.942899942E0,-3.832999766E-1,1.325199962E0
5.985998438E0,-2.519199848E0,-1.429799914E0,1.563499928E0
6.005998438E0,-2.812700033E0,-2.095200062E0,1.503199935E0
6.025998438E0,-2.559999943E0,-1.787799954E0,1.127099991E0
6.045998438E0,-1.854200006E0,-1.291700006E0,-2.226999998E-1
6.065998438E0,-7.682999969E-1,-1.090899944E0,-4.058899879E0
6.085998438E0,-1.131899953E0,4.484999776E-1,-3.344499826E0
6.105998438E0,-1.440400004E0,2.247999907E0,-2.429999970E-2
6.125998438E0,-1.395799994E0,3.221400023E0,8.136000037E-1
6.146000000E0,-1.462199926E0,3.596099854E0,1.574299932E0
6.176039063E0,-1.751799941E0,3.593699932E0,2.065399885E0
6.205998438E0,-1.333899975E0,3.253999949E0,2.195699930E0
6.225998438E0,-9.016999602E-1,2.949299812E0,2.328099966E0
6.246000000E0,-2.254999876E-1,2.573699951E0,2.344499826E0
6.275998438E0,8.614999652E-1,1.316499949E0,2.289000034E0
6.295998438E0,1.602299929E0,5.454999804E-1,1.804899931E0
6.315998438E0,2.450599909E0,-1.142999977E-1,1.557999998E-1
6.335998438E0,3.156199932E0,-6.855999827E-1,-3.521499872E0
6.355998438E0,3.837799788E0,-2.155999899E0,-7.549599648E0
6.375998438E0,3.008999825E0,-3.393899918E0,-7.412399769E0
6.396000000E0,1.327899933E0,-1.069000006E0,-3.564299822E0
6.416000000E0,8.466999531E-1,-9.898999929E-1,-2.851899862E0
6.445998438E0,1.367900014E0,-2.725800037E0,-1.332599998E0
6.465998438E0,1.014699936E0,-2.617899895E0,7.092999816E-1
6.485998438E0,5.115000010E-1,-2.742499828E0,9.790999889E-1
6.505998438E0,-3.145000041E-1,-2.561199903E0,1.391899943E0
6.525998438E0,-1.620000005E0,-4.833000004E-1,8.596999645E-1
6.545998438E0,-2.526799917E0,1.587000012E0,6.870999932E-1
6.565998438E0,-2.948899984E0,8.021999598E-1,1.769099951E0
6.585998438E0,-2.832700014E0,-1.084200025E0,2.545699835E0
6.605998438E0,-2.381999969E0,-2.299799919E0,2.988499880E0
6.625998438E0,-1.431800008E0,-2.695299864E0,2.719699860E0
6.645998438E0,-8.719999790E-1,-1.887499928E0,2.223899841E0
6.665998438E0,-7.760999799E-1,-6.243999600E-1,1.786399961E0
6.685998438E0,-1.030900002E0,4.237999916E-1,1.440099955E0
6.705998438E0,-1.553699970E0,1.139799953E0,1.266099930E0
6.725998438E0,-2.008399963E0,1.865899920E0,1.199000001E0
6.745998438E0,-2.121000051E0,2.434999943E0,1.040899992E0
6.765998438E0,-1.938499928E0,2.660099983E0,5.288999677E-1
6.786010938E0,-1.508000016E0,2.695299864E0,-1.792999953E-1
6.815998438E0,-7.450999618E-1,2.811699867E0,-9.024999738E-1
6.835998438E0,-1.118999943E-1,2.570099831E0,-1.008599997E0
6.855998438E0,4.490999877E-1,1.835799932E0,-1.194599986E0
6.875998438E0,7.214999795E-1,1.071200013E0,-1.146000028E0
6.895998438E0,9.080999494E-1,6.395999789E-1,-1.356999993E0
6.915998438E0,1.106699944E0,2.280000001E-1,-1.701900005E0
6.935998438E0,1.259099960E0,-9.569999576E-2,-1.839100003E0
6.955998438E0,1.433399916E0,-8.952999711E-1,-1.603599906E0
6.976000000E0,1.452199936E0,-1.799600005E0,-1.151199937E0
7.005998438E0,1.450399995E0,-2.376600027E0,-7.116999626E-1
7.025998438E0,1.381500006E0,-2.441099882E0,-7.109999657E-1
7.045998438E0,9.462999701E-1,-3.090999842E0,-5.439000130E-1
7.065998438E0,4.704999924E-1,-3.905900002E0,-4.959999770E-2
7.085998438E0,6.631000042E-1,-2.456199884E0,1.154999956E-1
7.105998438E0,4.684999883E-1,-1.758999974E-1,-2.649999857E-1
7.125998438E0,-5.203999877E-1,3.394999802E-1,-3.701999784E-1
7.146000000E0,-1.398699999E0,-1.293099999E0,-1.909999922E-2
7.175998438E0,-1.217499971E0,-2.053699970E0,6.018999815E-1
7.195998438E0,-9.063999653E-1,-1.562099934E0,3.939999938E-1
7.215998438E0,-1.171199918E0,-1.325399995E0,-3.876999915E-1
7.235998438E0,-1.574699998E0,-7.179999948E-1,-1.119099975E0
7.255998438E0,-2.003200054E0,1.489999890E-1,-1.257799983E0
7.275998438E0,-2.112499952E0,1.140799999E0,-9.632999897E-1
7.295998438E0,-1.906099916E0,2.088599920E0,-4.527999759E-1
7.315998438E0,-1.597800016E0,2.980499983E0,3.087999821E-1
7.335998438E0,-1.166899920E0,3.319799900E0,1.098199964E0
7.355998438E0,-8.027999997E-1,3.336400032E0,1.598899961E0
7.375998438E0,-5.277999640E-1,3.235999823E0,1.928099990E0
7.395998438E0,-1.079999954E-1,2.852200031E0,2.029299974E0
7.415998438E0,4.219999909E-1,2.224299908E0,1.763799906E0
7.435998438E0,9.777999520E-1,1.451099992E0,1.590099931E0
7.455998438E0,1.522300005E0,1.003199935E0,1.217199922E0
7.475998438E0,2.061399937E0,4.495999813E-1,5.205999613E-1
7.495998438E0,2.852499962E0,-2.318999916E-1,-1.032299995E0
7.515998438E0,4.103799820E0,-1.284699917E0,-4.867199898E0
7.536000000E0,4.170799732E0,-2.760999918E0,-5.145799637E0
7.565998438E0,1.820299983E0,-9.781000018E-1,-2.667299986E0
7.585998438E0,1.473599911E0,-1.657899976E0,-2.388599873E0
7.605998438E0,1.470099926E0,-2.996599913E0,-1.533499956E0
7.625998438E0,5.985999703E-1,-3.858099937E0,1.009999961E-1
7.645998438E0,-6.568999887E-1,-4.538599968E0,8.693000078E-1
7.665998438E0,-2.496000051E0,-3.306299925E0,1.509999931E-1
7.685998438E0,-3.041499853E0,-4.763999879E-1,-5.151999593E-1
7.705998438E0,-2.469799995E0,1.508799911E0,4.248999953E-1
7.725998438E0,-1.641199946E0,3.113999963E-1,1.712499976E0
7.745998438E0,-1.203599930E0,-1.445599914E0,2.441599846E0
7.765998438E0,-1.080600023E0,-2.189599991E0,2.691400051E0
7.786010938E0,-7.127999663E-1,-1.870499969E0,2.628499985E0
7.815998438E0,-5.758000016E-1,1.929999888E-2,2.198299885E0
7.835998438E0,-7.037999630E-1,6.844999790E-1,2.010599852E0
7.855998438E0,-8.822000027E-1,1.460399985E0,1.942899942E0
7.875998438E0,-1.270699978E0,2.410899878E0,1.736799955E0
7.895998438E0,-1.457700014E0,3.047799826E0,1.614399910E0
7.915998438E0,-1.295599937E0,3.230000019E0,1.494899988E0
7.935998438E0,-1.711799979E0,3.058399916E0,1.273000002E0
7.955998438E0,-1.786000013E0,2.520200014E0,1.220499992E0
7.975998438E0,-1.635199904E0,1.970099926E0,9.679999948E-1
7.995998438E0,-1.341599941E0,1.545699954E0,7.080999613E-1
8.015998438E0,-1.005699992E0,1.156599998E0,3.401999772E-1
8.035998438E0,-3.571999967E-1,8.517999649E-1,1.261000037E-1
8.055998438E0,4.021999836E-1,3.329999745E-2,-2.723000050E-1
8.075998438E0,1.209999919E0,-8.360999823E-1,-9.650999904E-1
8.095998438E0,1.853399992E0,-1.636199951E0,-2.008699894E0
8.116000000E0,2.150500059E0,-2.225699902E0,-3.609299898E0
8.145998438E0,2.011100054E0,-2.108399868E0,-4.189799786E0
8.165998438E0,1.683299899E0,-1.526299953E0,-3.540199995E0
8.186000000E0,1.719200015E0,-1.640799999E0,-2.855899811E0
8.215998438E0,1.303900003E0,-2.315799952E0,-1.984499931E0
8.235998438E0,7.770000100E-1,-2.903899908E0,-1.256399989E0
8.255998438E0,2.680999935E-1,-3.018899918E0,-4.558999836E-1
8.275998438E0,-4.387999773E-1,-1.565499902E0,1.703999937E-1
8.296000000E0,-9.768999815E-1,2.951000035E-1,8.877999783E-1
8.325998438E0,-1.456399918E0,-6.028000116E-1,1.629999995E0
8.345998438E0,-1.850499988E0,-2.147199869E0,1.895699978E0
8.365998438E0,-1.634699941E0,-2.389199972E0,2.083299875E0
8.385998438E0,-1.291399956E0,-1.138599992E0,1.721599936E0
8.405998438E0,-1.203699946E0,-1.308999956E-1,8.410999775E-1
8.425998438E0,-1.295699954E0,5.234000087E-1,-3.795000017E-1
8.446015625E0,-1.160399914E0,1.565699935E0,-1.427299976E0
8.476000000E0,-9.185000062E-1,2.555500031E0,-8.751999736E-1
8.505998438E0,-8.935999870E-1,3.110100031E0,3.343999982E-1
8.525998438E0,-9.153999686E-1,2.911099911E0,6.696000099E-1
8.545998438E0,-1.081200004E0,2.687700033E0,5.582999587E-1
8.565998438E0,-8.996999860E-1,2.582399845E0,5.722000003E-1
8.585998438E0,-6.058999896E-1,2.493299961E0,8.157999516E-1
8.606000000E0,-1.388999969E-1,2.144599915E0,1.081900001E0
8.626000000E0,3.959999979E-1,1.683499932E0,1.183200002E0
8.655998438E0,1.296100020E0,9.709999561E-1,1.018199921E0
8.675998438E0,1.951499939E0,2.460999936E-1,3.895999789E-1
8.695998438E0,2.902999878E0,-6.451999545E-1,-1.972000003E0
8.715998438E0,4.736799717E0,-2.966199875E0,-8.844799995E0
8.735998438E0,3.721799850E0,-2.911199808E0,-3.915499926E0
8.755998438E0,2.713500023E0,-1.867899895E0,-1.700599909E0
8.775998438E0,2.254699945E0,-3.104699850E0,-1.337899923E0
8.795998438E0,4.664999843E-1,-4.628200054E0,1.735000014E-1
8.815998438E0,-8.569999933E-1,-4.326299667E0,1.442299962E0
8.835998438E0,-1.153999925E0,-3.149499893E0,1.520900011E0
8.855998438E0,-7.936999798E-1,-5.303999782E-1,8.430999517E-1
8.875998438E0,-1.360499978E0,-8.955999613E-1,1.272699952E0
8.895998438E0,-2.206899881E0,-1.625100017E0,1.508599997E0
8.915998438E0,-2.783900023E0,-1.400900006E0,2.016999960E0
8.935998438E0,-2.432100058E0,-9.868999720E-1,2.279700041E0
8.955998438E0,-2.033299923E0,-3.579999879E-2,2.378499985E0
8.975998438E0,-1.650299907E0,7.146999836E-1,2.463700056E0
8.995998438E0,-1.212399960E0,1.401399970E0,2.485100031E0
9.015998438E0,-1.122799993E0,1.896199942E0,2.309999943E0
9.035998438E0,-9.947999716E-1,2.411900043E0,1.866499901E0
9.055998438E0,-1.060799956E0,2.939399958E0,1.304199934E0
9.075998438E0,-1.253199935E0,3.052599907E0,9.885999560E-1
9.095998438E0,-1.289299965E0,2.575000048E0,7.423999906E-1
9.115998438E0,-1.214599967E0,1.927199960E0,7.232999802E-1
9.135998438E0,-1.191200018E0,1.424299955E0,7.349999547E-1
9.155998438E0,-8.233000040E-1,1.262099981E0,8.126999736E-1
9.175998438E0,-3.192999959E-1,1.117699981E0,6.595000029E-1
9.195998438E0,1.513999999E-1,7.655999660E-1,5.421999693E-1
9.215998438E0,6.714000106E-1,2.533999979E-1,1.674000025E-1
9.235998438E0,1.266699910E0,-4.184999764E-1,-4.197999835E-1
9.255998438E0,1.815999985E0,-8.822000027E-1,-1.453999996E0
9.275998438E0,2.220299959E0,-1.499400020E0,-2.571300030E0
9.295998438E0,2.324899912E0,-1.903800011E0,-3.223999977E0
9.315998438E0,2.454499960E0,-2.103100061E0,-3.213599920E0
9.335998438E0,2.271499872E0,-2.525399923E0,-3.541499853E0
9.355998438E0,1.329599977E0,-4.111999989E0,-3.422600031E0
9.375998438E0,1.299999934E-2,-4.321399689E0,-2.617599964E0
9.395998438E0,-1.014699936E0,-1.916999936E0,-1.641799927E0
9.415998438E0,-1.651799917E0,3.003000021E-1,-7.227999568E-1
9.435998438E0,-2.358000040E0,6.197999716E-1,2.209999971E-2
9.455998438E0,-2.909199953E0,-5.358999968E-1,9.555999637E-1
9.475998438E0,-3.109699965E0,-1.361500025E0,1.502200007E0
9.495998438E0,-2.651299953E0,-1.639999986E0,1.393999934E0
9.515998438E0,-1.816899896E0,-1.400900006E0,8.410999775E-1
9.535998438E0,-1.633000016E0,-8.470000029E-1,2.109999955E-1
9.555998438E0,-1.376099944E0,5.629999936E-2,-7.335000038E-1
9.575998438E0,-1.114799976E0,1.040799975E0,-7.651999593E-1
9.595998438E0,-7.644000053E-1,1.912099957E0,-1.469999924E-2
9.615998438E0,-5.643000007E-1,2.278899908E0,3.312000036E-1
9.635998438E0,-8.344999552E-1,2.487499952E0,7.782999873E-1
9.655998438E0,-1.106599927E0,2.494299889E0,1.090899944E0
9.675998438E0,-9.325999618E-1,2.649699926E0,1.194599986E0
9.696000000E0,-5.422999859E-1,2.930199862E0,1.347299933E0
9.716000000E0,7.809999585E-2,2.990799904E0,1.467499971E0
9.745998438E0,1.018000007E0,2.246399879E0,1.530900002E0
9.765998438E0,1.620499969E0,1.539199948E0,1.291999936E0
9.786010938E0,2.355499983E0,8.431999683E-1,5.191000104E-1
9.815998438E0,3.407399893E0,-3.409999907E-1,-1.804399967E0
9.835998438E0,4.878999710E0,-2.429299831E0,-7.550699711E0
9.855998438E0,3.619799852E0,-2.286099911E0,-4.905099869E0
9.875998438E0,2.217299938E0,-1.252499938E0,-1.810400009E0
9.895998438E0,1.682299972E0,-2.379799843E0,-8.598999977E-1
9.915998438E0,4.088999927E-1,-4.658999920E0,2.419999987E-2
9.935998438E0,-1.316799998E0,-5.844899654E0,7.833999991E-1
9.956000000E0,-2.054100037E0,-3.780099869E0,9.936999679E-1
9.976000000E0,-2.083400011E0,2.146999985E-1,1.195999980E-1
1.000600000E1,-1.405200005E0,-7.154999971E-1,6.155999899E-1
1.003599844E1,-1.970899940E0,-2.916399956E0,1.814899921E0
1.005599844E1,-1.792999983E0,-1.646499991E0,2.151900053E0
1.007599844E1,-1.394899964E0,-5.691999793E-1,2.319900036E0
1.009599844E1,-1.087899923E0,2.865999937E-1,2.242399931E0
1.011599844E1,-8.905999660E-1,8.788999915E-1,1.986299992E0
1.013599844E1,-8.165999651E-1,1.491799951E0,1.719399929E0
1.015599844E1,-6.661999822E-1,1.946599960E0,1.439599991E0
1.017599844E1,-8.838999867E-1,2.315099955E0,1.171700001E0
1.019599844E1,-1.040199995E0,2.575199842E0,9.797999859E-1
1.021599844E1,-1.196399927E0,2.964099884E0,8.278999925E-1
1.023599844E1,-1.321299911E0,3.095700026E0,7.469999790E-1
1.025599844E1,-1.435499907E0,2.733399868E0,6.622999907E-1
1.027599844E1,-1.428900003E0,2.023099899E0,4.914999902E-1
1.029599844E1,-1.250499964E0,1.455899954E0,2.592000067E-1
1.031599844E1,-7.174999714E-1,1.149699926E0,-4.099999741E-2
1.033599844E1,8.100000024E-2,7.997999787E-1,-3.599999845E-1
1.035599844E1,6.582999825E-1,6.289999932E-2,-7.160999775E-1
1.037599844E1,1.211300015E0,-9.922999740E-1,-1.330399990E0
1.039599844E1,1.671000004E0,-2.105799913E0,-2.223500013E0
1.041599844E1,1.816999912E0,-2.978199959E0,-2.545099974E0
1.043599844E1,1.986599922E0,-3.204599857E0,-2.574499846E0
1.045599844E1,1.960999966E0,-2.880300045E0,-2.858299971E0
1.047599844E1,1.781999946E0,-3.014299870E0,-3.006999969E0
1.049599844E1,1.106999993E0,-3.864199877E0,-2.742599964E0
1.051599844E1,2.962000072E-1,-3.653100014E0,-1.985199928E0
1.053599844E1,-5.945999622E-1,-1.542899966E0,-1.129199982E0
1.055599844E1,-1.185999990E0,7.272999883E-1,-3.308999836E-1
1.057599844E1,-1.866299987E0,1.836599946E0,4.230999947E-1
1.059599844E1,-2.601899862E0,9.700999856E-1,1.095999956E0
1.061599844E1,-3.296700001E0,-6.270999908E-1,1.655200005E0
1.063599844E1,-3.056699991E0,-1.985199928E0,1.511099935E0
1.065599844E1,-2.052799940E0,-1.902099967E0,5.623999834E-1
1.067599844E1,-8.529999852E-1,-1.042500019E0,-7.809000015E-1
1.069599844E1,-2.019999921E-2,-4.483999908E-1,-3.594399929E0
1.071599844E1,-5.963999629E-1,8.782999516E-1,-1.794399977E0
1.073599844E1,-9.932000041E-1,2.089499950E0,4.766999781E-1
1.075599844E1,-1.073599935E0,2.554299831E0,9.161999822E-1
1.077599844E1,-1.486999989E0,2.767799854E0,1.214399934E0
1.079599844E1,-1.591699958E0,3.048699856E0,1.265599966E0
1.081599844E1,-1.473899961E0,3.180899858E0,1.566599965E0
1.083599844E1,-9.084999561E-1,3.062899828E0,2.023599863E0
1.085599844E1,-1.349000037E-1,2.724900007E0,2.116799831E0
1.087599844E1,9.801999927E-1,2.229899883E0,2.378200054E0
1.089600000E1,1.341399908E0,1.662400007E0,2.359799862E0
1.092599844E1,2.004199982E0,6.721000075E-1,1.634899974E0
1.094599844E1,2.372599840E0,-1.159999985E-2,2.556999922E-1
1.096599844E1,2.937899828E0,-1.018899918E0,-3.701999903E0
1.098599844E1,4.639499664E0,-3.786299944E0,-1.296910000E1
1.100599844E1,1.796299934E0,-2.359400034E0,-5.957799911E0
1.102599844E1,1.958399892E0,-1.033499956E0,-3.671099901E0
1.104599844E1,1.071200013E0,-1.485499978E0,-8.470000029E-1
1.106599844E1,-7.791999578E-1,-4.163000107E0,-2.143999934E-1
1.108599844E1,-2.627799988E0,-4.756999969E0,4.870999753E-1
1.110599844E1,-2.984899998E0,-1.417099953E0,1.243999958E0
1.112599844E1,-1.435799956E0,1.709699988E0,1.607499957E0
1.114599844E1,-1.194199920E0,-6.260000169E-2,1.634799957E0
1.116604062E1,-2.102400064E0,-2.461699963E0,2.116400003E0
1.119599844E1,-2.523200035E0,-2.906100035E0,2.789199829E0
1.121599844E1,-2.087899923E0,-1.754799962E0,2.812299967E0
1.123599844E1,-1.717099905E0,-3.555999994E-1,2.803400040E0
1.125599844E1,-1.336699963E0,6.420999765E-1,2.488499880E0
1.127599844E1,-9.986999631E-1,1.501099944E0,2.134399891E0
1.129599844E1,-7.264999747E-1,2.359999895E0,1.739099979E0
1.131599844E1,-5.679000020E-1,2.804999828E0,1.342299938E0
1.133599844E1,-7.748000026E-1,2.740200043E0,9.524999857E-1
1.135599844E1,-6.028000116E-1,2.643499851E0,7.838999629E-1
1.137599844E1,-5.360999703E-1,2.643599987E0,7.051999569E-1
1.139600000E1,-3.939999938E-1,2.622900009E0,7.447999716E-1
1.141600000E1,-5.299999714E-1,2.482300043E0,4.769999981E-1
1.144599844E1,-8.201999664E-1,1.844099998E0,2.716000080E-1
1.146599844E1,-6.704999804E-1,9.005999565E-1,-2.759999968E-2
1.148599844E1,-3.782999814E-1,8.879999816E-2,-3.455999792E-1
1.150599844E1,1.518999934E-1,-6.969000101E-1,-7.051999569E-1
1.152599844E1,1.133000016E0,-1.541499972E0,-1.879199982E0
1.154599844E1,1.708099961E0,-2.102200031E0,-2.907699823E0
1.156599844E1,1.872999907E0,-2.387799978E0,-3.155799866E0
1.158599844E1,2.103899956E0,-2.822700024E0,-3.105700016E0
1.160599844E1,1.967099905E0,-3.123199940E0,-2.966899872E0
1.162599844E1,1.682199955E0,-3.040799856E0,-2.693199873E0
1.164599844E1,1.761399984E0,-3.441999912E0,-2.733500004E0
1.166599844E1,1.523899913E0,-3.873299837E0,-2.575299978E0
1.168599844E1,8.793999553E-1,-3.446599960E0,-1.921999931E0
1.170599844E1,-9.189999849E-2,-1.917199969E0,-1.216099977E0
1.172599844E1,-1.095700026E0,2.369999886E-2,-3.343999982E-1
1.174599844E1,-1.722599983E0,1.336199999E0,5.570999980E-1
1.176599844E1,-1.962399960E0,9.847999811E-1,1.204699993E0
1.178601250E1,-2.485299826E0,-5.593000054E-1,1.411799908E0
1.181599844E1,-2.083799839E0,-1.601999998E0,1.269299984E0
1.183599844E1,-1.161800027E0,-6.209999919E-1,1.077899933E0
1.185599844E1,-8.439999819E-1,1.801999956E-1,1.406999975E-1
1.187599844E1,-1.260699987E0,9.262999892E-1,-1.244699955E0
1.189600000E1,-1.430599928E0,1.499199986E0,-1.145599961E0
1.191600000E1,-1.104499936E0,2.326900005E0,-1.865999997E-1
1.194599844E1,-5.278999805E-1,3.266499996E0,1.222199917E0
1.196599844E1,-3.807999790E-1,2.696699858E0,1.720299959E0
1.198599844E1,-2.286999971E-1,1.856799960E0,1.733299971E0
1.200599844E1,-2.585999966E-1,1.410399914E0,1.600600004E0
1.202599844E1,-7.779999822E-2,1.383499980E0,1.712399960E0
1.204599844E1,7.140000165E-2,1.364199996E0,1.992199898E0
1.206599844E1,3.710999787E-1,1.183300018E0,2.062199831E0
1.208599844E1,7.849999666E-1,1.021399975E0,2.031599998E0
1.210599844E1,9.833999872E-1,1.158499956E0,1.853199959E0
1.212599844E1,1.124499917E0,1.019400001E0,1.362399936E0
1.214599844E1,1.376999974E0,5.900999904E-1,3.531000018E-1
1.216599844E1,2.329399824E0,-7.999999523E-1,-4.651400089E0
1.218599844E1,2.246700048E0,-2.902599812E0,-9.755199432E0
1.220599844E1,1.485199928E0,-2.291499853E0,-5.634399891E0
1.222599844E1,2.648000002E0,-1.466099977E0,-7.072199821E0
1.224599844E1,2.901000023E0,-4.474999905E-1,-6.687900066E0
1.226599844E1,8.377999663E-1,1.162999943E-1,-1.930099964E0
1.228601094E1,-1.245000005E0,-1.135900021E0,4.194999933E-1
1.231599844E1,-4.275199890E0,-3.781999826E0,9.293999672E-1
1.233599844E1,-4.234499931E0,-1.628999949E0,6.654999852E-1
1.235599844E1,-2.999199867E0,1.044399977E0,7.915999889E-1
1.237599844E1,-2.924700022E0,3.744999766E-1,1.680699944E0
1.239599844E1,-3.467799902E0,-1.849699974E0,2.002799988E0
1.241599844E1,-3.269399881E0,-3.087599993E0,2.734899998E0
1.243599844E1,-2.016099930E0,-2.517499924E0,2.988399982E0
1.245600000E1,-7.317999601E-1,-1.145699978E0,2.930299997E0
1.248599844E1,2.069999874E-1,4.511999786E-1,2.720199823E0
1.250599844E1,5.105999708E-1,1.199100018E0,2.485100031E0
1.252599844E1,7.440999746E-1,1.840999961E0,2.311300039E0
1.254599844E1,1.057600021E0,2.085599899E0,1.919399977E0
1.256599844E1,1.020699978E0,2.178699970E0,1.532999992E0
1.258599844E1,6.349999905E-1,2.282299995E0,1.234599948E0
1.260599844E1,2.272000015E-1,2.361099958E0,8.262000084E-1
1.262599844E1,1.723999977E-1,2.542899847E0,4.260999858E-1
1.264599844E1,1.255999953E-1,2.596699953E0,3.209999800E-1
1.266599844E1,1.416999996E-1,2.563699961E0,4.160999954E-1
1.268599844E1,-2.662999928E-1,2.307800055E0,7.024999857E-1
1.270599844E1,-9.583999515E-1,1.428799987E0,1.036899924E0
1.272599844E1,-1.688499928E0,1.889999956E-1,9.369999766E-1
1.274599844E1,-1.579599977E0,-9.577999711E-1,8.276000023E-1
1.276599844E1,-4.503999949E-1,-1.936100006E0,3.106999993E-1
1.278601094E1,1.111999974E-1,-2.798599958E0,-2.736999989E-1
1.281599844E1,1.377699971E0,-3.074100018E0,-1.374499917E0
1.283599844E1,1.935499907E0,-2.921299934E0,-2.607100010E0
1.285599844E1,2.134700060E0,-3.932799816E0,-4.627699852E0
1.287599844E1,1.482599974E0,-4.705899715E0,-5.719899654E0
1.289599844E1,4.078999758E-1,-2.719599962E0,-6.860799789E0
1.291599844E1,-1.180999950E-1,-1.746999919E-1,-8.991199493E0
1.293599844E1,-2.226500034E0,6.340000033E-2,-4.059899807E0
1.295599844E1,-3.219799995E0,-8.890999556E-1,-4.671999812E-1
1.297599844E1,-3.981599808E0,-2.256799936E0,1.573899984E0
1.299599844E1,-3.785799980E0,-2.760099888E0,1.852599978E0
1.301599844E1,-2.629199982E0,-1.907799959E0,1.852399945E0
1.303599844E1,-1.138100028E0,-5.738999844E-1,1.417299986E0
1.305599844E1,-7.005000114E-1,5.611999631E-1,1.105700016E0
1.307600000E1,-9.390999675E-1,1.708599925E0,1.121899962E0
1.310599844E1,-1.189599991E0,2.925899982E0,1.633399963E0
1.312599844E1,-7.505999804E-1,3.341599941E0,2.034899950E0
1.314599844E1,-4.133999944E-1,3.403499842E0,2.326499939E0
1.316599844E1,1.614999920E-1,3.054999828E0,2.463099957E0
1.318599844E1,3.976999819E-1,2.404999971E0,2.354099989E0
1.320599844E1,7.168999910E-1,2.129699945E0,2.364899874E0
1.322599844E1,7.103999853E-1,2.090999842E0,2.181900024E0
1.324599844E1,6.894999743E-1,1.954199910E0,2.016999960E0
1.326599844E1,7.258999944E-1,1.809599996E0,1.992699981E0
1.328601094E1,9.343999624E-1,1.547699928E0,1.868699908E0
1.331599844E1,8.503999710E-1,5.338000059E-1,1.235199928E0
1.333599844E1,6.128999591E-1,-3.125999868E-1,-3.889999986E-1
1.335599844E1,1.362999916E0,-2.216599941E0,-5.987699986E0
1.337599844E1,4.219000041E-1,-3.008399963E0,-6.848899841E0
1.339599844E1,9.750999808E-1,-2.783699989E0,-7.021299839E0
1.341599844E1,3.076799870E0,-2.084199905E0,-9.030099869E0
1.343599844E1,2.925899982E0,-1.625399947E0,-9.488999367E0
1.345599844E1,-7.602999806E-1,-9.435999990E-1,-2.683599949E0
1.347599844E1,-3.426599979E0,-1.345899940E0,1.252799988E0
1.349599844E1,-4.226099968E0,-2.635399818E0,1.611299992E0
1.351599844E1,-3.303499937E0,2.967000008E-1,1.382300019E0
1.353599844E1,-2.425400019E0,2.394199848E0,1.594200015E0
1.355599844E1,-3.173399925E0,2.525999844E-1,1.854599953E0
1.357599844E1,-3.896399975E0,-3.091399908E0,2.859899998E0
1.359599844E1,-3.523000002E0,-4.102799892E0,2.828899860E0
1.361600000E1,-1.802299976E0,-2.805199862E0,2.651700020E0
1.364599844E1,-8.109999448E-2,-3.118000031E-1,2.832199812E0
1.366599844E1,2.574000061E-1,5.012999773E-1,3.165699959E0
1.368599844E1,2.906999886E-1,1.218599916E0,3.007400036E0
1.370599844E1,3.479999900E-1,1.757900000E0,2.766999960E0
1.372599844E1,1.850999892E-1,2.093499899E0,2.381599903E0
1.374600000E1,-1.331999898E-1,2.327800035E0,1.887099981E0
1.376600000E1,-3.872999847E-1,2.590899944E0,1.409600019E0
1.378601250E1,-2.532999814E-1,2.780599833E0,1.178300023E0
1.381599844E1,-3.190000057E-1,2.791199923E0,1.005299926E0
1.383599844E1,-4.353999794E-1,2.371700048E0,1.106400013E0
1.385599844E1,-5.673999786E-1,1.911899924E0,1.173200011E0
1.387599844E1,-6.168000102E-1,1.430899978E0,1.143000007E0
1.389599844E1,-5.338000059E-1,6.326000094E-1,9.907999635E-1
1.391599844E1,-2.245999873E-1,-5.993999839E-1,6.681999564E-1
1.393599844E1,2.408999950E-1,-2.041599989E0,-7.149999589E-2
1.395599844E1,7.477999926E-1,-3.286799908E0,-7.476999760E-1
1.397599844E1,1.609099984E0,-3.815199852E0,-1.695099950E0
1.399599844E1,2.448099852E0,-4.301000118E0,-3.686399937E0
1.401599844E1,2.158599854E0,-5.232599735E0,-6.348599911E0
1.403599844E1,1.885199904E0,-5.098999977E0,-9.686399460E0
1.405599844E1,-2.267999947E-1,-2.335799932E0,-1.201659966E1
1.407599844E1,-2.195499897E0,-1.863499999E0,-3.063099861E0
1.409599844E1,-3.366799831E0,-1.502499938E0,6.645999551E-1
1.411599844E1,-5.165999889E0,-1.576499939E0,1.781999946E0
1.413599844E1,-5.422100067E0,-1.743899941E0,2.637500048E0
1.415599844E1,-4.110499859E0,-1.476499915E0,2.433500051E0
1.417599844E1,-2.658200026E0,-8.596000075E-1,1.845499992E0
1.419599844E1,-1.876799941E0,5.368999839E-1,1.282599926E0
1.421599844E1,-1.375199914E0,1.835999966E0,1.503899932E0
1.423599844E1,-8.658999801E-1,2.776000023E0,1.711899996E0
1.425600156E1,-4.127999842E-1,3.256699800E0,1.910699964E0
1.428601094E1,3.082000017E-1,3.230299950E0,2.093400002E0
1.431599844E1,7.785999775E-1,2.684099913E0,1.712599993E0
1.433599844E1,1.066200018E0,2.451400042E0,1.301299930E0
1.435599844E1,1.226899981E0,2.612900019E0,1.210299969E0
1.437599844E1,1.128799915E0,2.655400038E0,1.570400000E0
1.439599844E1,8.203999996E-1,2.270099878E0,1.831999898E0
1.441599844E1,8.011999726E-1,1.614599943E0,1.910299897E0
1.443599844E1,1.080899954E0,9.826999903E-1,1.516699910E0
1.445599844E1,1.218599916E0,2.937999964E-1,6.947000027E-1
1.447599844E1,1.159500003E0,-6.717000008E-1,-1.322299957E0
1.449599844E1,1.785099983E0,-2.858899832E0,-9.778999329E0
1.451599844E1,9.304999709E-1,-3.789799929E0,-8.684000015E0
1.453599844E1,8.219999671E-1,-1.552599907E0,-4.753599644E0
1.455599844E1,1.877999902E0,-1.131099939E0,-2.780299902E0
1.457599844E1,1.351699948E0,-2.773900032E0,-1.699399948E0
1.459599844E1,7.989999652E-2,-4.522999763E0,-3.770000041E-1
1.461599844E1,3.999999899E-4,-3.088299990E0,1.368299961E0
1.463599844E1,2.369999886E-1,-3.889999986E-1,1.446299911E0
1.465599844E1,-4.933999777E-1,1.428699970E0,7.545999885E-1
1.467599844E1,-6.509000063E-1,3.043999970E-1,1.516399980E0
1.469600000E1,-1.017899990E0,-2.130599976E0,2.165699959E0
1.472599844E1,-1.397499919E0,-3.948399782E0,3.130899906E0
1.474600000E1,-8.833000064E-1,-3.756999969E0,3.089499950E0
1.477599844E1,-4.793999791E-1,-6.667000055E-1,3.134799957E0
1.479599844E1,-5.672000051E-1,7.445999980E-1,2.891899824E0
1.481599844E1,-8.084999919E-1,1.426499963E0,2.592299938E0
1.483599844E1,-9.871999621E-1,2.138599873E0,2.272799969E0
1.485599844E1,-1.148899913E0,2.847599983E0,1.937699914E0
1.487599844E1,-1.442299962E0,3.209999800E0,1.629099965E0
1.489599844E1,-1.681299925E0,3.074999809E0,1.350399971E0
1.491599844E1,-1.816199899E0,2.765799999E0,9.788999557E-1
1.493599844E1,-1.870399952E0,2.641199827E0,7.471999526E-1
1.495599844E1,-2.047699928E0,2.559799910E0,6.317999959E-1
1.497599844E1,-2.222399950E0,2.112200022E0,4.588999748E-1
1.499599844E1,-2.241400003E0,1.541700006E0,4.061999917E-1
1.501599844E1,-1.658399940E0,8.678999543E-1,2.595999837E-1
1.503599844E1,-7.856999636E-1,-2.236000001E-1,-1.799999923E-1
1.505599844E1,1.656000018E-1,-1.917599916E0,-1.301599979E0
1.507599844E1,8.434999585E-1,-3.395200014E0,-2.209599972E0
1.509599844E1,1.551699996E0,-3.927999973E0,-2.985499859E0
1.511599844E1,1.997499943E0,-3.486500025E0,-4.132899761E0
1.513599844E1,1.730599999E0,-3.793399811E0,-5.266599655E0
1.515599844E1,5.202000141E-1,-3.639400005E0,-5.516900063E0
1.517599844E1,-6.419999599E-1,-2.012699842E0,-4.143199921E0
1.519599844E1,-2.061300039E0,-6.772999763E-1,-1.716099977E0
1.521599844E1,-3.182600021E0,-6.502999663E-1,6.879000068E-1
1.523599844E1,-4.679299831E0,-1.005800009E0,1.707499981E0
1.525599844E1,-4.837800026E0,-9.110999703E-1,1.857899904E0
1.527599844E1,-3.071499825E0,-7.224000096E-1,1.730399966E0
1.529599844E1,-2.376799822E0,-1.333999932E-1,1.138800025E0
1.531599844E1,-1.666700006E0,1.097399950E0,7.645999789E-1
1.533599844E1,-8.614999652E-1,2.321300030E0,6.408999562E-1
1.535599844E1,1.000999957E-1,2.865099907E0,5.503000021E-1
1.537599844E1,7.443000078E-1,2.886699915E0,5.304999948E-1
1.539599844E1,1.160899997E0,2.739599943E0,8.460999727E-1
1.541599844E1,1.385100007E0,2.332599878E0,1.154699922E0
1.543599844E1,1.475700021E0,1.792799950E0,1.213500023E0
1.545599844E1,1.349900007E0,1.801999927E0,1.381999969E0
1.547600000E1,1.337599993E0,2.542199850E0,1.798200011E0
1.550599844E1,8.206999898E-1,1.976699948E0,2.222800016E0
1.552599844E1,7.766000032E-1,1.193099976E0,2.388700008E0
1.554599844E1,1.243600011E0,5.216999650E-1,2.319499969E0
1.556599844E1,1.716799974E0,-1.127000004E-1,1.577600002E0
1.558599844E1,2.260499954E0,-9.669999480E-1,-1.297999918E-1
1.560599844E1,2.973500013E0,-2.075599909E0,-3.710799932E0
1.562599844E1,4.710299969E0,-4.764299870E0,-1.268179989E1
1.564599844E1,2.132499933E0,-2.001299858E0,-5.295199871E0
1.566599844E1,1.655499935E0,-1.190400004E0,-2.446399927E0
1.568599844E1,1.065699935E0,-2.456300020E0,-1.533599973E0
1.570599844E1,-5.449000001E-1,-3.172499895E0,-6.938999891E-1
1.572599844E1,-2.371799946E0,-2.419100046E0,3.893999755E-1
1.574599844E1,-3.548300028E0,-1.133599997E0,1.047899961E0
1.576599844E1,-3.760599852E0,-6.439999491E-2,8.152999878E-1
1.578601094E1,-2.974799871E0,-4.621999860E-1,7.802999616E-1
1.581599844E1,-1.927999973E0,-2.216399908E0,2.038599968E0
1.583599844E1,-1.315699935E0,-1.738999963E0,2.441099882E0
1.585599844E1,-9.352999926E-1,-9.225999713E-1,2.384399891E0
1.587599844E1,-7.233999968E-1,-2.357999980E-1,2.418999910E0
1.589600000E1,-5.782999992E-1,4.682999849E-1,2.101300001E0
1.591600000E1,-2.421000004E-1,1.314999938E0,1.762899995E0
1.594599844E1,-4.600000102E-3,2.735399961E0,1.139899969E0
1.596599844E1,-8.989999443E-2,3.212399960E0,7.394999862E-1
1.598599844E1,-3.440999985E-1,3.357100010E0,5.275999904E-1
1.600599844E1,-6.908999681E-1,2.889799833E0,3.890999854E-1
1.602599844E1,-9.884999990E-1,2.242899895E0,2.368000001E-1
1.604599844E1,-1.056200027E0,1.707599998E0,-2.789999917E-2
1.606599844E1,-8.126999736E-1,1.088699937E0,-4.104999900E-1
1.608599844E1,-6.669999659E-2,2.533999979E-1,-9.397999644E-1
1.610599844E1,8.655999899E-1,-4.833000004E-1,-1.235800028E0
1.612599844E1,1.953199983E0,-1.107599974E0,-1.990999937E0
1.614599844E1,2.726099968E0,-2.190000057E0,-2.999300003E0
1.616599844E1,3.178900003E0,-2.592200041E0,-3.651799917E0
1.618599844E1,2.949699879E0,-1.552500010E0,-3.218199968E0
1.620599844E1,1.753499985E0,-1.647899985E0,-2.145299911E0
1.622599844E1,-1.017899990E0,-4.023999691E0,-5.728999972E-1
1.624599844E1,-3.361999989E0,-3.155099869E0,1.024799943E0
1.626599844E1,-3.617100000E0,-8.786999583E-1,1.914299965E0
1.628601094E1,-3.710999966E0,-2.921999991E-1,2.389799833E0
1.631599844E1,-4.434400082E0,-1.142799973E0,1.818099976E0
1.633599844E1,-5.001599789E0,-1.827999949E0,6.724999547E-1
1.635599844E1,-4.607100010E0,-1.543799996E0,-1.128999963E-1
1.637599844E1,-3.235599995E0,-6.839999557E-2,-1.101999998E0
1.639599844E1,-2.142099857E0,6.827999949E-1,-2.787299871E0
1.641599844E1,-2.056299925E0,1.190999985E0,-3.467799902E0
1.643599844E1,-2.121199846E0,1.684399962E0,-2.314100027E0
1.645599844E1,-1.778999925E0,2.289099932E0,-9.393999577E-1
1.647599844E1,-1.362299919E0,2.413599968E0,-5.874999762E-1
1.649599844E1,-9.442999959E-1,2.319499969E0,6.920000166E-2
1.651600000E1,-5.249999762E-1,2.431599855E0,7.795000076E-1
1.654599844E1,4.900999963E-1,2.176499844E0,1.268299937E0
1.656599844E1,9.916999936E-1,2.093999863E0,1.477299929E0
1.658599844E1,1.528599977E0,1.972399950E0,1.526600003E0
1.660599844E1,2.003099918E0,1.807699919E0,1.189299941E0
1.662599844E1,2.286599874E0,1.669099927E0,6.341999769E-1
1.664599844E1,2.403199911E0,1.213999987E0,1.933999956E-1
1.666599844E1,2.319900036E0,-8.060000092E-2,-7.397999763E-1
1.668599844E1,1.785599947E0,-1.184999943E0,-1.131699920E0
1.670599844E1,5.042999983E-1,-2.207700014E0,-4.188999832E-1
1.672599844E1,-1.767799973E0,-2.915899992E0,-1.172500014E0
1.674599844E1,-3.833199978E0,-1.648299932E0,-3.270699978E0
1.676599844E1,-2.948599815E0,8.669999987E-2,-3.613199949E0
1.678601094E1,-1.435099959E0,-1.556999981E-1,8.700000122E-3
1.681599844E1,-2.207299948E0,-3.329399824E0,2.316799879E0
1.683599844E1,-1.936800003E0,-3.113399982E0,2.589599848E0
1.685599844E1,-1.287199974E0,-1.520499945E0,2.642899990E0
1.687599844E1,-9.303999543E-1,-3.434000015E-1,2.483700037E0
1.689599844E1,-1.028499961E0,4.857999980E-1,2.477900028E0
1.691599844E1,-1.117499948E0,1.294700027E0,2.557600021E0
1.693599844E1,-1.147099972E0,1.329599977E0,2.613100052E0
1.695599844E1,-1.046499968E0,1.194199920E0,2.461499929E0
1.697599844E1,-8.679999709E-1,1.291100025E0,2.060899973E0
1.699599844E1,-7.598999739E-1,1.164600015E0,1.516399980E0
1.701599844E1,-7.889999747E-1,9.319999814E-1,1.028800011E0
1.703599844E1,-6.324999928E-1,9.687999487E-1,4.714999795E-1
1.705599844E1,-4.071999788E-1,1.137899995E0,-2.004999965E-1
1.707599844E1,-9.899999946E-2,1.076200008E0,-1.032899976E0
1.709599844E1,-1.120999977E-1,5.683000088E-1,-1.453799963E0
1.711599844E1,-8.779000044E-1,6.859999895E-2,-4.277999997E-1
1.713599844E1,-1.736299992E0,-4.152999818E-1,7.479999661E-1
1.715599844E1,-2.250699997E0,-1.288800001E0,1.254199982E0
1.717599844E1,-2.203299999E0,-2.487599850E0,1.735700011E0
1.719599844E1,-2.137799978E0,-4.291399956E0,2.190099955E0
1.721599844E1,-1.511799932E0,-3.791800022E0,2.275899887E0
1.723599844E1,-4.591999948E-1,-4.759999737E-2,1.919299960E0
1.725599844E1,-1.034199953E0,8.998999596E-1,-8.034999967E-1
1.727599844E1,-1.349699974E0,6.518999934E-1,-4.084000111E0
1.729599844E1,-5.954999924E-1,4.815999866E-1,-5.302399635E0
1.731599844E1,2.159999907E-1,5.076000094E-1,-3.548499823E0
1.733599844E1,6.147999763E-1,1.001500010E0,-2.442600012E0
1.735599844E1,5.742999911E-1,9.493999481E-1,-1.972899914E0
1.737599844E1,-1.112999991E-1,5.583999753E-1,-9.485999942E-1
1.739599844E1,-6.545000076E-1,6.808999777E-1,1.683999896E-1
1.741599844E1,-6.110000014E-1,9.707999825E-1,6.753000021E-1
1.743599844E1,-1.206999943E-1,3.759999871E-1,2.664999962E-1
1.745599844E1,7.807999849E-1,-2.061000019E-1,-5.212000012E-1
1.747600000E1,1.764199972E0,-2.296999991E-1,-1.316999912E0
1.750599844E1,1.615199924E0,-2.739999890E-1,-8.332999945E-1
1.752599844E1,6.613999605E-1,-4.829999804E-2,1.105799913E0
1.754599844E1,2.570999861E-1,-4.209999740E-2,1.568399906E0
1.756599844E1,1.188999936E-1,-1.424999982E-1,1.398100019E0
1.758599844E1,1.428999901E-1,-2.078000009E-1,9.563999772E-1
1.760599844E1,1.008000001E-1,-1.489000022E-1,4.422999918E-1
1.762599844E1,-1.299999934E-2,-1.059999987E-1,-1.640000008E-2
1.764599844E1,-8.060000092E-2,-5.389999971E-2,-4.193999767E-1
1.766599844E1,-1.375999898E-1,1.533999890E-1,-5.119999647E-1
1.768599844E1,-3.701999784E-1,3.094999790E-1,-5.300999880E-1
1.770599844E1,-6.850000024E-1,4.727999866E-1,-6.014999747E-1
1.772599844E1,-1.040599942E0,6.737999916E-1,-7.415999770E-1
1.774599844E1,-1.224200010E0,7.894999981E-1,-9.642999768E-1
1.776599844E1,-1.058799982E0,7.755999565E-1,-9.978999496E-1
1.778601250E1,-8.217999935E-1,8.772000074E-1,-5.432000160E-1
1.781599844E1,-6.117999554E-1,9.970999956E-1,-3.170000017E-2
1.783599844E1,-6.572999954E-1,7.221999764E-1,2.606000006E-1
1.785599844E1,-7.627999783E-1,4.453999996E-1,5.552999973E-1
1.787599844E1,-9.023999572E-1,2.754999995E-1,8.800999522E-1
1.789599844E1,-1.201200008E0,-2.407999933E-1,1.011999965E0
1.791599844E1,-1.389899969E0,-8.791999817E-1,9.659999609E-1
1.793599844E1,-1.031000018E0,-7.472999692E-1,8.087999821E-1
1.795599844E1,-2.179999948E-1,-3.150999844E-1,5.877999663E-1
1.797599844E1,5.525999665E-1,-2.170999944E-1,1.445999891E-1
1.799599844E1,1.140200019E0,-9.230999947E-1,-6.765999794E-1
1.801599844E1,1.558699965E0,-2.000099897E0,-1.769599915E0
1.803599844E1,2.055700064E0,-2.493700027E0,-2.734599829E0
1.805599844E1,2.260299921E0,-2.249300003E0,-2.730799913E0
1.807599844E1,2.067800045E0,-1.147099972E0,-1.577199936E0
1.809600000E1,1.561999917E0,6.399999838E-3,-9.056999683E-1
1.811600000E1,1.207399964E0,4.554999769E-1,-3.285000026E-1
1.814599844E1,1.167500019E0,8.859999478E-2,1.129999980E-1
1.816599844E1,1.460099936E0,-1.702999920E-1,3.102000058E-1
1.818599844E1,1.782999992E0,-3.513999879E-1,3.129999936E-1
1.820599844E1,1.984999895E0,-6.301000118E-1,7.360000163E-2
1.822599844E1,1.942599893E0,-7.689999938E-1,-2.529999986E-2
1.824599844E1,1.628600001E0,-7.099999785E-1,-4.930000007E-2
1.826599844E1,1.233099937E0,-6.204000115E-1,1.428000033E-1
1.828601094E1,9.339999557E-1,-5.009999871E-1,3.303000033E-1
1.831599844E1,5.080000162E-1,-1.345999986E-1,4.828999937E-1
1.833599844E1,4.089999795E-1,1.806000024E-1,7.594000101E-1
1.835599844E1,4.506999850E-1,3.665999770E-1,9.248999953E-1
1.837599844E1,4.129999876E-1,3.850999773E-1,1.022099972E0
1.839599844E1,3.227999806E-1,4.139999747E-1,1.175799966E0
1.841599844E1,2.985000014E-1,5.105000138E-1,1.335999966E0
1.843599844E1,2.673999965E-1,7.634999752E-1,1.454199910E0
1.845599844E1,7.849999517E-2,9.368999600E-1,1.513499975E0
1.847599844E1,-1.653999984E-1,9.036999941E-1,1.657699943E0
1.849599844E1,-4.441999793E-1,5.841999650E-1,1.850999951E0
1.851599844E1,-6.177999973E-1,3.810000047E-2,1.971699953E0
1.853599844E1,-7.847999930E-1,-3.328000009E-1,2.094799995E0
1.855599844E1,-8.023999929E-1,-6.369999647E-1,2.241999865E0
1.857599844E1,-9.159999490E-1,-1.109099984E0,2.211400032E0
1.859599844E1,-1.154699922E0,-1.824699998E0,2.257099867E0
1.861599844E1,-1.454699993E0,-2.630800009E0,1.973599911E0
1.863599844E1,-2.044499874E0,-2.045500040E0,2.638999820E-1
1.865599844E1,-2.351399899E0,-1.527999938E-1,-2.492599964E0
1.867599844E1,-1.092299938E0,1.649999917E-1,-1.861299992E0
1.869599844E1,-4.902999997E-1,2.527000010E-1,-1.291100025E0
1.871599844E1,-4.851999879E-1,1.131299973E0,-1.614399910E0
1.873599844E1,-5.669000149E-1,1.509699941E0,-3.497900009E0
1.875599844E1,-3.237999976E-1,1.252399921E0,-5.264199734E0
1.877599844E1,9.019999951E-2,1.377699971E0,-4.791999817E0
1.879599844E1,1.261000037E-1,1.093899965E0,-3.862099886E0
1.881599844E1,1.260000020E-1,6.360999942E-1,-2.870999813E0
1.883599844E1,5.546999574E-1,1.101999953E-1,-1.628799915E0
1.885599844E1,1.116699934E0,-3.836999834E-1,-8.069999814E-1
1.887599844E1,1.140299916E0,-5.755999684E-1,4.259999841E-2
1.889599844E1,8.035999537E-1,-5.784999728E-1,5.921999812E-1
1.891599844E1,2.915999889E-1,-2.685999870E-1,9.257999659E-1
1.893599844E1,-6.009999663E-2,1.695999950E-1,1.052999973E0
1.895599844E1,-1.653999984E-1,4.056999981E-1,9.420999885E-1
1.897599844E1,-1.847999990E-1,4.165999889E-1,4.898999929E-1
1.899599844E1,-5.439999700E-2,4.246999919E-1,-8.579999954E-2
1.901599844E1,1.538999975E-1,4.927999973E-1,-6.020999551E-1
1.903599844E1,2.978000045E-1,1.755999923E-1,-1.010999918E0
1.905599844E1,1.188999936E-1,-8.999999845E-4,-1.364399910E0
1.907599844E1,-1.507999897E-1,4.399999976E-3,-1.327600002E0
1.909599844E1,-4.539999962E-1,1.005999967E-1,-1.315099955E0
1.911599844E1,-6.290000081E-1,3.165999949E-1,-1.103600025E0
1.913599844E1,-7.990999818E-1,2.640999854E-1,-1.011500001E0
1.915599844E1,-8.830999732E-1,1.069999952E-2,-9.960999489E-1
1.917599844E1,-7.028999925E-1,-6.119999662E-2,-8.402000070E-1
1.919599844E1,-3.464999795E-1,-1.275999993E-1,-7.773999572E-1
1.921599844E1,-3.639999777E-2,-2.839999795E-1,-7.459999919E-1
1.923599844E1,2.601000071E-1,-3.120999932E-1,-5.852999687E-1
1.925599844E1,5.137999654E-1,-6.309999526E-2,-3.179000020E-1
1.927599844E1,5.485000014E-1,6.039999798E-2,-1.717000008E-1
1.929599844E1,4.251999855E-1,3.267000020E-1,-1.599999890E-2
1.931599844E1,3.332999945E-1,5.809000134E-1,2.088999897E-1
1.933599844E1,2.475999892E-1,6.995999813E-1,3.165999949E-1
1.935599844E1,2.906000018E-1,8.732999563E-1,5.278999805E-1
1.937599844E1,2.766000032E-1,5.823999643E-1,1.008299947E0
1.939599844E1,1.665000021E-1,-4.239999875E-2,1.233500004E0
1.941599844E1,3.779999912E-1,-2.131000012E-1,1.195799947E0
1.943599844E1,7.261999846E-1,-1.749999970E-1,8.236999512E-1
1.945599844E1,8.483999968E-1,-1.053999960E-1,5.493999720E-1
1.947599844E1,6.645999551E-1,-1.043999940E-1,4.680999815E-1
1.949599844E1,4.623000026E-1,1.319999993E-2,4.664999843E-1
1.951599844E1,4.720999897E-1,2.644000053E-1,4.329999983E-1
1.953599844E1,5.745999813E-1,6.705999970E-1,4.444999993E-1
1.955599844E1,6.121999621E-1,9.554999471E-1,6.710999608E-1
1.957599844E1,6.086999774E-1,1.188799977E0,9.534999728E-1
1.959599844E1,4.481000006E-1,9.121999741E-1,1.135699987E0
1.961599844E1,3.617999852E-1,3.030000031E-1,1.142400026E0
1.963599844E1,4.394999743E-1,-1.674999893E-1,1.074999928E0
1.965599844E1,4.904999733E-1,-6.464999914E-1,8.920999765E-1
1.967599844E1,5.189999938E-1,-1.184499979E0,6.895999908E-1
1.969599844E1,5.040999651E-1,-1.762099981E0,4.765999913E-1
1.971599844E1,4.091999829E-1,-2.132699966E0,2.201999873E-1
1.973599844E1,3.594000041E-1,-1.913599968E0,-1.800999939E-1
1.975599844E1,5.220999718E-1,-1.381899953E0,-6.890999675E-1
1.977599844E1,4.625999928E-1,-8.132999539E-1,-1.780799985E0
1.979599844E1,4.055999815E-1,-4.115999937E-1,-3.087599993E0
1.981599844E1,7.069000006E-1,-1.858000010E-1,-2.980799913E0
1.983599844E1,7.910999656E-1,-1.862999946E-1,-1.993299961E0
1.985599844E1,5.333999991E-1,-4.715999961E-1,-1.538199902E0
1.987599844E1,3.797999918E-1,-4.915999770E-1,-1.385299921E0
1.989599844E1,5.525999665E-1,-5.526999831E-1,-7.585999966E-1
1.991599844E1,6.861999631E-1,-5.453999639E-1,-2.525999844E-1
1.993599844E1,7.566999793E-1,-5.396999717E-1,3.969999775E-2
1.995599844E1,7.943999767E-1,-4.953999817E-1,2.840999961E-1
1.997599844E1,8.116999865E-1,-5.303999782E-1,5.227999687E-1
1.999599844E1,8.685999513E-1,-5.076999664E-1,5.389999747E-1
2.001599844E1,1.013499975E0,-3.971999884E-1,6.541999578E-1
2.003599844E1,1.099900007E0,-2.970999777E-1,6.430999637E-1
2.005599844E1,1.224699974E0,-2.854000032E-1,5.764999986E-1
2.007599844E1,1.267300010E0,-1.648000032E-1,5.491999984E-1
2.009599844E1,1.401799917E0,-5.639999732E-2,5.963999629E-1
2.011599844E1,1.594399929E0,-2.124999911E-1,5.640000105E-1
2.013599844E1,1.799999952E0,-2.243999988E-1,6.194999814E-1
2.015599844E1,1.999699950E0,-4.800000042E-2,7.019999623E-1
2.017599844E1,2.004400015E0,-5.806999803E-1,8.443999887E-1
2.019599844E1,1.690899968E0,-1.788100004E0,9.225999713E-1
2.021599844E1,1.710599899E0,-2.175299883E0,1.143299937E0
2.023599844E1,2.142400026E0,-8.870999813E-1,1.464100003E0
2.025599844E1,2.355999947E0,1.759999990E-2,1.729799986E0
2.027599844E1,2.104699850E0,-5.173999667E-1,1.884899974E0
2.029599844E1,1.627299905E0,-1.428399920E0,1.981999993E0
2.031599844E1,1.519199967E0,-1.583599925E0,2.006399870E0
2.033599844E1,1.256699920E0,-8.047999740E-1,1.778599977E0
2.035599844E1,9.242999554E-1,-2.935000062E-1,1.504400015E0
2.037599844E1,-1.290999949E-1,5.209999904E-2,9.715999961E-1
2.039599844E1,-2.541100025E0,9.167999625E-1,-4.923799992E0
2.041599844E1,-2.202999830E0,5.187999606E-1,-3.087499857E0
2.043599844E1,-1.462599993E0,1.374300003E0,-2.218600035E0
2.045599844E1,-5.767999887E-1,1.632200003E0,-1.726899981E0
2.047599844E1,-2.788999975E-1,1.068799973E0,-7.701999545E-1
2.049599844E1,-6.182000041E-1,7.084999681E-1,1.056200027E0
2.051599844E1,-9.454999566E-1,6.229999661E-1,2.163399935E0
2.053599844E1,-1.143599987E0,5.004999638E-1,2.438599825E0
2.055599844E1,-1.352100015E0,2.839999795E-1,2.389899969E0
2.057599844E1,-1.272699952E0,9.319999814E-2,2.115599871E0
2.059599844E1,-9.761999846E-1,1.070999950E-1,1.694499969E0
2.061599844E1,-5.460000038E-1,1.932999939E-1,1.341399908E0
2.063599844E1,1.083000004E-1,-6.659999490E-2,-2.329999954E-1
2.065599844E1,6.760999560E-1,-4.591999948E-1,-2.655499935E0
2.067599844E1,6.455000043E-1,-2.876999974E-1,-3.220299959E0
2.069599844E1,1.836999953E-1,6.529999524E-2,-1.649899960E0
2.071599844E1,-5.297999978E-1,3.163999915E-1,-5.568999648E-1
2.073599844E1,-9.853000045E-1,6.463999748E-1,2.987000048E-1
2.075600000E1,-1.143299937E0,8.641999960E-1,7.823999524E-1
2.078601094E1,-7.901999950E-1,5.618999600E-1,1.103999972E0
2.081599844E1,1.741999984E-1,1.899999976E-1,6.212999821E-1
2.083599844E1,7.103999853E-1,-4.089999944E-2,3.258000016E-1
2.085599844E1,1.108199954E0,-1.436000019E-1,-7.620000094E-2
2.087599844E1,1.096499920E0,8.850000054E-2,-4.481000006E-1
2.089600000E1,9.335999489E-1,1.143999994E-1,-4.598999918E-1
2.092599844E1,1.288200021E0,-1.089999974E-1,-3.292999864E-1
2.094599844E1,1.762599945E0,-4.729999974E-2,-3.935000002E-1
2.096599844E1,2.136499882E0,-1.736999899E-1,-5.640999675E-1
2.098599844E1,2.328699827E0,-1.447999924E-1,-3.895999789E-1
2.100599844E1,2.555099964E0,-3.989999890E-1,-5.209999681E-1
2.102599844E1,2.470899820E0,-7.213000059E-1,-7.198999524E-1
2.104599844E1,1.716699958E0,-1.631299973E0,-6.019999981E-1
2.106599844E1,-2.259999886E-2,-3.223599911E0,-3.788999915E-1
2.108599844E1,-1.493399978E0,-4.177599907E0,1.846999973E-1
2.110599844E1,-2.491899967E0,-3.141399860E0,7.918999791E-1
2.112599844E1,-2.629799843E0,-4.267999828E-1,6.207999587E-1
2.114604062E1,-1.812399983E0,1.505699992E0,-2.696999907E-1
2.117599844E1,4.369999841E-2,1.688099980E0,-2.002699852E0
2.119599844E1,2.299999893E-1,6.173999906E-1,-6.916999817E-1
2.121599844E1,-4.816999733E-1,-5.773999691E-1,7.694000006E-1
2.123599844E1,-4.902999997E-1,-7.993999720E-1,1.509199977E0
2.125599844E1,-4.360999763E-1,-1.130999997E-1,1.620999932E0
2.127599844E1,-5.018999577E-1,-7.409999520E-2,1.570799947E0
2.129599844E1,-8.021999598E-1,-4.066999853E-1,1.548299909E0
2.131599844E1,-9.677000046E-1,-3.120000064E-1,1.607399940E0
2.133599844E1,-1.028499961E0,4.612999856E-1,1.474299908E0
2.135599844E1,-1.076200008E0,1.146799922E0,1.395200014E0
2.137599844E1,-1.385499954E0,1.415399909E0,1.306100011E0
2.139599844E1,-1.531299949E0,1.505800009E0,1.399299979E0
2.141599844E1,-1.345299959E0,1.382200003E0,1.299499989E0
2.143599844E1,-1.030699968E0,1.029699922E0,8.871999979E-1
2.145599844E1,-6.268999577E-1,1.017400026E0,6.504999995E-1
2.147599844E1,-2.939999998E-1,6.963999867E-1,4.860999882E-1
2.149599844E1,7.195000052E-1,-2.951000035E-1,2.748000026E-1
2.151599844E1,9.760999680E-1,-8.540999889E-1,-2.199999988E-2
2.153599844E1,1.273699999E0,-5.499999970E-2,-4.316999912E-1
2.155599844E1,2.101899862E0,6.273999810E-1,-5.680999756E-1
2.157599844E1,2.396699905E0,3.405999839E-1,-2.612999976E-1
2.159599844E1,1.593899965E0,-4.900000058E-3,-4.600000102E-3
2.161599844E1,1.554499984E0,-1.513999999E-1,-2.249999940E-1
2.163599844E1,1.915499926E0,-3.601000011E-1,-9.667999744E-1
2.165599844E1,1.903199911E0,-6.315000057E-1,-1.091499925E0
2.167599844E1,1.135299921E0,-9.111999869E-1,-8.639000058E-1
2.169599844E1,2.414999902E-1,-6.597999930E-1,-6.618999839E-1
2.171599844E1,4.405999780E-1,-6.449999809E-1,-7.540999651E-1
2.173599844E1,4.626999795E-1,-6.657999754E-1,-1.156700015E0
2.175599844E1,4.558999836E-1,-1.274299979E0,-1.222599983E0
2.177599844E1,3.517999947E-1,-3.050599813E0,-1.577999949E0
2.179599844E1,-5.357999802E-1,-3.863600016E0,-1.664699912E0
2.181599844E1,-1.025399923E0,-1.184000015E0,-1.283399940E0
2.183599844E1,-1.357399940E0,1.346300006E0,-6.796000004E-1
2.185599844E1,-2.199100018E0,1.681399941E0,-7.899999619E-1
2.187599844E1,-3.337800026E0,-3.795999885E-1,-1.561900020E0
2.189599844E1,-3.381899834E0,-1.544099927E0,-2.013700008E0
2.191599844E1,-2.251600027E0,-2.001899958E0,-1.714800000E0
2.193599844E1,-1.195199966E0,-1.488699913E0,-1.235899925E0
2.195599844E1,-7.171999812E-1,9.669999778E-2,-2.750000060E-1
2.197599844E1,-8.946999907E-1,1.104799986E0,6.448999643E-1
2.199599844E1,-1.018899918E0,1.058300018E0,1.102599978E0
2.201599844E1,-1.159899950E0,1.125699997E0,1.143399954E0
2.203599844E1,-1.213099957E0,1.784699917E0,1.459299922E0
2.205599844E1,-1.191999912E0,2.540599823E0,1.998099923E0
2.207599844E1,-1.145699978E0,2.704399824E0,2.420899868E0
2.209599844E1,-1.104399920E0,2.000999928E0,2.476500034E0
2.211600000E1,-7.550999522E-1,1.648499966E0,2.723799944E0
2.214599844E1,4.140999913E-1,8.916999698E-1,2.251600027E0
2.216599844E1,9.405999780E-1,2.324999869E-1,1.894699931E0
2.218599844E1,1.318899989E0,-1.766999960E-1,1.383000016E0
2.220599844E1,1.695099950E0,-2.195999920E-1,4.610999823E-1
2.222599844E1,2.061699867E0,-3.113999963E-1,-1.442199945E0
2.224599844E1,1.923499942E0,-1.081599951E0,-5.726799965E0
2.226599844E1,2.452399969E0,-2.583600044E0,-7.351899624E0
2.228601094E1,1.694599986E0,-9.983999729E-1,-3.149799824E0
2.231599844E1,1.024299979E0,-1.605199933E0,3.579999879E-2
2.233599844E1,-2.125999928E-1,-3.621899843E0,4.874999821E-1
2.235599844E1,-1.152099967E0,-3.892999887E0,2.010200024E0
2.237599844E1,-3.165999949E-1,-1.812399983E0,2.144999981E0
2.239599844E1,8.621000051E-1,9.232999682E-1,2.075999975E0
2.241599844E1,9.566999674E-1,1.993199944E0,1.439499974E0
2.243600000E1,7.239999771E-1,6.861999631E-1,1.694299936E0
2.246600000E1,-3.034999967E-1,-9.783999920E-1,2.136399984E0
2.249599844E1,-9.001999497E-1,-6.825000048E-1,2.484599829E0
2.251599844E1,-6.037999988E-1,-6.241999865E-1,2.691900015E0
2.253600625E1,-2.457999885E-1,-4.183999896E-1,2.823299885E0
2.256599844E1,-5.029999837E-2,1.143999994E-1,2.284999847E0
2.258599844E1,-2.410000004E-2,1.988999993E-1,2.101300001E0
2.260599844E1,-3.439999819E-1,2.854999900E-1,1.763700008E0
2.262599844E1,-7.337999940E-1,4.510999918E-1,1.293699980E0
2.264599844E1,-1.014699936E0,1.429999918E-1,1.024899960E0
2.266599844E1,-1.057799935E0,-2.840000018E-2,9.259999990E-1
2.268599844E1,-9.615999460E-1,4.748999774E-1,7.318999767E-1
2.270599844E1,-5.365999937E-1,9.727999568E-1,3.018999994E-1
2.272599844E1,-2.446999997E-1,1.111500025E0,-2.868999839E-1
2.274599844E1,-1.140000001E-1,1.089399934E0,-5.284000039E-1
2.276599844E1,2.919999883E-2,1.115599990E0,-5.235999823E-1
2.278601094E1,1.463000029E-1,5.853999853E-1,-8.768999577E-1
2.281599844E1,1.182299972E0,-1.388199925E0,-1.467899919E0
2.283599844E1,1.896699905E0,-1.322700024E0,-1.184000015E0
2.285599844E1,2.115999937E0,-1.873999953E0,-8.066999912E-1
2.287599844E1,8.810999990E-1,-2.167099953E0,-2.138999999E-1
2.289599844E1,-7.258999944E-1,-8.202999830E-1,4.092999995E-1
2.291599844E1,-1.236599922E0,3.583999872E-1,7.892999649E-1
2.293599844E1,-2.233099937E0,1.285899997E0,1.099099994E0
2.295599844E1,-3.132900000E0,6.365000010E-1,1.266299963E0
2.297599844E1,-4.004099846E0,-6.577999592E-1,1.062999964E0
2.299599844E1,-4.059400082E0,-1.430599928E0,-1.031999946E0
2.301599844E1,-2.015799999E0,-1.444800019E0,-8.948900223E0
2.303599844E1,-2.322799921E0,4.334999919E-1,-3.952999830E0
2.305599844E1,-1.917400002E0,4.457999766E-1,-8.818999529E-1
2.307599844E1,-1.492399931E0,1.283499956E0,6.622999907E-1
2.309599844E1,-1.393399954E0,2.214999914E0,1.522399902E0
2.311599844E1,-1.260100007E0,2.495100021E0,2.050199986E0
2.313599844E1,-1.066499949E0,2.064699888E0,2.353800058E0
2.315599844E1,-7.691999674E-1,1.469699979E0,2.226199865E0
2.317599844E1,8.199999481E-2,1.141399980E0,1.896999955E0
2.319600000E1,1.133700013E0,7.016999722E-1,1.555599928E0
2.322599844E1,2.324399948E0,5.472999811E-1,7.202999592E-1
2.324599844E1,2.680899858E0,7.448999882E-1,4.027999938E-1
2.326599844E1,2.771699905E0,9.078999758E-1,-1.574999988E-1
2.328601094E1,2.775799990E0,8.184999824E-1,-1.422999978E0
2.331599844E1,2.733399868E0,-2.566999793E-1,-4.990200043E0
2.333599844E1,3.800299883E0,-3.086299896E0,-6.976599693E0
2.335599844E1,1.957199931E0,-1.785299897E0,-3.286199808E0
2.337599844E1,1.306999922E0,-1.533299923E0,-2.181900024E0
2.339599844E1,1.919999905E-2,-2.184900045E0,-2.714999914E-1
2.341599844E1,-1.683200002E0,-2.775099993E0,1.885999888E-1
2.343599844E1,-3.123499870E0,-1.197899938E0,7.729999721E-2
2.345599844E1,-3.273499966E0,2.944999933E-1,4.001999795E-1
2.347599844E1,-2.690399885E0,-7.678999901E-1,1.477499962E0
2.349599844E1,-2.437700033E0,-3.094799995E0,2.477200031E0
2.351599844E1,-2.017799854E0,-3.481799841E0,3.019799948E0
2.353599844E1,-1.182999969E0,-1.673799992E0,2.586999893E0
2.355599844E1,-1.235999987E-1,-2.529000044E-1,2.190399885E0
2.357599844E1,1.331000030E-1,6.100000143E-1,2.137199879E0
2.359599844E1,-1.404999942E-1,1.091400027E0,1.861599922E0
2.361599844E1,-4.450999796E-1,1.644400001E0,1.603299975E0
2.363599844E1,-7.001999617E-1,2.297899961E0,1.491199970E0
2.365599844E1,-9.691999555E-1,2.730299950E0,1.273499966E0
2.367599844E1,-1.168099999E0,2.976799965E0,9.799999595E-1
2.369600000E1,-1.300300002E0,3.134899855E0,5.899999738E-1
2.371600000E1,-1.310299993E0,3.218600035E0,4.382999837E-1
2.374599844E1,-1.294499993E0,2.139400005E0,9.049999714E-2
2.376599844E1,-1.107599974E0,1.006500006E0,2.960000001E-2
2.378601094E1,-5.230999589E-1,3.386999965E-1,-3.759999946E-2
2.381599844E1,5.694999695E-1,-5.953999758E-1,-8.982999921E-1
2.383599844E1,1.031599998E0,-1.818399906E0,-1.596499920E0
2.385599844E1,1.746799946E0,-2.932600021E0,-1.956399918E0
2.387599844E1,2.328500032E0,-3.356099844E0,-1.886500001E0
2.389599844E1,2.689999819E0,-3.032299995E0,-2.038899899E0
2.391599844E1,2.410699844E0,-2.287899971E0,-2.666800022E0
2.393599844E1,1.759599924E0,-2.329299927E0,-2.878299952E0
2.395599844E1,9.815999866E-1,-3.299700022E0,-2.321399927E0
2.397599844E1,3.260000050E-2,-2.740499973E0,-1.691199899E0
2.399599844E1,-5.838999748E-1,-6.510999799E-1,-7.013999820E-1
2.401599844E1,-1.061800003E0,1.163100004E0,2.599000037E-1
2.403599844E1,-1.571200013E0,8.689999580E-1,1.011299968E0
2.405599844E1,-2.147799969E0,-7.710999846E-1,1.576599956E0
2.407599844E1,-2.101999998E0,-2.100100040E0,1.774699926E0
2.409599844E1,-1.166700006E0,-1.937999964E0,1.176800013E0
2.411599844E1,-2.339999974E-1,-9.902999997E-1,-6.636999846E-1
2.413599844E1,1.499999966E-2,-5.562999845E-1,-2.934999943E0
2.415599844E1,-8.159999847E-1,6.793999672E-1,-1.644500017E0
2.417599844E1,-1.469299912E0,1.985499978E0,3.396999836E-1
2.419600000E1,-1.515399933E0,2.827199936E0,1.084499955E0
2.422599844E1,-2.016799927E0,2.959100008E0,1.587499976E0
2.424599844E1,-2.236899853E0,2.624099970E0,2.000499964E0
2.426599844E1,-2.066499949E0,2.402400017E0,2.279000044E0
2.428601094E1,-1.393999934E0,2.075099945E0,2.319299936E0
2.431599844E1,-2.869999968E-2,1.095799923E0,1.877599955E0
2.433599844E1,1.065400004E0,4.878999889E-1,1.416499972E0
2.435599844E1,1.997199893E0,2.027999908E-1,1.794999987E-1
2.437599844E1,2.885200024E0,-1.560000032E-1,-2.256599903E0
2.439599844E1,3.367100000E0,-6.869999766E-1,-4.777400017E0
2.441599844E1,3.601799965E0,-1.729200006E0,-7.483999729E0
2.443599844E1,2.202299833E0,-1.879799962E0,-2.042099953E0
2.445599844E1,9.414999485E-1,-1.052199960E0,2.143999934E-1
2.447600000E1,9.063999653E-1,-9.657999873E-1,7.680000067E-1
2.450600000E1,2.642000020E-1,-2.281699896E0,2.520400047E0
2.452600000E1,-7.378999591E-1,-3.138499975E0,2.373399973E0
2.455599844E1,-1.980399966E0,-2.324999869E-1,4.050000012E-1
2.457599844E1,-2.312000036E0,9.179999679E-2,8.366000056E-1
2.459599844E1,-2.888399839E0,-1.386299968E0,1.776199937E0
2.461599844E1,-3.057799816E0,-2.865399837E0,2.803599834E0
2.463599844E1,-2.851300001E0,-2.399600029E0,3.065999985E0
2.465599844E1,-2.081599951E0,-8.199999928E-1,2.704299927E0
2.467599844E1,-1.101999998E0,3.237999976E-1,2.120899916E0
2.469600000E1,-4.059999809E-2,1.319800019E0,1.848999977E0
2.472599844E1,5.493000150E-1,2.512399912E0,1.384499907E0
2.474599844E1,9.926999807E-1,2.862699986E0,1.353699923E0
2.476599844E1,1.082199931E0,2.686899900E0,1.195599914E0
2.478601094E1,1.110700011E0,2.200000048E0,1.094499946E0
2.481599844E1,6.213999987E-1,1.363799930E0,8.197999597E-1
2.483599844E1,-4.662999809E-1,9.109999537E-1,5.399999619E-1
2.485599844E1,-9.545999765E-1,8.883999586E-1,2.691999972E-1
2.487599844E1,-1.147899985E0,8.721999526E-1,2.988999784E-1
2.489599844E1,-1.434099913E0,5.759999752E-1,2.381999940E-1
2.491599844E1,-1.659799933E0,-5.309000015E-1,2.671000063E-1
2.493599844E1,-1.103199959E0,-1.990599990E0,2.900999784E-1
2.495599844E1,3.375000060E-1,-3.380100012E0,-6.056999564E-1
2.497599844E1,1.022899985E0,-4.881599903E0,-2.088899851E0
2.499599844E1,6.600999832E-1,-5.672399998E0,-3.079099894E0
2.501599844E1,2.427999973E-1,-3.657199860E0,-2.210299969E0
2.503599844E1,2.240999937E-1,-6.942999959E-1,-1.544499993E0
2.505599844E1,-8.295999765E-1,-5.758000016E-1,-1.873600006E0
2.507599844E1,-1.694000006E0,-3.079999983E-1,-2.083699942E0
2.509599844E1,-9.208999872E-1,1.398000002E0,-1.930399895E0
2.511599844E1,5.022999644E-1,1.223399997E0,-1.907399893E0
2.513599844E1,4.688999951E-1,-5.150000006E-2,-1.676599979E0
2.515599844E1,-4.161999822E-1,-8.599999547E-1,-5.579999834E-2
2.517599844E1,-5.795999765E-1,-9.662999511E-1,1.037199974E0
2.519599844E1,-9.725999832E-1,-8.999999845E-4,1.364399910E0
2.521599844E1,-1.309000015E0,6.370999813E-1,1.199499965E0
2.523599844E1,-1.478699923E0,1.035099983E0,8.455999494E-1
2.525599844E1,-1.720899940E0,1.435899973E0,4.893999994E-1
2.527599844E1,-1.862499952E0,1.584699988E0,3.470000029E-1
2.529599844E1,-1.758700013E0,1.402499914E0,4.292999804E-1
2.531599844E1,-1.358600020E0,1.448899984E0,5.374999642E-1
2.533599844E1,-8.831999898E-1,1.433200002E0,4.485999942E-1
2.535599844E1,-4.705999792E-1,1.505999923E0,2.171999961E-1
2.537599844E1,-2.021999955E-1,1.719499946E0,-5.909999833E-2
2.539599844E1,7.289999723E-2,2.005399942E0,-5.539999902E-2
2.541599844E1,2.987999916E-1,2.186800003E0,3.980000019E-1
2.543599844E1,5.903999805E-1,2.123499870E0,6.809999943E-1
2.545600000E1,8.633999825E-1,2.091399908E0,9.945999980E-1
2.548599844E1,1.560299993E0,1.719599962E0,9.388999939E-1
2.550599844E1,2.202699900E0,1.305299997E0,3.369999826E-1
2.552599844E1,3.043200016E0,1.021399975E0,-8.054999709E-1
2.554599844E1,3.970699787E0,6.222000122E-1,-3.490399837E0
2.556599844E1,4.792399883E0,-5.869999900E-2,-6.259299755E0
2.558599844E1,3.987399817E0,-6.532999873E-1,-4.076900005E0
2.560599844E1,3.093199968E0,-4.900999963E-1,-2.178299904E0
2.562599844E1,2.362599850E0,-5.478999615E-1,-9.509999752E-1
2.564599844E1,1.215399981E0,-2.590899944E0,4.789999872E-2
2.566599844E1,-1.097100019E0,-7.269499779E0,2.784999907E-1
2.568599844E1,-3.862099886E0,-7.550099850E0,-9.641000032E-1
2.570599844E1,-3.996999979E0,-2.615499973E0,-5.697000027E-1
2.572599844E1,-3.653599977E0,-4.473999739E-1,9.149000049E-1
2.574599844E1,-4.214999676E0,-1.933799982E0,2.158599854E0
2.576599844E1,-4.310100079E0,-3.180500031E0,3.030799866E0
2.578601094E1,-3.299099922E0,-2.575799942E0,3.255800009E0
2.581599844E1,-1.468199968E0,-5.529999733E-2,2.771899939E0
2.583599844E1,-1.104699969E0,8.452999592E-1,2.475899935E0
2.585599844E1,-7.479000092E-1,1.501999974E0,2.295699835E0
2.587599844E1,-4.700999856E-1,2.169399977E0,1.970999956E0
2.589599844E1,-2.976999879E-1,2.759299994E0,1.733599901E0
2.591599844E1,-4.230999947E-1,2.965499878E0,1.338199973E0
2.593599844E1,-5.011999607E-1,2.962999821E0,1.060199976E0
2.595599844E1,-4.953999817E-1,2.948999882E0,7.504999638E-1
2.597599844E1,-3.581999838E-1,3.011799812E0,4.844999909E-1
2.599599844E1,-1.218999997E-1,3.066299915E0,3.506000042E-1
2.601599844E1,-8.299999870E-3,2.748699903E0,3.877999783E-1
2.603599844E1,-2.224999964E-1,1.824799895E0,3.902999759E-1
2.605599844E1,-2.339999974E-1,7.299999706E-3,5.672999620E-1
2.607599844E1,1.194999963E-1,-1.811100006E0,9.172999859E-1
2.609599844E1,1.180299997E0,-2.690699816E0,8.039000034E-1
2.611600000E1,2.391299963E0,-2.642899990E0,-8.736999631E-1
2.613604063E1,2.543200016E0,-2.146199942E0,-5.441400051E0
2.616599844E1,1.469499946E0,3.118999958E0,-2.346459961E1
2.618599844E1,3.087999821E-1,-2.588500023E0,-6.192800045E0
2.620599844E1,-3.151999950E0,-8.112099648E0,-3.111000061E-1
2.622600000E1,-8.121500015E0,-1.043270016E1,1.391199946E0
2.624600000E1,-8.688499451E0,-6.087100029E0,1.425799966E0
2.627599844E1,-5.146399975E0,-9.157999754E-1,1.290899992E0
2.629599844E1,-4.350999832E0,1.046599984E0,1.523899913E0
2.631599844E1,-3.418900013E0,2.141399860E0,2.120800018E0
2.633599844E1,-2.975199938E0,2.258100033E0,2.544499874E0
2.635599844E1,-2.363199949E0,2.187899828E0,2.668200016E0
2.637599844E1,-1.433300018E0,2.373499870E0,2.312299967E0
2.639599844E1,-7.335000038E-1,2.947700024E0,2.094500065E0
2.641599844E1,-1.643999964E-1,3.463099957E0,1.768799901E0
2.643599844E1,2.685999870E-1,3.525099993E0,1.623199940E0
2.645599844E1,8.534999490E-1,3.456599951E0,1.548699975E0
2.647599844E1,1.253799915E0,3.161099911E0,1.523399949E0
2.649599844E1,1.513199925E0,2.571499825E0,1.550099969E0
2.651599844E1,2.034999847E0,1.709399939E0,1.581900001E0
2.653599844E1,2.533200026E0,9.027999640E-1,1.142799973E0
2.655599844E1,2.822399855E0,-5.309999734E-2,8.669999987E-2
2.657599844E1,2.837699890E0,-1.011299968E0,-1.446999907E0
2.659599844E1,3.055799961E0,-2.756399870E0,-5.461299896E0
2.661599844E1,2.276599884E0,-3.716099977E0,-7.651899815E0
2.663599844E1,1.700999975E0,-1.263800025E0,-2.716099977E0
2.665599844E1,2.443899870E0,-1.170499921E0,-6.820999980E-1
2.667599844E1,2.697000027E0,-1.752699971E0,-5.234000087E-1
2.669599844E1,2.057100058E0,-1.414600015E0,6.315000057E-1
2.671599844E1,2.035599947E0,-2.914000034E0,1.183399916E0
2.673599844E1,4.305999875E-1,-3.027499914E0,3.328000009E-1
2.675599844E1,-1.217000008E0,-2.887699842E0,4.726999998E-1
2.677599844E1,-2.415099859E0,-3.756799936E0,2.268499851E0
2.679599844E1,-3.334599972E0,-2.553299904E0,1.871099949E0
2.681599844E1,-3.580399990E0,-4.441999793E-1,2.412199974E0
2.683599844E1,-3.154399872E0,5.499999970E-3,2.566900015E0
2.685599844E1,-2.595799923E0,1.268000007E-1,2.576400042E0
2.687599844E1,-1.476899981E0,7.414999604E-1,2.497699976E0
2.689599844E1,-8.121999502E-1,1.276999950E0,2.099099874E0
2.691599844E1,-6.074999571E-1,1.813499928E0,1.850999951E0
2.693599844E1,-6.574999690E-1,1.977099895E0,1.624499917E0
2.695599844E1,-8.868999481E-1,1.955699921E0,1.489499927E0
2.697599844E1,-1.306100011E0,2.230599880E0,1.224200010E0
2.699599844E1,-1.658699989E0,2.437799931E0,1.053300023E0
2.701599844E1,-1.910200000E0,2.625599861E0,8.278999925E-1
2.703599844E1,-1.957999945E0,2.349599838E0,7.246999741E-1
2.705599844E1,-1.626899958E0,1.864099979E0,3.871999979E-1
2.707599844E1,-1.382799983E0,1.769899964E0,-1.564999968E-1
2.709600000E1,-1.209900022E0,1.343400002E0,-4.728999734E-1
2.711600000E1,-1.355899930E0,6.236000061E-1,-4.078999758E-1
2.714599844E1,-1.204399943E0,-3.042999804E-1,-2.026000023E-1
2.716599844E1,-4.582999945E-1,-7.738999724E-1,-2.504999936E-1
2.718599844E1,5.821999907E-1,-1.849599957E0,-9.470999837E-1
2.720599844E1,1.433799982E0,-2.728499889E0,-2.050400019E0
2.722599844E1,1.671199918E0,-2.632599831E0,-3.370299816E0
2.724599844E1,2.034899950E0,-2.365200043E0,-3.560499907E0
2.726599844E1,2.077899933E0,-2.728899956E0,-4.449800014E0
2.728601094E1,1.502900004E0,-4.327399731E0,-5.027100086E0
2.731599844E1,-3.123999834E-1,-1.890899897E0,-4.510600090E0
2.733599844E1,-1.396199942E0,-7.989999652E-1,-1.958799958E0
2.735599844E1,-2.299200058E0,-1.132300019E0,-3.660999835E-1
2.737599844E1,-3.206899881E0,-2.144999981E0,9.564999938E-1
2.739599844E1,-3.485699892E0,-2.573199987E0,1.792499900E0
2.741599844E1,-2.372900009E0,-1.294199944E0,1.904099941E0
2.743599844E1,-1.522099972E0,3.376999795E-1,1.644299984E0
2.745599844E1,-1.485599995E0,1.450799942E0,1.467999935E0
2.747599844E1,-1.536099911E0,1.944999933E0,1.264599919E0
2.749599844E1,-1.465799928E0,2.358999968E0,9.312999845E-1
2.751599844E1,-1.136699915E0,2.453899860E0,1.174399972E0
2.753599844E1,-1.009799957E0,2.564399958E0,1.423200011E0
2.755599844E1,-8.545999527E-1,2.568300009E0,1.825599909E0
2.757599844E1,-1.042099953E0,2.338799953E0,2.073099852E0
2.759599844E1,-9.795999527E-1,1.907999992E0,1.987899899E0
2.761599844E1,-8.804000020E-1,2.038399935E0,1.873299956E0
2.763599844E1,-5.618000031E-1,2.000200033E0,1.993999958E0
2.765599844E1,-1.997999996E-1,1.615899920E0,1.902599931E0
2.767599844E1,3.172999918E-1,9.050999880E-1,1.683799982E0
2.769600000E1,9.632999897E-1,3.204999864E-1,1.228199959E0
2.771600000E1,1.636999965E0,5.069999769E-2,2.278999984E-1
2.774599844E1,2.989699841E0,-1.124499917E0,-7.162199974E0
2.776599844E1,3.703699827E0,-2.998699903E0,-9.041699409E0
2.778601094E1,2.253799915E0,-2.448499918E0,-4.876100063E0
2.781599844E1,2.094899893E0,-4.685999751E-1,-2.812700033E0
2.783599844E1,1.157400012E0,-2.811800003E0,-1.818099976E0
2.785599844E1,-7.805999517E-1,-4.588799953E0,3.592999876E-1
2.787599844E1,-1.927699924E0,-4.206299782E0,2.039499998E0
2.789599844E1,-1.563300014E0,-9.789999723E-1,8.421999812E-1
2.791599844E1,-1.372200012E0,9.083999991E-1,1.807799935E0
2.793599844E1,-1.503299952E0,-8.783999681E-1,1.519699931E0
2.795599844E1,-1.909299970E0,-3.014899969E0,1.759099960E0
2.797599844E1,-1.448699951E0,-2.753199816E0,2.760099888E0
2.799599844E1,-7.936999798E-1,-1.115299940E0,2.708899975E0
2.801599844E1,-4.399999976E-1,2.637999952E-1,2.762699842E0
2.803599844E1,-4.490999877E-1,9.994999766E-1,2.634899855E0
2.805599844E1,-5.335999727E-1,1.346199989E0,2.473500013E0
2.807599844E1,-7.705000043E-1,1.645900011E0,2.100299835E0
2.809599844E1,-9.548999667E-1,1.909599900E0,1.724799991E0
2.811599844E1,-1.179000020E0,1.897300005E0,1.325799942E0
2.813599844E1,-1.372699976E0,2.237200022E0,9.648999572E-1
2.815599844E1,-1.337099910E0,2.542700052E0,7.436999679E-1
2.817599844E1,-1.148699999E0,2.677399874E0,5.159999728E-1
2.819599844E1,-8.055999875E-1,2.526199818E0,3.172999918E-1
2.821599844E1,-7.008000016E-1,2.108599901E0,2.601999938E-1
2.823599844E1,-6.194999814E-1,1.712000012E0,1.781999916E-1
2.825599844E1,-3.547999859E-1,1.886099935E0,1.843999922E-1
2.827599844E1,5.790000036E-2,1.410699964E0,3.172000051E-1
2.829599844E1,5.606999993E-1,1.169999987E-1,6.107999682E-1
2.831599844E1,9.843999743E-1,-1.776399970E0,-2.789999917E-2
2.833599844E1,1.758399963E0,-3.286399841E0,-9.109999537E-1
2.835599844E1,2.002500057E0,-3.501999855E0,-2.267199993E0
2.837599844E1,2.123100042E0,-2.860800028E0,-3.392599821E0
2.839599844E1,1.986599922E0,-2.164099932E0,-4.249000072E0
2.841599844E1,2.185699940E0,-2.543200016E0,-5.313699722E0
2.843599844E1,1.410399914E0,-3.370100021E0,-6.749199867E0
2.845599844E1,-5.205999613E-1,-3.049299955E0,-5.126299858E0
2.847599844E1,-2.275099993E0,-2.322399855E0,-1.712000012E0
2.849599844E1,-3.331799984E0,-2.570199966E0,2.991999984E-1
2.851599844E1,-3.959699869E0,-3.276299953E0,1.358699918E0
2.853600000E1,-3.888999939E0,-2.687899828E0,1.624699950E0
2.856599844E1,-2.541399956E0,-4.088999927E-1,1.740799904E0
2.858599844E1,-2.138599873E0,1.382799983E0,1.612100005E0
2.860599844E1,-1.761399984E0,2.944299936E0,1.735399961E0
2.862600000E1,-1.367100000E0,3.275300026E0,1.744199991E0
2.865599844E1,-1.108199954E0,3.249099970E0,1.649500012E0
2.867599844E1,-9.630999565E-1,3.089399815E0,1.497299910E0
2.869599844E1,-9.917999506E-1,2.734599829E0,1.463599920E0
2.871599844E1,-6.796000004E-1,2.369999886E0,1.511299968E0
2.873599844E1,-3.819999993E-1,2.229799986E0,1.671999931E0
2.875599844E1,4.959999770E-2,2.000000000E0,1.805499911E0
2.877599844E1,3.412999809E-1,1.779299974E0,1.754999995E0
2.879599844E1,7.513999939E-1,1.284600019E0,1.559700012E0
2.881599844E1,1.164299965E0,7.803999782E-1,1.080899954E0
2.883599844E1,1.597099900E0,2.179999948E-1,1.319999993E-1
2.885599844E1,2.268699884E0,-6.096999645E-1,-3.217599869E0
2.887599844E1,4.697299957E0,-3.114899874E0,-1.101229954E1
2.889599844E1,2.386499882E0,-2.894999981E0,-5.895899773E0
2.891599844E1,1.908800006E0,-1.161299944E0,-2.948099852E0
2.893599844E1,1.543699980E0,-7.096999884E-1,-2.854899883E0
2.895599844E1,6.169999763E-2,-3.322199821E0,-2.398200035E0
2.897599844E1,-2.393399954E0,-4.599100113E0,2.329999954E-1
2.899599844E1,-2.366999865E0,-2.516000032E0,5.171999931E-1
2.901599844E1,-1.471300006E0,9.302999973E-1,6.754999757E-1
2.903599844E1,-1.050400019E0,5.579000115E-1,1.960399985E0
2.905599844E1,-2.375299931E0,-3.097399950E0,2.752599955E0
2.907599844E1,-2.593799829E0,-4.850599766E0,2.661399841E0
2.909599844E1,-1.455999970E0,-3.607699871E0,2.938899994E0
2.911599844E1,-4.836999774E-1,-1.430299997E0,3.127300024E0
2.913599844E1,2.379999869E-2,4.949999973E-2,3.283299923E0
2.915599844E1,7.947999835E-1,6.342999935E-1,3.164399862E0
2.917599844E1,1.180699944E0,1.268899918E0,3.216199875E0
2.919599844E1,1.105499983E0,2.100499868E0,2.702100039E0
2.921599844E1,6.344999671E-1,2.577499866E0,2.106999874E0
2.923599844E1,6.689999998E-2,2.626499891E0,1.543299913E0
2.925599844E1,-4.921999872E-1,2.748399973E0,1.118600011E0
2.927599844E1,-7.369999886E-1,2.914099932E0,8.975999951E-1
2.929599844E1,-9.312999845E-1,3.402299881E0,9.355999827E-1
2.931599844E1,-1.269099951E0,3.562299967E0,9.978999496E-1
2.933599844E1,-1.427999973E0,3.487599850E0,1.023900032E0
2.935599844E1,-1.769699931E0,3.143399954E0,1.070500016E0
2.937599844E1,-2.261899948E0,2.307699919E0,1.159299970E0
2.939599844E1,-2.427099943E0,8.082000017E-1,9.881999493E-1
2.941599844E1,-1.744099975E0,-1.304499984E0,5.167999864E-1
2.943599844E1,-1.245000005E0,-3.035499811E0,8.559999615E-2
2.945599844E1,-1.030599952E0,-3.481099844E0,1.173999980E-1
2.947599844E1,6.459999830E-2,-2.336899996E0,-9.539999813E-2
2.949599844E1,1.334399939E0,-2.941200018E0,3.509999812E-2
2.951599844E1,3.012599945E0,-5.945399761E0,-1.058300018E0
2.953599844E1,3.455899954E0,-5.945499897E0,-5.266399860E0
2.955599844E1,5.347099781E0,-1.550599933E0,-1.798550034E1
2.957599844E1,-4.472000003E-1,-1.410799980E0,-8.979800224E0
2.959599844E1,-2.963999987E0,-4.238199711E0,-8.848999739E-1
2.961599844E1,-2.955399990E0,-5.305500031E0,1.438300014E0
2.963599844E1,-3.627399921E0,-2.802199841E0,8.696999550E-1
2.965599844E1,-3.719599962E0,-8.054999709E-1,1.334100008E0
2.967599844E1,-3.202699900E0,4.629999772E-2,1.397499919E0
2.969599844E1,-2.725299835E0,1.418299913E0,1.392799973E0
2.971599844E1,-2.161399841E0,2.810499907E0,1.711799979E0
2.973599844E1,-1.744099975E0,3.708199978E0,1.946599960E0
2.975599844E1,-1.310699940E0,3.691900015E0,2.234400034E0
2.977599844E1,-9.153999686E-1,3.179199934E0,2.410899878E0
2.979599844E1,-6.482999921E-1,2.998299837E0,2.447399855E0
2.981599844E1,-3.993999958E-1,3.273900032E0,2.478600025E0
2.983599844E1,-1.953999996E-1,3.345700026E0,2.360699892E0
2.985599844E1,-2.069999874E-1,3.240899801E0,2.195299864E0
2.987599844E1,1.158999950E-1,2.919299841E0,2.102400064E0
2.989600000E1,6.268000007E-1,2.255300045E0,1.960599899E0
2.991600000E1,1.144400001E0,1.386099935E0,1.697899938E0
2.994599844E1,2.181699991E0,-6.032999754E-1,-3.734000027E-1
2.996599844E1,5.707399845E0,-4.585700035E0,-1.564359951E1
2.998599844E1,2.163599968E0,-2.681900024E0,-6.208699703E0
3.000599844E1,4.840600014E0,-1.868199944E0,-8.224499702E0
3.002599844E1,3.013499975E0,-5.419999957E-1,-4.420700073E0
3.004599844E1,-1.248499990E0,-2.288300037E0,-3.922299862E0
3.006599844E1,-3.366799831E0,-4.355799675E0,-1.733799934E0
3.008599844E1,-2.958699942E0,-3.873499870E0,4.088999927E-1
3.010599844E1,-3.281899929E0,-3.539799929E0,2.522099972E0
3.012599844E1,-3.991499901E0,-3.246299982E0,4.285699844E0
3.014599844E1,-4.303400040E0,-3.722899914E0,3.617499828E0
3.016599844E1,-3.222100019E0,-3.995899916E0,3.962799788E0
3.018599844E1,-2.100800037E0,-2.872200012E0,4.174600124E0
3.020599844E1,-1.365299940E0,-1.355999947E0,4.096300125E0
3.022599844E1,-8.822999597E-1,2.570999861E-1,3.987199783E0
3.024599844E1,-5.370999575E-1,1.782400012E0,3.704599857E0
3.026599844E1,-3.459999859E-1,3.013799906E0,3.509999990E0
3.028601094E1,-4.384000003E-1,3.786599874E0,3.368599892E0
3.031599844E1,-7.276999950E-1,3.838499784E0,2.895399809E0
3.033599844E1,-1.103299975E0,3.509699821E0,2.430899858E0
3.035599844E1,-1.078799963E0,3.467099905E0,1.811199903E0
3.037599844E1,-9.614999890E-1,3.362699986E0,1.107999921E0
3.039600000E1,-1.001999974E0,3.252499819E0,8.654999733E-1
3.041600000E1,-1.163100004E0,2.577999830E0,7.670999765E-1
3.044599844E1,-1.550899982E0,4.819999933E-1,8.308999538E-1
3.046600000E1,-1.882499933E0,-1.234699965E0,9.311999679E-1
3.048600000E1,-2.425400019E0,-2.862999916E0,1.185400009E0
3.051599844E1,-1.325599909E0,-2.270999908E0,8.154999614E-1
3.053599844E1,1.240999997E-1,-2.028899908E0,-3.874000013E-1
3.055599844E1,1.088400006E0,-3.435400009E0,-3.123399973E0
3.057599844E1,1.722999930E0,-5.088399887E0,-7.118499756E0
3.059599844E1,2.958699942E0,-4.518499851E0,-1.477869987E1
3.061599844E1,-6.234999895E-1,-2.016099930E0,-1.605449867E1
3.063599844E1,-3.547099829E0,-2.350499868E0,-4.631799698E0
3.065599844E1,-5.546499729E0,-1.741299987E0,-5.277000070E-1
3.067599844E1,-8.001799583E0,-1.978999972E0,1.224399924E0
3.069599844E1,-8.515099525E0,-2.553099871E0,2.631000042E0
3.071599844E1,-7.274999619E0,-1.882200003E0,2.967499971E0
3.073599844E1,-4.981699944E0,-3.938999772E-1,2.651899815E0
3.075599844E1,-3.753199816E0,3.467999995E-1,2.389299870E0
3.077599844E1,-3.285099983E0,1.272899985E0,2.352599859E0
3.079599844E1,-2.613299847E0,2.452699900E0,2.735399961E0
3.081599844E1,-1.634400010E0,3.266000032E0,2.948699951E0
3.083599844E1,-5.460000038E-1,3.069700003E0,2.845799923E0
3.085599844E1,2.552999854E-1,2.829699993E0,2.667599916E0
3.087599844E1,1.022899985E0,2.608099937E0,2.610299826E0
3.089600000E1,1.471499920E0,2.385400057E0,2.368399858E0
3.092599844E1,1.680499911E0,1.602100015E0,2.303599834E0
3.094599844E1,1.889699936E0,9.745000005E-1,2.263900042E0
3.096599844E1,2.456099987E0,6.171999574E-1,1.991899967E0
3.098599844E1,2.943199873E0,5.956999660E-1,1.589499950E0
3.100599844E1,3.442600012E0,4.150999784E-1,1.219299912E0
3.102599844E1,3.874599934E0,-3.276000023E-1,-5.895000100E-1
3.104599844E1,4.753299713E0,-2.254400015E0,-4.723499775E0
3.106599844E1,3.987899780E0,-2.594499826E0,-6.206099987E0
3.108599844E1,1.784299970E0,-8.948999643E-1,-2.869199991E0
3.110599844E1,-1.567000002E-1,-1.707599998E0,-3.599499941E0
3.112604219E1,-2.360800028E0,-1.336699963E0,-1.230299950E0
3.115599844E1,-4.266200066E0,-2.758599997E0,5.889999866E-1
3.117599844E1,-4.773600101E0,-3.151499987E0,1.560400009E0
3.119599844E1,-4.755199909E0,-2.050299883E0,2.347100019E0
3.121599844E1,-3.963799953E0,-1.234899998E0,2.664999962E0
3.123599844E1,-3.360800028E0,-1.601099968E0,2.608099937E0
3.125599844E1,-2.769599915E0,-1.665899992E0,2.267699957E0
3.127599844E1,-1.857800007E0,-7.389000058E-1,1.953599930E0
3.129599844E1,-1.186599970E0,3.526999950E-1,1.607800007E0
3.131599844E1,-6.335999966E-1,1.301699996E0,1.338500023E0
3.133599844E1,-3.664999902E-1,1.815899968E0,1.160499930E0
3.135599844E1,-2.347999960E-1,1.950499892E0,1.124199986E0
3.137599844E1,-3.253999949E-1,2.171099901E0,1.031899929E0
3.139599844E1,-1.347000003E-1,2.256000042E0,8.287999630E-1
3.141599844E1,-1.530999988E-1,2.463700056E0,2.901999950E-1
3.143599844E1,-2.804999948E-1,2.484699965E0,-3.032000065E-1
3.145599844E1,-7.019999623E-2,2.297999859E0,-7.563999891E-1
3.147599844E1,4.369999766E-1,1.538299918E0,-1.350799918E0
3.149600000E1,1.212999940E0,1.463999897E-1,-1.743399978E0
3.151600000E1,1.927799940E0,-1.008899927E0,-2.128700018E0
3.154599844E1,2.622799873E0,-1.853199959E0,-2.275300026E0
3.156599844E1,2.536599874E0,-2.103600025E0,-1.863899946E0
3.158599844E1,2.381099939E0,-2.059399843E0,-1.479200006E0
3.160599844E1,2.229699850E0,-1.729900002E0,-1.056499958E0
3.162599844E1,2.062000036E0,-1.449100018E0,-5.848999619E-1
3.164599844E1,1.334599972E0,-2.616899967E0,-2.799999900E-2
3.166600156E1,1.299999952E-1,-4.854700089E0,6.218999624E-1
3.169599844E1,6.089999899E-2,-2.467099905E0,9.001999497E-1
3.171599844E1,2.825999856E-1,2.173999995E-1,9.732999802E-1
3.173599844E1,6.180999875E-1,5.072000027E-1,1.218299985E0
3.175599844E1,-3.700000048E-2,-8.299999833E-1,1.290300012E0
3.177599844E1,-1.052399993E0,-2.320600033E0,1.078299999E0
3.179599844E1,-1.388399959E0,-2.872699976E0,6.809999943E-1
3.181599844E1,-8.579999804E-1,-1.937500000E0,-7.010999918E-1
3.183599844E1,-3.549999893E-1,-1.986999959E-1,-2.586099863E0
3.185599844E1,-6.211000085E-1,1.455899954E0,-2.580899954E0
3.187599844E1,-1.209399939E0,2.690099955E0,-1.145799994E0
3.189599844E1,-1.531799912E0,3.011299849E0,-4.468999803E-1
3.191599844E1,-1.907599926E0,3.115000010E0,-2.245000005E-1
3.193599844E1,-2.069000006E0,3.400099993E0,-5.669999868E-2
3.195599844E1,-1.721399903E0,3.433099985E0,2.305999994E-1
3.197599844E1,-9.476999640E-1,3.004400015E0,7.288999557E-1
3.199599844E1,-1.983999908E-1,2.186199903E0,1.039899945E0
3.201599844E1,5.927000046E-1,1.789999962E0,8.836999536E-1
3.203599844E1,1.328599930E0,1.805599928E0,8.750000000E-1
3.205599844E1,2.014099836E0,1.510199904E0,6.234999895E-1
3.207599844E1,2.515499830E0,8.493999839E-1,-2.440999895E-1
3.209600000E1,3.323899984E0,-2.052000016E-1,-2.267499924E0
3.212599844E1,4.433899879E0,-1.786399961E0,-4.713399887E0
3.214599844E1,3.477699995E0,-7.385999560E-1,-1.703199983E0
3.216599844E1,2.329900026E0,-1.316299915E0,-5.860999823E-1
3.218599844E1,1.810999960E-1,-2.826599836E0,7.008999586E-1
3.220599844E1,-2.146600008E0,-4.696300030E0,1.469099998E0
3.222599844E1,-2.287899971E0,-5.362400055E0,1.348699927E0
3.224599844E1,-2.117499828E0,-3.427799940E0,1.040799975E0
3.226599844E1,-1.932299972E0,-2.448499918E0,1.772899985E0
3.228601094E1,-2.984400034E0,-3.073599815E0,1.699299932E0
3.231599844E1,-2.933899879E0,-1.423099995E0,1.779699922E0
3.233599844E1,-1.896999955E0,3.452999890E-1,2.128200054E0
3.235599844E1,-1.129499912E0,1.298799992E0,1.960299969E0
3.237599844E1,-6.608999968E-1,1.565899968E0,1.573699951E0
3.239599844E1,-5.331999660E-1,1.736099958E0,1.312899947E0
3.241599844E1,-3.971000016E-1,1.718599916E0,1.173699975E0
3.243599844E1,-3.096999824E-1,1.699000001E0,9.383999705E-1
3.245599844E1,-3.005000055E-1,1.931999922E0,7.458999753E-1
3.247599844E1,-1.876000017E-1,2.408499956E0,5.385000110E-1
3.249599844E1,-3.599999845E-2,2.952199936E0,2.516999841E-1
3.251599844E1,-8.999999845E-4,3.290499926E0,1.061000004E-1
3.253599844E1,-4.659999907E-2,3.440699816E0,8.810000122E-2
3.255599844E1,-6.709999591E-2,2.796499968E0,1.530999988E-1
3.257599844E1,-8.949999511E-2,1.424799919E0,2.154999971E-1
3.259599844E1,4.217999876E-1,1.699999906E-2,2.184999883E-1
3.261599844E1,1.161599994E0,-1.025900006E0,-3.800999820E-1
3.263599844E1,1.409600019E0,-1.721599936E0,-7.762999535E-1
3.265599844E1,6.962999701E-1,-3.806299925E0,-8.459999561E-1
3.267599844E1,-4.409999847E-1,-6.183300018E0,-4.747999907E-1
3.269600000E1,-8.611999750E-1,-3.224399805E0,2.603999972E-1
3.272599844E1,-1.831699967E0,-1.205600023E0,-2.203999907E-1
3.274599844E1,-3.127099991E0,-3.405200005E0,-1.367200017E0
3.276599844E1,-3.338399887E0,-4.414799690E0,-4.892399788E0
3.278601094E1,-1.911399961E0,-2.988799810E0,-6.881499767E0
3.281599844E1,-1.310500026E0,-3.023000062E-1,-1.517399907E0
3.283599844E1,-1.664199948E0,8.773999810E-1,3.838999867E-1
3.285599844E1,-1.707199931E0,2.585599899E0,1.207099915E0
3.287599844E1,-1.433399916E0,3.658200026E0,1.443899989E0
3.289599844E1,-1.102999926E0,4.149300098E0,1.686800003E0
3.291599844E1,-8.237999678E-1,4.282799721E0,1.844299912E0
3.293599844E1,-5.399999619E-1,4.049600124E0,2.112699986E0
3.295599844E1,-4.299999680E-3,3.814599991E0,2.053599834E0
3.297599844E1,4.324999750E-1,3.140100002E0,1.775699973E0
3.299599844E1,9.526999593E-1,2.125399828E0,1.435299993E0
3.301599844E1,1.590600014E0,1.517699957E0,8.878999949E-1
3.303599844E1,2.289000034E0,1.295099974E0,1.767999977E-1
3.305599844E1,3.102799892E0,8.995999694E-1,-1.192199945E0
3.307599844E1,3.730799913E0,2.610999942E-1,-3.303499937E0
3.309599844E1,5.388299942E0,-2.204999924E0,-1.163479996E1
3.311599844E1,2.576299906E0,-1.302500010E0,-4.700399876E0
3.313599844E1,1.627699971E0,-7.313999534E-1,-1.166999936E0
3.315599844E1,3.100000024E-1,-2.593400002E0,2.991999984E-1
3.317599844E1,-1.798599958E0,-4.818099976E0,4.199999943E-2
3.319599844E1,-2.724799871E0,-4.298399925E0,1.765999943E-1
3.321599844E1,-2.403399944E0,-2.721400023E0,1.464900017E0
3.323599844E1,-2.478799820E0,-2.535199881E0,1.611199975E0
3.325599844E1,-2.874799967E0,-4.221899986E0,1.995099902E0
3.327599844E1,-3.161099911E0,-4.696399689E0,2.649099827E0
3.329599844E1,-2.336099863E0,-3.061399937E0,2.982100010E0
3.331599844E1,-1.507300019E0,-9.088000059E-1,2.742599964E0
3.333599844E1,-9.865999818E-1,3.552999794E-1,2.405699968E0
3.335599844E1,-8.815000057E-1,1.317699909E0,2.181299925E0
3.337599844E1,-8.458999991E-1,2.194900036E0,1.893700004E0
3.339599844E1,-8.995999694E-1,2.925699949E0,1.734499931E0
3.341599844E1,-7.696999907E-1,3.256599903E0,1.413999915E0
3.343599844E1,-8.968999982E-1,3.635499954E0,1.155799985E0
3.345599844E1,-9.001999497E-1,3.925499916E0,8.499000072E-1
3.347599844E1,-9.508999586E-1,4.329199791E0,5.460000038E-1
3.349599844E1,-7.142999768E-1,4.268300056E0,1.545999944E-1
3.351599844E1,-5.505999923E-1,4.057300091E0,9.510000050E-2
3.353599844E1,-5.317000151E-1,3.355799913E0,2.199999988E-3
3.355599844E1,-7.085999846E-1,1.635100007E0,-1.635999978E-1
3.357599844E1,-9.009000063E-1,-7.423999906E-1,-2.087999880E-1
3.359599844E1,-3.522000015E-1,-2.601799965E0,-7.069999725E-2
3.361599844E1,9.483000040E-1,-3.670899868E0,-1.059999987E-1
3.363599844E1,2.331799984E0,-3.252199888E0,-6.934999824E-1
3.365599844E1,2.884099960E0,-3.225800037E0,-3.785699844E0
3.367599844E1,2.475800037E0,-4.151000023E0,-4.728199959E0
3.369599844E1,1.162099957E0,-5.248199940E0,-4.866899967E0
3.371599844E1,4.887000024E-1,-2.243000031E0,-6.098000050E0
3.373599844E1,-2.361199856E0,-1.612699986E0,-4.373300076E0
3.375599844E1,-4.037199974E0,-3.974200010E0,-4.377000034E-1
3.377599844E1,-4.641499996E0,-4.530699730E0,1.043499947E0
3.379599844E1,-3.718799829E0,-2.090100050E0,7.734999657E-1
3.381599844E1,-2.104199886E0,-7.694000006E-1,8.987999558E-1
3.383599844E1,-1.684499979E0,-5.399999674E-3,1.338199973E0
3.385599844E1,-1.815599918E0,1.388899922E0,1.718899965E0
3.387599844E1,-1.696200013E0,2.758299828E0,2.151200056E0
3.389600000E1,-1.191200018E0,3.557199955E0,2.367799997E0
3.391600000E1,-7.251999974E-1,3.459899902E0,1.937599897E0
3.394599844E1,-1.600999981E-1,2.819200039E0,1.343699932E0
3.396599844E1,1.963000000E-1,2.985699892E0,1.123299956E0
3.398599844E1,5.054999590E-1,3.129599810E0,1.019699931E0
3.400599844E1,4.853999913E-1,2.861399889E0,1.105700016E0
3.402599844E1,6.035999656E-1,2.544100046E0,1.224799991E0
3.404599844E1,8.635999560E-1,2.346400023E0,1.127599955E0
3.406599844E1,1.283800006E0,1.924699903E0,5.552999973E-1
3.408599844E1,1.843299985E0,9.652999640E-1,-5.566999912E-1
3.410599844E1,2.618799925E0,-3.058999777E-1,-2.906299829E0
3.412599844E1,5.017799854E0,-3.647499800E0,-1.353789997E1
3.414599844E1,2.120100021E0,-1.944999933E0,-3.892299891E0
3.416599844E1,1.656799912E0,-1.366400003E0,-1.150399923E0
3.418600000E1,7.608999610E-1,-3.843199968E0,-3.734999895E-1
3.421599844E1,-2.120699883E0,-6.015599728E0,1.254999936E-1
3.423599844E1,-2.157799959E0,-2.239599943E0,7.497999668E-1
3.425599844E1,-1.517799973E0,-5.799999833E-2,9.905999899E-1
3.427599844E1,-1.470099926E0,-2.639799833E0,2.360699892E0
3.429599844E1,-1.835500002E0,-4.118099689E0,1.886599898E0
3.431599844E1,-1.345499992E0,-3.198599815E0,2.113100052E0
3.433599844E1,-7.015999556E-1,-1.504999995E0,2.508999825E0
3.435599844E1,-5.837000012E-1,-2.199999988E-2,2.662899971E0
3.437599844E1,-7.834999561E-1,1.041399956E0,2.660099983E0
3.439599844E1,-9.636999965E-1,1.893899918E0,2.540599823E0
3.441599844E1,-9.626999497E-1,2.320400000E0,2.473000050E0
3.443599844E1,-1.109200001E0,2.318699837E0,2.171799898E0
3.445599844E1,-1.292699933E0,2.239899874E0,1.568799973E0
3.447599844E1,-1.517699957E0,2.552099943E0,1.194100022E0
3.449600000E1,-1.246599913E0,3.254299879E0,9.328999519E-1
3.451600000E1,-1.072799921E0,3.679499865E0,8.051999807E-1
3.454599844E1,-1.122200012E0,3.653599977E0,4.512999952E-1
3.456599844E1,-9.574999809E-1,3.389599800E0,3.524999917E-1
3.458599844E1,-8.910999894E-1,2.850299835E0,3.762999773E-1
3.460599844E1,-8.772999644E-1,1.407099962E0,4.637999833E-1
3.462599844E1,-8.075000048E-1,-5.986999869E-1,4.904999733E-1
3.464599844E1,-4.845999777E-1,-2.499500036E0,2.656999826E-1
3.466599844E1,3.297999799E-1,-3.341099977E0,2.998999953E-1
3.468599844E1,1.589100003E0,-2.504499912E0,1.429999918E-1
3.470599844E1,2.771999836E0,-3.046099901E0,-1.177299976E0
3.472599844E1,2.464599848E0,-6.890499592E0,-3.954499960E0
3.474599844E1,1.821900010E0,-5.856299877E0,-4.012899876E0
3.476599844E1,1.196099997E0,-6.800000072E-1,-7.200999737E0
3.478601250E1,-1.700099945E0,-1.986599922E0,-8.696599960E0
3.481599844E1,-3.296599865E0,-4.677000046E0,1.243999973E-1
3.483599844E1,-3.413399935E0,-3.667999983E0,1.153200030E0
3.485599844E1,-2.909699917E0,-1.400699973E0,1.052999943E-1
3.487599844E1,-2.378200054E0,4.399999976E-3,2.930999994E-1
3.489599844E1,-2.257900000E0,1.363499999E0,5.634999871E-1
3.491599844E1,-2.144099951E0,2.843600035E0,1.126199961E0
3.493599844E1,-1.609699965E0,3.828599930E0,1.704599977E0
3.495599844E1,-1.547699928E0,4.293999672E0,1.932199955E0
3.497599844E1,-1.377200007E0,4.218599796E0,2.039299965E0
3.499599844E1,-1.352999926E0,3.731400013E0,2.038399935E0
3.501599844E1,-1.238899946E0,3.193399906E0,2.046900034E0
3.503599844E1,-7.972999811E-1,3.035499811E0,2.091399908E0
3.505599844E1,-4.181999862E-1,2.669800043E0,2.081799984E0
3.507599844E1,1.199999973E-1,1.802899957E0,1.950899959E0
3.509599844E1,7.762999535E-1,9.949999452E-1,1.822099924E0
3.511599844E1,1.445099950E0,7.005000114E-1,1.612299919E0
3.513599844E1,1.810499907E0,6.130999923E-1,1.375899911E0
3.515599844E1,2.434299946E0,-9.889999777E-2,9.116999507E-1
3.517599844E1,5.473299980E0,-2.582000017E0,-5.946499825E0
3.519599844E1,7.197399616E0,-4.346399784E0,-1.023099995E1
3.521600000E1,5.821599960E0,-2.077499866E0,-7.447099686E0
3.523600000E1,3.119499922E0,-1.280599952E0,-1.149999976E0
3.526599844E1,-5.284999609E-1,-3.162999868E0,-9.279999882E-2
3.528601094E1,-1.981499910E0,-4.008100033E0,1.018800020E0
3.531599844E1,-4.101399899E0,-5.936699867E0,2.264799833E0
3.533599844E1,-5.490900040E0,-4.739599705E0,2.984999895E0
3.535599844E1,-5.781499863E0,-3.909999847E0,2.826999903E0
3.537599844E1,-4.820199966E0,-2.410899878E0,2.543900013E0
3.539599844E1,-3.675599813E0,-7.779999822E-2,2.297899961E0
3.541599844E1,-2.779999971E0,1.677899957E0,2.123699903E0
3.543599844E1,-1.615499973E0,2.638599873E0,1.851199985E0
3.545599844E1,-9.546999931E-1,3.490399837E0,1.539799929E0
3.547600000E1,-5.155000091E-1,4.037699699E0,1.296000004E0
3.550599844E1,-2.372999936E-1,4.141900063E0,1.023499966E0
3.552599844E1,-2.144999951E-1,4.179399967E0,5.788999796E-1
3.554599844E1,-4.416999817E-1,4.000800133E0,3.739999831E-1
3.556599844E1,-6.482999921E-1,3.682999849E0,2.413999885E-1
3.558599844E1,-9.253999591E-1,2.931900024E0,1.242999956E-1
3.560599844E1,-9.256999493E-1,1.855999947E0,-9.629999846E-2
3.562599844E1,-8.951999545E-1,4.467999935E-1,-4.597999752E-1
3.564599844E1,-5.440999866E-1,-8.046000004E-1,-5.230000019E-1
3.566599844E1,-2.597000003E-1,-2.062500000E0,-2.773000002E-1
3.568599844E1,3.745999932E-1,-3.201399803E0,-1.501999944E-1
3.570599844E1,1.953299999E0,-3.282799959E0,6.999999750E-3
3.572599844E1,3.261600018E0,-2.950500011E0,-1.323599935E0
3.574599844E1,3.718099833E0,-3.210700035E0,-3.570899963E0
3.576599844E1,3.635099888E0,-3.225800037E0,-5.089600086E0
3.578601094E1,2.853999853E0,-3.722800016E0,-6.038599968E0
3.581599844E1,-3.316999972E-1,-5.475999713E-1,-5.329999924E0
3.583599844E1,-1.903099895E0,-8.984999657E-1,-1.902499914E0
3.585599844E1,-3.600499868E0,-3.772499800E0,-8.841999769E-1
3.587599844E1,-5.527599812E0,-5.764299870E0,6.838999987E-1
3.589599844E1,-6.202699661E0,-3.629799843E0,1.759199977E0
3.591599844E1,-4.474599838E0,-4.856999815E-1,1.307099938E0
3.593599844E1,-2.954799891E0,1.261199951E0,9.699999690E-1
3.595599844E1,-1.974299908E0,2.375900030E0,6.967999935E-1
3.597599844E1,-1.509499907E0,3.380599976E0,8.129000068E-1
3.599599844E1,-1.262300014E0,3.883599997E0,9.573999643E-1
3.601599844E1,-9.195999503E-1,3.905399799E0,1.183499932E0
3.603599844E1,-7.937999964E-1,3.713599920E0,1.421100020E0
3.605599844E1,-8.251000047E-1,3.407099962E0,1.559499979E0
3.607599844E1,-5.245000124E-1,3.152199984E0,1.488399982E0
3.609599844E1,-3.525999784E-1,3.251399994E0,1.524899960E0
3.611604219E1,-2.334999889E-1,3.153999805E0,1.488600016E0
3.614599844E1,2.216999978E-1,2.122900009E0,1.357800007E0
3.616599844E1,8.603000045E-1,1.492799997E0,1.319899917E0
3.618599844E1,1.353399992E0,6.870999932E-1,1.091699958E0
3.620599844E1,1.849299908E0,-2.732000053E-1,6.252999902E-1
3.622599844E1,3.072499990E0,-1.623999953E0,-2.861999989E0
3.624599844E1,5.182399750E0,-5.346799850E0,-1.370059967E1
3.626599844E1,2.329200029E0,-2.388399839E0,-5.537299633E0
3.628601250E1,2.605999947E0,-1.594699979E0,-4.191400051E0
3.631599844E1,1.086599946E0,-3.120999813E0,-1.929600000E0
3.633599844E1,-8.303999901E-1,-4.824100018E0,-1.122300029E0
3.635599844E1,-2.056099892E0,-3.790199995E0,-3.665999770E-1
3.637599844E1,-1.675399899E0,-1.192600012E0,3.044999838E-1
3.639599844E1,-1.533999920E0,-6.482999921E-1,1.559499979E0
3.641599844E1,-2.454799891E0,-2.818599939E0,2.173799992E0
3.643599844E1,-2.998499870E0,-4.051499844E0,2.356999874E0
3.645599844E1,-2.466099977E0,-3.670799971E0,2.298699856E0
3.647599844E1,-2.129400015E0,-1.692699909E0,2.124500036E0
3.649599844E1,-1.958199978E0,7.919999957E-2,2.516199827E0
3.651599844E1,-1.851699948E0,1.301999927E0,2.412499905E0
3.653599844E1,-1.674199939E0,1.858399987E0,2.251600027E0
3.655599844E1,-1.450299978E0,2.601599932E0,2.011399984E0
3.657599844E1,-1.184199929E0,3.522699833E0,1.717499971E0
3.659600000E1,-1.131600022E0,3.983899832E0,1.393700004E0
3.662599844E1,-1.400799990E0,3.886799812E0,8.805999756E-1
3.664599844E1,-1.675699949E0,3.622099876E0,5.669000149E-1
3.666599844E1,-1.613999963E0,3.356599808E0,3.281999826E-1
3.668599844E1,-1.628600001E0,3.237599850E0,2.490999997E-1
3.670599844E1,-1.626699924E0,3.078500032E0,2.031999975E-1
3.672599844E1,-1.309499979E0,2.309499979E0,1.563999951E-1
3.674599844E1,-1.057199955E0,7.547999620E-1,2.419999987E-1
3.676599844E1,-6.750000119E-1,-1.134699941E0,5.141999722E-1
3.678601094E1,-4.151999950E-1,-2.869299889E0,6.320999861E-1
3.681599844E1,9.921000004E-1,-4.129399776E0,4.899999872E-2
3.683599844E1,2.223999977E0,-3.638099909E0,-4.249999821E-1
3.685599844E1,4.159100056E0,-3.108599901E0,-7.732999921E-1
3.687599844E1,5.154699802E0,-3.825299978E0,-3.304099798E0
3.689599844E1,5.052099705E0,-5.033499718E0,-5.188799858E0
3.691599844E1,3.729799986E0,-3.508899927E0,-5.177599907E0
3.693599844E1,1.696900010E0,1.509999949E-2,-4.974699974E0
3.695599844E1,-8.941999674E-1,1.899599910E0,-5.772699833E0
3.697599844E1,-2.521299839E0,-1.154799938E0,-3.735199928E0
3.699599844E1,-3.820199966E0,-3.965999842E0,-6.258999705E-1
3.701599844E1,-5.417299747E0,-3.357399940E0,9.336999655E-1
3.703599844E1,-4.562200069E0,-1.484399915E0,7.712000012E-1
3.705599844E1,-3.240399837E0,-4.716999829E-1,-9.820000082E-2
3.707599844E1,-2.628499985E0,3.659999967E-1,6.849999726E-2
3.709599844E1,-2.605499983E0,1.727899909E0,6.268999577E-1
3.711599844E1,-2.353600025E0,2.724999905E0,9.570999742E-1
3.713599844E1,-1.953199983E0,3.272499800E0,1.338899970E0
3.715599844E1,-1.616899967E0,3.370299816E0,1.457299948E0
3.717599844E1,-1.564799905E0,2.929399967E0,1.329499960E0
3.719599844E1,-1.401899934E0,2.497999907E0,1.332799911E0
3.721599844E1,-1.062299967E0,2.720799923E0,1.411899924E0
3.723599844E1,-4.855999947E-1,2.656800032E0,1.396099925E0
3.725599844E1,1.465999931E-1,2.147899866E0,1.199399948E0
3.727599844E1,7.756999731E-1,1.747299910E0,1.197299957E0
3.729599844E1,1.500100017E0,1.334399939E0,1.085999966E0
3.731599844E1,2.312500000E0,1.014199972E0,9.353999496E-1
3.733599844E1,2.716599941E0,5.098999739E-1,3.195999861E-1
3.735599844E1,3.068799973E0,-8.233000040E-1,-3.665999889E0
3.737599844E1,4.183599949E0,-3.532899857E0,-8.106599808E0
3.739599844E1,2.599999905E0,-1.636600018E0,-4.388999939E0
3.741599844E1,2.766099930E0,-2.424599886E0,-5.427599907E0
3.743599844E1,3.078999817E-1,-4.464999676E0,-3.802299976E0
3.745599844E1,-2.263399839E0,-3.919799805E0,-3.646399975E0
3.747599844E1,-2.052999973E0,-1.023900032E0,-7.572000027E-1
3.749599844E1,-1.143599987E0,-4.778999984E-1,1.126999974E0
3.751599844E1,-1.064800024E0,-1.866599917E0,2.033400059E0
3.753599844E1,-3.094799995E0,-2.828999996E0,2.674399853E0
3.755599844E1,-5.740599632E0,-2.850999832E0,2.927299976E0
3.757599844E1,-6.512599945E0,-1.104799986E0,3.040199995E0
3.759599844E1,-5.337399960E0,1.093699932E0,2.914000034E0
3.761600000E1,-4.344099998E0,3.721799850E0,2.317999840E0
3.764599844E1,-1.869699955E0,3.371599913E0,1.804399967E0
3.766599844E1,-6.119999886E-1,1.852499962E0,1.733399987E0
3.768599844E1,-1.395999938E-1,1.184499979E0,1.669799924E0
3.770599844E1,4.459999800E-1,1.405099988E0,1.322999954E0
3.772599844E1,8.874999881E-1,1.786599994E0,8.842999935E-1
3.774599844E1,1.123899937E0,1.641199946E0,4.111000001E-1
3.776599844E1,9.215999842E-1,1.295300007E0,8.460000157E-2
3.778601094E1,1.128199935E0,9.495999813E-1,-1.897999942E-1
3.781599844E1,1.735399961E0,4.620999992E-1,-5.259000063E-1
3.783599844E1,1.870599985E0,-1.272999942E-1,-7.807999849E-1
3.785599844E1,2.009199858E0,-5.726999640E-1,-1.425300002E0
3.787599844E1,2.368000031E0,-1.417999983E0,-2.092700005E0
3.789599844E1,2.641999960E0,-2.202299833E0,-2.276900053E0
3.791600000E1,2.484099865E0,-2.397300005E0,-1.963499904E0
3.794599844E1,2.143300056E0,-1.554000020E0,-8.313999772E-1
3.796599844E1,1.523299932E0,-2.557299852E0,2.377999872E-1
3.798599844E1,3.510999978E-1,-4.076099873E0,1.304399967E0
3.800599844E1,-2.171999961E-1,-1.459999919E0,1.166899920E0
3.802599844E1,-2.240999937E-1,8.669999987E-2,1.304399967E0
3.804599844E1,-9.046999812E-1,-2.665299892E0,5.801999569E-1
3.806599844E1,-1.852699995E0,-5.121299744E0,3.206000030E-1
3.808599844E1,-2.625699997E0,-4.639899731E0,-9.339999408E-2
3.810599844E1,-2.919999838E0,-2.880699873E0,-8.037999868E-1
3.812599844E1,-3.262599945E0,-1.062699914E0,-2.447599888E0
3.814599844E1,-2.920899868E0,7.383999825E-1,-4.470599651E0
3.816599844E1,-2.783499956E0,2.265300035E0,-3.948099852E0
3.818599844E1,-2.464699984E0,3.851300001E0,-1.374099970E0
3.820599844E1,-2.050899982E0,5.020899773E0,-1.446999907E-1
3.822599844E1,-1.902300000E0,5.658499718E0,4.801999927E-1
3.824599844E1,-2.004600048E0,5.350899696E0,1.055199981E0
3.826599844E1,-1.870499969E0,4.243599892E0,1.301499963E0
3.828601094E1,-1.402599931E0,3.362900019E0,1.414399981E0
3.831599844E1,-3.499999940E-1,2.816900015E0,1.364099979E0
3.833599844E1,3.215000033E-1,2.445600033E0,1.047500014E0
3.835599844E1,6.850999594E-1,1.650699973E0,8.413999677E-1
3.837599844E1,1.552199960E0,-4.959999770E-2,-2.779999934E-2
3.839599844E1,2.795500040E0,-2.445699930E0,-3.875899792E0
3.841599844E1,4.986899853E0,-5.612899780E0,-1.112759972E1
3.843599844E1,3.926899910E0,-4.160200119E0,-3.700299978E0
3.845599844E1,3.517099857E0,-1.949099898E0,-1.666000009E0
3.847599844E1,2.068399906E0,-2.444799900E0,-6.202999949E-1
3.849600000E1,-5.613999963E-1,-3.727299929E0,-8.898999691E-1
3.851600781E1,-2.139099836E0,-3.236399889E0,1.289999932E-1
3.854599844E1,-2.063699961E0,5.325999856E-1,8.668999672E-1
3.856599844E1,-2.213500023E0,8.556999564E-1,1.414499998E0
3.858599844E1,-2.740999937E0,-2.167399883E0,1.709399939E0
3.860599844E1,-3.040599823E0,-3.012799978E0,1.707799911E0
3.862599844E1,-3.625599861E0,-1.672699928E0,1.961899996E0
3.864599844E1,-3.064100027E0,-3.209999949E-2,2.795500040E0
3.866599844E1,-2.281199932E0,1.598299980E0,2.440599918E0
3.868600000E1,-1.806800008E0,2.560799837E0,1.822299957E0
3.871599844E1,-9.042999744E-1,2.843400002E0,1.322499990E0
3.873599844E1,-5.684999824E-1,2.284899950E0,1.248999953E0
3.875599844E1,8.729999512E-2,1.765399933E0,1.014899969E0
3.877600000E1,1.418000013E-1,2.017499924E0,6.394999623E-1
3.880599844E1,3.700000001E-3,2.813400030E0,5.311999917E-1
3.882599844E1,7.660000026E-2,2.593600035E0,4.803999960E-1
3.884599844E1,4.347999990E-1,1.921899915E0,1.944999993E-1
3.886599844E1,8.671999574E-1,1.243499994E0,-9.539999813E-2
3.888599844E1,5.532999635E-1,7.725999951E-1,8.339999616E-2
3.890599844E1,1.358999968E0,3.622999787E-1,4.466999769E-1
3.892599844E1,2.734899998E0,-6.082999706E-1,-2.486999929E-1
3.894599844E1,3.806099892E0,-2.146600008E0,-9.832999706E-1
3.896599844E1,3.791099787E0,-3.759299994E0,-1.033699989E0
3.898599844E1,3.675999880E0,-4.103799820E0,-1.011099935E0
3.900599844E1,4.105599880E0,-2.774399996E0,-1.105499983E0
3.902599844E1,4.135600090E0,-2.330499887E0,-1.031599998E0
3.904599844E1,3.442099810E0,-3.744400024E0,-6.158999801E-1
3.906599844E1,1.105000019E0,-2.983599901E0,-2.884999812E-1
3.908599844E1,-5.505999923E-1,-8.269999921E-2,-1.319999993E-1
3.910599844E1,-1.001799941E0,-1.773999929E-1,-1.837999970E-1
3.912600000E1,-2.402099848E0,-3.351799965E0,8.799999952E-3
3.915599844E1,-4.292999744E0,-3.977699995E0,-1.097999960E-1
3.917599844E1,-3.795799971E0,-2.349699974E0,-8.746999502E-1
3.919599844E1,-2.728299856E0,-8.413999677E-1,-1.984699965E0
3.921599844E1,-2.411900043E0,2.786999941E-1,-3.325299978E0
3.923599844E1,-2.260999918E0,1.879399896E0,-2.162299871E0
3.925599844E1,-1.945099950E0,3.492899895E0,-4.176999927E-1
3.927599844E1,-1.643999934E0,4.580699921E0,2.329999954E-1
3.929599844E1,-1.435599923E0,5.004099846E0,7.217999697E-1
3.931599844E1,-1.360199928E0,4.452799797E0,1.126099944E0
3.933599844E1,-1.337700009E0,3.747200012E0,1.662099957E0
3.935599844E1,-1.144500017E0,3.003299952E0,1.870199919E0
3.937599844E1,-8.779000044E-1,2.484699965E0,1.974499941E0
3.939599844E1,-5.805999637E-1,2.445999861E0,1.798699975E0
3.941599844E1,-1.806000024E-1,2.336899996E0,1.883199930E0
3.943599844E1,3.597999811E-1,1.744899988E0,1.657400012E0
3.945599844E1,1.060400009E0,6.801999807E-1,1.622499943E0
3.947599844E1,1.925499916E0,-6.279999614E-1,9.059000015E-1
3.949599844E1,6.268799782E0,-4.384599686E0,-1.418999958E1
3.951599844E1,4.370399952E0,-4.431399822E0,-8.323399544E0
3.953599844E1,4.000699997E0,-2.217700005E0,-6.369799614E0
3.955599844E1,3.378599882E0,-6.161000133E-1,-3.597399950E0
3.957599844E1,9.483000040E-1,-7.759000063E-1,-4.177999794E-1
3.959599844E1,-1.198999956E-1,-3.273399830E0,-8.082999587E-1
3.961599844E1,-1.459999919E0,-3.172600031E0,2.584999800E-1
3.963599844E1,-2.214999914E0,-1.208500028E0,2.441099882E0
3.965599844E1,-2.895599842E0,-1.527899981E0,3.085099936E0
3.967599844E1,-3.417199850E0,-3.003599882E0,2.875699997E0
3.969600000E1,-3.127499819E0,-4.207699776E0,3.583499908E0
3.971600000E1,-2.198099852E0,-4.264199734E0,3.873199940E0
3.974599844E1,-1.359300017E0,-1.463099957E0,3.431200027E0
3.976599844E1,-1.124300003E0,2.850999832E-1,3.045799971E0
3.978601250E1,-7.666999698E-1,1.666899920E0,2.728399992E0
3.981599844E1,-3.615999818E-1,3.157299995E0,2.281100035E0
3.983599844E1,-5.911999941E-1,3.944399834E0,1.906299949E0
3.985599844E1,-8.644999862E-1,4.341499805E0,1.514699936E0
3.987599844E1,-1.078199983E0,4.285599709E0,1.110800028E0
3.989599844E1,-1.517899990E0,3.994399786E0,7.792999744E-1
3.991599844E1,-1.872499943E0,3.598599911E0,4.592999816E-1
3.993599844E1,-1.737299919E0,3.315099955E0,8.320000023E-2
3.995599844E1,-1.508599997E0,3.253999949E0,-3.034999967E-1
3.997599844E1,-1.705399990E0,2.886600018E0,-4.675000012E-1
3.999599844E1,-1.923199892E0,1.253199935E0,-1.589999944E-1
4.001599844E1,-2.044199944E0,-9.929999709E-1,1.398999989E-1
4.003599844E1,-1.589299917E0,-3.075399876E0,3.950999975E-1
4.005599844E1,-6.696999669E-1,-3.893399954E0,-2.293999940E-1
4.007599844E1,6.924999952E-1,-3.230899811E0,-8.926999569E-1
4.009599844E1,2.014400005E0,-3.327299833E0,-1.419299960E0
4.011599844E1,3.297299862E0,-5.795300007E0,-3.532699823E0
4.013599844E1,3.329699993E0,-7.485499859E0,-7.082299709E0
4.015599844E1,4.384299755E0,-4.175799847E0,-1.381359959E1
4.017599844E1,-1.449999958E-1,-8.240000159E-2,-9.243000031E0
4.019599844E1,-2.001199961E0,-1.556499958E0,-1.606899977E0
4.021599844E1,-3.765899897E0,-4.594999790E0,7.412999868E-1
4.023599844E1,-5.473899841E0,-5.048899651E0,1.920499921E0
4.025599844E1,-4.994100094E0,-2.653599977E0,1.649099946E0
4.027599844E1,-3.395399809E0,-7.558000088E-1,1.508499980E0
4.029599844E1,-3.018399954E0,6.654999852E-1,1.083500028E0
4.031599844E1,-2.535899878E0,2.106499910E0,1.329499960E0
4.033599844E1,-1.867100000E0,3.502599955E0,1.492399931E0
4.035599844E1,-1.137799978E0,4.366399765E0,1.794099927E0
4.037599844E1,-7.454999685E-1,4.386399746E0,2.114799976E0
4.039599844E1,-1.247999966E-1,4.084000111E0,2.255100012E0
4.041599844E1,2.813999951E-1,3.469799995E0,2.096899986E0
4.043599844E1,4.187999964E-1,3.161099911E0,1.854299903E0
4.045599844E1,5.881999731E-1,3.115999937E0,1.666000009E0
4.047600000E1,6.897000074E-1,2.523299932E0,1.586300015E0
4.050600000E1,8.610000014E-1,1.126600027E0,1.398399949E0
4.053599844E1,1.609399915E0,6.759999990E-1,6.990999579E-1
4.055599844E1,2.442899942E0,-2.031999975E-1,-1.786199927E0
4.057599844E1,5.881499767E0,-4.667399883E0,-1.939529991E1
4.059599844E1,2.752799988E0,-2.769899845E0,-7.300399780E0
4.061599844E1,1.534099936E0,-1.516099930E0,-3.115499973E0
4.063599844E1,-1.046499968E0,-3.729599953E0,-1.119499922E0
4.065599844E1,-3.440399885E0,-4.908999920E0,-7.173999548E-1
4.067599844E1,-4.250699997E0,-2.536599874E0,9.883999825E-1
4.069599844E1,-3.615299940E0,-1.865000010E0,2.263900042E0
4.071599844E1,-3.373600006E0,-3.728099823E0,2.547999859E0
4.073599844E1,-3.103399992E0,-4.088299751E0,2.908399820E0
4.075599844E1,-1.705699921E0,-1.957099915E0,2.706599951E0
4.077599844E1,-6.893999577E-1,4.961999953E-1,2.480799913E0
4.079599844E1,-2.241999954E-1,1.768999934E0,2.304499865E0
4.081599844E1,-2.207999974E-1,2.666499853E0,2.277099848E0
4.083599844E1,-2.303999960E-1,3.287799835E0,2.308599949E0
4.085599844E1,-5.796999931E-1,3.057199955E0,2.074300051E0
4.087599844E1,-1.204199910E0,2.378700018E0,1.573300004E0
4.089599844E1,-1.751299977E0,1.871499896E0,9.542999864E-1
4.091599844E1,-1.900699973E0,1.985499978E0,5.694999695E-1
4.093599844E1,-1.912099957E0,2.623100042E0,2.780999839E-1
4.095599844E1,-2.064199924E0,3.430999994E0,3.156999946E-1
4.097599844E1,-2.339499950E0,3.889599800E0,4.790999889E-1
4.099599844E1,-1.771499991E0,3.516799927E0,6.394999623E-1
4.101599844E1,-6.284999847E-1,1.918099999E0,2.809000015E-1
4.103599844E1,5.033999681E-1,-1.115999967E-1,-4.496999979E-1
4.105599844E1,1.673599958E0,-2.395400047E0,-1.498499990E0
4.107599844E1,2.660199881E0,-4.523299694E0,-2.808300018E0
4.109599844E1,3.623099804E0,-5.160099983E0,-3.879899979E0
4.111599844E1,4.403100014E0,-3.921999931E0,-4.947599888E0
4.113599844E1,4.846699715E0,-2.848700047E0,-6.420599937E0
4.115599844E1,4.369699955E0,-3.249099970E0,-8.088699341E0
4.117599844E1,1.427199960E0,-2.681900024E0,-4.067899704E0
4.119599844E1,-6.639999747E-1,-1.628700018E0,-1.037299991E0
4.121599844E1,-2.345499992E0,-3.682299852E0,9.003999829E-1
4.123599844E1,-3.877899885E0,-5.350999832E0,1.513899922E0
4.125599844E1,-4.368000031E0,-3.465699911E0,1.562099934E0
4.127599844E1,-3.277400017E0,-6.550999880E-1,1.610999942E0
4.129599844E1,-2.382099867E0,8.730999827E-1,1.293200016E0
4.131599844E1,-1.922699928E0,1.404399991E0,1.067399979E0
4.133599844E1,-1.318099976E0,2.009799957E0,1.009699941E0
4.135599844E1,-8.057999611E-1,2.564499855E0,9.541999698E-1
4.137599844E1,-1.849000007E-1,2.803900003E0,2.881999910E-1
4.139599844E1,2.666999996E-1,2.730499983E0,-9.707999825E-1
4.141599844E1,3.120000064E-1,2.673399925E0,-1.019099951E0
4.143599844E1,7.589999586E-2,2.889099836E0,3.114999831E-1
4.145599844E1,7.239999622E-2,2.798899889E0,1.020799994E0
4.147599844E1,1.699999906E-3,2.500399828E0,1.104300022E0
4.149599844E1,1.044999957E-1,2.020200014E0,8.722999692E-1
4.151599844E1,3.262999952E-1,1.579999924E0,5.151999593E-1
4.153599844E1,6.937999725E-1,1.235700011E0,-1.879999973E-2
4.155599844E1,1.235199928E0,5.834999681E-1,-9.210000038E-1
4.157599844E1,2.236399889E0,-7.594999671E-1,-3.744899988E0
4.159599844E1,3.457599878E0,-2.442699909E0,-9.503699303E0
4.161599844E1,2.907099962E0,-1.701499939E0,-5.263799667E0
4.163599844E1,2.334899902E0,-1.581999958E-1,-2.821099997E0
4.165599844E1,5.187999606E-1,-1.651499987E0,-1.312699914E0
4.167599844E1,-2.661599874E0,-4.484799862E0,4.887000024E-1
4.169599844E1,-3.252099991E0,-5.185800076E0,1.554999948E0
4.171599844E1,-3.100399971E0,-4.505799770E0,3.151599884E0
4.173599844E1,-2.577399969E0,-3.707000017E0,4.002500057E0
4.175599844E1,-2.406399965E0,-3.722999811E0,3.109099865E0
4.177600000E1,-1.882200003E0,-2.942600012E0,3.683599949E0
4.180599844E1,-5.317000151E-1,1.542999893E-1,3.353399992E0
4.182599844E1,2.199999988E-1,1.761500001E0,3.265699863E0
4.184599844E1,3.901999891E-1,2.811599970E0,3.002899885E0
4.186599844E1,4.396999776E-1,3.359899998E0,2.900399923E0
4.188599844E1,2.854999900E-1,3.354699850E0,2.540799856E0
4.190599844E1,1.087399960E0,1.969799995E0,1.917699933E0
4.192599844E1,1.594599962E0,1.421499968E0,1.285200000E0
4.194599844E1,7.637000084E-1,1.854799986E0,9.398999810E-1
4.196599844E1,-1.069000006E0,2.817499876E0,1.204399943E0
4.198599844E1,-2.069099903E0,2.560600042E0,1.240199924E0
4.200599844E1,-1.152300000E0,2.511600018E0,6.776999831E-1
4.202599844E1,-1.416899920E0,2.937199831E0,2.096000016E-1
4.204599844E1,-5.561999679E-1,1.384999990E0,4.563999772E-1
4.206599844E1,5.267999768E-1,-4.669999778E-1,-1.316999942E-1
4.208599844E1,1.577499986E0,-1.682500005E0,-1.396899939E0
4.210599844E1,2.068500042E0,-2.156399965E0,-2.539899826E0
4.212599844E1,2.580299854E0,-2.358700037E0,-3.462599993E0
4.214599844E1,2.964200020E0,-3.100600004E0,-4.475500107E0
4.216599844E1,1.868399978E0,-5.288799763E0,-5.225999832E0
4.218599844E1,2.140000015E-1,-4.687699795E0,-5.511699677E0
4.220599844E1,-1.860399961E0,-2.131599903E0,-2.806799889E0
4.222599844E1,-3.231099844E0,-2.434399843E0,4.360000044E-2
4.224600000E1,-3.770900011E0,-4.605000019E0,1.077600002E0
4.226600000E1,-4.320899963E0,-4.292099953E0,1.082399964E0
4.228601094E1,-2.938599825E0,-2.023499966E0,6.872999668E-1
4.231599844E1,-2.020099878E0,-4.589999914E-1,2.012999952E-1
4.233599844E1,-2.012599945E0,9.849999547E-1,6.311999559E-1
4.235599844E1,-1.394699931E0,2.569299936E0,1.021600008E0
4.237599844E1,-7.921999693E-1,3.648199797E0,1.148800015E0
4.239599844E1,-4.402000010E-1,4.159100056E0,9.923999906E-1
