"Time (s)","Acceleration x (m/s^2)","Acceleration y (m/s^2)","Acceleration z (m/s^2)"
0.000000000E0,-5.318355083E0,3.439194202E0,8.184434891E0
2.000000000E-2,-3.890606403E0,2.497094870E0,8.737265587E0
4.000000000E-2,-3.579331636E0,1.990520120E0,8.988149643E0
6.000000000E-2,-4.020094395E0,1.920571208E0,8.962694168E0
8.200312500E-2,-4.227614403E0,2.284145117E0,8.860825539E0
1.040000000E-1,-2.054924011E0,6.594493389E-1,5.446483612E0
1.240000000E-1,-2.907317400E0,2.528612375E0,8.756898880E0
1.440000000E-1,-3.212367535E0,2.391060591E0,1.629403687E1
1.640187500E-1,-2.784341574E0,2.978137970E0,1.052094650E1
1.860000000E-1,1.352436692E-1,-1.505665630E-1,8.134176254E0
2.060093750E-1,2.470452070E0,-3.223467112E0,5.022058010E0
2.280000000E-1,2.962374449E0,-2.566862106E0,4.596225739E0
2.480000000E-1,9.508715868E-1,1.372289419E0,5.383917809E0
2.680000000E-1,-8.075163513E-2,2.052740812E0,5.327213764E0
2.880062500E-1,-1.110698819E0,8.078610897E-1,4.882351875E0
3.099984380E-1,-5.403042793E0,-6.574190855E-1,1.783096123E1
3.300062500E-1,-3.806627512E0,1.446318150E0,5.180324554E0
3.519984380E-1,-3.418747663E0,3.137830973E0,9.078764915E0
3.720015630E-1,7.203865647E-1,8.329236507E-1,1.152980423E1
3.939984380E-1,4.337623119E-1,1.537939429E0,1.171110344E1
4.140000000E-1,-1.618940115E0,2.835223198E0,9.394023895E0
4.360000000E-1,1.558433771E-1,2.226243734E0,1.057261276E1
4.580000000E-1,2.356919289E0,1.459495783E0,1.255810547E1
4.800031250E-1,4.498925209E0,3.767420053E-1,1.308795071E1
5.019984380E-1,4.946076393E0,1.861156672E-1,1.313657284E1
5.219984380E-1,4.811205387E0,1.052395329E-1,9.621281624E0
5.419984380E-1,5.499031067E0,6.279990673E-1,3.595726967E0
5.619984380E-1,5.743469715E0,2.084267616E0,5.014291286E0
5.819984380E-1,7.781059742E-1,7.473031044E0,1.090936184E1
6.019984380E-1,1.023482919E0,4.704165936E0,9.780696869E0
6.219984380E-1,4.101516724E0,2.258306891E-1,4.149831772E0
6.419984380E-1,5.537894249E0,-2.953487262E-2,7.470043659E0
6.619984380E-1,5.440469265E0,-1.937732816E0,6.325480938E0
6.819984380E-1,3.415836096E0,-2.311161041E0,6.979385376E0
7.019984380E-1,3.410894871E0,-3.073704720E0,7.631613731E0
7.219984380E-1,1.809144974E0,-4.350465775E0,7.096337318E0
7.419984380E-1,2.743563652E-1,-6.686239243E0,4.342440605E0
7.619984380E-1,-1.472242594E0,-6.655133724E0,4.507716656E0
7.819984380E-1,-1.491683483E0,-8.413158417E0,-9.070002437E-1
8.019984380E-1,1.604546189E0,-1.063741875E1,-2.735892534E0
8.219984380E-1,8.067827225E0,-1.256951046E1,-3.015669346E0
8.419984380E-1,1.430292320E1,-1.166861153E1,-1.713635445E0
8.619984380E-1,1.877838516E1,-1.105965042E1,-1.098660946E0
8.819984380E-1,2.203291702E1,-1.062561989E1,1.031709388E-1
9.019984380E-1,2.325127983E1,-9.411568642E0,-3.605763614E-1
9.220000000E-1,2.251148224E1,-7.994277954E0,-2.171061993E0
9.420000000E-1,2.177368355E1,-6.980563164E0,-4.016982079E0
9.640171880E-1,2.029273605E1,-7.108058929E0,-5.752433777E0
9.859984380E-1,1.848371696E1,-6.688221455E0,-6.985456944E0
1.006000000E0,1.768095970E1,-6.884642124E0,-7.054180145E0
1.028000000E0,1.568607235E1,-7.199259281E0,-5.664920330E0
1.048000000E0,1.449031258E1,-6.985466480E0,-4.506193638E0
1.070012500E0,1.262010574E1,-7.715611935E0,-4.590364933E0
1.091998438E0,1.154315567E1,-9.524000168E0,-4.368881702E0
1.111998438E0,5.087448597E0,-1.169893169E1,-1.305749774E0
1.132000000E0,2.914499998E0,-1.199221230E1,3.905354738E0
1.152000000E0,3.942608595E0,-1.001533794E1,9.783560753E0
1.172000000E0,3.114645720E0,-9.988446236E0,1.130109215E1
1.192000000E0,4.018877983E0,-7.650738716E0,8.141090393E0
1.212000000E0,1.467626452E0,-7.591975212E0,9.222685814E0
1.232000000E0,2.576773882E0,-4.728759289E0,4.542183399E0
1.253998438E0,3.182813406E0,-2.179192781E0,3.500418663E0
1.273998438E0,3.859989405E0,2.385007888E-1,4.829679430E-1
1.293998438E0,3.804022551E0,6.709510833E-2,-1.797470808E0
1.313998438E0,3.748122692E0,-1.160278082E0,-4.008563995E0
1.333998438E0,6.530443668E0,-3.280516148E0,1.451365113E0
1.353998438E0,8.474957466E0,-4.126904964E0,-1.249840379E0
1.373998438E0,6.797904968E0,-4.352399826E0,1.883183360E0
1.393998438E0,5.510255337E0,-2.433112383E0,1.862660170E0
1.413998438E0,6.005404949E0,-1.905803680E0,2.472319841E0
1.433998438E0,9.430798531E0,-5.828032494E0,4.097168446E0
1.453998438E0,1.087882137E1,-8.183103561E0,8.962933719E-2
1.473998438E0,9.743348122E0,-1.052389526E1,-4.756570339E0
1.493998438E0,8.069627762E0,-1.310604191E1,-1.811883926E0
1.514000000E0,6.218814373E0,-1.031690216E1,-1.846456170E0
1.535998438E0,5.722448826E0,-8.616099358E0,-2.859634459E-1
1.555998438E0,7.261240005E0,-9.541497231E0,-6.912922263E-1
1.575998438E0,9.788856506E0,-1.100621223E1,4.575702548E-1
1.595998438E0,8.792351723E0,-8.713093758E0,1.654709339E0
1.615998438E0,8.298196793E0,-8.204986572E0,9.763171673E-1
1.636007813E0,8.688433647E0,-8.836653709E0,1.279557109E0
1.657998438E0,1.006968689E1,-1.010169220E1,1.885864735E0
1.678000000E0,1.024150372E1,-1.016298485E1,5.608656406E-1
1.699998438E0,1.005745697E1,-9.764675140E0,-1.540927410E0
1.719998438E0,7.796698570E0,-7.854609966E0,-2.200491667E0
1.739998438E0,3.946190119E0,-3.404669762E0,-2.209752560E0
1.759998438E0,1.684119701E0,-4.436532021E0,-2.914030790E0
1.779998438E0,2.373582840E0,-3.606960773E0,-1.515089154E0
1.799998438E0,1.737318993E0,-1.546386123E0,-4.852280617E-1
1.820000000E0,1.661384344E0,-1.585842609E0,-6.713341177E-2
1.841998438E0,2.996228456E0,-1.776277304E0,2.054799646E-1
1.861998438E0,1.564457655E0,-1.206629753E0,2.280525118E-1
1.881998438E0,1.287505865E0,-6.772076130E0,8.306443691E-1
1.901998438E0,1.711375453E-2,-3.604922485E1,1.897634625E0
1.921998438E0,-6.849523783E-1,-3.112485123E1,2.348146677E0
1.941998438E0,-5.184596181E-1,-1.789813232E1,1.550868005E-1
1.961998438E0,-9.791039824E-1,-8.041481972E0,8.887372613E-1
1.981998438E0,-7.397604585E-1,-3.727178335E0,1.478429079E0
2.001998438E0,-3.516507447E-1,-2.399478436E0,-1.349372119E-1
2.022000000E0,-9.591075778E-1,-2.918982029E0,-1.319061518E0
2.044000000E0,-9.206280112E-1,-6.169024467E0,-8.743625134E-2
2.064017188E0,-3.221063316E-1,-9.508907318E0,1.330611110E0
2.086006250E0,8.706370592E-1,-1.088873386E1,2.288684368E0
2.107998438E0,9.113672376E-1,-1.015645218E1,3.078330517E0
2.127998438E0,1.645563602E0,-9.896422386E0,3.793009281E0
2.148000000E0,2.149859190E0,-1.086385250E1,3.969595909E0
2.169998438E0,3.178676367E0,-1.214879227E1,3.240609407E0
2.189998438E0,1.207664108E1,-1.654435539E1,-2.111934900E0
2.210000000E0,8.440394402E0,-1.446057606E1,-3.416592836E0
2.230000000E0,4.743019104E0,-9.552922249E0,-2.517464876E0
2.251998438E0,3.788086653E0,-7.940101624E0,-7.567017674E-1
2.271998438E0,5.498265266E0,-9.239406586E0,-2.199131727E0
2.291998438E0,5.123917580E0,-1.116084862E1,-3.589348793E0
2.311998438E0,4.982324123E0,-1.140499020E1,-2.664880514E0
2.331998438E0,6.195820332E0,-1.248442078E1,-1.380956411E0
2.351998438E0,6.742589474E0,-1.349922752E1,-7.576116323E-1
2.371998438E0,6.947868347E0,-1.368379211E1,-2.997540403E-3
2.391998438E0,6.120929718E0,-1.186165142E1,-8.877795339E-1
2.411998438E0,4.861005306E0,-9.493181229E0,-5.993739963E-1
2.431998438E0,3.526793242E0,-7.797014713E0,5.094861146E-3
2.451998438E0,2.321944475E0,-6.921818733E0,5.378239155E-1
2.471998438E0,1.250778794E0,-6.636641026E0,9.836912751E-1
2.491998438E0,-2.521573193E-2,-6.150991917E0,1.240368843E0
2.511998438E0,-1.521936536E0,-5.570598602E0,1.581322432E0
2.531998438E0,-2.791294336E0,-5.238321781E0,1.730701447E0
2.551998438E0,-3.265470982E0,-5.193406582E0,2.006254911E0
2.571998438E0,-2.413451195E0,-5.877123356E0,2.508404970E0
2.591998438E0,-6.061065197E-1,-6.884862423E0,2.650113106E0
2.611998438E0,7.191224098E-1,-8.093493462E0,2.408020973E0
2.631998438E0,1.202099919E0,-9.330375671E0,1.961406589E0
2.651998438E0,1.061943412E0,-1.040665627E1,1.566612363E0
2.671998438E0,8.841595650E-1,-1.089390564E1,8.794764876E-1
2.691998438E0,1.365710139E0,-1.232439232E1,2.645018399E-1
2.711998438E0,2.150634766E0,-1.349956226E1,-2.037369907E-1
2.731998438E0,2.929717541E0,-1.400043011E1,-7.950760722E-1
2.751998438E0,3.775435686E0,-1.427204704E1,-1.908638477E0
2.771998438E0,5.131684303E0,-1.335793209E1,-4.323861122E0
2.791998438E0,6.352027893E0,-1.336570835E1,-2.276288223E1
2.811998438E0,6.163968086E0,-1.328135586E1,-1.332644272E1
2.831998438E0,4.673740387E0,-1.238199711E1,-4.647011280E0
2.851998438E0,3.075265884E0,-1.010644245E1,-1.840853691E-1
2.871998438E0,2.410252333E0,-9.381592751E0,5.366746783E-1
2.891998438E0,2.373429775E0,-1.172859097E1,1.391433477E0
2.913998438E0,2.093815565E0,-1.507203579E1,1.276779890E0
2.935998438E0,1.006522417E0,-1.436975861E1,1.013733745E0
2.955998438E0,-5.273947492E-2,-1.217300320E1,1.556968451E0
2.975998438E0,-6.485030651E-1,-1.059413147E1,2.190981865E0
2.995998438E0,-8.771206141E-1,-9.500575066E0,2.037935019E0
3.016003125E0,-4.207570255E-1,-8.558294296E0,1.171789289E0
3.037998438E0,-8.868123405E-3,-7.436841011E0,4.641973972E-1
3.057998438E0,2.719717324E-1,-6.586324215E0,4.740710855E-1
3.077998438E0,5.285056829E-1,-5.813159943E0,5.850375295E-1
3.097998438E0,7.708563209E-1,-5.472790718E0,4.759960473E-1
3.117998438E0,8.463407159E-1,-5.296482086E0,4.213316143E-1
3.137998438E0,1.247599363E0,-5.858372211E0,3.891439736E-1
3.157998438E0,1.588207960E0,-6.677533627E0,4.458865225E-1
3.177998438E0,1.991506577E0,-7.543458939E0,6.446532011E-1
3.197998438E0,2.527491808E0,-8.621989250E0,5.661616921E-1
3.217998438E0,2.953046560E0,-9.682850838E0,1.093786240E0
3.237998438E0,3.325574875E0,-1.005448818E1,1.420412898E0
3.257998438E0,3.546760798E0,-1.007378483E1,2.362138748E0
3.277998438E0,4.008726597E0,-1.007906246E1,2.509487391E0
3.297998438E0,4.823789597E0,-1.036373329E1,1.029229045E0
3.317998438E0,8.108739853E0,-1.118557644E1,-2.498656034E0
3.337998438E0,7.061391830E0,-1.028464699E1,-5.469917297E0
3.357998438E0,6.482588291E0,-9.172110558E0,-7.951948166E0
3.377998438E0,6.982220173E0,-8.966304779E0,-1.302660275E1
3.397998438E0,7.782563686E0,-8.810461044E0,-1.594217491E1
3.417998438E0,1.974948287E0,-7.374897957E0,-2.083932400E0
3.437998438E0,1.121616483E0,-9.519451141E0,-1.115381956E0
3.457998438E0,4.025610685E-1,-1.160951233E1,-1.622560024E0
3.477998438E0,1.270621896E0,-1.303575802E1,-2.082122326E0
3.497998438E0,7.067874670E-1,-1.323089409E1,-2.183492661E0
3.517998438E0,-1.522329301E-1,-1.358114719E1,-1.464130998E0
3.537998438E0,-3.956083059E-1,-1.394560242E1,-4.366928041E-1
3.557998438E0,-6.125325710E-2,-1.296918011E1,4.817325473E-1
3.577998438E0,5.883032084E-1,-1.234283829E1,1.074757218E0
3.597998438E0,5.989622474E-1,-1.158198929E1,1.122267723E0
3.617998438E0,2.235035151E-1,-8.990993500E0,6.258347631E-1
3.637998438E0,1.155920550E-1,-7.136128902E0,7.261039615E-1
3.657998438E0,3.086030185E-1,-6.153883934E0,6.034537554E-1
3.677998438E0,3.640048504E-1,-5.711942673E0,-8.957187831E-2
3.697998438E0,4.189565778E-1,-5.701034546E0,-5.600804090E-1
3.717998438E0,5.359276533E-1,-5.891249657E0,-6.044592857E-1
3.739998438E0,7.169389129E-1,-5.954274178E0,-5.506855249E-1
3.759998438E0,1.076950192E0,-6.290717125E0,-4.716194272E-1
3.779998438E0,1.497429609E0,-7.193608761E0,-4.508568943E-1
3.799998438E0,1.853332400E0,-8.363444328E0,-4.162367582E-1
3.819998438E0,2.137284756E0,-9.166048050E0,-3.997646570E-1
3.839998438E0,2.597460032E0,-9.831473351E0,-4.996794760E-1
3.859998438E0,3.078292131E0,-1.062963295E1,-6.729238629E-1
3.879998438E0,3.476572514E0,-1.136636734E1,-7.064331770E-1
3.899998438E0,3.570405960E0,-1.153395176E1,-5.996996164E-1
3.919998438E0,3.836746693E0,-1.158363628E1,-7.699561119E-1
3.939998438E0,4.287536621E0,-1.207919693E1,-9.477208257E-1
3.959998438E0,4.874441624E0,-1.330359268E1,-1.357933760E0
3.979998438E0,5.380882263E0,-1.433766747E1,-2.131988764E0
3.999998438E0,5.206296921E0,-1.260068321E1,-2.808695555E0
4.019998438E0,4.196384430E0,-9.353916168E0,-3.190944195E0
4.039998438E0,3.013610363E0,-8.170184135E0,-3.335151672E0
4.059998438E0,2.632491589E0,-1.099144459E1,-4.094831944E0
4.079998438E0,2.244841814E0,-1.363962269E1,-4.993308544E0
4.099998438E0,1.924947739E0,-1.326267052E1,-4.744196892E0
4.119998438E0,1.531111121E0,-1.160309696E1,-3.867421150E0
4.139998438E0,1.013657093E0,-1.104891491E1,-3.278523922E0
4.159998438E0,4.469112456E-1,-1.151065159E1,-2.625318766E0
4.179998438E0,-8.642972708E-1,-1.070484924E1,-1.862564445E0
4.199998438E0,-2.028080225E0,-8.802933693E0,-9.264602661E-1
4.219998438E0,-2.201573849E0,-7.626097679E0,9.556695819E-1
4.239998438E0,-1.838785172E0,-6.822278023E0,3.518011332E0
4.259998438E0,-2.133492231E0,-5.756235123E0,5.186980247E0
4.279998438E0,-1.155224323E1,-4.031643867E0,2.033656120E1
4.299998438E0,-5.207771659E-1,-5.902176380E0,-1.545773149E0
4.319998438E0,6.717459559E-1,-5.820275307E0,-4.238704205E0
4.339998438E0,8.052179217E-1,-6.121045113E0,-3.643745184E0
4.359998438E0,4.582597911E-1,-6.852540493E0,-2.681620836E0
4.379998438E0,2.135915160E-1,-7.667057514E0,-1.555924654E0
4.399998438E0,1.035003781E0,-9.170002937E0,-1.054262877E0
4.419998438E0,1.588351727E0,-1.050837135E1,-9.847255945E-1
4.439998438E0,2.321944475E0,-1.121823311E1,-6.995474100E-1
4.459998438E0,4.962969303E0,-1.220141697E1,-8.412937522E-1
4.479998438E0,6.792235374E0,-1.281013775E1,-4.523815632E0
4.499998438E0,6.644522667E0,-1.168809128E1,-1.049114227E1
4.519998438E0,6.917806149E0,-9.617547035E0,-1.397039604E1
4.539998438E0,5.960911274E0,-7.838587284E0,-1.409473228E1
4.559998438E0,2.292591810E0,-8.735531807E0,-4.955183506E0
4.579998438E0,-5.287355185E-2,-1.188624382E1,2.602928162E0
4.601998438E0,-1.500484467E0,-1.382692719E1,5.934948444E0
4.621998438E0,-3.514400959E0,-1.221468067E1,5.192113876E0
4.641998438E0,-2.585469723E0,-1.395942211E1,7.657576084E0
4.661998438E0,-7.837563157E-1,-1.376365280E1,-2.213899136E0
4.681998438E0,1.390724778E0,-1.342532349E1,-7.338898182E-1
4.701998438E0,1.206763744E0,-1.279331112E1,3.762440205E0
4.722023438E0,1.139697552E0,-1.091813469E1,-6.938396692E-1
4.743998438E0,9.169888496E-1,-9.251741409E0,2.674897909E-1
4.764017188E0,8.541554213E-1,-7.989652157E0,9.305878878E-1
4.786004688E0,6.409086585E-1,-6.482435226E0,1.206543565E0
4.806006250E0,5.825284719E-1,-5.716309547E0,1.153535962E0
4.827998438E0,5.594483018E-1,-5.451252460E0,8.070853949E-1
4.847998438E0,5.438668728E-1,-5.393342018E0,4.124251604E-1
4.867998438E0,4.172614813E-1,-5.432290554E0,2.207358181E-1
4.888000000E0,3.491895497E-1,-5.780819416E0,1.979047060E-1
4.909998438E0,3.442766368E-1,-6.603811741E0,3.604805768E-1
4.930000000E0,4.354286790E-1,-7.469765663E0,6.049764156E-1
4.951998438E0,6.538469195E-1,-8.572314262E0,7.500363588E-1
4.971998438E0,1.044082642E0,-9.504491806E0,8.338046670E-1
4.991998438E0,1.484989285E0,-1.060656261E1,9.392358065E-1
5.011998438E0,1.902844429E0,-1.177097797E1,8.927499652E-1
5.032000000E0,2.313066959E0,-1.257481670E1,8.002188206E-1
5.054000000E0,2.594558001E0,-1.285602093E1,5.026770234E-1
5.075998438E0,2.978396416E0,-1.296816540E1,2.220957279E-1
5.095998438E0,3.483324051E0,-1.380170155E1,6.678865105E-2
5.115998438E0,4.093395233E0,-1.573141766E1,-9.844958037E-2
5.135998438E0,3.879219770E0,-1.563857174E1,-8.798212558E-2
5.155998438E0,2.793650389E0,-1.093186760E1,-1.875234544E-1
5.175998438E0,2.010526180E0,-7.019578934E0,-2.656606212E-2
5.196003125E0,1.655935168E0,-7.635559559E0,6.697922945E-1
5.217998438E0,1.265919805E0,-1.158667183E1,3.830147982E-1
5.237998438E0,7.766981721E-1,-1.334201431E1,3.554910794E-2
5.257998438E0,-1.840374917E-1,-1.205718040E1,9.945514053E-2
5.277998438E0,-3.279682875E0,-1.549931431E1,9.629076958E0
5.297998438E0,-2.656998873E0,-9.307239532E0,-1.727359056E0
5.317998438E0,-1.915639043E0,-8.537321091E0,1.074996591E0
5.337998438E0,1.150873661E0,-9.153962135E0,-1.746579766E0
5.357998438E0,1.629417062E0,-8.043981552E0,-1.696052432E0
5.377998438E0,1.188424349E0,-6.411969185E0,-6.105022430E-1
5.398000000E0,8.499990702E-1,-5.363854408E0,-4.774038494E-2
5.420000000E0,6.607900858E-1,-4.681190968E0,-6.348273754E-1
5.441998438E0,4.937226772E-1,-4.501300335E0,-1.004348397E0
5.461998438E0,2.028367668E-1,-5.295897484E0,-1.695094816E-2
5.481998438E0,1.658894569E-1,-6.431371689E0,8.821483850E-1
5.502000000E0,7.101585269E-1,-7.612565517E0,1.216398120E0
5.522003125E0,1.313305736E0,-8.654885292E0,7.962923646E-1
5.544000000E0,1.829898000E0,-1.023364162E1,-9.249279648E-2
5.564018750E0,2.525087833E0,-1.172589970E1,-1.536110282E0
5.586000000E0,4.021598339E0,-1.242165470E1,-4.513664246E0
5.608000000E0,5.112894535E0,-1.310912609E1,-7.857741356E0
5.629998438E0,4.712076187E0,-1.107009983E1,-1.105655766E1
5.649998438E0,5.553063393E0,-1.006872940E1,-1.210163593E1
5.669998438E0,5.947024345E0,-9.727219582E0,-1.080191040E1
5.689998438E0,3.287210226E0,-1.036255455E1,-2.450034380E0
5.710000000E0,9.839498997E-1,-1.299718285E1,2.935626507E0
5.731998438E0,8.698613942E-2,-1.523108768E1,4.549758911E0
5.751998438E0,-9.228211045E-1,-1.348921967E1,4.523336411E0
5.771998438E0,-4.548197746E0,-1.274270821E1,5.003594398E0
5.791998438E0,1.687433384E-2,-1.096083736E1,-1.519130588E0
5.811998438E0,7.920210361E-1,-1.176589298E1,-2.131988704E-1
5.831998438E0,1.331195354E0,-1.119767189E1,4.083358645E-1
5.851998438E0,1.694309473E0,-9.576011658E0,6.178572178E-1
5.871998438E0,1.753226042E0,-8.874529839E0,6.099564433E-1
5.891998438E0,1.704135299E0,-8.417390823E0,4.267520607E-1
5.911998438E0,1.494527698E0,-7.297038555E0,5.295016617E-2
5.931998438E0,1.325123668E0,-6.173391819E0,-4.658159018E-1
5.951998438E0,1.198824763E0,-5.609604836E0,-7.689026594E-1
5.971998438E0,1.033854604E0,-5.433496952E0,-8.291982412E-1
5.991998438E0,9.206567407E-1,-5.694350243E0,-7.505247593E-1
6.011998438E0,9.768342972E-1,-6.509432316E0,-5.019491911E-1
6.031998438E0,1.107758760E0,-7.472131252E0,-2.180926204E-1
6.051998438E0,1.078942299E0,-8.077424049E0,-1.504899412E-1
6.071998438E0,9.859801531E-1,-8.528146744E0,-1.719324142E-1
6.091998438E0,1.108860135E0,-9.361032486E0,-1.233013868E-1
6.111998438E0,1.519044280E0,-1.026876926E1,-2.144821584E-1
6.132003125E0,1.873060584E0,-1.094561005E1,-2.868062258E-1
6.153998438E0,2.279778004E0,-1.154047394E1,-5.154907703E-1
6.173998438E0,2.620042086E0,-1.196789646E1,-9.235777259E-1
6.193998438E0,2.964356899E0,-1.215411758E1,-1.203469515E0
6.213998438E0,3.294153214E0,-1.192663860E1,-1.542603254E0
6.233998438E0,3.715274334E0,-1.205433559E1,-1.877437234E0
6.253998438E0,4.373909473E0,-1.350625706E1,-2.470327616E0
6.273998438E0,4.369533062E0,-1.290008259E1,-3.251460075E0
6.293998438E0,3.427596569E0,-8.735867500E0,-2.969116449E0
6.313998438E0,2.559880257E0,-7.302439690E0,-2.518470526E0
6.333998438E0,2.482576370E0,-1.150887966E1,-2.691111326E0
6.353998438E0,2.093911409E0,-1.397775173E1,-3.004838228E0
6.373998438E0,1.537182808E0,-1.401409531E1,-2.609258652E0
6.393998438E0,4.246452153E-1,-1.226561069E1,-1.296670914E0
6.413998438E0,-6.709702015E-1,-1.119049931E1,-4.922382832E-1
6.433998438E0,-1.864470243E0,-1.050049019E1,2.935099900E-1
6.453998438E0,-3.083616972E0,-9.322169304E0,1.871700644E0
6.473998438E0,-6.091902256E0,-1.207537651E1,7.396618366E0
6.493998438E0,-3.903008461E0,-5.135725498E0,1.388522148E0
6.513998438E0,-1.507063746E0,-4.128590107E0,1.553453803E-1
6.533998438E0,2.887407243E-1,-4.749195576E0,-6.306040287E-1
6.553998438E0,1.195769668E0,-5.910575390E0,-2.038902283E0
6.573998438E0,9.790273905E-1,-6.202725410E0,-1.845967770E0
6.593998438E0,5.492873788E-1,-6.171715736E0,-7.394827008E-1
6.613998438E0,5.517485738E-1,-6.792273521E0,3.710821271E-1
6.633998438E0,1.158017993E0,-7.981234550E0,6.071695685E-1
6.653998438E0,1.684857130E0,-9.145266533E0,4.449480176E-1
6.673998438E0,2.331502438E0,-1.033642960E1,-1.840853691E-1
6.693998438E0,2.989811897E0,-1.101941872E1,-1.133501172E0
6.713998438E0,4.595401764E0,-1.173291016E1,-3.218257189E0
6.734000000E0,5.927507401E0,-1.302152634E1,-7.906123161E0
6.755998438E0,5.179405212E0,-1.129086304E1,-1.182851601E1
6.775998438E0,5.079806805E0,-9.034098625E0,-1.225532532E1
6.796000000E0,5.297611713E0,-8.042496681E0,-1.004243088E1
6.816015625E0,3.297170162E0,-1.100352192E1,-3.798583031E0
6.837998438E0,8.448755145E-1,-1.375012112E1,2.179422617E0
6.857998438E0,-5.841660500E-1,-1.371827698E1,4.233676434E0
6.877998438E0,-1.462713599E0,-1.135146618E1,4.077105045E0
6.897998438E0,-3.979536533E0,-1.154252338E1,4.921865940E0
6.918009375E0,2.121454328E-1,-1.276170826E1,-5.946143866E-1
6.939998438E0,8.284225464E-1,-1.329901505E1,8.175336719E-1
6.959998438E0,1.058620214E0,-1.195103168E1,1.176175594E0
6.979998438E0,1.574858069E0,-1.109141731E1,1.261313319E0
7.000000000E0,1.641426444E0,-1.024285412E1,1.015821457E0
7.021998438E0,1.447256565E0,-8.552280426E0,4.754501581E-1
7.041998438E0,1.277603507E0,-6.988990784E0,9.032844752E-2
7.061998438E0,1.143595219E0,-6.255752087E0,-2.354170680E-1
7.081998438E0,1.148412347E0,-6.113938808E0,-6.121208072E-1
7.101998438E0,1.071855307E0,-5.990100861E0,-8.255494833E-1
7.121998438E0,1.023473382E0,-6.069014072E0,-7.108576894E-1
7.141998438E0,9.720458984E-1,-6.438678741E0,-3.804290891E-1
7.161998438E0,9.737793207E-1,-6.858085632E0,-2.243462801E-1
7.181998438E0,9.152554274E-1,-7.096423149E0,-6.754522026E-2
7.201998438E0,9.132443070E-1,-7.635703087E0,-4.922479019E-2
7.221998438E0,1.073598385E0,-8.690741539E0,-1.054693758E-1
7.241998438E0,1.358010411E0,-9.614539146E0,-2.613893747E-1
7.261998438E0,1.823615551E0,-1.062399197E1,-5.147150755E-1
7.281998438E0,2.298041105E0,-1.147136688E1,-9.274658561E-1
7.301998438E0,2.737961292E0,-1.240644646E1,-1.174308062E0
7.322017188E0,3.074595451E0,-1.287770176E1,-1.618796349E0
7.343998438E0,3.512926102E0,-1.300108051E1,-2.058821917E0
7.364017188E0,4.212885380E0,-1.416517925E1,-2.648848772E0
7.385998438E0,4.553379059E0,-1.445436001E1,-3.839293957E0
7.406004688E0,3.622637987E0,-1.076715660E1,-3.447956800E0
7.427998438E0,2.192619324E0,-7.435701370E0,-2.806090593E0
7.447998438E0,2.030991793E0,-1.029428196E1,-2.580528021E0
7.467998438E0,1.681668043E0,-1.374888515E1,-2.505896091E0
7.487998438E0,1.226434588E0,-1.439761829E1,-2.161197901E0
7.507998438E0,3.671651781E-1,-1.237046719E1,-1.437172294E0
7.527998438E0,-8.063001037E-1,-1.066765308E1,-1.770847291E-1
7.547998438E0,-2.073924541E0,-1.016821289E1,6.959273815E-1
7.567998438E0,-2.994562149E0,-9.664759636E0,1.964672327E0
7.587998438E0,-6.711943150E0,-1.012871742E1,9.630207062E0
7.607998438E0,-3.956025600E0,-6.434713840E0,2.074891806E0
7.627998438E0,-1.896696210E0,-4.027564526E0,1.097760677E0
7.647998438E0,-4.608838260E-1,-3.997531414E0,5.657115579E-1
7.667998438E0,1.103516221E0,-5.831729412E0,-6.619393229E-1
7.687998438E0,1.928740144E0,-7.456971169E0,-3.628096581E0
7.707998438E0,6.513473392E-1,-6.449490547E0,-2.481810331E0
7.727998438E0,2.879362702E-1,-6.236368656E0,-9.281649590E-1
7.747998438E0,6.096690893E-1,-7.312102318E0,3.422559202E-1
7.767998438E0,1.518584728E0,-8.640827179E0,2.491789460E-1
7.787998438E0,2.201324701E0,-9.862262726E0,-1.369770616E-1
7.807998438E0,3.048594475E0,-1.094127178E1,-1.074575186E0
7.827998438E0,4.655343056E0,-1.197004128E1,-3.307647228E0
7.847998438E0,5.578231335E0,-1.327003479E1,-8.812971115E0
7.867998438E0,5.059120655E0,-1.153580952E1,-1.316587830E1
7.887998438E0,5.151096344E0,-9.361865044E0,-1.348220921E1
7.907998438E0,5.115126133E0,-8.645730019E0,-1.183319855E1
7.927998438E0,1.782416105E0,-1.047570515E1,-2.026825905E0
7.947998438E0,5.183734298E-1,-1.349439144E1,1.961847186E0
7.967998438E0,-1.176012754E0,-1.332441235E1,3.510732889E0
7.987998438E0,-1.463316917E0,-1.239623833E1,3.096200705E0
8.007998438E0,-1.128320217E0,-1.313671684E1,3.194056749E0
8.027998438E0,-1.030435681E0,-1.406993866E1,3.273122787E0
8.047998438E0,-1.834025502E0,-1.382263565E1,2.348472357E0
8.067998438E0,-6.340708137E-1,-1.150371742E1,1.129115105E0
8.087998438E0,-6.451894343E-2,-1.032962990E1,9.112906456E-1
8.108000000E0,3.319800198E-1,-9.366375923E0,1.138174772E0
8.129998438E0,5.311009288E-1,-7.732993603E0,8.793136477E-1
8.149998438E0,6.436859369E-1,-6.180009365E0,4.277289212E-1
8.169998438E0,6.191980243E-1,-5.317311287E0,2.145779282E-1
8.189998438E0,7.112981677E-1,-5.096968174E0,-1.714248443E-3
8.209998438E0,8.562240005E-1,-5.249766350E0,-1.802259237E-1
8.229998438E0,9.248609543E-1,-5.721136570E0,-2.437776178E-1
8.250000000E0,1.036267996E0,-6.456817150E0,-2.576161027E-1
8.271998438E0,1.145481825E0,-7.326659679E0,-3.984526396E-1
8.291998438E0,1.158601999E0,-8.190889359E0,-3.228054345E-1
8.311998438E0,1.225285411E0,-8.982451439E0,-1.617618352E-1
8.331998438E0,1.522951603E0,-9.850167274E0,-9.481996298E-2
8.351998438E0,1.960132957E0,-1.099584103E1,-1.865562052E-1
8.371998438E0,2.468757153E0,-1.237230587E1,-4.648486376E-1
8.391998438E0,2.853218079E0,-1.305889511E1,-9.409595728E-1
8.411998438E0,3.022564650E0,-1.290219021E1,-1.142656684E0
8.431998438E0,3.370097399E0,-1.286629581E1,-1.331549644E0
8.451998438E0,4.104246140E0,-1.447132111E1,-1.874410868E0
8.471998438E0,4.597298145E0,-1.474686527E1,-2.934190035E0
8.491998438E0,3.864892721E0,-1.086977196E1,-3.065880537E0
8.511998438E0,2.563567638E0,-8.011678696E0,-2.464409113E0
8.532040625E0,1.978999257E0,-1.003764248E1,-2.312923431E0
8.553998438E0,1.515778661E0,-1.371846962E1,-2.958629847E0
8.573998438E0,6.613360047E-1,-1.470609665E1,-2.944264650E0
8.593998438E0,-3.894983232E-1,-1.305120468E1,-2.198231459E0
8.613998438E0,-1.472472429E0,-1.161081505E1,-1.413862348E0
8.633998438E0,-2.784006357E0,-1.086201477E1,-4.723089635E-1
8.653998438E0,-4.069223404E0,-9.681625366E0,1.061062217E0
8.673998438E0,-4.142667770E0,-8.810145378E0,1.789838076E0
8.693998438E0,-3.245905399E0,-7.468013287E0,2.602880478E0
8.713998438E0,-3.356728315E0,-4.453809261E0,1.730490685E0
8.733998438E0,-2.361592770E0,-3.225114346E0,1.005114675E0
8.753998438E0,-1.604450345E0,-3.381158590E0,3.665139675E-1
8.773998438E0,-1.009012341E0,-4.793067455E0,4.740519449E-2
8.793998438E0,-6.315425634E-1,-6.141673565E0,2.137160152E-1
8.813998438E0,-4.842703938E-1,-6.847445965E0,3.920744658E-1
8.833998438E0,-1.069346219E-1,-7.530080795E0,5.437423587E-1
8.853998438E0,4.584225714E-1,-8.672133446E0,6.757777929E-1
8.873998438E0,1.202387214E0,-1.030045891E1,4.931097627E-1
8.893998438E0,2.199840307E0,-1.201096249E1,3.732752204E-1
8.914000000E0,3.530556917E0,-1.288362122E1,-4.505121410E-1
8.936000000E0,6.917595863E0,-1.473810291E1,-5.749752045E0
8.957998438E0,6.516997814E0,-1.311095524E1,-1.176322079E1
8.978000000E0,7.464785576E0,-1.075154591E1,-1.512358761E1
8.999998438E0,6.542203903E0,-4.999131203E0,-1.214487457E1
9.019998438E0,2.722389460E0,-6.822028637E0,6.374897361E-1
9.039998438E0,2.538734913E0,-1.190755272E1,2.754768431E-1
9.059998438E0,2.254150391E0,-1.516653061E1,1.633286119E0
9.079998438E0,7.920306325E-1,-1.587399769E1,1.744673967E0
9.099998438E0,-2.907326818E-1,-1.500878143E1,4.916445315E-1
9.119998438E0,-9.128324986E-1,-1.530443668E1,1.776267767E0
9.139998438E0,-1.408173680E0,-1.448121357E1,3.167260647E0
9.159998438E0,-1.321168303E0,-1.230473137E1,2.992196798E0
9.179998438E0,-1.016214132E0,-1.053152847E1,4.029671192E0
9.199998438E0,-1.041745901E0,-9.100734711E0,1.375995636E0
9.219998438E0,-1.181069374E0,-6.616050720E0,6.987525821E-1
9.239998438E0,-1.107442737E0,-4.694282532E0,4.145416617E-1
9.259998438E0,-8.641344309E-1,-3.972564697E0,3.305434883E-1
9.279998438E0,-6.749159098E-1,-3.663875580E0,1.586302370E-1
9.299998438E0,-7.116045952E-1,-3.866875172E0,1.760600060E-1
9.320000000E0,-9.137039781E-1,-4.449039459E0,2.850153446E-1
9.341998438E0,-1.117517591E0,-5.252552509E0,4.369513988E-1
9.361998438E0,-1.050585270E0,-6.250092506E0,7.898949981E-1
9.381998438E0,-7.510227561E-1,-7.501962662E0,1.021577120E0
9.401998438E0,-1.674983501E-1,-8.891462326E0,1.283550620E0
9.422000000E0,4.986451864E-1,-1.093676186E1,1.376168013E0
9.443998438E0,1.178895354E0,-1.351612091E1,1.454084873E0
9.464017188E0,1.827139735E0,-1.497123051E1,1.141708612E0
9.486001563E0,2.471869707E0,-1.469112778E1,6.754522324E-1
9.507998438E0,3.056150675E0,-1.393026924E1,1.776689142E-1
9.527998438E0,4.014386654E0,-1.461885166E1,-5.571498871E-1
9.548000000E0,5.219120026E0,-1.640931320E1,-1.353585839E0
9.570017188E0,5.800758362E0,-1.288724136E1,-1.991631150E0
9.591998438E0,4.396194935E0,-7.144958496E0,-3.278447628E0
9.611998438E0,2.286443472E0,-6.702433586E0,-3.192313671E0
9.631998438E0,2.147627592E0,-1.130327511E1,-2.823817253E0
9.651998438E0,2.010985613E0,-1.426311207E1,-1.818654776E0
9.671998438E0,1.029640794E0,-1.464325428E1,-1.487852693E0
9.691998438E0,-1.749682575E-1,-1.285752487E1,-1.356564164E0
9.711998438E0,-1.430391788E0,-1.103388023E1,-1.007939816E0
9.732000000E0,-2.816500425E0,-9.842926979E0,-4.280066490E-1
9.753998438E0,-4.593218327E0,-8.423501015E0,9.780505300E-1
9.773998438E0,-4.477779865E0,-7.848586082E0,2.705218077E0
9.793998438E0,-8.819291115E0,-6.195332050E0,2.974699974E0
9.813998438E0,-4.160490513E0,-4.410205364E0,1.022850871E0
9.833998438E0,-1.838967204E0,-3.595592976E0,5.680482984E-1
9.853998438E0,-8.445307016E-1,-5.172299385E0,6.450362802E-1
9.874000000E0,-1.586302370E-1,-6.883052349E0,4.152599275E-1
9.894000000E0,-2.138596773E-1,-7.655708790E0,3.167816103E-1
9.914000000E0,-3.106045723E-1,-7.325098515E0,9.829634428E-1
9.936000000E0,6.510313600E-2,-7.754034042E0,1.155748129E0
9.957998438E0,6.442892551E-1,-8.888359070E0,1.072305441E0
9.977998438E0,1.465184450E0,-1.057958508E1,5.261593461E-1
9.997998438E0,3.639033556E0,-1.300432682E1,-1.252541065E0
1.001799844E1,6.765103817E0,-1.563151264E1,-7.104123116E0
1.003800000E1,4.736947060E0,-1.188893509E1,-8.766522408E0
1.005999844E1,5.319045067E0,-1.062172222E1,-9.409672737E0
1.007999844E1,5.996527195E0,-1.024274921E1,-1.131503487E1
1.009999844E1,2.312042236E0,-8.651667595E0,-6.670437455E-1
1.011999844E1,1.714803815E0,-1.023977089E1,9.917645454E-1
1.013999844E1,1.010678768E0,-1.192899513E1,1.963705063E0
1.015999844E1,8.945503831E-1,-1.393389988E1,6.569401622E-1
1.017999844E1,8.828954101E-1,-1.544848156E1,1.857517362E-1
1.019999844E1,5.577244759E-1,-1.547166729E1,9.565027356E-1
1.021999844E1,5.123591796E-2,-1.332492924E1,1.969221354E0
1.023999844E1,-1.050479934E-1,-1.122293568E1,2.580585480E0
1.025999844E1,-4.917690158E-2,-1.070271397E1,2.576879501E0
1.027999844E1,-3.029048145E-1,-1.044542313E1,1.986536145E0
1.029999844E1,-4.826998115E-1,-8.268451691E0,1.279921055E0
1.032000000E1,-9.235967994E-1,-5.923714638E0,9.901939034E-1
1.034200000E1,-5.905441642E-1,-5.215806484E0,8.234713078E-1
1.036401719E1,-1.701032370E-1,-5.358453274E0,8.989652991E-1
1.038599844E1,4.681143165E-2,-5.429924965E0,8.255303502E-1
1.040599844E1,9.113289416E-2,-5.528758049E0,7.169101834E-1
1.042599844E1,4.242525622E-2,-5.925965309E0,5.220700502E-1
1.044600000E1,1.297274381E-1,-6.595058441E0,5.906495452E-1
1.046800000E1,2.438733876E-1,-7.537100315E0,6.847895384E-1
1.048999844E1,5.165250897E-1,-8.955951691E0,7.670352459E-1
1.050999844E1,9.139242768E-1,-1.052737236E1,7.649282813E-1
1.052999844E1,1.360414147E0,-1.195881748E1,7.722736597E-1
1.054999844E1,1.737606168E0,-1.285558033E1,5.734783411E-1
1.057001719E1,1.998689175E0,-1.280993652E1,4.686027169E-1
1.059199844E1,2.299659491E0,-1.227122307E1,1.644050479E-1
1.061199844E1,2.841208696E0,-1.276190948E1,2.271618694E-2
1.063199844E1,3.583210230E0,-1.463444328E1,-2.936057448E-1
1.065199844E1,4.001161098E0,-1.448426914E1,-1.417903662E0
1.067199844E1,3.849895477E0,-1.024988365E1,-1.889369845E0
1.069199844E1,2.991066694E0,-7.696285725E0,-1.968378544E0
1.071199844E1,2.203680754E0,-1.038628578E1,-1.894100785E0
1.073199844E1,1.782071352E0,-1.367281628E1,-2.576122761E0
1.075199844E1,1.263764977E0,-1.343287849E1,-2.721125126E0
1.077199844E1,3.603369594E-1,-1.256954956E1,-2.229183912E0
1.079199844E1,-6.496235132E-1,-1.184235382E1,-1.703139305E0
1.081199844E1,-1.634128928E0,-1.114864826E1,-9.646909237E-1
1.083199844E1,-2.958409786E0,-1.031677818E1,8.527284265E-1
1.085199844E1,-3.773233175E0,-9.161307335E0,2.196421385E0
1.087199844E1,-5.575636387E0,-7.808468819E0,1.805639863E0
1.089199844E1,-3.617437840E0,-4.823818207E0,1.131365657E0
1.091199844E1,-1.438656569E0,-4.149937153E0,6.566337347E-1
1.093199844E1,-2.594069541E-1,-5.053527832E0,9.806649759E-3
1.095199844E1,5.852386355E-2,-6.123027325E0,-3.357532620E-1
1.097199844E1,-2.544557452E-1,-6.195092678E0,-6.924701333E-1
1.099199844E1,-6.143138409E-1,-6.323067188E0,-9.005071223E-2
1.101199844E1,-5.148491263E-1,-7.133141041E0,4.789839685E-1
1.103199844E1,6.234501489E-3,-8.129137993E0,9.028534293E-1
1.105200000E1,5.663532019E-1,-9.113863945E0,1.064385533E0
1.107399844E1,1.141497970E0,-1.033807755E1,5.202121735E-1
1.109399844E1,2.901102066E0,-1.195186424E1,-1.069566488E0
1.111399844E1,5.933971882E0,-1.496248722E1,-6.063727379E0
1.113399844E1,4.810611725E0,-1.249219704E1,-8.930314064E0
1.115399844E1,5.674449921E0,-1.144032955E1,-1.147989082E1
1.117399844E1,6.671874046E0,-9.998415947E0,-1.286366272E1
1.119399844E1,3.238952637E0,-7.626106739E0,-2.768185616E0
1.121399844E1,1.606241226E0,-1.056815052E1,2.266648293E0
1.123399844E1,1.322652698E-1,-1.269299412E1,4.158891201E0
1.125399844E1,-4.957146645E-1,-1.387148762E1,3.357810259E0
1.127399844E1,-6.216784120E-1,-1.416108036E1,1.857230067E0
1.129399844E1,-7.734420896E-1,-1.451909924E1,2.428678274E0
1.131399844E1,-2.836305380E0,-1.471628571E1,5.385038257E-1
1.133399844E1,-3.969682455E-1,-1.302188110E1,6.211996078E-1
1.135399844E1,1.977993548E-1,-1.138946724E1,1.315345645E0
1.137399844E1,4.633354843E-1,-1.030457687E1,1.782511830E0
1.139399844E1,7.484945059E-1,-8.793654442E0,1.661930323E0
1.141399844E1,5.302869081E-1,-6.853076458E0,1.194850326E0
1.143399844E1,4.052425921E-1,-5.679314613E0,7.426717877E-1
1.145399844E1,4.316362739E-1,-5.245791435E0,3.278907239E-1
1.147400000E1,5.132402182E-1,-5.259974957E0,-6.706637889E-2
1.149599844E1,4.204409719E-1,-5.082238674E0,-2.413068116E-1
1.151600000E1,3.362799883E-1,-5.077584267E0,-2.693285644E-1
1.153799844E1,3.579714596E-1,-5.843451500E0,-6.909666210E-2
1.155799844E1,4.073686302E-1,-6.938214302E0,1.459313780E-1
1.157799844E1,5.039123893E-1,-7.820286274E0,2.671450078E-1
1.159799844E1,6.658179164E-1,-8.813333511E0,3.579331636E-1
1.161800000E1,9.653708339E-1,-9.995600700E0,3.693199754E-1
1.163800000E1,1.349937081E0,-1.103580475E1,3.444011211E-1
1.165999844E1,1.714890003E0,-1.171630383E1,2.619735301E-1
1.167999844E1,2.073886156E0,-1.230595684E1,-2.806004370E-3
1.169999844E1,2.499029636E0,-1.357431889E1,-3.609785736E-1
1.171999844E1,3.006284237E0,-1.469017982E1,-6.902866960E-1
1.173999844E1,3.189028740E0,-1.529814434E1,-1.307492733E0
1.175999844E1,3.321495056E0,-1.479612827E1,-2.722159386E0
1.178000000E1,2.895643234E0,-1.050826645E1,-3.751379013E0
1.180199844E1,1.610177279E0,-6.467419147E0,-2.685863256E0
1.182199844E1,1.032695770E0,-1.006970596E1,-2.507514477E0
1.184199844E1,9.244012833E-1,-1.436497116E1,-2.718031645E0
1.186199844E1,6.501023769E-1,-1.527348423E1,-1.866988897E0
1.188199844E1,-3.618021905E-1,-1.312229347E1,-9.776770473E-1
1.190199844E1,-1.574934602E0,-1.136817646E1,-1.187524050E-1
1.192199844E1,-2.559689045E0,-1.092594910E1,1.064366341E0
1.194199844E1,-3.144860506E0,-1.000803089E1,2.691283941E0
1.196199844E1,-4.506864071E0,-1.049181366E1,8.275941849E0
1.198199844E1,-3.577990770E0,-5.908870697E0,1.402140260E0
1.200199844E1,-2.100021124E0,-4.273860931E0,5.499864221E-1
1.202199844E1,-8.577850461E-1,-4.603972912E0,3.468432128E-1
1.204199844E1,-3.940281272E-1,-5.599080086E0,2.550973892E-1
1.206200000E1,-2.863369584E-1,-6.113211155E0,-1.035923138E-1
1.208200000E1,-3.685251176E-1,-6.195312977E0,5.203079060E-2
1.210200000E1,-3.013629317E-1,-6.487482071E0,7.231255770E-1
1.212201250E1,-6.476794183E-2,-7.317810535E0,1.200730443E0
1.214399844E1,4.204026759E-1,-8.464068413E0,1.528343439E0
1.216401719E1,8.946653008E-1,-9.749438286E0,1.383637905E0
1.218599844E1,1.738199949E0,-1.104658794E1,5.009244680E-1
1.220599844E1,3.880273104E0,-1.297265625E1,-2.045050621E0
1.222600000E1,4.612898827E0,-1.385660553E1,-6.390766144E0
1.224601562E1,4.917335987E0,-1.237572479E1,-1.052120399E1
1.226799844E1,4.480806351E0,-1.065397739E1,-9.289656639E0
1.228799844E1,5.388419151E0,-9.599187851E0,-6.551531792E0
1.230799844E1,3.525260925E0,-9.466176033E0,-2.096343756E0
1.232800000E1,7.506780028E-1,-1.188076687E1,2.346279383E0
1.234999844E1,-2.194850922E0,-1.294540024E1,1.025484443E0
1.236999844E1,-4.516364574E0,-9.893780708E0,-2.617494583E0
1.238999844E1,-4.280497551E0,-1.369874096E1,4.925639153E0
1.241000000E1,-8.158481866E-2,-1.536058521E1,9.871772528E-1
1.243199844E1,1.221234426E-1,-1.546470451E1,1.456076860E0
1.245199844E1,4.545343816E-1,-1.337823391E1,1.145682931E0
1.247199844E1,8.556014895E-1,-1.174268723E1,1.347810984E0
1.249199844E1,1.311763883E0,-1.037484169E1,1.174461246E0
1.251199844E1,1.294803500E0,-8.488574982E0,1.054808617E0
1.253199844E1,1.214712620E0,-6.665122509E0,6.679727435E-1
1.255199844E1,1.010401011E0,-5.670973301E0,3.666767776E-1
1.257199844E1,9.755030870E-1,-5.295322895E0,-1.665885448E-1
1.259199844E1,8.096423745E-1,-5.046086311E0,-4.396807849E-1
1.261199844E1,5.809291005E-1,-4.806915760E0,-4.817421138E-1
1.263199844E1,4.285812676E-1,-4.676747322E0,-4.369322062E-1
1.265199844E1,2.688975930E-1,-4.996469021E0,-2.153728008E-1
1.267199844E1,1.675941199E-1,-5.904139519E0,1.368525624E-1
1.269199844E1,1.024047956E-1,-6.999592304E0,3.511240482E-1
1.271199844E1,1.715589166E-1,-8.119178772E0,4.829679430E-1
1.273200000E1,3.295953870E-1,-9.332453728E0,7.746583223E-1
1.275399844E1,8.960347772E-1,-1.102024174E1,8.899056315E-1
1.277399844E1,1.463891506E0,-1.271071148E1,8.953165412E-1
1.279399844E1,1.900028944E0,-1.361716557E1,5.865793824E-1
1.281399844E1,2.202962399E0,-1.337636662E1,1.894196570E-1
1.283399844E1,2.482882738E0,-1.323141193E1,-1.462091058E-1
1.285399844E1,3.126109123E0,-1.474850273E1,-3.786765039E-1
1.287399844E1,3.809711218E0,-1.659064865E1,-1.228311658E0
1.289399844E1,3.628020048E0,-1.432676888E1,-2.884112835E0
1.291399844E1,2.730740309E0,-8.754407883E0,-3.135973454E0
1.293399844E1,1.855630875E0,-6.427684784E0,-2.881191969E0
1.295399844E1,1.758608103E0,-1.045173454E1,-2.063026190E0
1.297399844E1,9.858556390E-1,-1.378608131E1,-2.074048996E0
1.299399844E1,1.649126112E-1,-1.420198345E1,-1.696464181E0
1.301399844E1,-7.482838035E-1,-1.264533997E1,-8.630713820E-1
1.303399844E1,-1.617570519E0,-1.124505806E1,-2.446491122E-1
1.305399844E1,-2.577157021E0,-1.074431515E1,5.695805550E-1
1.307399844E1,-5.095857620E0,-1.140252972E1,9.649964333E0
1.309399844E1,-3.672820330E0,-8.814521790E0,8.308742046E-1
1.311399844E1,-1.550906420E0,-6.199708462E0,3.015545011E-1
1.313399844E1,-2.278322354E-2,-5.697089195E0,-1.281012774E0
1.315399844E1,-1.120486413E-3,-5.609308243E0,-2.330956459E0
1.317399844E1,-7.090093493E-1,-4.872583389E0,-1.074776292E0
1.319399844E1,-1.148594379E0,-4.725598812E0,5.212464333E-1
1.321399844E1,-1.223695636E0,-5.317148209E0,1.435505867E0
1.323399844E1,-9.387760758E-1,-6.245121956E0,1.568307519E0
1.325399844E1,-4.875073433E-1,-7.141903877E0,1.697900772E0
1.327399844E1,7.669106871E-2,-7.918927193E0,1.451211810E0
1.329399844E1,6.880074143E-1,-8.652424812E0,1.098478913E0
1.331399844E1,1.315728784E0,-1.039583397E1,7.316775918E-1
1.333399844E1,4.408405304E0,-1.379954720E1,-2.764259100E0
1.335399844E1,6.318958759E0,-1.496384621E1,-1.124547005E1
1.337399844E1,5.207005978E0,-1.092717457E1,-1.085732174E1
1.339399844E1,4.891583920E0,-9.487809181E0,-9.105953217E0
1.341399844E1,5.132804871E0,-8.543517113E0,-7.310838223E0
1.343399844E1,2.763426065E0,-1.014381123E1,1.364043713E0
1.345399844E1,1.643025756E0,-1.245954990E1,2.514773607E0
1.347399844E1,5.381112099E-1,-1.275263882E1,1.838392615E0
1.349399844E1,4.703265727E-1,-1.433890247E1,1.227899909E0
1.351399844E1,8.217570782E-1,-1.724761009E1,1.191814423E0
1.353400469E1,2.127296180E-1,-1.610889816E1,1.984668732E0
1.355600000E1,1.541195512E-1,-1.312046528E1,3.063237190E0
1.357600000E1,5.611625910E-1,-1.232351208E1,1.250223398E0
1.359600000E1,5.261784792E-1,-1.074766731E1,1.951590419E0
1.361800000E1,5.797607303E-1,-9.192126274E0,1.717475772E0
1.363999844E1,6.466834545E-1,-7.304728508E0,1.544901729E0
1.365999844E1,5.904197097E-1,-6.085112572E0,1.187188864E0
1.367999844E1,6.581947803E-1,-5.537386417E0,6.907271743E-1
1.369999844E1,6.943088770E-1,-5.351471901E0,3.453683853E-1
1.371999844E1,6.200407743E-1,-5.143023014E0,2.757162601E-2
1.373999844E1,5.469123125E-1,-4.882007122E0,-1.462569833E-1
1.375999844E1,4.933875203E-1,-5.104265690E0,-9.707050771E-2
1.377999844E1,6.250973344E-1,-6.205885887E0,-1.325430069E-2
1.379999844E1,7.353263497E-1,-7.367456436E0,2.080082521E-2
1.381999844E1,7.004668117E-1,-7.919167042E0,4.720408097E-2
1.383999844E1,7.377780080E-1,-8.782899857E0,1.168466210E-1
1.385999844E1,9.232520461E-1,-1.051080418E1,1.073560044E-1
1.387999844E1,1.170237899E0,-1.223541546E1,-1.398213790E-3
1.389999844E1,1.566698551E0,-1.287805653E1,-1.564658731E-1
1.392000000E1,1.698302984E0,-1.259954357E1,-4.901793003E-1
1.394199844E1,2.046477318E0,-1.267226028E1,-8.813630939E-1
1.396199844E1,2.645698309E0,-1.436477947E1,-1.434787631E0
1.398199844E1,2.903917789E0,-1.384102345E1,-2.632443905E0
1.400199844E1,2.569466829E0,-8.191617966E0,-3.122785807E0
1.402199844E1,1.493570089E0,-5.575501919E0,-1.925187111E0
1.404199844E1,7.142669559E-1,-9.390029907E0,-1.822715282E0
1.406199844E1,1.167795807E-1,-1.408219624E1,-2.152914047E0
1.408199844E1,-1.439968646E-1,-1.569183731E1,-1.752919555E0
1.410200156E1,-5.073792338E-1,-1.454217052E1,-1.215421319E0
1.412400000E1,-1.789292216E0,-1.287606430E1,-5.397201180E-1
1.414400000E1,-3.044399977E0,-1.242948818E1,7.060787678E-1
1.416401719E1,-3.638573647E0,-1.188548756E1,1.368094683E0
1.418599844E1,-7.491744518E0,-1.089110851E1,3.329060793E0
1.420600000E1,-3.648686886E0,-8.380088806E0,9.022309780E-1
1.422600000E1,-1.620185018E0,-7.080698013E0,7.223785520E-1
1.424600000E1,-4.038539529E-1,-7.270031929E0,-6.468462348E-1
1.426600625E1,-2.106514424E-1,-6.782859325E0,-7.184520364E-1
1.428799844E1,-5.073313117E-1,-5.823503017E0,2.479435317E-2
1.430799844E1,-6.748201251E-1,-5.326552868E0,8.513014913E-1
1.432800000E1,-8.100350499E-1,-5.274014473E0,1.240167737E0
1.434999844E1,-5.619766116E-1,-5.857194424E0,1.167106271E0
1.436999844E1,-1.755045652E-1,-6.280316830E0,9.935171008E-1
1.438999844E1,2.767218351E-1,-7.513100624E0,7.597376704E-1
1.440999844E1,7.349816561E-1,-8.937650681E0,5.181531310E-1
1.442999844E1,1.631169677E0,-1.041239262E1,-6.420291215E-2
1.444999844E1,7.082106113E0,-1.480540848E1,-9.284358978E0
1.446999844E1,5.585672379E0,-1.263389587E1,-1.105048561E1
1.449000000E1,4.344776630E0,-1.029536438E1,-7.677630424E0
1.451199844E1,5.443897247E0,-8.576807022E0,-6.511682510E0
1.453200000E1,3.874469519E0,-9.190746307E0,-9.964188933E-1
1.455399844E1,6.768120527E-1,-1.313507938E1,1.713874936E0
1.457399844E1,-1.620529771E0,-1.473201180E1,1.699701309E0
1.459399844E1,-2.004329920E0,-1.426110077E1,1.073895216E0
1.461399844E1,-3.216054440E0,-1.971009445E1,1.369008446E1
1.463399844E1,-1.731630325E0,-1.713403702E1,1.778891981E-1
1.465399844E1,-7.343687415E-1,-1.363806248E1,9.609942436E-1
1.467399844E1,-2.695966661E-1,-1.203414822E1,1.909605742E0
1.469399844E1,3.853802681E-1,-1.191869068E1,2.457925797E0
1.471399844E1,5.679046512E-1,-1.015101242E1,1.978635430E0
1.473399844E1,4.069089293E-1,-7.430021763E0,1.377776861E0
1.475399844E1,3.184863031E-1,-5.465253830E0,8.022394776E-1
1.477399844E1,4.310233593E-1,-4.773492336E0,4.080772996E-1
1.479399844E1,3.852653503E-1,-4.262722492E0,3.211103380E-2
1.481399844E1,3.732560277E-1,-4.172787189E0,-2.458653599E-1
1.483399844E1,2.915180027E-1,-4.310520649E0,-4.291654229E-1
1.485399844E1,7.142382860E-2,-4.673318863E0,-5.665255785E-1
1.487400000E1,4.827668518E-2,-5.539387703E0,-4.510675967E-1
1.489400000E1,-2.983175218E-2,-6.862107754E0,-4.898536578E-2
1.491599844E1,1.723825186E-2,-8.203387260E0,2.867487371E-1
1.493600625E1,2.449172586E-1,-9.429113388E0,4.682675600E-1
1.495799844E1,8.999804258E-1,-1.115842533E1,4.854196310E-1
1.497799844E1,1.506766796E0,-1.255427456E1,3.871711493E-1
1.499799844E1,1.879467487E0,-1.302756023E1,2.176137865E-1
1.501799844E1,2.331760883E0,-1.289984417E1,-1.749395281E-1
1.503800000E1,2.773998737E0,-1.305624199E1,-6.137105227E-1
1.505999844E1,3.642902374E0,-1.441302776E1,-1.658731699E0
1.507999844E1,4.786775589E0,-1.594963551E1,-3.619046688E0
1.509999844E1,4.045454025E0,-1.183794785E1,-4.821309090E0
1.511999844E1,2.455024004E0,-7.609864712E0,-4.253691673E0
1.514000000E1,1.849942088E0,-1.166503906E1,-3.653915882E0
1.516199844E1,2.153603554E0,-1.626307487E1,-3.155356646E0
1.518199844E1,1.280869126E0,-1.599264431E1,-1.808302283E0
1.520199844E1,3.049255349E-2,-1.390511131E1,-1.111781120E0
1.522199844E1,-1.211734295E0,-1.247537136E1,-8.715372682E-1
1.524199844E1,-2.242054939E0,-1.133201599E1,-8.727343380E-2
1.526199844E1,-3.497890472E0,-9.570715904E0,9.143168926E-1
1.528199844E1,-4.174846172E0,-7.860661983E0,2.217423439E0
1.530202500E1,-7.627869129E0,-5.606272697E0,2.328801870E0
1.532399844E1,-3.056667805E0,-2.830415726E0,1.536589146E0
1.534399844E1,-1.778010726E0,-1.341394663E0,8.160876036E-1
1.536401719E1,-1.331846595E0,-1.859614730E0,3.494768441E-1
1.538599844E1,-1.073943138E0,-3.680433750E0,5.185362101E-1
1.540600156E1,-4.537491202E-1,-5.493189335E0,7.251940966E-1
1.542600625E1,1.615511477E-1,-7.151001453E0,9.106106758E-1
1.544601094E1,6.840808988E-1,-8.677860260E0,1.118532658E0
1.546799844E1,1.239200473E0,-1.056417561E1,1.304657936E0
1.548799844E1,1.865360856E0,-1.227350235E1,1.214453936E0
1.550799844E1,2.585938931E0,-1.313907242E1,1.102663994E0
1.552799844E1,3.221446276E0,-1.287823868E1,2.019078285E-1
1.554799844E1,5.048097610E0,-1.334977150E1,-2.157980204E0
1.556799844E1,1.043384457E1,-1.518552113E1,-1.728291702E1
1.558799844E1,6.905414104E0,-1.148517704E1,-1.173412609E1
1.560799844E1,5.799044132E0,-7.857923508E0,-6.673511505E0
1.562799844E1,4.164656162E0,-8.518541336E0,-2.012316942E0
1.564799844E1,2.523584366E0,-1.042955494E1,3.598006442E-2
1.566799844E1,1.018905163E0,-1.129736614E1,1.730260849E0
1.568800000E1,1.832713485E-1,-1.288145638E1,1.476935148E0
1.571000000E1,2.233790159E-1,-1.539899826E1,1.235465527E0
1.573199844E1,-3.509133458E-1,-1.517417240E1,2.331923723E0
1.575199844E1,-7.476708889E-1,-1.282614040E1,2.061321497E0
1.577199844E1,-1.249208212E0,-1.224254036E1,5.730167389E0
1.579199844E1,-6.149554849E-1,-1.224396706E1,2.416333675E0
1.581199844E1,-6.035399437E-1,-9.340720177E0,2.298462391E0
1.583199844E1,-6.174837351E-1,-7.112503052E0,1.606088042E0
1.585199844E1,-3.225947320E-1,-6.184375763E0,1.428600907E0
1.587199844E1,-7.185478508E-2,-5.898048878E0,8.658199310E-1
1.589199844E1,8.757989854E-2,-5.638431072E0,3.500227034E-1
1.591199844E1,-1.722292900E-1,-5.526679039E0,3.342305776E-3
1.593200000E1,-3.877936304E-1,-5.504173756E0,-9.519346058E-2
1.595200000E1,-6.319351792E-1,-5.402276993E0,9.643844329E-3
1.597200000E1,-8.219581842E-1,-5.626230240E0,2.445150316E-1
1.599399844E1,-7.658860087E-1,-6.787734509E0,6.876051426E-1
1.601399844E1,-5.423346162E-1,-7.747895718E0,6.753755212E-1
1.603399844E1,5.504748598E-2,-9.186561584E0,8.227913976E-1
1.605399844E1,1.008667588E0,-1.101178646E1,5.290610790E-1
1.607399844E1,1.888622880E0,-1.309166718E1,2.294698656E-1
1.609399844E1,2.447429657E0,-1.410519981E1,-2.430785000E-1
1.611399844E1,2.827868223E0,-1.365003300E1,-5.811397433E-1
1.613399844E1,3.466200590E0,-1.316054440E1,-1.767074108E0
1.615399844E1,5.200656414E0,-1.576394176E1,-2.984075546E0
1.617399844E1,6.497097015E0,-1.582716656E1,-4.689867496E0
1.619399844E1,4.449681282E0,-9.501197815E0,-5.169272900E0
1.621399844E1,2.026988745E0,-6.054045200E0,-3.595008850E0
1.623399844E1,1.751569271E0,-9.669951439E0,-2.783192396E0
1.625399844E1,1.901858091E0,-1.489875317E1,-2.466573715E0
1.627399844E1,1.179594517E0,-1.614777946E1,-1.531206965E0
1.629399844E1,6.138733402E-2,-1.409477043E1,-8.667776585E-1
1.631399844E1,-1.070342302E0,-1.225212574E1,-7.390613556E-1
1.633399844E1,-2.623594999E0,-1.111077118E1,-3.592930734E-1
1.635399844E1,-3.943212032E0,-1.001548195E1,6.725887656E-1
1.637399844E1,-4.458367825E0,-8.492673874E0,2.191422462E0
1.639399844E1,-7.957301617E0,-7.956707954E0,1.009906864E1
1.641400000E1,-4.375259876E0,-4.374608994E0,1.137810826E0
1.643600000E1,-2.322452068E0,-3.154504299E0,3.889045417E-1
1.645799844E1,-1.181634307E0,-4.239585400E0,7.594503760E-1
1.647800000E1,-4.382921457E-1,-5.534446239E0,6.184510589E-1
1.649999844E1,-3.887512982E-1,-6.291463852E0,3.746351004E-1
1.651999844E1,-5.027632117E-1,-6.408712864E0,6.143904328E-1
1.653999844E1,-3.702106178E-1,-6.689332485E0,5.960029960E-1
1.655999844E1,1.154867113E-1,-7.815431118E0,7.237575650E-1
1.657999844E1,8.097668886E-1,-9.606638908E0,5.068429112E-1
1.659999844E1,1.829256296E0,-1.179858780E1,1.154962927E-2
1.661999844E1,5.802778721E0,-1.488597775E1,-4.026817322E0
1.663999844E1,5.785080910E0,-1.414565277E1,-9.713688850E0
1.665999844E1,6.188570976E0,-1.217459202E1,-1.219323826E1
1.667999844E1,6.853958130E0,-1.076570034E1,-1.316633797E1
1.669999844E1,5.270662785E0,-7.591333389E0,-9.787219048E0
1.671999844E1,1.422098398E0,-9.777862549E0,6.025918722E-1
1.673999844E1,7.182126641E-1,-1.278969097E1,1.162279487E0
1.675999844E1,-4.882639050E-1,-1.333412266E1,3.045587301E0
1.677999844E1,-4.491522610E-1,-1.505223179E1,2.849253178E0
1.679999844E1,-5.499098301E-1,-1.614301109E1,3.159053564E0
1.681999844E1,-1.447208762E0,-1.404933929E1,2.859050274E0
1.683999844E1,-1.368621469E0,-1.227157593E1,2.211332560E0
1.685999844E1,-1.510023117E0,-1.102106571E1,4.633642137E-1
1.687999844E1,-1.017152667E0,-1.006201553E1,2.137304068E0
1.689999844E1,-5.197141767E-1,-9.113039970E0,2.136279106E0
1.691999844E1,-1.128147840E-1,-7.734985828E0,1.842596769E0
1.693999844E1,1.002787501E-1,-6.366727829E0,1.318927407E0
1.695999844E1,1.628536135E-1,-5.700795174E0,9.713754654E-1
1.697999844E1,2.969767749E-1,-5.404843330E0,4.608168006E-1
1.699999844E1,4.279491901E-1,-5.533555508E0,1.878586411E-1
1.701999844E1,4.784189463E-1,-5.594540596E0,-6.112875789E-2
1.703999844E1,5.520645976E-1,-5.869413853E0,-2.393627167E-1
1.705999844E1,6.591812372E-1,-6.582311630E0,-3.462111652E-1
1.707999844E1,7.320032120E-1,-7.710277557E0,-2.990453839E-1
1.709999844E1,8.258559704E-1,-8.882392883E0,-2.708416879E-1
1.711999844E1,9.045772552E-1,-9.683099747E0,-2.587461472E-1
1.713999844E1,1.220094681E0,-1.050865936E1,-2.611116469E-1
1.715999844E1,1.722360015E0,-1.168838787E1,-2.973885834E-1
1.717999844E1,2.143481016E0,-1.267489433E1,-5.414918065E-1
1.719999844E1,2.419407845E0,-1.291678524E1,-9.247939587E-1
1.721999844E1,3.025025845E0,-1.271553802E1,-1.529569268E0
1.723999844E1,4.074433327E0,-1.368793869E1,-2.446826220E0
1.725999844E1,5.327079773E0,-1.517648983E1,-3.405330658E0
1.727999844E1,4.314763069E0,-1.145798874E1,-3.791582346E0
1.729999844E1,3.089391708E0,-7.057570457E0,-2.941640615E0
1.731999844E1,2.676593065E0,-8.633520126E0,-2.357158661E0
1.733999844E1,2.591541290E0,-1.373972034E1,-2.464179516E0
1.735999844E1,1.995413899E0,-1.559496784E1,-1.676582932E0
1.737999844E1,1.053659439E0,-1.436361122E1,-8.923189640E-1
1.739999844E1,9.187030792E-2,-1.293035507E1,-4.875264764E-1
1.742000000E1,-9.177549481E-1,-1.198381233E1,-2.981260121E-1
1.744199844E1,-2.462244987E0,-1.068964195E1,-1.931258887E-1
1.746199844E1,-4.280851364E0,-8.526355743E0,8.014733791E-1
1.748199844E1,-4.874987125E0,-7.141147137E0,1.957346082E0
1.750201250E1,-8.008346558E0,-5.313049793E0,2.625462294E0
1.752399844E1,-3.550859690E0,-3.391626120E0,6.639025211E-1
1.754399844E1,-1.897165418E0,-3.145511627E0,3.806110322E-1
1.756401719E1,-1.170458078E0,-4.575951576E0,5.127134919E-1
1.758600000E1,-5.075228810E-1,-6.052426815E0,4.448426962E-1
1.760601562E1,-2.311458141E-1,-6.648707390E0,6.031472683E-1
1.762799844E1,-1.334815323E-1,-7.345056534E0,7.815918922E-1
1.764799844E1,2.298337817E-1,-8.318327904E0,7.901440263E-1
1.766799844E1,6.650038958E-1,-9.617479324E0,6.085485816E-1
1.768800000E1,1.497927547E0,-1.121742916E1,3.357436955E-1
1.770999844E1,2.893373489E0,-1.234697437E1,-1.399267316E-1
1.772999844E1,5.977651596E0,-1.410900211E1,-3.949963570E0
1.774999844E1,7.634678364E0,-1.486440182E1,-9.845283508E0
1.776999844E1,6.277788639E0,-1.147502518E1,-9.885496140E0
1.778999844E1,6.837447166E0,-1.043214035E1,-1.026050472E1
1.780999844E1,4.834410191E0,-7.604971409E0,-3.642318010E0
1.782999844E1,3.108564377E0,-9.297853470E0,8.649771661E-2
1.784999844E1,2.203757286E0,-1.059628582E1,2.158210039E0
1.786999844E1,1.405156970E0,-1.271590233E1,2.112279654E0
1.788999844E1,1.031182647E0,-1.508736801E1,1.396193147E0
1.791199844E1,4.447277486E-1,-1.613133621E1,1.873932123E0
1.793199844E1,-6.088072062E-1,-1.410859966E1,2.670521259E0
1.795199844E1,-4.162338734E0,-1.295137691E1,1.688726187E0
1.797199844E1,-5.060959458E-1,-1.137010288E1,1.265373945E0
1.799199844E1,-2.958084047E-1,-1.048510933E1,2.180188656E0
1.801199844E1,-1.319205165E-1,-9.051652908E0,1.879572868E0
1.803199844E1,4.941632599E-2,-7.658878803E0,1.691359878E0
1.805199844E1,2.348233014E-2,-6.499146461E0,1.249342322E0
1.807199844E1,1.593580693E-1,-5.681498051E0,5.007616282E-1
1.809199844E1,2.457695901E-1,-5.253625393E0,-4.422569275E-2
1.811199844E1,9.657251835E-2,-4.933894157E0,-2.774879634E-1
1.813199844E1,6.214389950E-2,-5.019300461E0,-3.418920040E-1
1.815199844E1,9.171707928E-2,-5.604883671E0,-3.530681431E-1
1.817199844E1,1.233684272E-1,-6.372158051E0,-2.309542745E-1
1.819199844E1,2.373898923E-1,-7.230422020E0,-2.796427533E-2
1.821199844E1,6.562123895E-1,-8.420502663E0,6.698976457E-2
1.823199844E1,1.426455855E0,-9.868908882E0,1.678814366E-2
1.825199844E1,2.138175249E0,-1.143478394E1,-9.791327268E-2
1.827199844E1,2.748198748E0,-1.259190178E1,-3.953018486E-1
1.829199844E1,3.108957052E0,-1.264946747E1,-9.155523181E-1
1.831199844E1,3.441741467E0,-1.202046299E1,-1.355482101E0
1.833199844E1,4.501635075E0,-1.279569626E1,-1.965476751E0
1.835199844E1,5.911523342E0,-1.495812035E1,-2.928597212E0
1.837199844E1,5.350485325E0,-1.382888985E1,-3.838412762E0
1.839199844E1,3.593725681E0,-8.115855217E0,-3.584790230E0
1.841199844E1,2.952261448E0,-7.944823265E0,-2.986421824E0
1.843199844E1,3.258058310E0,-1.317022514E1,-3.430699348E0
1.845199844E1,2.921261311E0,-1.537292004E1,-2.235092640E0
1.847199844E1,1.925723553E0,-1.430568027E1,-1.386989713E0
1.849199844E1,1.048104882E0,-1.319623661E1,-1.294678926E0
1.851199844E1,-1.915361281E-5,-1.275752258E1,-9.154757261E-1
1.853199844E1,-1.180504322E0,-1.243330956E1,6.517974734E-1
1.855199844E1,-2.478429794E0,-1.148330975E1,2.064309359E0
1.857199844E1,-8.192584991E0,-1.143026352E1,3.981701136E0
1.859199844E1,-5.477464199E0,-6.296664238E0,1.029746056E0
1.861199844E1,-3.644309998E0,-3.626736879E0,1.528937221E0
1.863199844E1,-2.234661579E0,-3.780837059E0,1.702468991E0
1.865199844E1,-1.086287618E0,-4.620981216E0,1.649097443E0
1.867199844E1,-4.860037863E-1,-5.653954983E0,8.991568089E-1
1.869199844E1,-4.311382771E-1,-6.526909828E0,4.269149005E-1
1.871199844E1,-3.429645896E-1,-6.596724510E0,2.104311883E-1
1.873199844E1,-1.613212973E-1,-6.462591648E0,1.200835779E-1
1.875199844E1,1.520318091E-1,-6.878206253E0,3.598006442E-2
1.877199844E1,7.490690947E-1,-8.397049904E0,1.922448277E-1
1.879199844E1,1.846485019E0,-1.008420467E1,-2.020610571E-1
1.881199844E1,3.052003860E0,-1.173230648E1,-5.747807622E-1
1.883199844E1,7.155827999E0,-1.430444527E1,-6.535825729E0
1.885199844E1,7.322158337E0,-1.364609718E1,-1.258358860E1
1.887199844E1,6.075420856E0,-1.040965366E1,-1.130769062E1
1.889199844E1,5.963372231E0,-6.411538124E0,-7.518454075E0
1.891199844E1,4.761990547E0,-6.218795300E0,-4.032362461E0
1.893199844E1,4.240409374E0,-1.214702034E1,1.019565940E0
1.895199844E1,1.691398144E0,-1.468921280E1,3.240944624E0
1.897199844E1,-1.235886887E-1,-1.382463741E1,1.635335565E0
1.899199844E1,-7.600345612E-1,-1.312423801E1,1.211600065E0
1.901199844E1,-2.032954931E0,-1.696596527E1,1.317559910E1
1.903199844E1,-9.515227675E-1,-1.551683140E1,-2.871509790E-1
1.905199844E1,1.067909673E-1,-1.346126461E1,6.899610758E-1
1.907199844E1,2.903591990E-1,-1.137041759E1,1.555924654E0
1.909199844E1,9.056499004E-1,-1.086750221E1,2.227095842E0
1.911199844E1,9.368894100E-1,-1.014733601E1,2.037752867E0
1.913199844E1,8.627649546E-1,-8.265598297E0,1.569226861E0
1.915199844E1,7.327693701E-1,-6.306068897E0,9.418214560E-1
1.917199844E1,7.230871916E-1,-5.799953461E0,3.595420420E-1
1.919199844E1,8.741039038E-1,-5.947129726E0,-1.543685496E-1
1.921199844E1,9.239224195E-1,-5.890080929E0,-2.614468336E-1
1.923199844E1,8.275222778E-1,-5.464889526E0,-3.369790912E-1
1.925199844E1,8.150054216E-1,-5.284884453E0,-3.039678335E-1
1.927199844E1,8.736824989E-1,-5.909215450E0,-4.262540936E-1
1.929199844E1,9.628713131E-1,-6.835800171E0,-5.002253652E-1
1.931200000E1,1.046792865E0,-7.833253384E0,-4.592365921E-1
1.933399844E1,1.220056415E0,-9.035419464E0,-4.195120335E-1
1.935399844E1,1.552974939E0,-1.003582287E1,-4.542758167E-1
1.937399844E1,1.970437646E0,-1.094350338E1,-5.001103878E-1
1.939399844E1,2.294210196E0,-1.179584885E1,-7.345506549E-1
1.941399844E1,2.489960194E0,-1.182835293E1,-1.135790110E0
1.943399844E1,2.717007160E0,-1.166982746E1,-1.542708635E0
1.945399844E1,3.305137873E0,-1.266796112E1,-2.385333538E0
1.947399844E1,4.076061249E0,-1.410844612E1,-3.680491447E0
1.949399844E1,3.710313559E0,-1.310311127E1,-4.807413578E0
1.951399844E1,2.392315149E0,-9.779796600E0,-4.142333031E0
1.953399844E1,1.919450641E0,-1.045689678E1,-3.892330408E0
1.955399844E1,2.330085039E0,-1.365321255E1,-3.166800976E0
1.957399844E1,1.798735023E0,-1.441516304E1,-1.864460588E0
1.959399844E1,1.028730989E0,-1.454074287E1,-7.788338065E-1
1.961399844E1,2.515922785E-1,-1.354564667E1,-1.669524759E-1
1.963399844E1,-7.784507275E-1,-1.278747940E1,6.610007882E-1
1.965399844E1,-2.142322063E0,-1.208759689E1,2.302436829E0
1.967399844E1,-5.522484779E0,-1.463130188E1,9.981062889E0
1.969399844E1,-4.868944168E0,-7.706600189E0,7.596227527E-1
1.971399844E1,-2.949225664E0,-4.999035835E0,1.109080434E0
1.973399844E1,-1.417549372E0,-4.589808941E0,1.086526990E0
1.975399844E1,-4.947378635E-1,-4.700067043E0,7.236617804E-1
1.977399844E1,-3.141671419E-1,-4.551664352E0,5.121580958E-1
1.979399844E1,-4.195981920E-1,-4.608263493E0,1.466975212E-1
1.981399844E1,-4.612381458E-1,-4.940530777E0,1.576629579E-1
1.983399844E1,-3.013725281E-1,-5.508329868E0,1.317960173E-1
1.985399844E1,2.247676551E-1,-6.770601273E0,1.655734032E-1
1.987400000E1,1.199341774E0,-8.304777145E0,2.034496814E-1
1.989599844E1,2.255950928E0,-1.000978374E1,7.369352877E-2
1.991599844E1,3.065152884E0,-1.122039700E1,-2.072325349E-1
1.993600000E1,4.215806007E0,-1.197473335E1,-8.828379512E-1
1.995600000E1,7.206863403E0,-1.329326820E1,-5.989449501E0
1.997600625E1,6.964579582E0,-1.155257893E1,-9.667547226E0
1.999799844E1,6.413913250E0,-8.928447723E0,-1.045795918E1
2.001799844E1,5.862519264E0,-7.249068260E0,-7.294739723E0
2.003800000E1,4.921271801E0,-9.781683922E0,-1.673010707E0
2.005999844E1,4.657000065E0,-1.454620171E1,1.155594945E0
2.007999844E1,2.322145700E0,-1.444183445E1,2.026777983E0
2.009999844E1,-3.193864971E-2,-1.204785252E1,1.051370621E0
2.011999844E1,2.091000080E-1,-1.270787716E1,7.179732323E-1
2.014000000E1,2.394489050E-1,-1.495509338E1,2.051256418E0
2.016199844E1,-9.762213826E-1,-1.490040970E1,8.194203377E-1
2.018199844E1,2.029708475E-1,-1.125634861E1,4.966053069E-1
2.020199844E1,1.093824625E0,-1.135343838E1,1.443052411E0
2.022199844E1,1.660876870E0,-1.185738945E1,1.698274255E0
2.024199844E1,1.401939154E0,-9.824318886E0,1.552965403E0
2.026199844E1,1.017890096E0,-7.473242283E0,1.010841608E0
2.028199844E1,1.093010545E0,-6.820946693E0,5.130869746E-1
2.030199844E1,1.063178778E0,-6.601254463E0,1.703713983E-1
2.032199844E1,1.025005579E0,-6.108987808E0,-2.769708335E-1
2.034199844E1,1.060583472E0,-6.015345573E0,-5.647634268E-1
2.036199844E1,1.021328092E0,-5.894218445E0,-5.286301970E-1
2.038199844E1,8.421843648E-1,-5.640834808E0,-5.987610817E-1
2.040199844E1,6.805949211E-1,-5.706570148E0,-5.612870455E-1
2.042199844E1,5.985408425E-1,-6.471853256E0,-5.142649412E-1
2.044199844E1,5.653859377E-1,-7.274034500E0,-5.446138382E-1
2.046199844E1,5.544683933E-1,-7.952628613E0,-5.093232989E-1
2.048199844E1,5.815994740E-1,-8.936223984E0,-4.663234651E-1
2.050199844E1,7.148702741E-1,-1.024778652E1,-5.362054110E-1
2.052202969E1,1.503347993E0,-1.183141708E1,-7.076206803E-1
2.054399844E1,2.164396763E0,-1.279903793E1,-9.225530028E-1
2.056401875E1,2.734877348E0,-1.276518440E1,-1.422155738E0
2.058600000E1,3.669477940E0,-1.370914173E1,-2.567436457E0
2.060601250E1,4.725809574E0,-1.640742493E1,-4.043471336E0
2.062800313E1,3.796705723E0,-1.359684372E1,-4.990109921E0
2.065000000E1,2.045644283E0,-8.114246368E0,-3.283609390E0
2.067199844E1,1.892482400E0,-1.062568760E1,-2.373659372E0
2.069199844E1,1.566468716E0,-1.402620125E1,-1.614218593E0
2.071199844E1,1.199064136E0,-1.517480469E1,-8.443583250E-1
2.073199844E1,3.556826115E-1,-1.356745243E1,-6.936481595E-1
2.075199844E1,-8.498075604E-1,-1.174847221E1,3.384347856E-1
2.077199844E1,-1.956436276E0,-1.066836166E1,9.762597084E-1
2.079199844E1,-2.624322653E0,-9.612920761E0,2.078617096E0
2.081199844E1,-3.811626434E0,-9.930583954E0,7.081876278E0
2.083199844E1,-2.485286713E0,-5.811110973E0,9.463896751E-1
2.085199844E1,-1.056925178E0,-4.791736126E0,1.963628531E-1
2.087199844E1,-2.196536362E-1,-5.013381958E0,-2.191652209E-1
2.089199844E1,-2.055374235E-1,-5.176426888E0,-3.888854086E-1
2.091199844E1,-3.087466657E-1,-5.197409630E0,7.291781157E-2
2.093200000E1,-4.290313721E-1,-5.568980217E0,4.473326504E-1
2.095200000E1,-3.306392431E-1,-6.161075592E0,9.119131565E-1
2.097399844E1,-1.289325505E-1,-6.834765911E0,1.219615936E0
2.099399844E1,3.398042619E-1,-7.703487873E0,1.353729486E0
2.101399844E1,9.831645489E-1,-8.767365456E0,1.228196740E0
2.103399844E1,1.533323407E0,-9.836462975E0,9.026715159E-1
2.105399844E1,2.466908932E0,-1.100102139E1,5.113440156E-1
2.107399844E1,4.418201923E0,-1.291390228E1,-1.454870224E0
2.109399844E1,7.375960827E0,-1.510446262E1,-1.143594265E1
2.111399844E1,6.331083298E0,-1.190777206E1,-1.397903538E1
2.113399844E1,5.676422596E0,-9.919503212E0,-1.141078377E1
2.115399844E1,3.971673965E0,-7.644695759E0,-5.834439754E0
2.117399844E1,2.418881178E0,-1.058017826E1,1.081824780E0
2.119400000E1,5.150406361E-1,-1.339293480E1,4.557085514E0
2.121599844E1,-2.328887880E-1,-1.372698307E1,3.511757612E0
2.123600625E1,-7.536371946E-1,-1.190284061E1,1.967803955E0
2.125800000E1,-1.418861270E0,-1.168538952E1,-1.599202275E0
2.128000000E1,5.351806879E-1,-1.361063480E1,3.778241873E-1
2.130199844E1,7.403255105E-1,-1.343384647E1,8.939949274E-1
2.132199844E1,1.189056277E0,-1.273875237E1,1.433111668E0
2.134199844E1,1.631772995E0,-1.243126106E1,1.814661264E0
2.136199844E1,1.783086538E0,-1.158795547E1,1.185225606E0
2.138199844E1,1.595773697E0,-9.296139717E0,7.270041704E-1
2.140199844E1,1.290599227E0,-7.329493999E0,1.881842464E-1
2.142199844E1,1.316916227E0,-6.705287457E0,-2.448980957E-1
2.144199844E1,1.314617753E0,-6.417284012E0,-6.387826204E-1
2.146199844E1,1.172450185E0,-5.999525070E0,-8.246588111E-1
2.148199844E1,9.938809872E-1,-5.446961880E0,-7.414650917E-1
2.150199844E1,7.922030687E-1,-5.126646519E0,-7.299154401E-1
2.152200000E1,6.586544514E-1,-5.359248161E0,-6.966265440E-1
2.154200000E1,5.327385664E-1,-6.092630386E0,-6.144287586E-1
2.156401875E1,3.638037443E-1,-6.945952415E0,-4.462121725E-1
2.158600000E1,3.695019186E-1,-8.158337593E0,-2.706118226E-1
2.160800000E1,7.348954678E-1,-9.535942078E0,-2.852547467E-1
2.162800000E1,1.274356961E0,-1.079738998E1,-5.228553414E-1
2.164999844E1,1.954712391E0,-1.184011269E1,-7.936586738E-1
2.166999844E1,2.260375500E0,-1.228023434E1,-1.025426984E0
2.168999844E1,2.668462515E0,-1.292021370E1,-1.270143151E0
2.171000000E1,3.539674044E0,-1.533079243E1,-1.652918577E0
2.173199844E1,4.090004921E0,-1.666629601E1,-2.955440998E0
2.175199844E1,3.272078753E0,-1.154371929E1,-2.927543640E0
2.177199844E1,2.276033401E0,-7.478040218E0,-2.433955193E0
2.179199844E1,1.917650223E0,-8.736259460E0,-1.862411261E0
2.181199844E1,1.652391791E0,-1.270939922E1,-1.624667048E0
2.183199844E1,1.059127808E0,-1.443655777E1,-1.631610155E0
2.185199844E1,3.367492557E-1,-1.347527504E1,-1.035540104E0
2.187199844E1,-6.024481654E-1,-1.222199726E1,-3.718961477E-1
2.189200000E1,-1.764718175E0,-1.129106426E1,6.699072123E-1
2.191200000E1,-2.689454556E0,-1.023502064E1,1.664966226E0
2.193200000E1,-4.886498451E0,-9.625160217E0,2.641359806E0
2.195200000E1,-2.474081755E0,-7.300131798E0,9.090017676E-1
2.197399844E1,-3.656233251E-1,-6.187794685E0,-5.243301764E-2
2.199399844E1,7.013095617E-1,-6.428134918E0,-2.008476734E0
2.201399844E1,3.613520861E-1,-5.679726601E0,-1.816212654E0
2.203399844E1,-9.396763146E-2,-4.962451935E0,-6.463291049E-1
2.205399844E1,-5.503790975E-1,-4.948317051E0,5.873456001E-1
2.207399844E1,-4.955422878E-1,-5.499404907E0,1.215622425E0
2.209399844E1,-2.555570900E-1,-6.356069565E0,1.360107660E0
2.211399844E1,2.510655522E-1,-7.328507900E0,1.277325749E0
2.213399844E1,8.067693710E-1,-8.078256607E0,1.010851145E0
2.215399844E1,1.350894809E0,-9.088935852E0,6.871072054E-1
2.217399844E1,2.119797468E0,-1.054066372E1,4.581927359E-1
2.219399844E1,3.404842138E0,-1.245256805E1,-7.511376739E-1
2.221399844E1,7.927460670E0,-1.559257412E1,-1.208928204E1
2.223399844E1,6.598841190E0,-1.215310192E1,-1.391552162E1
2.225399844E1,5.952540874E0,-9.566894531E0,-9.971793175E0
2.227399844E1,5.224128723E0,-8.665018082E0,-5.214829922E0
2.229399844E1,2.934706926E0,-1.188337135E1,2.193490982E0
2.231399844E1,1.159339428E0,-1.412328148E1,4.667285442E0
2.233399844E1,-2.129402906E-1,-1.341264343E1,2.768798590E0
2.235399844E1,-5.298933506E0,-1.542354298E1,1.099059296E1
2.237399844E1,-1.388799787E0,-1.213852596E1,-4.873541296E-1
2.239399844E1,8.991568089E-1,-1.372455120E1,1.508327842E0
2.241399844E1,1.203411937E0,-1.353381920E1,1.498339415E0
2.243399844E1,1.538044810E0,-1.226213360E1,1.524464846E0
2.245399844E1,1.810773015E0,-1.159776211E1,1.850239038E0
2.247399844E1,1.785988331E0,-1.073424053E1,1.332967043E0
2.249399844E1,1.444239855E0,-8.670888901E0,6.496714354E-1
2.251400156E1,1.134497285E0,-6.956563950E0,3.113419935E-2
2.253599844E1,1.015840650E0,-6.430691719E0,-3.505973220E-1
2.255600000E1,9.115013480E-1,-6.376946926E0,-6.462716460E-1
2.257799844E1,8.883541822E-1,-6.285009384E0,-7.255388498E-1
2.259799844E1,7.938597798E-1,-5.989200592E0,-5.916264057E-1
2.261799844E1,5.089977384E-1,-5.623932362E0,-5.509728193E-1
2.263799844E1,2.998785377E-1,-5.794829845E0,-3.890481889E-1
2.265799844E1,1.033624709E-1,-6.364850998E0,-2.513911724E-1
2.267799844E1,-9.350794554E-2,-7.100867271E0,-6.140648574E-2
2.269799844E1,-1.363449991E-1,-8.213232040E0,1.675558239E-1
2.271799844E1,1.144428402E-1,-9.538652420E0,3.263009787E-1
2.273799844E1,8.145074248E-1,-1.074599075E1,2.268745601E-1
2.275800000E1,1.629953384E0,-1.161812210E1,-1.440447569E-1
2.278000000E1,2.131959915E0,-1.187446499E1,-6.910719872E-1
2.280199844E1,2.559334517E0,-1.213511658E1,-1.248614550E0
2.282199844E1,3.504957914E0,-1.411093616E1,-1.855697870E0
2.284200000E1,4.159437180E0,-1.604164886E1,-2.683555365E0
2.286200000E1,3.405129433E0,-1.129209900E1,-2.971759796E0
2.288200000E1,2.307904959E0,-7.875496387E0,-2.592058659E0
2.290399844E1,1.953477025E0,-1.056122589E1,-2.767994165E0
2.292399844E1,1.467185855E0,-1.348903847E1,-2.679015875E0
2.294399844E1,5.883607268E-1,-1.398575783E1,-1.994427443E0
2.296401719E1,-5.760832429E-1,-1.346552658E1,-1.185254335E0
2.298600938E1,-1.934629917E0,-1.256071949E1,-1.208209917E-1
2.300799844E1,-3.192533970E0,-1.181520271E1,1.429893970E0
2.302799844E1,-3.489347935E0,-1.109506512E1,2.228216648E0
2.304800000E1,-5.647979259E0,-1.000623989E1,3.096765757E0
2.307001250E1,-2.325296640E0,-7.608169556E0,-1.474177003E0
2.309199844E1,-1.396011263E-1,-6.858660221E0,-3.082257032E0
2.311199844E1,-1.374750733E-1,-6.010308266E0,-2.179527998E0
2.313199844E1,-4.190236032E-1,-5.264744282E0,-2.387114912E-1
2.315199844E1,-7.126389146E-1,-5.181818962E0,1.054981112E0
2.317199844E1,-6.668809056E-1,-5.531774521E0,1.385026455E0
2.319199844E1,-4.794245362E-1,-6.071714878E0,1.108515382E0
2.321199844E1,-2.603646517E-1,-6.750509262E0,9.433825016E-1
2.323199844E1,1.663108170E-1,-7.294060230E0,7.906516194E-1
2.325199844E1,7.154257894E-1,-8.221296310E0,5.672438145E-1
2.327199844E1,1.487728119E0,-9.696699142E0,3.518710434E-1
2.329199844E1,2.437402487E0,-1.092715549E1,1.220085099E-2
2.331200000E1,5.130659103E0,-1.282908058E1,-3.291088820E0
2.333399844E1,7.183418751E0,-1.367106438E1,-1.272453976E1
2.335399844E1,5.318527222E0,-1.036325359E1,-1.013956833E1
2.337399844E1,5.032314777E0,-8.406463623E0,-6.118698120E0
2.339399844E1,4.215777397E0,-8.613130569E0,-1.580268979E0
2.341399844E1,2.531121254E0,-1.195867348E1,2.168160439E0
2.343399844E1,5.709213018E-1,-1.370356750E1,6.058671474E-1
2.345399844E1,-1.397112370E0,-1.218983841E1,-2.257761002E0
2.347399844E1,-1.740986824E0,-1.693069267E1,1.034159184E1
2.349399844E1,-1.281261802E0,-1.436510468E1,1.097952127E0
2.351399844E1,-9.195649624E-2,-1.453217220E1,1.257750750E0
2.353399844E1,4.726728797E-1,-1.291329002E1,1.395570517E0
2.355399844E1,1.174231410E0,-1.203759575E1,1.990443468E0
2.357399844E1,1.400866628E0,-1.170998383E1,2.234134912E0
2.359399844E1,1.151208758E0,-1.018023109E1,1.433858633E0
2.361399844E1,1.123761773E0,-8.387558937E0,5.652997494E-1
2.363399844E1,1.184995770E0,-7.290717602E0,3.448608220E-1
2.365399844E1,1.100087762E0,-6.566184521E0,1.944187582E-1
2.367399844E1,9.298313260E-1,-5.818790913E0,-1.694137156E-1
2.369399844E1,7.492893934E-1,-5.284184933E0,-4.370950460E-1
2.371399844E1,7.216985822E-1,-5.303309917E0,-5.280172825E-1
2.373399844E1,6.125230193E-1,-5.462648869E0,-5.388773084E-1
2.375399844E1,5.184787512E-1,-5.710620880E0,-5.762652159E-1
2.377399844E1,3.756598234E-1,-6.441686153E0,-3.374579549E-1
2.379399844E1,3.615723252E-1,-7.709377289E0,-5.566997826E-2
2.381399844E1,5.172529221E-1,-8.911113739E0,2.301306650E-2
2.383399844E1,9.476441741E-1,-1.006996441E1,-3.978205472E-2
2.385399844E1,1.678651333E0,-1.136375332E1,-3.308595419E-1
2.387399844E1,2.276952982E0,-1.227454472E1,-6.100330353E-1
2.389399844E1,2.518681049E0,-1.214986515E1,-8.320425153E-1
2.391399844E1,2.905488253E0,-1.217344379E1,-1.426312089E0
2.393399844E1,3.894111633E0,-1.381191063E1,-2.298270702E0
2.395399844E1,4.524591446E0,-1.636561394E1,-3.960862160E0
2.397399844E1,3.659680843E0,-1.371703339E1,-5.615064144E0
2.399399844E1,1.963149667E0,-8.126370430E0,-4.193846703E0
2.401400000E1,1.517607808E0,-8.705096245E0,-2.868473768E0
2.403400000E1,1.313018560E0,-1.325675201E1,-2.392324686E0
2.405599844E1,7.791785598E-1,-1.575670147E1,-1.200883627E0
2.407599844E1,-3.128167987E-1,-1.430390930E1,-3.501376212E-1
2.409600000E1,-1.554066777E0,-1.203884125E1,1.651233077E0
2.411800000E1,-6.962032318E0,-1.380582905E1,8.254355431E0
2.414000000E1,-3.938548088E0,-8.234090805E0,9.790656567E-1
2.416199844E1,-1.642929912E0,-5.372425556E0,1.926728964E0
2.418199844E1,-6.585873961E-1,-5.840703011E0,1.007594943E0
2.420199844E1,3.715130687E-1,-5.851112843E0,-3.101927787E-2
2.422199844E1,2.798094034E0,-7.206384182E0,-5.431093216E0
2.424199844E1,7.977288961E-1,-4.959244251E0,-3.395150423E0
2.426199844E1,-1.325621605E-1,-4.233810425E0,-3.221446276E-1
2.428200000E1,-5.198577642E-1,-4.853267193E0,1.545045376E0
2.430202344E1,-1.951082945E-1,-6.251289368E0,1.623565674E0
2.432399844E1,4.330632091E-1,-8.033044815E0,1.447486401E0
2.434399844E1,1.106906533E0,-9.156069756E0,1.022573113E0
2.436401719E1,1.597976446E0,-9.706725121E0,4.688038230E-1
2.438599844E1,2.161705494E0,-1.050099754E1,-8.788635582E-2
2.440601875E1,3.385420322E0,-1.150909996E1,-1.498684049E0
2.442799844E1,8.950704575E0,-1.500885773E1,-1.533162498E1
2.444799844E1,5.634715557E0,-1.073111820E1,-1.003297806E1
2.446800000E1,6.278410435E0,-8.099823952E0,-8.105617523E0
2.448800000E1,5.978292942E0,-7.711216450E0,-5.383611202E0
2.450999844E1,3.538266182E0,-1.092942619E1,3.657928467E0
2.452999844E1,1.904778957E0,-1.406574345E1,4.980312824E0
2.455000000E1,-8.928744793E-1,-1.413955212E1,2.623700142E0
2.457001562E1,-2.181290150E0,-1.650281143E1,3.231626511E0
2.459199844E1,-1.181749225E0,-1.504053783E1,-6.476890445E-1
2.461199844E1,7.621127367E-1,-1.663733673E1,1.142934442E0
2.463199844E1,8.092305660E-1,-1.422543621E1,1.274644256E0
2.465199844E1,7.385250330E-1,-1.199178982E1,2.022171497E0
2.467199844E1,6.667373180E-1,-1.122185326E1,2.205289602E0
2.469199844E1,3.954167664E-1,-1.003064251E1,1.734570384E0
2.471199844E1,2.042349875E-1,-8.104602814E0,1.147186518E0
2.473200000E1,2.599145286E-2,-6.355168819E0,5.533862114E-1
2.475399844E1,-3.004244156E-2,-5.429512978E0,5.807375535E-2
2.477399844E1,-2.137543261E-2,-5.163919449E0,-1.496567577E-1
2.479399844E1,1.918234490E-2,-5.073025703E0,-3.131615818E-1
2.481399844E1,1.593580656E-2,-4.936968327E0,-2.764153779E-1
2.483399844E1,-1.779658049E-1,-5.161400795E0,-1.724208295E-1
2.485399844E1,-3.448991179E-1,-6.017797470E0,-3.295379132E-2
2.487400000E1,-4.091499150E-1,-6.868801594E0,4.386177752E-3
2.489599844E1,-1.955105066E-1,-7.814913750E0,9.325893968E-2
2.491599844E1,3.760716319E-1,-8.841183662E0,-5.391742103E-3
2.493599844E1,1.205384731E0,-1.024686718E1,-3.843938708E-1
2.495600000E1,2.115219831E0,-1.227251434E1,-8.314583898E-1
2.497800000E1,2.903276205E0,-1.360713863E1,-1.392812490E0
2.499999844E1,3.339901924E0,-1.350085545E1,-1.598579764E0
2.501999844E1,3.983415365E0,-1.358977604E1,-2.205624819E0
2.503999844E1,4.913639069E0,-1.584370613E1,-3.191059113E0
2.505999844E1,4.872564316E0,-1.476623917E1,-4.236108780E0
2.507999844E1,3.269895315E0,-9.211077690E0,-3.056696415E0
2.509999844E1,2.397802591E0,-8.357966423E0,-2.862919331E0
2.512000000E1,2.222604513E0,-1.243878841E1,-2.590622187E0
2.514000000E1,1.879132271E0,-1.582633400E1,-1.947654247E0
2.516199844E1,8.244864345E-1,-1.468640614E1,-1.047099352E0
2.518199844E1,-3.470538855E-1,-1.226170349E1,-4.614392817E-1
2.520199844E1,-1.741389036E0,-1.094535160E1,3.873626590E-1
2.522199844E1,-3.494682074E0,-1.011399937E1,1.907077432E0
2.524200000E1,-8.125747681E0,-1.085683346E1,8.230001450E0
2.526401719E1,-4.094927788E0,-6.253635883E0,9.921475649E-1
2.528601250E1,-1.683583498E0,-4.423871517E0,9.859897494E-1
2.530799844E1,-5.077335238E-1,-4.838872910E0,8.411788344E-1
2.532799844E1,1.852250248E-1,-6.069703579E0,-3.244622052E-2
2.534799844E1,3.707756698E-1,-6.787829876E0,-1.317586660E0
2.536799844E1,-1.315374523E-1,-5.950884342E0,-1.009155989E0
2.538799844E1,-4.992868304E-1,-5.450830936E0,1.306659579E-1
2.540799844E1,-2.494949698E-1,-6.263106823E0,7.671118379E-1
2.542799844E1,4.795490205E-1,-7.510725498E0,9.261155128E-1
2.544799844E1,1.249323130E0,-8.873074532E0,8.476623297E-1
2.546799844E1,2.002002716E0,-9.994259834E0,5.681344867E-1
2.548799844E1,2.838182449E0,-1.090218925E1,1.176606417E-1
2.550799844E1,4.310434341E0,-1.189822483E1,-1.583764434E0
2.552799844E1,8.355352402E0,-1.401698875E1,-1.273643494E1
2.554799844E1,6.405236244E0,-1.038960934E1,-1.248830986E1
2.556799844E1,6.286129951E0,-9.060712814E0,-1.130101490E1
2.558799844E1,3.431437016E0,-9.219189644E0,-6.138254404E-1
2.560799844E1,2.374119043E0,-1.187752914E1,3.466057062E0
2.562799844E1,1.013044238E0,-1.385185528E1,3.640824318E0
2.564799844E1,-2.707363293E-2,-1.453690338E1,2.751684904E0
2.566799844E1,-4.643889368E-1,-1.552510548E1,2.372931719E0
2.568799844E1,-3.951093435E0,-1.726995087E1,2.663740873E0
2.570799844E1,-7.623713017E-1,-1.449231339E1,-1.119097829E0
2.572800000E1,-1.730241627E-1,-1.110599327E1,8.750328422E-1
2.574800000E1,4.290984273E-1,-1.113335323E1,2.684819698E0
2.576800000E1,7.040964365E-1,-1.028561497E1,2.678460360E0
2.578999844E1,4.681526124E-1,-8.295372963E0,1.732559323E0
2.581002031E1,1.952806711E-1,-6.471977711E0,6.918764114E-1
2.583199844E1,2.057576925E-1,-5.628797054E0,2.887311280E-1
2.585199844E1,2.564477324E-1,-5.323191643E0,-6.365703791E-2
2.587199844E1,3.870466650E-1,-5.159581184E0,-3.614574373E-1
2.589199844E1,4.727207720E-1,-5.176197052E0,-4.260912836E-1
2.591199844E1,4.281694591E-1,-5.375691414E0,-3.867402077E-1
2.593199844E1,4.017279148E-1,-5.922469616E0,-3.862038851E-1
2.595199844E1,4.673864841E-1,-7.026666164E0,-2.357618213E-1
2.597199844E1,6.608666778E-1,-8.053721428E0,-1.635718495E-1
2.599199844E1,8.633203506E-1,-8.972835541E0,-1.453376114E-1
2.601199844E1,1.371868014E0,-1.036269855E1,-1.839225739E-1
2.603199844E1,2.041267633E0,-1.205548573E1,-4.818091393E-1
2.605199844E1,2.666039228E0,-1.319909954E1,-8.605335951E-1
2.607199844E1,2.911837578E0,-1.293669510E1,-1.350731969E0
2.609199844E1,3.277566433E0,-1.251808357E1,-1.665559888E0
2.611199844E1,3.760017157E0,-1.307049274E1,-2.247647762E0
2.613200156E1,4.753486156E0,-1.510538292E1,-3.306354284E0
2.615399844E1,3.937954426E0,-1.265417004E1,-3.576707602E0
2.617399844E1,2.311984777E0,-8.080267906E0,-2.815542936E0
2.619399844E1,1.832177281E0,-8.792475700E0,-2.913552046E0
2.621399844E1,1.894177437E0,-1.286571217E1,-2.608032703E0
2.623399844E1,1.570270777E0,-1.562827682E1,-2.021462679E0
2.625399844E1,5.676077604E-1,-1.469990063E1,-1.449928641E0
2.627399844E1,-8.539255261E-1,-1.233297348E1,-5.866369009E-1
2.629399844E1,-2.299353123E0,-1.079628944E1,6.958507895E-1
2.631399844E1,-3.524839640E0,-9.907618523E0,3.178072929E0
2.633399844E1,-5.711712837E0,-9.305543900E0,1.279059172E0
2.635399844E1,-3.097091436E0,-5.509623051E0,7.814291120E-1
2.637399844E1,-1.007518411E0,-4.353941917E0,2.724122703E-1
2.639399844E1,-1.049043462E-1,-5.039947987E0,-2.185140103E-1
2.641399844E1,8.389570117E-1,-6.097294331E0,-1.410682797E0
2.643399844E1,7.228573561E-1,-6.264400005E0,-1.906378269E0
2.645399844E1,-1.251209825E-1,-5.489856243E0,-3.361171782E-1
2.647399844E1,-2.854271531E-1,-5.870122910E0,4.324885905E-1
2.649399844E1,7.558973879E-2,-6.889755726E0,7.573434711E-1
2.651399844E1,8.118067384E-1,-8.204929352E0,7.353934050E-1
2.653399844E1,1.557332397E0,-9.356300354E0,5.366267562E-1
2.655399844E1,2.262491941E0,-1.034725094E1,2.971300185E-1
2.657399844E1,2.997751236E0,-1.109524822E1,-2.600103021E-1
2.659399844E1,4.323842049E0,-1.175834560E1,-1.785049796E0
2.661399844E1,7.866178036E0,-1.320799732E1,-1.069348145E1
2.663399844E1,7.004237175E0,-1.096491718E1,-1.234920597E1
2.665399844E1,7.105856419E0,-9.615688324E0,-1.094857883E1
2.667399844E1,4.426467419E0,-9.593250275E0,-1.729638338E0
2.669399844E1,2.483505487E0,-1.287717533E1,4.145177364E0
2.671399844E1,6.680493355E-1,-1.466953182E1,4.070420742E0
2.673399844E1,-1.190444946E0,-1.468514252E1,3.645928621E0
2.675399844E1,-3.518059015E0,-1.175107670E1,-1.577386260E0
2.677400000E1,-3.824306428E-1,-1.361481953E1,-1.561402529E-1
2.679600000E1,7.741985917E-1,-1.426630116E1,9.635704160E-1
2.681600000E1,5.103384852E-1,-1.217333794E1,1.423486948E0
2.683600156E1,5.272894502E-1,-1.095624065E1,1.638993859E0
2.685799844E1,7.032344937E-1,-1.043882561E1,1.748044968E0
2.687799844E1,5.393561721E-1,-8.691679955E0,1.275228381E0
2.689800000E1,2.787137926E-1,-6.846009254E0,6.410427094E-1
2.691800938E1,1.860103160E-1,-6.195619583E0,2.104216069E-1
2.693999844E1,1.536694467E-1,-5.854675293E0,-2.877926230E-1
2.695999844E1,1.272949129E-1,-5.599013329E0,-5.852961540E-1
2.697999844E1,1.218169741E-2,-5.501846790E0,-5.356882811E-1
2.699999844E1,-1.269309968E-1,-5.414018154E0,-3.878798187E-1
2.701999844E1,-2.117240429E-1,-5.385469437E0,-2.856761515E-1
2.703999844E1,-2.008447945E-1,-5.985015392E0,-1.611489207E-1
2.705999844E1,-1.968033798E-2,-7.229943275E0,-8.105809242E-2
2.708000000E1,3.104704916E-1,-8.637121201E0,-1.458164603E-1
2.710199844E1,1.044283748E0,-9.771761894E0,-2.649136484E-1
2.712199844E1,1.973827720E0,-1.160367107E1,-5.037592053E-1
2.714199844E1,2.816165209E0,-1.384376240E1,-7.667574286E-1
2.716199844E1,3.259810925E0,-1.415368748E1,-1.113524079E0
2.718199844E1,3.602009535E0,-1.291112518E1,-1.501930714E0
2.720199844E1,4.731660843E0,-1.311211300E1,-2.509947062E0
2.722199844E1,5.989507198E0,-1.496549416E1,-4.418719769E0
2.724200000E1,5.443830490E0,-1.492936993E1,-6.134069443E0
2.726401719E1,2.744415998E0,-9.619874001E0,-4.305263042E0
2.728601250E1,1.400234461E0,-6.689916611E0,-2.912986755E0
2.730800000E1,1.874650359E0,-1.028255939E1,-1.572080731E0
2.732800000E1,1.603128791E0,-1.438741875E1,-1.506766796E0
2.734999844E1,6.609145999E-1,-1.515925217E1,-9.387090206E-1
2.736999844E1,-4.530787468E-1,-1.276228237E1,-1.861060858E-1
2.738999844E1,-1.692585707E0,-1.078706646E1,3.915094435E-1
2.740999844E1,-2.688659668E0,-9.977740288E0,1.593207121E0
2.742999844E1,-6.315990448E0,-1.018776894E1,4.144889832E0
2.744999844E1,-3.271705389E0,-6.118477821E0,1.262328506E0
2.746999844E1,-1.190014005E0,-4.364333153E0,9.039356709E-1
2.748999844E1,-5.652327538E-1,-4.825819969E0,2.842109203E-1
2.751000000E1,-3.729304075E-1,-5.114752293E0,-1.875234544E-1
2.753199844E1,-6.415502727E-2,-5.244948864E0,-2.206687778E-1
2.755199844E1,1.915361281E-5,-5.293264389E0,-7.746678591E-2
2.757200000E1,2.310883440E-2,-5.639676094E0,2.586216629E-1
2.759200000E1,2.790681422E-1,-6.694188118E0,4.910507798E-1
2.761200000E1,8.382961750E-1,-7.904916286E0,8.356913328E-1
2.763399844E1,1.516707659E0,-9.189798355E0,8.651782870E-1
2.765399844E1,2.236462116E0,-1.047806072E1,7.064139843E-1
2.767400000E1,3.004991293E0,-1.174801254E1,1.165688932E-1
2.769599844E1,4.551980972E0,-1.293136120E1,-1.490352273E0
2.771599844E1,8.744410515E0,-1.473161888E1,-1.400190449E1
2.773600000E1,7.180172443E0,-1.198703957E1,-1.421821594E1
2.775800000E1,6.012280941E0,-8.898184776E0,-9.394895554E0
2.777999844E1,4.335765362E0,-1.055689716E1,7.199843228E-2
2.779999844E1,3.325824022E0,-1.490715218E1,3.941172123E0
2.782000000E1,6.176178455E-1,-1.523069572E1,4.048547268E0
2.784199844E1,-6.870812893E0,-1.203173542E1,2.245990992E0
2.786199844E1,-2.979354143E0,-9.470638275E0,-3.561997652E0
2.788199844E1,5.054255724E-1,-1.253689289E1,-6.005615592E-1
2.790199844E1,1.407704473E0,-1.480627060E1,2.013408661E0
2.792199844E1,7.488583922E-1,-1.345821953E1,1.333934307E0
2.794199844E1,8.824357390E-1,-1.176180267E1,8.866782188E-1
2.796200000E1,1.430880308E0,-1.133577919E1,9.558132291E-1
2.798399844E1,1.524943709E0,-1.045139980E1,9.490902424E-1
2.800399844E1,1.182620764E0,-8.396637917E0,5.174252987E-1
2.802399844E1,8.038484454E-1,-6.531411171E0,1.485650092E-1
2.804399844E1,7.326735854E-1,-6.287815571E0,-1.372739375E-1
2.806401875E1,7.404978871E-1,-6.155990601E0,-5.369141102E-1
2.808601094E1,6.007627249E-1,-5.847636700E0,-5.132018924E-1
2.810800469E1,4.071483910E-1,-5.381609917E0,-4.374206662E-1
2.812999844E1,1.569351405E-1,-5.214245796E0,-4.484818578E-1
2.814999844E1,-2.285983786E-2,-5.842761517E0,-4.236013293E-1
2.816999844E1,-9.064447880E-2,-6.849849701E0,-2.807824016E-1
2.818999844E1,-1.550868005E-1,-7.857741356E0,-3.015736304E-2
2.820999844E1,1.369196028E-1,-8.742321968E0,1.216350272E-1
2.822999844E1,9.726396203E-1,-9.982355118E0,3.731124103E-2
2.824999844E1,1.857354641E0,-1.166001129E1,-2.368631661E-1
2.826999844E1,2.469848871E0,-1.276937866E1,-4.279587567E-1
2.828999844E1,2.804950953E0,-1.282667637E1,-6.304029226E-1
2.831000000E1,3.043461323E0,-1.245499134E1,-9.056594968E-1
2.833000000E1,3.931241035E0,-1.440414906E1,-1.557763457E0
2.835200000E1,5.041182995E0,-1.655187225E1,-2.736993790E0
2.837399844E1,4.454067230E0,-1.315909767E1,-4.068093300E0
2.839399844E1,3.132516146E0,-8.921628952E0,-3.812325716E0
2.841399844E1,2.490889072E0,-1.063317680E1,-3.051879406E0
2.843399844E1,1.740278244E0,-1.404140949E1,-2.845144749E0
2.845399844E1,1.117527246E0,-1.457524872E1,-2.416831732E0
2.847399844E1,2.289144099E-1,-1.286790562E1,-1.590027690E0
2.849399844E1,-8.744007349E-1,-1.089932537E1,-7.215070128E-1
2.851400625E1,-2.266427994E0,-9.552375793E0,2.141086757E-1
2.853599844E1,-3.612840891E0,-9.305802345E0,3.267539501E0
2.855599844E1,-5.162540436E0,-6.570187569E0,-6.095733047E-1
2.857599844E1,-3.267300129E0,-4.247964859E0,8.645079136E-1
2.859600000E1,-1.683210015E0,-3.429435253E0,4.944314063E-1
2.861800000E1,-4.903229475E-1,-4.415559292E0,-1.897931546E-1
2.863999844E1,-6.012319028E-2,-5.554768085E0,-4.384261966E-1
2.866000000E1,-5.125793815E-1,-6.087746143E0,-5.289270878E-1
2.868199844E1,-9.792763591E-1,-6.340248585E0,3.481935561E-1
2.870199844E1,-8.884211779E-1,-7.092084885E0,8.380472064E-1
2.872199844E1,-3.297007084E-1,-8.694581985E0,9.639247656E-1
2.874199844E1,4.233427346E-1,-9.733100891E0,9.025470018E-1
2.876199844E1,1.113591075E0,-1.067890549E1,7.773206830E-1
2.878199844E1,2.090358496E0,-1.204311275E1,5.826816559E-1
2.880199844E1,3.697614670E0,-1.305600262E1,-5.694752336E-1
2.882200000E1,8.611158371E0,-1.544835663E1,-9.956852913E0
2.884400000E1,6.440067291E0,-1.127366447E1,-1.242878056E1
2.886401719E1,6.021886826E0,-9.229340553E0,-9.973622322E0
2.888600938E1,6.839468479E0,-8.428116798E0,-8.672890663E0
2.890800000E1,4.283724785E0,-1.173028660E1,9.964667261E-2
2.893000000E1,1.738448977E0,-1.322643185E1,3.529608727E0
2.895199844E1,-7.343494892E-2,-1.252401161E1,2.926537991E0
2.897199844E1,-2.789723873E-1,-1.279716110E1,3.188703060E0
2.899199844E1,-4.809472337E-2,-1.383345795E1,2.680050373E0
2.901199844E1,-2.403586864E0,-1.389833069E1,7.160022736E0
2.903200000E1,2.869211435E-1,-1.328526306E1,-2.701042593E-1
2.905400000E1,6.350859404E-1,-1.134763432E1,1.436099648E0
2.907599844E1,9.583223462E-1,-1.055195618E1,2.185331583E0
2.909600000E1,1.203689694E0,-9.828648567E0,2.155796528E0
2.911799844E1,1.065860271E0,-7.903537750E0,1.845153809E0
2.913799844E1,1.045423388E0,-6.357027054E0,6.738719940E-1
2.915799844E1,1.118274212E0,-5.970641136E0,4.493533671E-1
2.917799844E1,9.986023307E-1,-5.825983524E0,-3.968628868E-2
2.919799844E1,7.633576393E-1,-5.314304352E0,-4.480604827E-1
2.921799844E1,6.156449914E-1,-4.876347065E0,-5.434933305E-1
2.923799844E1,5.926511288E-1,-5.162262917E0,-5.756810308E-1
2.925800000E1,6.196672916E-1,-5.966714382E0,-4.178552330E-1
2.927999844E1,6.765152216E-1,-7.317398548E0,-2.062461078E-1
2.929999844E1,6.558771729E-1,-8.260321617E0,5.008670036E-3
2.932000000E1,6.642185450E-1,-8.750931740E0,1.626141816E-1
2.934000000E1,9.945897460E-1,-9.630427361E0,5.836106092E-2
2.936000000E1,1.644720793E0,-1.123937893E1,-1.222287863E-1
2.938199844E1,2.435353279E0,-1.279243088E1,-4.611998498E-1
2.940199844E1,2.759614229E0,-1.316770744E1,-6.652815938E-1
2.942199844E1,3.006638527E0,-1.313103676E1,-9.417448640E-1
2.944199844E1,3.854501963E0,-1.471638203E1,-1.338933349E0
2.946200000E1,4.349929333E0,-1.584431934E1,-2.463403702E0
2.948399844E1,3.556241989E0,-1.127982140E1,-3.504900694E0
2.950400000E1,2.322777748E0,-7.194700718E0,-3.985301971E0
2.952600781E1,1.754691243E0,-9.123316765E0,-3.664153337E0
2.954800000E1,1.383704901E0,-1.365132618E1,-3.392564774E0
2.957001719E1,8.532934785E-1,-1.512334824E1,-2.538045406E0
2.959199844E1,-2.022813112E-1,-1.339441872E1,-1.834054351E0
2.961199844E1,-1.466218710E0,-1.186234951E1,-6.983311772E-1
2.963199844E1,-2.510224581E0,-1.141396427E1,9.005262852E-1
2.965199844E1,-2.604086876E0,-1.052246857E1,1.530373812E0
2.967200000E1,-2.118523598E0,-8.748126030E0,2.059109211E0
2.969399844E1,-2.787003994E0,-6.134816170E0,1.065898594E-2
2.971399844E1,-1.558251858E0,-4.881260395E0,-4.065258801E-1
2.973399844E1,-8.529199958E-1,-4.865238190E0,-3.733996749E-1
2.975399844E1,-6.974501610E-1,-5.114857197E0,8.226476610E-3
2.977400000E1,-4.694359004E-1,-5.555189610E0,4.344422519E-1
2.979599844E1,-5.977555513E-1,-6.215060711E0,9.950302243E-1
2.981599844E1,-4.287728071E-1,-6.763811588E0,1.079794526E0
2.983599844E1,-9.866026044E-2,-7.345487118E0,9.924445152E-1
2.985599844E1,5.322693586E-1,-7.704732418E0,9.098445177E-1
2.987600000E1,1.131327391E0,-8.618839264E0,7.843883634E-1
2.989800000E1,2.106437683E0,-1.077128315E1,3.238588870E-1
2.991800781E1,3.585441589E0,-1.256632233E1,-3.985771239E-1
2.994000000E1,6.597577095E0,-1.383624554E1,-6.868093491E0
2.996199844E1,7.926752090E0,-1.211108875E1,-1.381237030E1
2.998199844E1,6.809933186E0,-8.166784286E0,-9.908739090E0
3.000199844E1,5.291013241E0,-8.016821861E0,-2.502410173E0
3.002199844E1,4.379876137E0,-1.235998058E1,2.785088539E0
3.004199844E1,2.449134350E0,-1.402593231E1,3.821998358E0
3.006199844E1,4.257273674E-1,-1.374262238E1,1.959002852E0
3.008199844E1,-3.930637360E0,-1.269486237E1,9.549991786E-2
3.010199844E1,-5.107406974E-1,-1.263480568E1,-7.452000976E-1
3.012200000E1,1.334671617E0,-1.401283169E1,1.831688881E0
3.014399844E1,7.755777240E-1,-1.247358036E1,8.208377361E-1
3.016401719E1,7.049774528E-1,-1.220272827E1,1.139304757E0
3.018599844E1,8.974137902E-1,-1.262053585E1,1.667034745E0
3.020601094E1,7.352018952E-1,-1.114443493E1,1.772437096E0
3.022799844E1,4.892024398E-1,-8.321085930E0,1.170103908E0
3.024799844E1,2.966128588E-1,-6.928704739E0,8.290449977E-1
3.026800000E1,3.386646211E-1,-6.673416138E0,3.669449091E-1
3.029000000E1,4.039880037E-1,-6.498562336E0,-5.416642129E-2
3.031000000E1,3.466229439E-1,-5.961399555E0,-3.957423866E-1
3.033199844E1,3.419877589E-1,-5.278113365E0,-6.025439501E-1
3.035199844E1,2.887311280E-1,-5.411901474E0,-7.882286310E-1
3.037199844E1,2.922937274E-1,-6.401118755E0,-8.907388449E-1
3.039199844E1,3.623863757E-1,-7.438382149E0,-8.347048759E-1
3.041199844E1,3.733135164E-1,-7.590864182E0,-5.879297256E-1
3.043200000E1,5.119665265E-1,-7.653793335E0,-3.314724565E-1
3.045399844E1,1.101763844E0,-8.539714813E0,-1.026920974E-1
3.047399844E1,2.094917059E0,-1.008409977E1,-1.101428494E-1
3.049399844E1,2.945911884E0,-1.151225090E1,-3.671364784E-1
3.051399844E1,3.372319221E0,-1.175535870E1,-8.368980289E-1
3.053399844E1,3.494978905E0,-1.132090664E1,-1.196995497E0
3.055399844E1,3.951342583E0,-1.157992935E1,-1.754921198E0
3.057399844E1,4.760190010E0,-1.345528889E1,-2.564534664E0
3.059399844E1,4.616518974E0,-1.393794155E1,-3.704318285E0
3.061399844E1,2.771317244E0,-9.873783112E0,-3.160212040E0
3.063399844E1,1.593896747E0,-7.753986359E0,-2.351728439E0
3.065399844E1,1.966616511E0,-1.067919350E1,-2.271101236E0
3.067400000E1,1.913905621E0,-1.424427414E1,-2.867583275E0
3.069599844E1,9.113864303E-1,-1.472975063E1,-2.334882975E0
3.071599844E1,1.205241159E-1,-1.406039906E1,-1.841725349E0
3.073600000E1,-1.535554767E0,-1.373382092E1,-6.306423545E-1
3.075800000E1,-3.388915777E0,-1.381352806E1,6.306710243E-1
3.077999844E1,-9.580350876E0,-1.950517845E1,9.979310989E0
3.079999844E1,-5.591533661E0,-8.978121758E0,-1.503079832E-1
3.081999844E1,-2.535507679E0,-5.637042522E0,1.383896470E0
3.083999844E1,-4.184394181E-1,-6.749666691E0,1.068982244E0
3.085999844E1,9.990046024E-1,-7.706724644E0,-3.250272572E-1
3.087999844E1,1.053544521E0,-6.825974464E0,-1.647297025E0
3.089999844E1,3.810324073E-1,-5.728060722E0,-1.208899498E0
3.091999844E1,3.269521892E-2,-5.158384323E0,-4.659882486E-1
3.093999844E1,7.235277444E-2,-5.452813625E0,7.853939384E-2
3.095999844E1,4.985398352E-1,-5.839850426E0,2.931460440E-1
3.097999844E1,9.018095732E-1,-6.049458027E0,3.413748443E-1
3.099999844E1,1.344124079E0,-6.458752155E0,2.462675869E-1
3.102000000E1,1.837827563E0,-7.413789272E0,3.217136860E-1
3.104200000E1,2.399286747E0,-8.661924362E0,1.718749553E-1
3.106401875E1,3.076137543E0,-9.790819168E0,-5.205664635E-1
3.108600000E1,3.599021435E0,-1.029895496E1,-1.676352978E0
3.110600781E1,8.340192795E0,-1.268039131E1,-1.570600128E1
3.112601250E1,6.669432163E0,-1.159211159E1,-1.100708389E1
3.114799844E1,3.994534016E0,-9.084032059E0,-1.067411780E0
3.116799844E1,3.931576252E0,-1.222602940E1,2.902701378E0
3.118800000E1,2.627827883E0,-1.378033638E1,3.346346855E0
3.120999844E1,3.108727038E-1,-1.352675056E1,-1.532097608E-1
3.122999844E1,-4.168496609E0,-1.463857079E1,1.554794550E0
3.124999844E1,-8.381429911E-1,-1.498808575E1,-1.608951449E0
3.126999844E1,1.226329207E0,-1.515792084E1,1.335897446E0
3.129000000E1,1.314206004E0,-1.343212318E1,1.519705176E0
3.131200000E1,7.130603194E-1,-1.241654110E1,1.602257252E0
3.133399844E1,6.235841513E-1,-1.261810398E1,1.279595494E0
3.135399844E1,6.588172317E-1,-1.200985146E1,1.035779595E0
3.137399844E1,6.590758562E-1,-9.914244652E0,7.997974157E-1
3.139399844E1,4.569477439E-1,-7.628846169E0,3.701052964E-1
3.141400000E1,3.778720796E-1,-6.641285419E0,3.529532254E-1
3.143599844E1,2.085828483E-1,-6.327970505E0,-1.132170111E-1
3.145600313E1,1.953381300E-1,-5.938644886E0,-4.060566127E-1
3.147799844E1,1.263947040E-1,-5.356987953E0,-4.756225348E-1
3.149799844E1,-1.376474500E-1,-5.013362885E0,-3.366822302E-1
3.151800000E1,-3.444777429E-1,-5.120738029E0,-3.890769482E-1
3.153999844E1,-3.587184548E-1,-5.749694347E0,-4.930619001E-1
3.155999844E1,-3.199898303E-1,-6.227050304E0,-5.385996103E-1
3.157999844E1,3.543418366E-3,-7.133935452E0,-4.883405566E-1
3.159999844E1,8.367735147E-1,-8.778963089E0,-4.617840648E-1
3.162000000E1,1.913254499E0,-1.090934277E1,-4.782944620E-1
3.164199844E1,3.013198376E0,-1.256792068E1,-6.659806967E-1
3.166199844E1,3.526314497E0,-1.225326538E1,-8.767662644E-1
3.168199844E1,3.630883455E0,-1.178430843E1,-1.210087061E0
3.170200156E1,4.244987011E0,-1.279789829E1,-1.718529344E0
3.172399844E1,5.673913002E0,-1.590040970E1,-2.978683949E0
3.174399844E1,5.342182159E0,-1.541862965E1,-4.019864559E0
3.176401719E1,3.221743107E0,-9.664607048E0,-3.065488100E0
3.178599844E1,1.926250219E0,-8.515620232E0,-2.381694317E0
3.180600000E1,1.909452558E0,-1.162640667E1,-2.129805088E0
3.182800000E1,1.310873270E0,-1.484375381E1,-2.065353155E0
3.184800000E1,1.534108669E-1,-1.483611107E1,-1.820416927E0
3.186999844E1,-1.557801723E0,-1.305113888E1,-1.069700599E0
3.188999844E1,-3.583123922E0,-1.198650360E1,3.094745278E-1
3.190999844E1,-9.147306442E0,-1.911564064E1,8.276487350E0
3.193000000E1,-6.049429417E0,-7.395603180E0,3.636313602E-2
3.195199844E1,-2.666058540E0,-4.165748119E0,1.878366232E0
3.197199844E1,-9.313061237E-1,-4.532108784E0,1.545782804E0
3.199199844E1,2.271522880E-1,-5.494836330E0,7.554951310E-1
3.201199844E1,3.463739753E-1,-5.640174389E0,-2.939217687E-1
3.203199844E1,3.921893835E-1,-5.647481441E0,-6.479475498E-1
3.205199844E1,6.235075593E-1,-6.014033794E0,-4.810430110E-1
3.207199844E1,7.904121876E-1,-6.668292522E0,-8.621041477E-2
3.209199844E1,1.159693837E0,-7.465570927E0,2.618586421E-1
3.211199844E1,1.671497583E0,-8.274274826E0,4.279970825E-1
3.213199844E1,2.141690016E0,-8.878312111E0,3.561806083E-1
3.215199844E1,2.538983822E0,-9.398390770E0,2.643581927E-1
3.217199844E1,2.756856203E0,-9.448487282E0,1.375804096E-1
3.219199844E1,3.268908978E0,-1.040719223E1,-3.272203505E-1
3.221199844E1,3.891104460E0,-1.176732922E1,-1.601538897E0
3.223199844E1,5.642759800E0,-1.276405430E1,-5.935637474E0
3.225199844E1,9.213634491E0,-1.303029919E1,-1.882985878E1
3.227199844E1,4.402371883E0,-8.910395622E0,-4.217156410E0
3.229199844E1,3.918484688E0,-1.192060566E1,2.253384352E0
3.231199844E1,2.588026524E0,-1.349743652E1,3.386282206E0
3.233199844E1,-7.163451519E-3,-1.231052494E1,2.446500778E0
3.235199844E1,-8.547204733E-1,-1.250137234E1,9.914867878E-1
3.237199844E1,-3.752748251E0,-1.597256279E1,5.899025917E0
3.239199844E1,-6.824432611E-1,-1.668680000E1,-7.760278583E-1
3.241199844E1,-9.902609587E-1,-1.277389908E1,3.509296417E0
3.243199844E1,5.532712936E-1,-1.068072605E1,5.330259204E-1
3.245199844E1,1.055411935E0,-1.101022434E1,1.384337068E0
3.247199844E1,9.364776015E-1,-1.025475883E1,1.144782662E0
3.249199844E1,7.461673021E-1,-7.750634193E0,9.569911361E-1
3.251200312E1,6.762662530E-1,-6.379226208E0,6.685856581E-1
3.253399844E1,7.301357388E-1,-5.658035278E0,1.537460685E-1
3.255399844E1,7.449032068E-1,-5.245964050E0,-3.752671778E-1
3.257399844E1,7.932851911E-1,-5.014961720E0,-7.293696404E-1
3.259399844E1,6.791392565E-1,-5.082679749E0,-8.637704849E-1
3.261399844E1,7.417141199E-1,-5.723971367E0,-1.006273389E0
3.263399844E1,8.300122619E-1,-6.682858467E0,-9.155810475E-1
3.265399844E1,7.973457575E-1,-7.228315353E0,-8.142871857E-1
3.267399844E1,6.247047186E-1,-7.558906555E0,-6.683461666E-1
3.269399844E1,6.297899485E-1,-8.307975769E0,-5.995751619E-1
3.271399844E1,9.579392672E-1,-9.905597687E0,-7.357094884E-1
3.273399844E1,1.539720654E0,-1.198279762E1,-9.959208965E-1
3.275399844E1,2.374645710E0,-1.330464554E1,-1.191096187E0
3.277399844E1,2.998067141E0,-1.312166214E1,-1.237112761E0
3.279399844E1,3.456691027E0,-1.294036293E1,-1.499938607E0
3.281399844E1,4.212253094E0,-1.392678452E1,-2.048718452E0
3.283399844E1,4.972766399E0,-1.540477276E1,-2.913676500E0
3.285399844E1,3.873521566E0,-1.067189598E1,-2.738602877E0
3.287400000E1,2.459208965E0,-6.768350601E0,-2.674170256E0
3.289600000E1,1.962881446E0,-9.349558830E0,-1.903687239E0
3.291800938E1,1.804471612E0,-1.371917820E1,-2.138931990E0
3.294000000E1,1.052615643E0,-1.498195744E1,-1.480631828E0
3.296000000E1,-2.213199995E-2,-1.380485249E1,-8.205312490E-1
3.298000000E1,-1.667053938E0,-1.245275116E1,8.786720037E-2
3.300000000E1,-5.870227814E0,-1.277949238E1,-2.406843156E-1
3.302000000E1,-4.283312798E0,-8.146376610E0,9.102467895E-1
3.304000000E1,-2.917459249E0,-7.200303078E0,1.948430061E0
3.306199844E1,-4.811579287E-1,-6.464622498E0,8.291695118E-1
3.308200000E1,1.482652426E0,-6.631210804E0,-1.509639859E0
3.310399844E1,1.717772722E0,-6.010270119E0,-3.927199364E0
3.312399844E1,1.749874055E-1,-4.642385960E0,-1.712390542E0
3.314399844E1,-4.215805829E-1,-4.632215500E0,2.680356801E-1
3.316401719E1,-4.046775401E-1,-5.569890022E0,1.200270772E0
3.318599844E1,4.671566561E-2,-6.749053478E0,1.248375177E0
3.320600312E1,6.240151525E-1,-7.719193459E0,1.292725205E0
3.322799844E1,1.389019966E0,-8.387185097E0,9.464758039E-1
3.324799844E1,2.010008812E0,-9.255054474E0,5.046689510E-1
3.326800000E1,2.578382730E0,-1.003738403E1,1.776210368E-1
3.329000000E1,3.582597256E0,-1.129676247E1,-1.029458880E0
3.331199844E1,6.906735897E0,-1.343592453E1,-8.148914337E0
3.333199844E1,8.164649010E0,-1.228896809E1,-1.472932053E1
3.335199844E1,5.739658356E0,-8.632102966E0,-6.405820847E0
3.337199844E1,5.623022079E0,-1.068549442E1,-1.069595218E0
3.339199844E1,5.135763645E0,-1.481273460E1,2.422338486E0
3.341199844E1,1.942549944E0,-1.381730175E1,1.300760269E0
3.343199844E1,-1.920599818E0,-1.534249401E1,4.615263939E0
3.345199844E1,-2.933213234E0,-1.017344093E1,-2.619419336E0
3.347199844E1,5.285439491E-1,-1.322633553E1,6.834583879E-1
3.349199844E1,1.754911542E0,-1.601351357E1,3.876183748E0
3.351199844E1,1.285580873E0,-1.358869457E1,1.458049655E0
3.353200000E1,9.742677212E-1,-1.123178387E1,7.325108051E-1
3.355399844E1,1.265584588E0,-1.106368256E1,4.652029872E-1
3.357399844E1,1.515213609E0,-1.059344196E1,4.683824778E-1
3.359399844E1,1.398051023E0,-8.972156525E0,3.266170025E-1
3.361399844E1,1.098833203E0,-7.297517300E0,2.027122676E-1
3.363399844E1,8.838243484E-1,-6.398868084E0,4.509718344E-2
3.365399844E1,6.374897361E-1,-5.750738144E0,-2.242121994E-1
3.367399844E1,5.483200550E-1,-5.191107750E0,-3.398713171E-1
3.369399844E1,5.086912513E-1,-4.949523449E0,-4.530212581E-1
3.371399844E1,4.638143182E-1,-5.065182686E0,-5.586822033E-1
3.373399844E1,4.646666646E-1,-5.516470909E0,-5.061629415E-1
3.375399844E1,4.858409762E-1,-6.207513809E0,-5.185936689E-1
3.377399844E1,4.990569651E-1,-7.031310558E0,-4.780837595E-1
3.379399844E1,7.398945093E-1,-8.185181618E0,-5.124549270E-1
3.381399844E1,1.215986371E0,-9.845761299E0,-4.794341028E-1
3.383399844E1,1.905372858E0,-1.143663216E1,-5.911954641E-1
3.385399844E1,2.416755199E0,-1.217856598E1,-7.552940249E-1
3.387399844E1,2.631083965E0,-1.209004784E1,-9.761543870E-1
3.389399844E1,2.961665869E0,-1.254751301E1,-1.203651309E0
3.391399844E1,3.792118549E0,-1.465116405E1,-1.500743032E0
3.393399844E1,4.415099621E0,-1.646715546E1,-2.256132841E0
3.395399844E1,3.686591864E0,-1.219890785E1,-3.411746979E0
3.397399844E1,2.643878698E0,-7.535299778E0,-2.599557161E0
3.399399844E1,2.301306725E0,-7.602921486E0,-2.477242231E0
3.401399844E1,2.262348175E0,-1.120578289E1,-2.298213482E0
3.403399844E1,2.020945787E0,-1.417419147E1,-1.882963061E0
3.405399844E1,1.336941361E0,-1.423166180E1,-1.457216501E0
3.407399844E1,2.569169998E-1,-1.259383583E1,-8.730503917E-1
3.409399844E1,-8.987737298E-1,-1.220301628E1,4.897004366E-1
3.411399844E1,-3.649089098E0,-1.271390057E1,-8.482465148E-1
3.413399844E1,-1.966511130E0,-9.452059746E0,1.368813068E-1
3.415399844E1,-9.259240031E-1,-7.688959599E0,-7.240257859E-1
3.417399844E1,9.458245635E-1,-8.087977409E0,-2.792999029E0
3.419399844E1,1.166771173E0,-6.993750572E0,-2.987714767E0
3.421399844E1,2.742510140E-1,-5.212694168E0,-7.469047308E-1
3.423399844E1,-2.442085557E-2,-4.717056274E0,9.770449996E-1
3.425399844E1,-8.613379300E-2,-5.071877003E0,1.280543566E0
3.427399844E1,-4.657201096E-2,-5.640461445E0,1.056312203E0
3.429399844E1,2.210901678E-1,-6.630301476E0,7.354891896E-1
3.431399844E1,7.536276579E-1,-7.334090710E0,1.653052717E-1
3.433399844E1,1.356468558E0,-7.717441082E0,-5.486552417E-2
3.435399844E1,1.822897315E0,-8.274782181E0,-2.743946612E-1
3.437400000E1,2.351517916E0,-9.335356712E0,-5.886863470E-1
3.439400000E1,3.301872253E0,-1.057583046E1,-1.578631282E0
3.441599844E1,8.157035828E0,-1.380732346E1,-1.196815395E1
3.443599844E1,7.199402809E0,-1.163839626E1,-1.414759636E1
3.445600000E1,5.873168468E0,-8.236025810E0,-9.059400558E0
3.447799844E1,5.750192165E0,-8.655574799E0,-3.945184708E0
3.449799844E1,4.705190659E0,-1.291278267E1,3.155356646E0
3.451799844E1,1.580594540E0,-2.116060638E1,1.580621243E1
3.453799844E1,-3.158766031E0,-1.092564297E1,-2.521458149E0
3.455799844E1,-1.933193326E0,-8.834690094E0,-2.107462645E0
3.457799844E1,5.384368300E-1,-1.162926960E1,-8.105330467E-1
3.459799844E1,1.245224237E0,-1.285250568E1,9.888148904E-1
3.461800000E1,1.333350062E0,-1.371201420E1,1.573316216E0
3.463999844E1,1.181423545E0,-1.267501831E1,6.714107394E-1
3.465999844E1,1.544307947E0,-1.201148033E1,7.959283888E-2
3.467999844E1,1.877236128E0,-1.176506805E1,-4.298358262E-1
3.469999844E1,1.802249670E0,-1.086242580E1,-6.565762758E-1
3.471999844E1,1.389096737E0,-8.635013580E0,-7.866772413E-1
3.473999844E1,8.813918233E-1,-6.785407066E0,-7.531296611E-1
3.475999844E1,8.096998930E-1,-6.148376942E0,-5.926032066E-1
3.477999844E1,8.277043104E-1,-5.795519352E0,-6.693038940E-1
3.479999844E1,9.790082574E-1,-5.741707325E0,-7.616721988E-1
3.481999844E1,9.498947263E-1,-5.535834789E0,-8.178784847E-1
3.483999844E1,8.066735864E-1,-5.463137150E0,-7.694869041E-1
3.485999844E1,6.795510650E-1,-5.876759529E0,-8.438315988E-1
3.488000000E1,7.731164694E-1,-6.603553295E0,-9.405286312E-1
3.490200625E1,9.877327085E-1,-7.568090916E0,-9.850032926E-1
3.492399844E1,1.260173678E0,-8.679115295E0,-1.010295630E0
3.494399844E1,1.658252835E0,-9.896873474E0,-9.189999104E-1
3.496401719E1,2.214665174E0,-1.115225887E1,-1.002423525E0
3.498599844E1,2.908926249E0,-1.224875450E1,-1.289162755E0
3.500600312E1,3.252887011E0,-1.246954823E1,-1.715349674E0
3.502600625E1,3.546780109E0,-1.219724083E1,-2.311956167E0
3.504601250E1,3.948268652E0,-1.295525455E1,-2.891544342E0
3.506799844E1,4.388303757E0,-1.478782558E1,-3.956791639E0
3.508799844E1,3.312062025E0,-1.224960709E1,-3.728930950E0
3.510799844E1,1.485295653E0,-7.593900204E0,-2.228312254E0
3.512800000E1,1.373802543E0,-9.719472885E0,-2.105384350E0
3.514800000E1,1.262529492E0,-1.392491722E1,-2.011684895E0
3.516999844E1,9.776866436E-1,-1.594008732E1,-1.649940133E0
3.518999844E1,-1.736083478E-1,-1.399360180E1,-1.491970658E0
3.520999844E1,-3.412254572E0,-1.473041248E1,7.158164978E0
3.522999844E1,-4.725167751E0,-1.218675518E1,-8.835561872E-1
3.524999844E1,-4.073101997E0,-9.508131981E0,4.837647438E0
3.526999844E1,-2.002950907E0,-7.400209427E0,1.100499630E0
3.529000000E1,2.188013047E-1,-6.900951385E0,-3.409439027E-1
3.531000000E1,3.252446175E0,-8.201251984E0,-7.175556660E0
3.533199844E1,1.184468985E0,-4.996881008E0,-3.903640509E0
3.535199844E1,-3.310318887E-1,-3.092034817E0,-3.428879976E-1
3.537199844E1,-8.911218643E-1,-3.049868107E0,1.695334196E0
3.539199844E1,-6.722535491E-1,-4.227834702E0,1.930033088E0
3.541199844E1,-4.263881743E-1,-5.506319523E0,1.720185995E0
3.543199844E1,1.227938160E-1,-7.016284466E0,1.189535141E0
3.545199844E1,7.123132944E-1,-8.247181892E0,6.711043119E-1
3.547199844E1,1.582299232E0,-9.439035416E0,1.181394905E-1
3.549199844E1,2.323381186E0,-1.072815895E1,-3.686304390E-1
3.551199844E1,3.780894518E0,-1.278397369E1,-1.953907967E0
3.553199844E1,1.049385357E1,-1.689351654E1,-1.795973969E1
3.555199844E1,6.765831947E0,-1.138922787E1,-1.251671410E1
3.557199844E1,5.878732204E0,-7.201624393E0,-6.189815998E0
3.559199844E1,5.712986946E0,-1.066022205E1,-1.789378405E0
3.561200000E1,4.088118553E0,-1.643949890E1,3.691504717E0
3.563399844E1,8.672947884E-1,-1.772046280E1,3.629236221E0
3.565399844E1,-5.479781628E0,-1.138214970E1,-3.678987741E0
3.567399844E1,-1.664190412E0,-9.227770805E0,-2.758254290E0
3.569399844E1,5.313882828E-1,-1.397953320E1,4.524409294E0
3.571399844E1,6.986759901E-1,-1.520933914E1,2.026959896E0
3.573399844E1,5.476592779E-1,-1.252873325E1,1.604402423E0
3.575399844E1,1.351028800E0,-1.192535591E1,9.321967959E-1
3.577400000E1,1.854835987E0,-1.079670048E1,4.593802691E-1
3.579599844E1,1.722561002E0,-8.714147568E0,-2.992368937E-1
3.581600000E1,1.372576714E0,-6.891700268E0,-9.333555698E-1
3.583800000E1,1.013025045E0,-5.398225784E0,-1.079057097E0
3.585999844E1,8.801659942E-1,-4.815601349E0,-1.272230983E0
3.587999844E1,8.098530769E-1,-4.568788052E0,-1.403481126E0
3.589999844E1,6.383708119E-1,-4.494596481E0,-1.447314143E0
3.591999844E1,4.761683941E-1,-4.569008350E0,-1.398644805E0
3.594000000E1,2.255625278E-1,-4.906485558E0,-1.270238876E0
3.596200000E1,1.842577606E-1,-6.262867451E0,-1.194620490E0
3.598399844E1,3.555198014E-1,-8.445565224E0,-1.210996866E0
3.600399844E1,1.320344687E0,-1.030390644E1,-1.161178231E0
3.602399844E1,2.437929392E0,-1.113385201E1,-1.583333492E0
3.604399844E1,3.223754406E0,-1.191181469E1,-2.293013096E0
3.606401875E1,3.687578201E0,-1.199629116E1,-3.032419205E0
3.608599844E1,4.116484642E0,-1.138554001E1,-3.337095737E0
3.610600156E1,4.546407223E0,-1.174807930E1,-3.494059563E0
3.612600156E1,5.112760067E0,-1.349812603E1,-3.641178370E0
3.614600312E1,4.986691475E0,-1.487790394E1,-2.660973072E0
3.616600625E1,2.997799158E0,-1.016104984E1,-1.052127242E0
3.618800000E1,2.120151758E0,-8.451570511E0,-6.626001000E-1
3.620800000E1,1.954185843E0,-1.330807400E1,-8.925104737E-1
3.622999844E1,1.723624110E0,-1.793300247E1,-1.294707656E0
3.624999844E1,5.926798582E-1,-1.657962608E1,-1.381827831E0
3.626999844E1,-5.211296082E0,-1.710767174E1,8.659693718E0
3.629000000E1,-4.311746597E0,-1.177924252E1,-1.802259237E-1
3.631199844E1,-5.446722507E0,-8.749159813E0,1.566842198E0
3.633199844E1,-3.124835491E0,-7.010442734E0,3.035991430E0
3.635199844E1,-1.496711254E0,-5.436934948E0,1.829227567E0
3.637199844E1,-9.245449305E-2,-5.060614586E0,1.000450730E0
3.639200000E1,1.146085262E0,-5.457247734E0,-8.691239357E-1
3.641399844E1,3.682598114E0,-7.398322582E0,-8.778120041E0
3.643399844E1,5.002157688E-1,-4.778510571E0,-3.616738558E0
3.645399844E1,-5.788605213E-1,-4.051678658E0,-3.836085796E-1
3.647400000E1,-2.649902403E-1,-5.198788643E0,6.483881474E-1
3.649400000E1,2.654690742E-1,-6.468998909E0,9.828868508E-1
3.651599844E1,1.069901705E0,-8.351713181E0,9.556025267E-1
3.653600000E1,1.879017353E0,-9.821676254E0,4.182287157E-1
3.655800000E1,2.758063078E0,-1.085221672E1,-6.205675006E-1
3.657999844E1,4.190580845E0,-1.198359299E1,-2.349420547E0
3.659999844E1,9.213749886E0,-1.388905144E1,-1.386018658E1
3.661999844E1,7.490116119E0,-1.077489471E1,-1.310801506E1
3.663999844E1,5.921818256E0,-7.805748463E0,-6.359632015E0
3.665999844E1,5.440143585E0,-1.157123470E1,-1.717399120E0
3.667999844E1,3.036384106E0,-1.536131382E1,3.124653578E0
3.669999844E1,-2.070218325E-1,-1.584156132E1,3.338446140E0
3.672000000E1,-3.859778881E0,-1.123092270E1,-2.019710302E0
3.674199844E1,4.976587594E-1,-1.308643818E1,8.596045971E-1
3.676199844E1,2.024852991E0,-1.658498001E1,3.652115345E0
3.678199844E1,1.058467031E0,-1.441816044E1,1.851915002E0
3.680199844E1,8.259133697E-1,-1.172679043E1,9.577285647E-1
3.682199844E1,1.351766229E0,-1.120386791E1,1.222182512E0
3.684199844E1,1.570127130E0,-1.029817009E1,9.593087435E-1
3.686199844E1,1.307942867E0,-8.106115341E0,4.496981204E-1
3.688199844E1,1.123570085E0,-6.149439812E0,6.394433975E-2
3.690201250E1,9.880391955E-1,-4.928636551E0,-9.320148826E-2
3.692399844E1,7.868687510E-1,-4.376753807E0,-3.350158632E-1
3.694399844E1,6.764673591E-1,-4.005585670E0,-5.305742621E-1
3.696401719E1,5.928330421E-1,-4.124730587E0,-7.067492008E-1
3.698600469E1,6.818974018E-1,-4.933243275E0,-7.843021750E-1
3.700600625E1,7.047284842E-1,-6.191626072E0,-6.746668816E-1
3.702799844E1,9.034855366E-1,-7.877421379E0,-6.252505779E-1
3.704800000E1,1.057921171E0,-9.386669159E0,-6.012032032E-1
3.707001250E1,1.431895375E0,-1.098382092E1,-5.594004393E-1
3.709199844E1,2.260145426E0,-1.224200249E1,-6.432836652E-1
3.711199844E1,2.970313787E0,-1.344088554E1,-9.491477609E-1
3.713200313E1,3.406450987E0,-1.338683414E1,-1.576792479E0
3.715399844E1,3.866520643E0,-1.307858467E1,-2.268362522E0
3.717399844E1,4.627264023E0,-1.530264568E1,-3.204591036E0
3.719399844E1,4.439136982E0,-1.597560787E1,-4.904224873E0
3.721399844E1,2.926403999E0,-9.467544556E0,-4.243081093E0
3.723399844E1,1.846647859E0,-7.890149117E0,-3.163468361E0
3.725399844E1,1.807660699E0,-1.219477081E1,-1.812659621E0
3.727399844E1,1.599173427E0,-1.522557163E1,-1.167077541E0
3.729399844E1,7.027748227E-1,-1.428125954E1,-7.742369175E-1
3.731399844E1,-8.448563218E-1,-1.218247318E1,2.463154867E-2
3.733399844E1,-5.365099430E0,-1.426706696E1,1.109464455E1
3.735399844E1,-4.366458893E0,-9.989346504E0,6.075526029E-2
3.737399844E1,-3.290906668E0,-7.630474091E0,4.490047455E0
3.739399844E1,-1.556030035E0,-5.976109505E0,1.671047449E0
3.741399844E1,2.161676735E-1,-5.841449738E0,6.498246193E-1
3.743399844E1,2.451269865E0,-7.184032440E0,-4.710055828E0
3.745399844E1,1.449727416E0,-6.110175133E0,-4.717018127E0
3.747399844E1,3.055671751E-1,-5.181215286E0,-2.332603693E0
3.749399844E1,-3.470155895E-1,-4.947167397E0,5.624746084E-1
3.751399844E1,-4.814643860E-1,-5.493093967E0,1.691675901E0
3.753399844E1,-3.716279864E-1,-6.346214771E0,1.967976332E0
3.755399844E1,-9.321106225E-2,-7.791087151E0,1.720597863E0
3.757399844E1,6.054744124E-1,-9.547147751E0,1.117756963E0
3.759399844E1,1.444134474E0,-1.095679569E1,2.488150150E-1
3.761399844E1,2.486656189E0,-1.221339703E1,-1.097559571E0
3.763399844E1,9.394023895E0,-1.668603516E1,-1.646602821E1
3.765399844E1,6.356806755E0,-1.272098732E1,-1.123514557E1
3.767399844E1,4.108479023E0,-7.773532391E0,-3.537365913E0
3.769399844E1,4.656464100E0,-1.025472069E1,-2.014318466E0
3.771400000E1,3.461460114E0,-1.522707558E1,1.192647576E0
3.773400000E1,9.639055729E-1,-1.492725372E1,9.346293211E-1
3.775599844E1,-1.896801472E0,-1.183460617E1,-2.235207558E0
3.777600000E1,-2.204341650E0,-1.307600021E1,-1.845326185E0
3.779799844E1,-2.406747341E-1,-1.485992908E1,9.218825698E-1
3.781799844E1,3.588812649E-1,-1.388752842E1,2.034583092E0
3.783800312E1,4.662372768E-1,-1.092866898E1,1.132505298E0
3.785999844E1,7.069885731E-1,-9.755136490E0,5.115068555E-1
3.787999844E1,1.064184308E0,-9.990343094E0,2.396117151E-1
3.789999844E1,1.169653654E0,-9.023123741E0,-3.491703793E-2
3.791999844E1,1.198757648E0,-7.335651875E0,-1.226022765E-1
3.793999844E1,1.092924356E0,-5.734630585E0,-1.789809465E-1
3.795999844E1,8.393113613E-1,-4.875188351E0,-2.838278115E-1
3.797999844E1,7.996633649E-1,-5.016063690E0,-4.014405906E-1
3.799999844E1,9.345909953E-1,-5.445420265E0,-7.457172275E-1
3.801999844E1,9.925402999E-1,-5.839304924E0,-8.404893279E-1
3.803999844E1,9.411223531E-1,-6.555880070E0,-7.418673038E-1
3.805999844E1,9.028342962E-1,-7.421220779E0,-6.917902231E-1
3.808000000E1,8.505257964E-1,-8.141320229E0,-6.390028596E-1
3.810200781E1,7.567400932E-1,-8.518780708E0,-5.105491281E-1
3.812399844E1,6.278650761E-1,-8.762290001E0,-5.376324058E-1
3.814399844E1,8.316786289E-1,-1.001014709E1,-3.113898635E-1
3.816401719E1,1.336845636E0,-1.167914581E1,-4.996603131E-1
3.818599844E1,2.014375925E0,-1.291464901E1,-9.110799432E-1
3.820600625E1,2.494346380E0,-1.324243450E1,-1.392831683E0
3.822799844E1,2.573201895E0,-1.320568848E1,-1.804634333E0
3.824799844E1,2.821691275E0,-1.440222454E1,-2.174768209E0
3.826800000E1,2.642269850E0,-1.445327854E1,-3.372137308E0
3.828999844E1,2.185523272E0,-1.028871822E1,-4.850739002E0
3.830999844E1,1.197234988E0,-6.958929062E0,-3.652402639E0
3.833000000E1,3.627215624E-1,-9.144797325E0,-2.321619034E0
3.835000000E1,-1.031039059E-1,-1.330480862E1,-2.173312664E0
3.837000000E1,-7.799638510E-1,-1.479554367E1,-1.862526178E0
3.839199844E1,-2.120918036E0,-1.334775066E1,-5.146959424E-1
3.841199844E1,-5.220250607E0,-1.369292736E1,6.061946392E0
3.843199844E1,-3.193166018E0,-1.140314293E1,-4.181521237E-1
3.845199844E1,-8.322915435E-1,-9.151701927E0,-1.368257523E0
3.847199844E1,2.584875822E-1,-8.552193642E0,-3.144410372E0
3.849199844E1,3.207368553E-1,-7.376200199E0,-2.734704971E0
3.851200000E1,1.658702828E-2,-5.824355602E0,-8.421939611E-1
3.853200000E1,-5.038549304E-1,-4.488151550E0,1.222450733E0
3.855399844E1,-5.922009945E-1,-3.832350731E0,1.338272572E0
3.857399844E1,-4.624735713E-1,-4.284595966E0,9.694027305E-1
3.859399844E1,-5.379292369E-1,-5.018955708E0,1.222833753E0
3.861399844E1,-3.152110279E-1,-6.088541031E0,1.153124094E0
3.863400000E1,5.227978900E-2,-7.425252438E0,6.879020333E-1
3.865599844E1,6.860920191E-1,-8.901938438E0,3.249602020E-1
3.867600000E1,1.324807644E0,-1.005179691E1,-1.767782718E-1
3.869800000E1,1.904328823E0,-1.042888355E1,-7.994143963E-1
3.872000000E1,4.290935993E0,-1.216462326E1,-4.088922977E0
3.874199844E1,8.473626137E0,-1.490379143E1,-1.622550583E1
3.876199844E1,5.305177212E0,-1.056897354E1,-9.095763206E0
3.878199844E1,5.360799789E0,-8.441266060E0,-6.047513962E0
3.880199844E1,4.563156605E0,-1.240159225E1,-3.015506506E0
3.882200000E1,2.293195009E0,-1.596762943E1,1.634042621E0
3.884200000E1,-8.649197221E-1,-1.494561195E1,1.518929482E0
3.886401719E1,-5.892398357E0,-1.060597897E1,-3.225028038E0
3.888600938E1,-2.615904808E-1,-1.182273006E1,1.883758008E-1
3.890800000E1,8.437454104E-1,-1.453842545E1,2.385534763E0
3.893000000E1,3.030101657E-1,-1.299882984E1,1.385342479E0
3.895199844E1,5.743689537E-1,-1.177167702E1,8.531019092E-1
3.897199844E1,1.176300049E0,-1.112692738E1,4.607401788E-1
3.899199844E1,1.549230456E0,-1.050094891E1,2.869211324E-2
3.901199844E1,1.491520643E0,-9.187816620E0,-2.662352324E-1
3.903199844E1,1.430439711E0,-7.609692574E0,-4.930331707E-1
3.905199844E1,1.138787746E0,-5.772266865E0,-5.666884184E-1
3.907199844E1,9.773706198E-1,-5.213297367E0,-6.344634295E-1
3.909199844E1,1.007901430E0,-5.239882946E0,-8.541458249E-1
3.911199844E1,1.095625043E0,-5.197668552E0,-1.101074219E0
3.913199844E1,1.054866076E0,-5.407773972E0,-1.087360263E0
3.915199844E1,8.742475510E-1,-5.954705238E0,-1.168705583E0
3.917199844E1,7.323096991E-1,-6.602844238E0,-1.132419109E0
3.919199844E1,6.686717868E-1,-7.564192772E0,-9.800521135E-1
3.921199844E1,5.163622499E-1,-8.514940262E0,-9.266518354E-1
3.923199844E1,5.620244741E-1,-9.629948616E0,-8.237777948E-1
3.925199844E1,8.641535640E-1,-1.111581802E1,-9.189712405E-1
3.927200000E1,1.356516361E0,-1.236175156E1,-1.010851145E0
3.929399844E1,1.964796901E0,-1.275942898E1,-1.082380295E0
3.931399844E1,2.515242815E0,-1.310417461E1,-1.175074220E0
3.933399844E1,3.107453585E0,-1.486608696E1,-1.527050495E0
3.935399844E1,3.450667143E0,-1.550188160E1,-2.277833939E0
3.937399844E1,3.218448639E0,-1.005231476E1,-2.056035042E0
3.939399844E1,2.586858511E0,-8.530091286E0,-2.395159483E0
3.941399844E1,1.956570268E0,-9.993905067E0,-2.839877367E0
3.943399844E1,1.742557526E0,-1.238334751E1,-2.734063387E0
3.945399844E1,9.165482521E-1,-1.375261021E1,-2.118811131E0
3.947399844E1,-2.983079553E-1,-1.342516041E1,-1.241115808E0
3.949399844E1,-1.854759336E0,-1.206732273E1,-7.422025315E-3
3.951399844E1,-3.583114147E0,-1.094864655E1,1.003572702E0
3.953399844E1,-8.041271210E0,-1.250459957E1,3.583880663E0
3.955399844E1,-5.083752155E0,-8.296598434E0,1.129048109E0
3.957399844E1,-1.323677540E0,-7.518607616E0,-9.889298081E-1
3.959399844E1,9.998281598E-1,-8.468253136E0,-5.020353317E0
3.961399844E1,3.960584104E-1,-6.559355736E0,-4.757000923E0
3.963400000E1,-2.565913796E-1,-5.431917191E0,-3.382058859E0
3.965599844E1,-5.450160503E-1,-5.033933640E0,-9.668552876E-1
3.967599844E1,-4.350934625E-1,-4.759002209E0,4.677504003E-1
3.969599844E1,-3.677589595E-1,-4.797989845E0,1.197196603E0
3.971600625E1,-4.033271968E-1,-5.221648216E0,1.288444400E0
3.973799844E1,8.976341039E-2,-6.523347378E0,9.701592326E-1
3.975799844E1,9.366021156E-1,-8.073880196E0,5.945951939E-1
3.977799844E1,1.587911129E0,-9.319391251E0,1.410088986E-1
3.979799844E1,2.512590170E0,-1.086976147E1,-7.552844286E-1
3.981799844E1,4.664058208E0,-1.285393238E1,-3.443302393E0
3.983799844E1,9.052361488E0,-1.419254971E1,-1.505695248E1
3.985799844E1,6.190083981E0,-9.005214691E0,-9.660346031E0
3.987800000E1,3.752815485E0,-5.997714996E0,-2.659891129E0
3.989999844E1,3.021635771E0,-1.111105919E1,-1.247302532E0
3.991999844E1,2.425125360E0,-1.506712341E1,-4.382892609E0
3.993999844E1,-4.235630333E-1,-1.469022751E1,3.345178440E-2
3.995999844E1,-8.345708251E-1,-1.628672981E1,1.525891781E0
3.997999844E1,-1.449938059E0,-1.836355591E1,2.315719843E0
3.999999844E1,-2.121540546E0,-1.715389061E1,2.047521353E0
4.001999844E1,-5.554614544E0,-1.339567375E1,4.451634884E0
4.003999844E1,-2.431570292E0,-1.162729645E1,1.202377677E0
4.005999844E1,-4.295389354E-1,-1.137812805E1,1.136460423E0
4.007999844E1,4.608550966E-1,-1.026533127E1,7.145351768E-1
4.009999844E1,7.040677071E-1,-8.383919716E0,2.887981832E-1
4.011999844E1,6.858717799E-1,-6.872106075E0,-1.925033927E-1
4.013999844E1,6.384282112E-1,-5.568827152E0,-8.545288444E-1
4.015999844E1,6.879978180E-1,-4.573107243E0,-1.095012069E0
4.017999844E1,7.524496913E-1,-3.936316729E0,-9.010051489E-1
4.019999844E1,9.282511473E-1,-3.668070316E0,-7.579371929E-1
4.021999844E1,1.113112330E0,-4.036901951E0,-5.120622516E-1
4.023999844E1,1.313947558E0,-5.097025394E0,-7.972021699E-1
4.025999844E1,1.533189297E0,-6.628280163E0,-9.502778053E-1
4.027999844E1,1.776239157E0,-7.860327244E0,-1.081757784E0
4.029999844E1,1.862516522E0,-8.928208351E0,-1.234163046E0
4.031999844E1,2.073426485E0,-1.013931084E1,-1.191201568E0
4.034000000E1,2.434060335E0,-1.190438271E1,-1.235915661E0
4.036199844E1,2.713109493E0,-1.316166401E1,-1.442420244E0
4.038199844E1,2.771345854E0,-1.301503277E1,-1.620749950E0
4.040199844E1,2.874076366E0,-1.306088734E1,-1.792969704E0
4.042199844E1,3.069471836E0,-1.361213779E1,-2.208813906E0
4.044199844E1,3.190340757E0,-1.462738514E1,-2.616900921E0
4.046199844E1,3.079460382E0,-1.475336838E1,-3.332556486E0
4.048200000E1,2.432250261E0,-1.159866238E1,-4.150367737E0
4.050399844E1,1.334212065E0,-7.741948128E0,-2.813962698E0
4.052399844E1,9.937947989E-1,-8.741230011E0,-2.449565172E0
4.054399844E1,7.358148098E-1,-1.244436169E1,-2.542278290E0
4.056401875E1,2.045414448E-1,-1.469938278E1,-2.166398287E0
4.058600156E1,-9.988801479E-1,-1.372526836E1,-7.867155075E-1
4.060600156E1,-4.380671024E0,-1.312687206E1,5.125353813E0
4.062800000E1,-3.933529854E0,-1.002320099E1,1.765196919E-1
4.065000000E1,-3.509171963E0,-8.276869774E0,2.042799950E0
4.067199844E1,-9.617316723E-1,-7.175202370E0,1.870810032E0
4.069199844E1,9.447615743E-1,-6.666377068E0,-4.432816505E-1
4.071199844E1,3.924173117E0,-7.997131824E0,-9.326201439E0
4.073199844E1,1.226712227E0,-5.162617207E0,-3.409247637E0
4.075199844E1,-3.017939031E-1,-3.343818665E0,4.698668718E-1
4.077199844E1,-5.842235088E-1,-3.398329735E0,2.009367228E0
4.079199844E1,-3.772304058E-1,-4.537223339E0,1.898046494E0
4.081199844E1,-1.484596580E-1,-5.734151363E0,1.687768579E0
4.083199844E1,2.969863713E-1,-7.236283302E0,1.151275873E0
4.085199844E1,9.649398923E-1,-8.548037529E0,6.348465085E-1
4.087199844E1,1.527337909E0,-9.522458076E0,1.664544791E-1
4.089200000E1,1.888306856E0,-1.051645374E1,-2.501174510E-1
4.091399844E1,2.604738235E0,-1.200152016E1,-1.315068007E0
4.093399844E1,6.712862968E0,-1.511001778E1,-1.284885597E1
4.095399844E1,6.997887611E0,-1.373175240E1,-1.534924603E1
4.097399844E1,4.834180832E0,-7.584160805E0,-7.033733368E0
4.099399844E1,5.387787342E0,-8.053663254E0,-5.256872177E0
4.101399844E1,4.249487877E0,-1.312881565E1,7.322713733E-1
4.103399844E1,3.699893951E0,-1.733491898E1,3.359840870E0
4.105399844E1,-1.764239371E-1,-1.449866295E1,1.735451460E0
4.107399844E1,-7.388994694E0,-1.027389240E1,-1.292581677E0
4.109399844E1,-3.963763714E0,-8.584429741E0,-3.355837584E0
4.111399844E1,-2.605082989E-1,-1.218260860E1,3.426677287E-1
4.113399844E1,6.893768311E-1,-1.565073299E1,2.155796528E0
4.115399844E1,2.587749064E-1,-1.488632202E1,1.080675602E0
4.117399844E1,8.115864992E-1,-1.273215389E1,4.082209766E-1
4.119399844E1,1.429807663E0,-1.077957726E1,-1.580939293E-1
4.121399844E1,1.567234874E0,-9.305189133E0,-7.039240003E-1
4.123399844E1,1.428849936E0,-7.710297108E0,-1.083050609E0
4.125399844E1,1.172459722E0,-6.099812984E0,-1.080474496E0
4.127399844E1,9.024033546E-1,-5.140561581E0,-1.011377811E0
4.129399844E1,9.644036293E-1,-4.931394577E0,-8.324160576E-1
4.131399844E1,8.870517612E-1,-4.673606396E0,-9.808470011E-1
4.133399844E1,7.752904296E-1,-4.866118908E0,-1.099503636E0
4.135399844E1,6.438487172E-1,-5.357121944E0,-1.005076289E0
4.137399844E1,6.537224054E-1,-6.425884247E0,-7.169580460E-1
4.139399844E1,6.744275093E-1,-7.529218197E0,-6.141031384E-1
4.141399844E1,6.212857962E-1,-8.518712997E0,-5.700881481E-1
4.143399844E1,7.415800095E-1,-9.625983238E0,-5.470176339E-1
4.145399844E1,1.084745765E0,-1.106928539E1,-7.766790390E-1
