"Time (s)","Gyroscope x (rad/s)","Gyroscope y (rad/s)","Gyroscope z (rad/s)"
1.528510000E-1,-2.558670044E0,-5.706423759E0,-3.018895984E-1
1.728510000E-1,-9.239947796E-1,-4.594648838E0,6.363993883E-1
1.928510000E-1,6.225589290E-2,-3.741200447E0,1.154500365E0
2.128510000E-1,2.910511196E-1,-2.479205370E0,9.908408523E-1
2.328510000E-1,1.291020066E-1,-9.029635191E-1,6.769782901E-1
2.528510000E-1,5.109626055E-1,9.016370773E-1,9.060004354E-1
2.748494380E-1,1.264560819E0,3.247586489E0,1.332872987E0
2.948494380E-1,1.798491955E0,4.964187622E0,1.463510990E0
3.148525630E-1,1.346521497E0,1.079905033E0,9.690417051E-1
3.368494380E-1,2.828480601E-1,-1.014455199E0,4.926540852E-1
3.568494380E-1,2.228959948E-1,-2.381013155E0,4.484449029E-1
3.768510000E-1,1.413751602E0,-4.017049670E-1,-2.391101122E-1
3.968525630E-1,1.132683754E0,-1.110762477E0,-9.131737351E-1
4.188510000E-1,4.372747838E-1,-1.097113967E0,-4.483227134E-1
4.388572500E-1,8.642870188E-2,-1.039744973E0,2.410648763E-1
4.608494380E-1,-1.294685304E-1,-1.898551702E0,-8.080874383E-2
4.808541250E-1,-1.040565297E-1,-3.310837269E0,-4.788310826E-1
5.028494380E-1,5.290092826E-1,-3.749595642E0,-6.163630486E-1
5.228494380E-1,1.116225362E0,-2.350557089E0,-5.115734339E-1
5.428494380E-1,1.120291948E0,-4.881511331E-1,-7.051129937E-1
5.628494380E-1,7.108726352E-2,2.430371046E-1,-1.282240987E0
5.828494380E-1,-6.440613866E-1,-1.184956431E0,-5.638809800E-1
6.028494380E-1,-6.354918480E-1,-2.908573627E0,1.514998198E0
6.228494380E-1,-1.286133081E-1,-3.104975700E0,2.111167669E0
6.428494380E-1,-1.810953617E-1,-1.618792892E0,1.607919455E0
6.628494380E-1,-2.112371922E-1,-2.210197687E0,1.713215232E0
6.828494380E-1,2.489013970E-1,-2.887821674E0,2.234754562E0
7.028494380E-1,1.315594316E0,-4.838645935E0,2.525613546E0
7.228494380E-1,2.866214514E0,-6.983358860E0,2.970061779E0
7.428494380E-1,4.195579529E0,-9.351944923E0,3.766420603E0
7.628494380E-1,5.547825813E0,-1.011702824E1,4.685388565E0
7.828494380E-1,6.676792145E0,-1.005630779E1,6.361236572E0
8.028494380E-1,6.869825363E0,-8.589114189E0,8.070420265E0
8.228494380E-1,6.536764145E0,-6.357623577E0,9.060754776E0
8.428494380E-1,6.072157383E0,-4.123951435E0,8.732440948E0
8.628494380E-1,5.756706715E0,-1.958660841E0,7.426044464E0
8.828494380E-1,5.727001190E0,-3.130422533E-1,6.170227528E0
9.028494380E-1,5.732202530E0,7.719241977E-1,4.780875683E0
9.228510000E-1,5.186420441E0,1.477002382E0,3.056368113E0
9.428510000E-1,4.367040634E0,1.600501776E0,1.262396693E0
9.648681880E-1,3.540033817E0,1.448588371E0,-5.858371854E-1
9.868494380E-1,2.505524874E0,1.289815784E0,-2.028020144E0
1.006851000E0,1.469235659E0,1.275399327E0,-3.223361254E0
1.028851000E0,4.902804494E-1,1.431728482E0,-4.356080055E0
1.048851000E0,-2.756398618E-1,1.224261165E0,-5.255849361E0
1.070863500E0,-1.488189936E0,8.382816315E-1,-6.175411224E0
1.092849438E0,-2.933863640E0,8.794714212E-1,-7.033607006E0
1.112849438E0,-3.747396469E0,9.598263502E-1,-6.300795555E0
1.132851000E0,-3.804416418E0,9.784490466E-1,-5.257001400E0
1.152851000E0,-3.316195488E0,9.503492117E-1,-4.538205147E0
1.172851000E0,-2.565668821E0,-4.518657327E-1,-3.955561876E0
1.192851000E0,-1.800499082E0,-1.290548801E0,-2.991895676E0
1.212851000E0,-1.950580001E0,-1.717595935E0,-1.646072388E0
1.232851000E0,-1.837098598E0,-1.039378524E0,-5.381897092E-1
1.254849438E0,-1.285941124E0,-8.739387393E-1,-1.489464045E-1
1.274849438E0,-1.148269534E0,-1.117132902E0,6.420891881E-1
1.294849438E0,-2.098426819E0,-1.510704637E0,1.419842839E0
1.314849438E0,-3.720919847E0,-1.166071892E0,2.518579960E0
1.334849438E0,-4.119465828E0,-1.999536395E0,3.143460035E0
1.354849438E0,-3.839113474E0,-5.003510118E-1,2.665396929E0
1.374849438E0,-3.647074938E0,-2.433687150E-1,2.257635832E0
1.394849438E0,-3.619201899E0,-1.461381674E0,2.934264898E0
1.414849438E0,-2.903041124E0,-9.453750253E-1,4.299618721E0
1.434849438E0,-1.393994451E0,-7.754148841E-1,4.978307247E0
1.454849438E0,-4.169068038E-1,-9.560564756E-1,4.639905453E0
1.474849438E0,6.990043819E-2,6.374465823E-1,4.003331661E0
1.494849438E0,-3.213151172E-2,2.119021654E0,2.776417494E0
1.514851000E0,-7.340855002E-1,2.491823912E0,1.065663099E0
1.536849438E0,-1.004227519E0,1.071684480E0,1.178149581E0
1.556849438E0,-8.907985687E-1,7.026171684E-1,1.341233134E0
1.576849438E0,-6.325422525E-1,9.935635924E-1,6.617415547E-1
1.596849438E0,-4.443608224E-1,7.216761708E-1,1.541474760E-1
1.616849438E0,-2.783800066E-1,5.325348377E-1,1.672199965E-1
1.636858813E0,-3.380877376E-1,-1.041612476E-1,1.521752626E-1
1.658849438E0,-3.217339814E-1,-1.120431542E0,-2.319542617E-1
1.678851000E0,-1.684591770E-1,-1.426544905E0,-5.019217730E-1
1.700849438E0,-9.463175386E-2,-8.852658868E-1,-3.030764163E-1
1.720849438E0,-6.194173694E-1,-3.304781020E-1,2.200336605E-1
1.740849438E0,-1.035399079E0,3.185226023E-2,1.658359528E0
1.760849438E0,-9.775589108E-1,5.138074756E-1,2.915956497E0
1.780849438E0,-7.214318514E-1,1.481505275E0,2.225992918E0
1.800849438E0,-2.484650761E-1,2.077011585E0,1.830431461E0
1.820851000E0,-1.033758521E-1,2.165796518E0,1.932480931E0
1.842849438E0,8.005825430E-2,2.117328644E0,1.542836189E0
1.862849438E0,3.141418099E-1,1.702045083E0,1.396368146E0
1.882849438E0,7.309962511E-1,1.632197022E0,1.624063730E0
1.902849438E0,3.664667904E-1,-3.496592641E-1,3.677216768E0
1.922849438E0,1.225989103E0,-1.781073570E0,4.326112747E0
1.942849438E0,1.369367838E0,-1.456512213E0,2.951962709E0
1.962849438E0,1.302574158E0,-1.298350453E0,1.496654749E0
1.982849438E0,1.107446313E0,-1.823205829E0,6.998944879E-1
2.002849438E0,7.152359486E-1,-2.323190212E0,1.000422761E-1
2.022851000E0,3.371976018E-1,-1.700072885E0,-1.366592757E-2
2.044851000E0,1.387187690E-1,-5.416978598E-1,2.244144380E-1
2.064868188E0,5.618214980E-2,3.726452589E-1,3.567453027E-1
2.086857250E0,1.288227588E-1,1.061753631E0,1.913928092E-1
2.108849438E0,4.652698636E-1,1.083954215E0,-9.539970011E-2
2.128849438E0,7.804588675E-1,6.121044159E-1,-3.793298602E-1
2.148851000E0,9.638929963E-1,-2.397733331E-1,-6.516011953E-1
2.170849438E0,8.926486373E-1,-1.080184221E0,-9.221621752E-1
2.190849438E0,-4.767890573E-1,-2.961300135E0,-2.077133894E0
2.210851000E0,-2.933130503E0,-4.941794872E0,-3.752946615E0
2.230851000E0,-3.564101934E0,-3.543140650E0,-3.369200945E0
2.252849438E0,-2.415937185E0,-1.375755787E0,-9.993057251E-1
2.272849438E0,-1.187207818E0,-5.688900948E-1,3.190636337E-1
2.292849438E0,-5.733930469E-1,-1.160452008E0,4.156676233E-1
2.312849438E0,-4.908913076E-1,-2.201296568E0,-2.775073424E-2
2.332849438E0,-6.144431829E-1,-2.170753241E0,-2.233323306E-1
2.352849438E0,-6.849021316E-1,-2.231839657E0,-1.722989082E-1
2.372849438E0,-6.058561206E-1,-1.961784959E0,-3.508111835E-1
2.392849438E0,-4.337666631E-1,-1.252832294E0,-7.930252552E-1
2.412849438E0,-3.418925405E-1,-1.765924096E-1,-1.056028962E0
2.432849438E0,-2.753256857E-1,6.119473577E-1,-1.098126292E0
2.452849438E0,-2.469117343E-1,1.064930081E0,-9.862506390E-1
2.472849438E0,-1.949009150E-1,1.241627216E0,-7.758163214E-1
2.492849438E0,-5.707226694E-2,1.357709050E0,-3.930132389E-1
2.512849438E0,2.317797244E-1,1.623697281E0,2.714510560E-1
2.532849438E0,5.769709349E-1,1.934819698E0,1.169841886E0
2.552849438E0,7.839495540E-1,1.768175602E0,2.176826954E0
2.572849438E0,9.005375504E-1,1.055889249E0,2.921384335E0
2.592849438E0,1.009934783E0,-1.043183282E-1,3.030066013E0
2.612849438E0,1.133277178E0,-1.343345046E0,2.544271231E0
2.632849438E0,1.295278668E0,-2.331690073E0,1.700875759E0
2.652849438E0,1.493652821E0,-3.014759541E0,7.510151863E-1
2.672849438E0,1.705221534E0,-3.196902037E0,3.173008561E-2
2.692849438E0,1.853155732E0,-3.097610235E0,-5.522919893E-1
2.712849438E0,1.907383084E0,-2.925939798E0,-1.046080589E0
2.732849438E0,1.939444780E0,-3.053732872E0,-1.301369786E0
2.752849438E0,2.038125753E0,-3.640739441E0,-1.329522014E0
2.772849438E0,2.547203302E0,-5.048766136E0,-9.558295608E-1
2.792849438E0,2.558338404E0,-3.042632580E0,-5.029166341E-1
2.812849438E0,4.778886139E-1,1.427696824E0,-1.025206372E-1
2.832849438E0,-1.810360193E0,1.461521268E0,-3.368485486E-3
2.852849438E0,-3.029071331E0,9.708219171E-1,-8.597491682E-2
2.872849438E0,-3.278723240E0,9.803514481E-1,-3.148573935E-1
2.892849438E0,-2.963970423E0,1.368599892E0,-4.975235462E-1
2.914849438E0,-2.304550171E0,2.109265327E0,-5.548750758E-1
2.936849438E0,-1.742240071E0,2.922588825E0,-3.529404700E-1
2.956849438E0,-1.531404257E0,2.833646774E0,-8.318239450E-2
2.976849438E0,-1.529571652E0,1.896823883E0,2.815565169E-1
2.996849438E0,-1.481034040E0,8.627162576E-1,6.466968656E-1
3.016854125E0,-1.258103132E0,5.382421017E-1,8.367282748E-1
3.038849438E0,-9.440311193E-1,8.473049998E-1,8.219977021E-1
3.058849438E0,-6.662445068E-1,1.146489382E0,6.679025888E-1
3.078849438E0,-4.030139744E-1,1.217402101E0,4.633499980E-1
3.098849438E0,-1.707106531E-1,1.211904287E0,3.280346394E-1
3.118849438E0,5.412266031E-2,1.204853177E0,2.521651685E-1
3.138849438E0,2.380803674E-1,1.148496509E0,1.388583928E-1
3.158849438E0,3.828205168E-1,1.072661877E0,2.436479554E-2
3.178849438E0,5.741086006E-1,1.004698753E0,-9.456194192E-2
3.198849438E0,7.294428945E-1,9.371894598E-1,-2.429323792E-1
3.218849438E0,8.607439995E-1,7.348359823E-1,-3.466398418E-1
3.238849438E0,1.027841806E0,3.818954825E-1,-2.738770545E-1
3.258849438E0,1.210420728E0,-3.952821791E-1,-3.860668465E-2
3.278849438E0,1.263094783E0,-1.669355035E0,2.696882784E-1
3.298849438E0,1.015799046E0,-2.927056789E0,4.419348240E-1
3.318849438E0,-4.190535471E-2,-4.824090004E0,-5.815437064E-2
3.338849438E0,-1.725432515E0,-6.415742874E0,-6.849544644E-1
3.358849438E0,-2.908818007E0,-6.416667938E0,-8.174947500E-1
3.378849438E0,-2.831726789E0,-4.286161900E0,-4.810301960E-1
3.398849438E0,-7.620107532E-1,1.250126958E0,-8.447393775E-2
3.418849438E0,5.687853694E-1,3.264673233E0,1.762259007E-1
3.438849438E0,6.628760695E-1,3.008354187E0,6.167120934E-1
3.458849438E0,1.622458100E-1,2.211750984E0,1.223423481E0
3.478849438E0,-2.976658940E-1,2.057638407E0,1.554407716E0
3.498849438E0,-6.876946092E-1,2.608935595E0,1.551405668E0
3.518849438E0,-1.136331558E0,3.089180470E0,1.612596989E0
3.538849438E0,-1.401953220E0,3.305706024E0,1.624133587E0
3.558849438E0,-1.427923679E0,2.965803146E0,1.353607535E0
3.578849438E0,-1.207977295E0,2.171974897E0,7.951894403E-1
3.598849438E0,-7.879463434E-1,1.242325306E0,1.894380301E-1
3.618849438E0,-3.331484497E-1,5.991889834E-1,-1.659808122E-2
3.638849438E0,2.256710641E-2,4.108504951E-2,3.337069601E-2
3.658849438E0,2.127032727E-1,-6.067287922E-1,6.209881604E-2
3.678849438E0,2.633527219E-1,-1.016724110E0,6.225589290E-2
3.698849438E0,2.416757345E-1,-9.734224677E-1,6.719517708E-2
3.718849438E0,2.131570578E-1,-7.706675529E-1,8.276351541E-2
3.740849438E0,1.866629571E-1,-5.716825724E-1,8.217009902E-2
3.760849438E0,1.785646379E-1,-4.256508946E-1,3.110176697E-2
3.780849438E0,2.147453129E-1,-3.438996673E-1,-7.367035002E-2
3.800849438E0,2.956936955E-1,-3.722089231E-1,-2.038195431E-1
3.820849438E0,4.480434656E-1,-5.206840634E-1,-2.871590257E-1
3.840849438E0,6.509729028E-1,-7.333524227E-1,-3.570594490E-1
3.860849438E0,8.905367851E-1,-9.379224777E-1,-4.212352037E-1
3.880849438E0,1.115876198E0,-1.220805407E0,-4.044975042E-1
3.900849438E0,1.330185175E0,-1.657888293E0,-2.264913768E-1
3.920849438E0,1.437802196E0,-2.118131638E0,-2.736676298E-2
3.940849438E0,1.477543354E0,-2.576297998E0,1.023810133E-1
3.960849438E0,1.565019250E0,-2.830557585E0,1.454208344E-1
3.980849438E0,1.664991736E0,-2.865987778E0,8.042477071E-2
4.000849438E0,1.642389774E0,-2.813051939E0,-9.246754646E-2
4.020849438E0,1.436161637E0,-2.592197895E0,-4.365068376E-1
4.040849438E0,1.143661857E0,-2.467738390E0,-6.438868642E-1
4.060849438E0,7.795861959E-1,-2.415727615E0,-7.309264541E-1
4.080849438E0,2.174680233E-1,-2.287533283E0,-6.483898163E-1
4.100849438E0,-4.938409030E-1,-1.773167253E0,-5.633922815E-1
4.120849438E0,-9.787457585E-1,-6.301860213E-1,-4.604527652E-1
4.140849438E0,-1.202898383E0,8.867494464E-1,-2.668433785E-1
4.160849438E0,-1.370676875E0,2.189655066E0,3.345796093E-2
4.180849438E0,-1.589192033E0,3.158993483E0,4.473104179E-1
4.200849438E0,-1.746079683E0,3.643496990E0,9.675407410E-1
4.220849438E0,-1.794338107E0,3.321082354E0,1.370100856E0
4.240849438E0,-1.314564586E0,2.078041315E0,1.451520562E0
4.260849438E0,-4.192106426E-1,5.551892519E-1,1.383068681E0
4.280849438E0,1.251453400E0,-4.808050632E0,1.763934493E0
4.300849438E0,1.542696476E0,-4.593235493E0,7.018318176E-1
4.320849438E0,1.021593571E0,-2.960287809E0,-1.829105020E-1
4.340849438E0,4.279721975E-1,-8.423133492E-1,-6.964910626E-1
4.360849438E0,1.056273282E-1,9.227032065E-1,-8.847946525E-1
4.380849438E0,-9.459684789E-2,1.850223541E0,-7.967602611E-1
4.400849438E0,-2.975262702E-1,1.950719595E0,-7.686604261E-1
4.420849438E0,-5.099852085E-1,1.541963458E0,-8.089077473E-1
4.440849438E0,-6.246358752E-1,3.018372357E-1,-7.386058569E-1
4.460849438E0,-5.883679390E-1,-2.156057596E0,-8.347036839E-1
4.480849438E0,-7.015874386E-1,-5.081473827E0,-1.300985932E0
4.500849438E0,-1.195306182E0,-5.443821430E0,-1.692533016E0
4.520849438E0,-1.532817960E0,-4.014780998E0,-1.686808348E0
4.540849438E0,-6.926687956E-1,-9.345016479E-1,-1.127796888E0
4.560849438E0,3.499210477E-1,2.616946697E0,-2.187595665E-1
4.580849438E0,1.263426423E0,3.367002010E0,5.543689132E-1
4.602849438E0,2.229413748E0,1.719725251E0,1.491069674E0
4.622849438E0,2.766381741E0,-4.830024242E-1,2.299226999E0
4.642849438E0,2.820277452E0,-2.591133356E0,2.163510084E0
4.662849438E0,2.749783754E0,-3.475386858E0,9.822014570E-1
4.682849438E0,3.035441637E0,2.130523473E-1,3.160616755E-1
4.702849438E0,2.142287016E0,9.918880463E-1,-2.271720618E-1
4.722874438E0,8.336216211E-1,1.425340533E0,-4.496666193E-1
4.744849438E0,1.698030829E-1,1.742013097E0,-3.511776924E-1
4.764868188E0,-2.209412307E-1,1.474960327E0,-2.071007639E-1
4.786855688E0,-3.847054839E-1,9.434028268E-1,-5.414011329E-2
4.806857250E0,-4.108854234E-1,4.162435830E-1,3.686135262E-2
4.828849438E0,-3.637789786E-1,-2.862340072E-3,6.092944369E-2
4.848849438E0,-2.893930376E-1,-9.793042392E-2,5.934119597E-2
4.868849438E0,-1.827534288E-1,5.321509019E-2,7.154104859E-2
4.888851000E0,-4.696680978E-2,3.486818671E-1,1.048070192E-1
4.910849438E0,7.951720059E-2,6.391221285E-1,1.199041158E-1
4.930851000E0,1.613207757E-1,7.738964558E-1,1.325228512E-1
4.952849438E0,2.001020014E-1,7.590960264E-1,1.560324281E-1
4.972849438E0,2.156528831E-1,6.501176953E-1,1.832421124E-1
4.992849438E0,2.225120217E-1,4.465425014E-1,1.755452156E-1
5.012849438E0,2.232276052E-1,2.672099173E-1,1.437453181E-1
5.032851000E0,2.513448596E-1,1.909041107E-1,1.380904466E-1
5.054851000E0,2.359336019E-1,2.057917714E-1,1.293463558E-1
5.076849438E0,1.177224591E-1,4.492128491E-1,2.614503168E-2
5.096849438E0,-1.928588748E-2,5.786290169E-1,-1.289972812E-1
5.116849438E0,-2.013760954E-1,7.472801805E-1,-3.473030627E-1
5.136849438E0,-4.568748474E-1,8.070576787E-1,-4.065046310E-1
5.156849438E0,-6.232047081E-1,6.513918042E-1,-3.213674724E-1
5.176849438E0,-6.734178066E-1,4.087037444E-1,-2.638065219E-1
5.196854125E0,-5.670225620E-1,-2.942625061E-2,-3.072826564E-1
5.218849438E0,-3.538131416E-1,-3.780034184E-1,-3.033556640E-1
5.238849438E0,-2.558652759E-1,-3.304606378E-1,-2.238733768E-1
5.258849438E0,-2.441017479E-1,-8.272860199E-3,-2.110975683E-1
5.278849438E0,-1.239829540E0,-1.820849657E0,-1.084687233E0
5.298849438E0,-2.163719654E0,-2.494145393E0,-1.196126461E0
5.318849438E0,-1.717124701E0,-6.901381016E-1,-2.608743608E-1
5.338849438E0,-1.897277594E0,-9.241867661E-1,-2.398955077E-1
5.358849438E0,-2.043536186E0,-6.583381891E-1,-3.432189822E-1
5.378849438E0,-1.888271689E0,-2.989225388E-1,-3.840945959E-1
5.398851000E0,-1.457419753E0,1.478468478E-1,-2.960078418E-1
5.420851000E0,-9.532115459E-1,7.643145919E-1,-7.698646933E-2
5.442849438E0,-5.179787874E-1,1.473965406E0,2.317797244E-1
5.462849438E0,-4.127703607E-2,1.886508942E0,5.325348377E-1
5.482849438E0,5.524141788E-1,1.907836795E0,8.176169395E-1
5.502851000E0,1.154360771E0,1.604062319E0,9.806830287E-1
5.522854125E0,1.587603807E0,1.132317305E0,9.082693458E-1
5.544851000E0,1.757860661E0,4.779584110E-1,6.369753480E-1
5.564869750E0,1.440210819E0,-5.245237947E-1,2.356019914E-1
5.586851000E0,1.798212677E-1,-2.277654648E0,-2.511528730E-1
5.608851000E0,-1.420314074E0,-3.155764818E0,-9.013752937E-1
5.630849438E0,-2.570555925E0,-1.930212021E0,-9.983632565E-1
5.650849438E0,-2.618971348E0,1.078089848E-1,-8.278270960E-1
5.670849438E0,-1.421413541E0,1.649807334E0,-3.720169365E-1
5.690849438E0,-8.726646192E-3,2.912238836E0,2.235766686E-2
5.710851000E0,1.088282585E0,2.462711811E0,4.098381996E-1
5.732849438E0,1.958032489E0,9.797754884E-1,9.085485935E-1
5.752849438E0,2.520464897E0,-5.654866695E-1,1.164518595E0
5.772849438E0,1.159945846E0,-4.155960560E0,-3.035651147E-1
5.792849438E0,1.273846030E0,-1.248521328E0,5.089380220E-2
5.812849438E0,1.205481410E0,4.623377025E-1,3.465176821E-1
5.832849438E0,9.340827465E-1,9.825854301E-1,4.218984246E-1
5.852849438E0,5.843536854E-1,8.648455739E-1,2.794097662E-1
5.872849438E0,3.026400805E-1,3.807959259E-1,1.316152811E-1
5.892849438E0,5.113814771E-2,-1.604481190E-1,1.684242673E-2
5.912849438E0,-1.700125188E-1,-5.931501389E-1,-5.686282739E-2
5.932849438E0,-3.315950930E-1,-7.514864206E-1,-1.238485649E-1
5.952849438E0,-4.151090980E-1,-6.090675592E-1,-1.838878840E-1
5.972849438E0,-4.113217294E-1,-2.626720369E-1,-1.504997462E-1
5.992849438E0,-3.509333432E-1,1.361531317E-1,-4.106759652E-2
6.012849438E0,-2.418502718E-1,4.629311264E-1,1.151917279E-1
6.032849438E0,-1.396787018E-1,5.818055272E-1,2.134363204E-1
6.052849438E0,-4.426154867E-2,5.648059845E-1,2.740516067E-1
6.072849438E0,2.008873969E-2,5.200208426E-1,3.285233378E-1
6.092849438E0,6.517059356E-2,4.102047384E-1,3.616671264E-1
6.112849438E0,9.267698228E-2,2.308372408E-1,3.278950155E-1
6.132854125E0,1.147903055E-1,-4.317944497E-2,2.387610376E-1
6.154849438E0,8.827875555E-2,-4.563861489E-1,1.528733820E-1
6.174849438E0,2.754129469E-2,-7.516609430E-1,1.137954667E-1
6.194849438E0,-1.570796303E-4,-9.566847682E-1,1.349488646E-1
6.214849438E0,4.728097096E-2,-1.067548037E0,1.670978218E-1
6.234849438E0,1.845162064E-1,-1.024019599E0,1.692969352E-1
6.254849438E0,3.977256417E-1,-8.169537187E-1,6.576400250E-2
6.274849438E0,4.673468173E-1,-4.997401237E-1,-2.591813914E-2
6.294849438E0,2.304707319E-1,-1.609717160E-1,-1.690002382E-1
6.314849438E0,-1.179318950E-1,-1.862266287E-2,-3.468492925E-1
6.334849438E0,-4.489684999E-1,8.340928704E-2,-5.001415610E-1
6.354849438E0,-7.352199554E-1,4.746248424E-1,-5.062502027E-1
6.374849438E0,-9.865298867E-1,1.147327065E0,-4.448320568E-1
6.394849438E0,-1.045330048E0,1.792330980E0,-2.951700687E-1
6.414849438E0,-9.489704370E-1,2.318687439E0,-5.452408642E-2
6.434849438E0,-7.947880030E-1,2.608289957E0,3.284011483E-1
6.454849438E0,-6.744824648E-1,2.340521336E0,6.826680899E-1
6.474849438E0,-1.257823825E0,-1.192059889E-1,-7.289541960E-1
6.494849438E0,-1.087654233E0,-5.910034180E-1,-5.907067060E-1
6.514849438E0,-4.434357882E-1,-1.158374995E-1,1.985137463E-1
6.534849438E0,-1.786344498E-1,4.415683076E-2,4.077438116E-1
6.554849438E0,-3.464129567E-1,-7.400196046E-3,3.024306595E-1
6.574849438E0,-5.038416386E-1,2.559874356E-1,2.351831198E-1
6.594849438E0,-2.760412693E-1,8.072845936E-1,3.376165032E-1
6.614849438E0,1.854935884E-1,1.036324143E0,5.321508646E-1
6.634849438E0,6.495068073E-1,8.934515119E-1,5.514367819E-1
6.654849438E0,9.722356796E-1,5.163730979E-1,4.357738197E-1
6.674849438E0,1.128809094E0,-4.642575979E-3,2.235766798E-1
6.694849438E0,1.017893434E0,-6.893352270E-1,-5.197590590E-2
6.714849438E0,4.532271028E-1,-1.855529308E0,-4.229630828E-1
6.734851000E0,-1.010912180E0,-3.629097939E0,-1.090935469E0
6.756849438E0,-2.150071144E0,-2.857976675E0,-1.244925857E0
6.776849438E0,-1.967055917E0,-7.423932552E-1,-8.760331273E-1
6.796851000E0,-6.149144173E-1,1.046516895E0,-2.579771280E-1
6.816866625E0,3.527135849E-1,2.412795544E0,-8.812167495E-2
6.838849438E0,9.192125797E-1,2.089106798E0,1.819854826E-1
6.858849438E0,1.341058612E0,6.387381554E-1,7.741407752E-1
6.878849438E0,1.701189876E0,-7.330906391E-1,1.193613172E0
6.898849438E0,3.380877376E-1,-3.553961515E0,2.184105068E-1
6.918860375E0,7.123561502E-1,-1.011243820E0,2.877524197E-1
6.940849438E0,9.815208316E-1,7.182553411E-1,2.784847319E-1
6.960849438E0,1.005204916E0,1.132439375E0,1.816015095E-1
6.980849438E0,8.713207245E-1,8.931198716E-1,2.000147291E-2
7.000851000E0,6.532069445E-1,2.606125772E-1,-5.139994621E-2
7.022849438E0,3.786317408E-1,-3.616671264E-1,5.305801053E-3
7.042849438E0,1.619316489E-1,-7.066488862E-1,3.741985932E-2
7.062849438E0,-1.624901593E-2,-9.042550921E-1,1.830850355E-2
7.082849438E0,-1.267458051E-1,-8.288219571E-1,-2.097885683E-2
7.102849438E0,-1.587027907E-1,-4.464726746E-1,-7.162830979E-2
7.122849438E0,-1.256287992E-1,-2.460914198E-3,-7.707373798E-2
7.142849438E0,-4.251622036E-2,3.277902901E-1,-2.336995862E-2
7.162849438E0,3.391174600E-2,4.754800498E-1,5.510004610E-2
7.182849438E0,1.116312593E-1,4.728794992E-1,1.366243660E-1
7.202849438E0,1.788438857E-1,3.866427839E-1,2.081828713E-1
7.222849438E0,2.365793735E-1,2.522873282E-1,2.240828276E-1
7.242849438E0,2.474876940E-1,3.483677283E-2,1.907121241E-1
7.262849438E0,2.160892189E-1,-2.683094740E-1,1.223650351E-1
7.282849438E0,1.298524886E-1,-5.731486678E-1,4.136430472E-2
7.302849438E0,6.750933826E-2,-9.152331948E-1,-9.250245057E-3
7.322868188E0,7.885397226E-2,-1.182722330E0,2.598795295E-2
7.344849438E0,2.542770207E-1,-1.242674470E0,1.534493417E-1
7.364868188E0,5.707575679E-1,-1.149805427E0,1.845162064E-1
7.386849438E0,7.952767015E-1,-8.418944478E-1,1.023461074E-1
7.406855688E0,4.252320230E-1,-6.214070320E-1,-1.191012710E-1
7.428849438E0,-1.831723005E-1,-4.441688359E-1,-2.621135414E-1
7.448849438E0,-7.045196295E-1,-2.571218908E-1,-3.912155628E-1
7.468849438E0,-1.058088422E0,1.936268210E-1,-4.242022634E-1
7.488849438E0,-1.252832294E0,8.861734867E-1,-3.925943673E-1
7.508849438E0,-1.272257805E0,1.723861694E0,-3.363947570E-1
7.528849438E0,-1.123957157E0,2.397314548E0,-1.676912308E-1
7.548849438E0,-8.677427769E-1,2.697860241E0,1.984090358E-1
7.568849438E0,-6.918310523E-1,2.543293715E0,6.076189280E-1
7.588849438E0,-1.664415836E0,-3.679503202E-1,-5.197765231E-1
7.608849438E0,-1.462027431E0,-8.360127211E-1,-3.013136387E-1
7.628849438E0,-4.906469584E-1,-6.443755329E-2,5.077337027E-1
7.648849438E0,1.061160192E-1,3.819653094E-1,7.594799995E-1
7.668849438E0,1.937664598E-1,1.458746195E-1,5.566204190E-1
7.688849438E0,-6.117728353E-1,-7.512420416E-1,6.888814270E-2
7.708849438E0,-7.572285533E-1,6.223843992E-2,6.019640714E-2
7.728849438E0,-3.202155530E-1,1.030634403E0,3.525215983E-1
7.748849438E0,3.513696790E-1,1.267964244E0,6.262939572E-1
7.768849438E0,9.393187761E-1,1.018818498E0,4.978377223E-1
7.788849438E0,1.312592268E0,4.402593076E-1,2.210808545E-1
7.808849438E0,1.374743462E0,-4.179539979E-1,-1.009672955E-1
7.828849438E0,8.150861859E-1,-2.038823843E0,-5.386609435E-1
7.848849438E0,-9.516233206E-1,-4.235704422E0,-1.216738820E0
7.868849438E0,-2.488874435E0,-3.476992607E0,-1.386751294E0
7.888849438E0,-2.404540062E0,-4.779758751E-1,-1.126260996E0
7.908849438E0,-7.474896312E-1,2.010619402E0,-4.008497596E-1
7.928849438E0,-8.234463632E-2,3.307835340E0,-3.701843321E-2
7.948849438E0,3.793647587E-1,2.654209375E0,4.550597072E-1
7.968849438E0,6.860714555E-1,1.260860801E0,1.156559825E0
7.988849438E0,1.110395908E0,2.499486059E-1,1.671135306E0
8.008849438E0,1.622615099E0,6.911503524E-2,1.683562040E0
8.028849438E0,1.896614432E0,1.906248629E-1,1.166874766E0
8.048849438E0,1.229916096E0,-7.613998652E-1,2.201034725E-1
8.068849438E0,1.231434464E0,2.921157479E-1,-5.457644537E-2
8.088849438E0,9.924989343E-1,6.107954383E-1,-1.090132669E-1
8.108851000E0,7.423932552E-1,3.979525268E-1,-5.005604401E-2
8.130849438E0,4.304505587E-1,-7.450810820E-2,5.302310362E-2
8.150849438E0,2.101725489E-1,-3.967482448E-1,1.244768798E-1
8.170849438E0,4.462806880E-2,-5.773723722E-1,1.656841040E-1
8.190849438E0,-6.562437862E-2,-6.772401333E-1,1.929112375E-1
8.210849438E0,-1.376715750E-1,-6.460685134E-1,1.874658167E-1
8.230849438E0,-1.483704448E-1,-5.030562282E-1,1.675865203E-1
8.250851000E0,-1.199564785E-1,-2.790955901E-1,1.459095180E-1
8.272849438E0,-8.590510488E-2,1.047197543E-2,1.097113937E-1
8.292849438E0,-6.613052636E-2,2.099980116E-1,1.054527909E-1
8.312849438E0,-3.572688997E-2,2.384294271E-1,1.398008764E-1
8.332849438E0,-2.792526793E-4,9.859365225E-2,1.755103022E-1
8.352849438E0,3.729768470E-2,-1.498539746E-1,1.573763341E-1
8.372849438E0,5.469861999E-2,-4.187917411E-1,5.893976986E-2
8.392849438E0,7.602654397E-2,-5.570916533E-1,-2.778564207E-2
8.412849438E0,1.176526472E-1,-6.412165165E-1,-1.288053021E-2
8.432849438E0,2.355321795E-1,-7.688175440E-1,7.066838443E-2
8.452849438E0,4.564734101E-1,-8.389448524E-1,7.934267074E-2
8.472849438E0,6.726324558E-1,-8.498008251E-1,3.171263263E-2
8.492849438E0,5.146976113E-1,-8.502196670E-1,-1.257160604E-1
8.512849438E0,1.248783097E-1,-9.117774367E-1,-3.371801674E-1
8.532891625E0,-3.193079829E-1,-1.076309681E0,-5.045223236E-1
8.554849438E0,-7.086211443E-1,-7.680321336E-1,-6.169913411E-1
8.574849438E0,-9.811019301E-1,8.859290928E-2,-5.409299135E-1
8.594849438E0,-1.100447536E0,1.252046824E0,-3.198141456E-1
8.614849438E0,-1.082278609E0,2.487478256E0,-1.511455141E-2
8.634849438E0,-1.034753323E0,3.465490818E0,3.869394958E-1
8.654849438E0,-8.965232968E-1,3.615187645E0,8.429591060E-1
8.674849438E0,-6.871361136E-1,3.054500818E0,9.797230959E-1
8.694849438E0,-6.333799958E-1,1.684329987E0,2.798461020E-1
8.714849438E0,-9.093340039E-1,-2.914350629E-1,-5.225166678E-1
8.734849438E0,-4.348138869E-1,-4.323704243E-1,8.604473434E-3
8.754849438E0,-2.722713631E-3,-1.133067757E-1,4.386710525E-1
8.774849438E0,3.538829684E-1,3.259576857E-1,6.009691954E-1
8.794849438E0,5.788558722E-1,5.765694976E-1,5.337740183E-1
8.814849438E0,6.739763618E-1,5.141565204E-1,4.325274825E-1
8.834849438E0,7.368081808E-1,3.216467202E-1,3.596948981E-1
8.854849438E0,8.187863231E-1,8.304276317E-2,2.534392476E-1
8.874849438E0,8.907287717E-1,-1.741314977E-1,6.731735170E-2
8.894849438E0,8.317192197E-1,-6.950075626E-1,-1.941678822E-1
8.914851000E0,5.487838984E-1,-1.663490772E0,-5.631828308E-1
8.936851000E0,-1.120099902E0,-4.131019592E0,-1.534214258E0
8.958849438E0,-3.236294270E0,-3.931319237E0,-2.226708412E0
8.978851000E0,-3.992510557E0,-1.340779424E0,-2.404784441E0
9.000849438E0,-1.193403721E0,2.576926231E0,-1.436423421E0
9.020849438E0,3.954218030E-1,2.827346087E0,-1.584933549E-1
9.040849438E0,4.275009334E-1,1.418621063E0,2.968979478E-1
9.060849438E0,3.647563457E-1,1.161516607E-1,6.155776381E-1
9.080849438E0,5.754874349E-1,-9.088976383E-1,9.811019301E-1
9.100849438E0,8.068482280E-1,-1.337096691E-1,1.260110259E0
9.120849438E0,1.255136132E0,1.238782287E0,1.395443082E0
9.140849438E0,1.697995901E0,1.874815226E0,1.229340076E0
9.160849438E0,1.774406433E0,1.654432535E0,8.389273882E-1
9.180849438E0,1.595754504E0,4.603829384E-1,3.541447520E-1
9.200849438E0,8.181754351E-1,-8.346513510E-1,-1.568178385E-1
9.220849438E0,1.870643944E-1,-9.548696280E-1,-1.631708294E-1
9.240849438E0,4.466297477E-2,-7.573332787E-1,9.061749279E-2
9.260849438E0,5.455899239E-2,-4.029267132E-1,3.048915565E-1
9.280849438E0,1.141445339E-1,-8.805186301E-2,3.779684901E-1
9.300849438E0,1.942725927E-1,2.472782433E-1,3.709871769E-1
9.320851000E0,3.045250475E-1,5.760459304E-1,3.079808056E-1
9.342849438E0,4.124911129E-1,8.916712403E-1,2.998126447E-1
9.362849438E0,4.915545285E-1,9.541366100E-1,3.489436805E-1
9.382849438E0,5.237383842E-1,7.338062525E-1,4.000469148E-1
9.402849438E0,5.352226496E-1,3.009296656E-1,4.107108712E-1
9.422851000E0,5.911080837E-1,-1.482657194E-1,3.497814238E-1
9.444849438E0,6.486690640E-1,-6.454750896E-1,2.440493852E-1
9.464868188E0,6.702064276E-1,-9.700539708E-1,2.157925069E-1
9.486852563E0,6.510426998E-1,-1.088334918E0,2.535439730E-1
9.508849438E0,5.948082209E-1,-1.054667592E0,3.588920534E-1
9.528849438E0,5.245412588E-1,-8.291535378E-1,3.601661325E-1
9.548851000E0,3.966609836E-1,-5.687679052E-1,1.825265288E-1
9.570868188E0,2.623578906E-1,-8.725773692E-1,-1.267458051E-1
9.592849438E0,-2.806489356E-2,-1.642424583E0,-4.050211012E-1
9.612849438E0,-5.854183435E-1,-1.824008703E0,-2.917667031E-1
9.632849438E0,-1.026742339E0,-1.631324291E0,-2.447649688E-1
9.652849438E0,-1.299083471E0,-1.034351945E0,-3.529230356E-1
9.672849438E0,-1.279989600E0,-4.808381945E-2,-4.869643152E-1
9.692849438E0,-1.149421453E0,1.261681080E0,-5.167047381E-1
9.712849438E0,-9.881007075E-1,2.647996187E0,-4.416032135E-1
9.732851000E0,-8.411788940E-1,3.704810381E0,-1.412669420E-1
9.754849438E0,-7.910355926E-1,3.819024801E0,5.830272436E-1
9.774849438E0,-7.877020240E-1,2.513780355E0,1.127517581E0
9.794849438E0,-2.300291538E0,-1.281158924E0,-1.596522450E0
9.814849438E0,-1.516202450E0,-4.731936753E-1,-1.513025910E-1
9.834849438E0,-7.966032028E-1,4.103268981E-1,7.165798545E-1
9.854849438E0,-2.562492490E-1,6.975906491E-1,8.934515119E-1
9.874851000E0,1.292241812E-1,6.000441909E-1,6.689672470E-1
9.894851000E0,5.026373863E-1,6.579367518E-1,3.919136822E-1
9.914851000E0,8.905193210E-1,6.960024238E-1,3.445454538E-1
9.936851000E0,1.274945617E0,5.400048494E-1,3.729594052E-1
9.958849438E0,1.515364647E0,2.121796757E-1,3.153984547E-1
9.978849438E0,1.549014568E0,-2.213252038E-1,1.038994491E-1
9.998849438E0,1.062434316E0,-1.140921712E0,-3.521376252E-1
1.001884944E1,-1.714873195E0,-4.672071934E0,-1.566782117E0
1.003885100E1,-3.422590733E0,-3.798325062E0,-2.064672232E0
1.006084944E1,-3.845640898E0,-7.547676563E-1,-2.163964033E0
1.008084944E1,-2.565215111E0,1.971454144E0,-1.681816697E0
1.010084944E1,-1.130449772E-1,2.808915377E0,-1.194328815E-1
1.012084944E1,4.975061119E-1,1.098580003E0,5.659579039E-1
1.014084944E1,6.741857529E-1,-5.507386327E-1,9.412560463E-1
1.016084944E1,9.559342861E-1,-1.124515653E0,1.174205184E0
1.018084944E1,1.202654004E0,-2.637890577E-1,1.178236842E0
1.020084944E1,1.448152065E0,1.182320952E0,1.037563324E0
1.022084944E1,1.683055878E0,1.891901970E0,7.956432700E-1
1.024084944E1,1.827865839E0,1.811861157E0,5.813691616E-1
1.026084944E1,1.718974829E0,1.183979034E0,3.379306495E-1
1.028084944E1,1.060549259E0,3.616496623E-1,2.333505265E-2
1.030084944E1,1.632406414E-1,-3.661177158E-1,-1.429424584E-1
1.032085100E1,-2.535265386E-1,-6.543588638E-1,6.672393531E-2
1.034285100E1,-3.311413229E-1,-6.168866158E-1,3.220481575E-1
1.036486819E1,-2.345024347E-1,-5.539849401E-1,3.754901290E-1
1.038684944E1,-7.941248268E-2,-4.892332554E-1,2.842268646E-1
1.040684944E1,8.070402592E-2,-3.870791197E-1,1.890017092E-1
1.042684944E1,1.989326328E-1,-2.203303576E-1,1.607797295E-1
1.044685100E1,2.775073647E-1,-8.150687814E-2,2.031737715E-1
1.046885100E1,3.220306933E-1,-1.030616909E-1,2.630560100E-1
1.049084944E1,3.067241609E-1,-2.551496923E-1,3.029891551E-1
1.051084944E1,2.946115732E-1,-4.034852087E-1,2.752733231E-1
1.053084944E1,2.811201811E-1,-5.627115965E-1,2.018996924E-1
1.055084944E1,2.235766798E-1,-7.252017260E-1,1.275312006E-1
1.057086819E1,1.699252576E-1,-8.330805302E-1,1.268156171E-1
1.059284944E1,1.396787018E-1,-9.397201538E-1,2.715906799E-1
1.061284944E1,1.975712776E-1,-9.123533964E-1,3.817209601E-1
1.063284944E1,3.486644328E-1,-7.817679048E-1,3.471809030E-1
1.065284944E1,4.237659276E-1,-5.285729766E-1,2.085842937E-1
1.067284944E1,4.144633412E-1,-3.868696690E-1,-2.010619268E-2
1.069284944E1,3.155729771E-1,-6.690195799E-1,-2.442937344E-1
1.071284944E1,7.197737694E-2,-1.496689677E0,-3.813369870E-1
1.073284944E1,-3.068812490E-1,-1.956601381E0,-5.514018536E-1
1.075284944E1,-6.638010740E-1,-1.349488616E0,-7.303330302E-1
1.077284944E1,-8.205316663E-1,-1.962273717E-1,-7.573332787E-1
1.079284944E1,-8.673937321E-1,1.074354887E0,-6.069207788E-1
1.081284944E1,-8.437968493E-1,2.166896105E0,-3.271445036E-1
1.083284944E1,-7.563384175E-1,2.609913111E0,6.955137104E-2
1.085284944E1,-8.065341115E-1,1.756953120E0,2.488490492E-1
1.087284944E1,-2.365270138E0,-1.852789164E0,-1.107097268E0
1.089284944E1,-1.328038454E0,-6.572037339E-1,1.740791351E-1
1.091284944E1,-4.685685337E-1,3.601486981E-1,6.827902794E-1
1.093284944E1,2.516764775E-2,8.639379740E-1,5.483999252E-1
1.095284944E1,1.006007791E-1,5.960474014E-1,2.320764363E-1
1.097284944E1,6.986553222E-2,4.228060246E-1,1.493478268E-1
1.099284944E1,2.684316337E-1,6.638185382E-1,3.215070963E-1
1.101284944E1,6.066764593E-1,9.129991531E-1,4.679576755E-1
1.103284944E1,9.490053058E-1,9.615018964E-1,4.129798114E-1
1.105285100E1,1.195463300E0,6.751806140E-1,2.216044515E-1
1.107484944E1,1.259813547E0,1.265363693E-1,-1.345648803E-2
1.109484944E1,8.486663699E-1,-7.930077910E-1,-2.866179645E-1
1.111484944E1,-1.269377947E0,-3.939679384E0,-1.149369121E0
1.113484944E1,-2.996451139E0,-3.831154823E0,-1.550585389E0
1.115484944E1,-3.734149456E0,-1.137954712E0,-1.747633100E0
1.117484944E1,-2.794760704E0,1.772469163E0,-1.554686904E0
1.119484944E1,-1.917418689E-1,3.385083437E0,-4.328416586E-1
1.121484944E1,6.196093559E-1,2.146440744E0,1.881290376E-1
1.123484944E1,9.879087210E-1,1.877974272E-1,7.679623365E-1
1.125484944E1,1.460648537E0,-1.167939425E0,1.250057220E0
1.127484944E1,1.896143198E0,-6.666983366E-1,1.525505066E0
1.129484944E1,2.402794838E0,3.313507438E-1,1.497841597E0
1.131484944E1,9.550266862E-1,-1.194800019E0,-1.003564298E-1
1.133484944E1,1.020686030E0,7.892727852E-1,1.074599251E-1
1.135484944E1,7.041705251E-1,1.149212003E0,1.356818974E-1
1.137484944E1,4.085117579E-1,7.614173293E-1,9.173450619E-2
1.139484944E1,1.688955128E-1,1.354026496E-1,4.824090004E-2
1.141484944E1,-3.490658477E-3,-5.006477237E-1,6.644468755E-2
1.143484944E1,-1.102699041E-1,-9.171879888E-1,1.202880889E-1
1.145484944E1,-1.707979143E-1,-1.104741096E0,1.459618807E-1
1.147485100E1,-1.607622802E-1,-9.925687313E-1,1.443212777E-1
1.149684944E1,-8.635888994E-2,-6.027320027E-1,1.093797833E-1
1.151685100E1,2.460914291E-2,-1.500808597E-1,1.052084491E-1
1.153884944E1,1.579173952E-1,2.606998384E-1,1.255240738E-1
1.155884944E1,2.289173901E-1,4.125260115E-1,1.636944264E-1
1.157884944E1,2.540501356E-1,3.487342298E-1,2.102947235E-1
1.159884944E1,2.227738202E-1,1.254891753E-1,2.462136000E-1
1.161885100E1,1.924050897E-1,-1.895427555E-1,2.359859645E-1
1.163885100E1,1.586504281E-1,-5.560444593E-1,2.098758370E-1
1.166084944E1,1.846732944E-1,-9.481850266E-1,2.060361207E-1
1.168084944E1,2.516415715E-1,-1.202130437E0,2.509608865E-1
1.170084944E1,3.777067065E-1,-1.234663367E0,2.828655243E-1
1.172084944E1,5.153782964E-1,-1.159631610E0,2.697057426E-1
1.174084944E1,6.442010403E-1,-1.085909009E0,2.318495363E-1
1.176084944E1,6.040759087E-1,-9.577668905E-1,1.808510125E-1
1.178085100E1,3.399552405E-1,-4.913101792E-1,-4.979424179E-2
1.180284944E1,2.523746155E-2,-2.922030091E-1,-2.053554356E-1
1.182284944E1,-2.651678622E-1,-6.354219913E-1,-2.824989855E-1
1.184284944E1,-5.733930469E-1,-4.809254706E-1,-4.155454338E-1
1.186284944E1,-8.183150887E-1,3.166201711E-1,-4.943121374E-1
1.188284944E1,-8.688598275E-1,1.339418054E0,-4.107457995E-1
1.190284944E1,-7.964810133E-1,2.341690779E0,-1.123642996E-1
1.192284944E1,-6.228556633E-1,2.804028511E0,2.568775713E-1
1.194284944E1,-3.968355060E-1,2.240217447E0,5.393067598E-1
1.196284944E1,-1.120187163E0,-3.940080702E-1,-3.617369533E-1
1.198284944E1,-1.337759972E0,-1.150171995E0,-5.441063643E-1
1.200284944E1,-6.735574603E-1,-1.416509151E-1,2.350434959E-1
1.202284944E1,-1.595405489E-1,6.727895141E-1,4.387583137E-1
1.204284944E1,1.410749704E-1,1.047075391E0,3.244043589E-1
1.206285100E1,1.325403005E-1,9.620778561E-1,1.690176874E-1
1.208285100E1,7.805112749E-2,8.228180408E-1,1.727701426E-1
1.210285100E1,2.267706245E-1,8.019962311E-1,2.583261728E-1
1.212286350E1,5.116956234E-1,7.822740078E-1,2.792701423E-1
1.214484944E1,8.245982528E-1,5.338264108E-1,1.808510125E-1
1.216486819E1,9.949947596E-1,7.461282611E-2,1.464331243E-2
1.218684944E1,8.772897720E-1,-6.536781788E-1,-2.125985622E-1
1.220684944E1,-9.854128957E-2,-2.311147451E0,-6.407627463E-1
1.222685100E1,-1.835911870E0,-3.822044134E0,-1.195777416E0
1.224686663E1,-3.414544582E0,-2.553137541E0,-1.474209785E0
1.226884944E1,-3.842289925E0,2.548355162E-1,-1.511943817E0
1.228884944E1,-1.994981170E0,1.428813815E0,-1.033409476E0
1.230884944E1,5.160938501E-1,1.740512133E0,-3.088534772E-1
1.232885100E1,1.500372291E0,1.153540492E0,1.589994878E-2
1.235084944E1,1.742257476E0,-2.179218084E-1,8.365362883E-1
1.237084944E1,1.055924177E0,-5.699023604E-1,2.030341625E0
1.239084944E1,-2.634225488E-1,-2.506013632E0,4.438023269E-1
1.241085100E1,8.218406439E-1,-7.866198570E-2,4.163657427E-1
1.243284944E1,1.497509956E0,1.364864945E0,3.636917174E-1
1.245284944E1,1.569906235E0,1.765051484E0,3.355919123E-1
1.247284944E1,1.379298806E0,1.448239326E0,2.226341963E-1
1.249284944E1,1.065087199E0,8.428543806E-1,1.067268848E-1
1.251284944E1,6.476044059E-1,3.148574010E-2,4.310963303E-2
1.253284944E1,2.290221006E-1,-7.130542397E-1,2.263692021E-2
1.255284944E1,-8.044222742E-2,-1.172337651E0,4.557054490E-2
1.257284944E1,-2.793225050E-1,-1.226948977E0,5.797983706E-2
1.259284944E1,-3.507937193E-1,-9.084438682E-1,3.832742944E-2
1.261284944E1,-3.007202148E-1,-3.712664247E-1,2.062979154E-2
1.263284944E1,-1.647939831E-1,2.664768696E-1,2.858849242E-2
1.265284944E1,2.382374369E-2,8.633096814E-1,4.221951589E-2
1.267284944E1,1.805543154E-1,1.188272476E0,8.313003182E-2
1.269284944E1,2.781705856E-1,1.281612754E0,1.523497850E-1
1.271284944E1,3.107733130E-1,1.251139283E0,2.038195431E-1
1.273285100E1,2.929011583E-1,9.953612685E-1,2.470513582E-1
1.275484944E1,2.502104044E-1,4.767017663E-1,2.358288914E-1
1.277484944E1,2.012888193E-1,-1.086991057E-1,1.590169519E-1
1.279484944E1,1.784250140E-1,-6.244962811E-1,1.238485649E-1
1.281484944E1,1.922480166E-1,-9.914342761E-1,2.029119730E-1
1.283484944E1,2.482032776E-1,-1.225849390E0,3.405660987E-1
1.285484944E1,4.153709114E-1,-1.352612734E0,3.783699274E-1
1.287484944E1,6.202201843E-1,-1.280460835E0,2.541897595E-1
1.289484944E1,5.764822364E-1,-8.416501284E-1,7.874925435E-2
1.291484944E1,2.993937731E-1,-2.371378839E-1,-9.416051209E-2
1.293484944E1,-4.515166581E-2,1.830850393E-1,-2.992890477E-1
1.295484944E1,-3.142988980E-1,1.853365153E-1,-5.950002074E-1
1.297484944E1,-6.016848087E-1,1.809033751E-1,-7.804937959E-1
1.299484944E1,-9.093514681E-1,4.602956772E-1,-7.581012249E-1
1.301484944E1,-1.084809422E0,8.003382087E-1,-5.963789821E-1
1.303484944E1,-1.099784374E0,1.058193088E0,-3.659257293E-1
1.305484944E1,-1.029918790E0,1.074354887E0,-4.111995548E-2
1.307484944E1,-1.841584206E0,-1.102559447E0,-4.534539878E-1
1.309484944E1,-2.084499121E0,-1.660104871E0,-3.752981424E-1
1.311484944E1,-1.052328825E0,1.202182770E-1,2.171538621E-1
1.313484944E1,-7.725700140E-1,7.848047614E-1,1.961750090E-1
1.315484944E1,-1.061247468E0,1.038139343E0,9.410814941E-2
1.317484944E1,-1.048698545E0,1.639370322E0,2.665292323E-1
1.319484944E1,-6.576226354E-1,1.976288676E0,5.522396564E-1
1.321484944E1,-4.557054490E-2,1.998960495E0,7.752926946E-1
1.323484944E1,5.743703842E-1,1.828476787E0,8.461356163E-1
1.325484944E1,1.087601900E0,1.476600885E0,7.639306188E-1
1.327484944E1,1.482273221E0,1.033618927E0,5.103866458E-1
1.329484944E1,1.691503286E0,5.950350761E-1,1.862789840E-1
1.331484944E1,1.699653983E0,7.827802002E-2,-1.000771821E-1
1.333484944E1,9.192474484E-1,-1.289710999E0,-5.157971382E-1
1.335484944E1,-2.565616608E0,-3.925262928E0,-1.548805118E0
1.337484944E1,-4.251430035E0,-1.584340096E0,-1.834847212E0
1.339484944E1,-3.707952023E0,1.324128985E0,-1.589558601E0
1.341484944E1,-9.805434346E-1,3.406359196E0,-5.115908980E-1
1.343484944E1,6.507459879E-1,2.268404484E0,5.600935817E-1
1.345484944E1,1.013879180E0,-1.497492474E-2,8.645662665E-1
1.347484944E1,1.310585141E0,-1.640417457E0,1.097794652E0
1.349484944E1,1.570831180E0,-1.884240031E0,1.231923223E0
1.351484944E1,1.875077009E0,-7.811919451E-1,1.120449066E0
1.353485569E1,2.183336973E0,2.202605456E-1,9.852732420E-1
1.355685100E1,1.826469660E0,5.193925500E-1,6.573607922E-1
1.357685100E1,2.121098638E-1,-6.500478983E-1,5.443681777E-2
1.359685100E1,1.814269722E-1,7.414158434E-2,1.598721594E-1
1.361885100E1,1.198517606E-1,-1.295034308E-2,2.200336605E-1
1.364084944E1,7.805112749E-2,-3.627143204E-1,2.076941729E-1
1.366084944E1,4.972442985E-2,-7.826056480E-1,2.099281996E-1
1.368084944E1,1.333431527E-2,-1.025555491E0,1.972920150E-1
1.370084944E1,-9.285151958E-3,-1.068979263E0,1.589645892E-1
1.372084944E1,-2.862340072E-3,-9.269967079E-1,1.402721107E-1
1.374084944E1,1.937315427E-2,-6.730164289E-1,1.505171955E-1
1.376084944E1,7.044149190E-2,-4.068537056E-1,1.866106093E-1
1.378084944E1,1.381428093E-1,-2.102947235E-1,2.341359109E-1
1.380084944E1,1.705710292E-1,-1.517389268E-1,2.431767285E-1
1.382084944E1,1.773254573E-1,-1.769065708E-1,2.485348880E-1
1.384084944E1,2.025803626E-1,-3.031636775E-1,2.733360231E-1
1.386084944E1,2.166302651E-1,-5.188340545E-1,2.782403827E-1
1.388084944E1,2.484825253E-1,-7.612602711E-1,2.599667907E-1
1.390084944E1,3.005107939E-1,-9.956754446E-1,2.425484061E-1
1.392085100E1,3.379306495E-1,-1.239812136E0,2.970375717E-1
1.394284944E1,3.917915225E-1,-1.418306947E0,3.632204831E-1
1.396284944E1,4.571191967E-1,-1.432688475E0,3.307398856E-1
1.398284944E1,4.211654067E-1,-1.209984422E0,2.264041156E-1
1.400284944E1,2.432290763E-1,-4.862836301E-1,1.675515994E-2
1.402284944E1,5.930628628E-2,-8.019787818E-2,-1.352804750E-1
1.404284944E1,-6.325073540E-2,-2.357765287E-1,-2.241351753E-1
1.406284944E1,-2.127207220E-1,-3.067241609E-1,-3.169867098E-1
1.408284944E1,-4.334525168E-1,-1.819854826E-1,-3.800105453E-1
1.410285256E1,-5.377010107E-1,3.639011383E-1,-4.838401675E-1
1.412485100E1,-5.521697998E-1,1.190681100E0,-3.584731817E-1
1.414485100E1,-5.181533694E-1,1.482535005E0,1.947787404E-2
1.416486819E1,-4.444131851E-1,1.129611969E0,3.730292320E-1
1.418684944E1,-2.112511635E0,-2.030917406E0,-1.068403244E0
1.420685100E1,-1.101145625E0,-8.311257511E-2,-2.771582827E-2
1.422685100E1,-2.998301089E-1,1.060514450E0,3.036174774E-1
1.424685100E1,-2.134363204E-1,9.786410332E-1,1.006356850E-1
1.426685725E1,-3.259751499E-1,8.602553606E-1,-7.176794112E-2
1.428884944E1,-2.074847370E-1,9.272934198E-1,-1.638864167E-2
1.430884944E1,1.409702450E-1,9.704903364E-1,1.977283508E-1
1.432885100E1,5.294979811E-1,8.245982528E-1,3.862064481E-1
1.435084944E1,8.711462021E-1,5.967978835E-1,4.601909518E-1
1.437084944E1,1.026410699E0,3.394665420E-1,3.733433783E-1
1.439084944E1,1.074337363E0,6.969099492E-2,1.908342987E-1
1.441084944E1,9.965131879E-1,-2.056870461E-1,1.853539608E-2
1.443084944E1,7.775790691E-1,-5.909859538E-1,-2.101376355E-1
1.445084944E1,-1.212305665E0,-2.328670740E0,-1.116644144E0
1.447084944E1,-3.595256090E0,-1.662530780E0,-1.965554833E0
1.449085100E1,-4.011551857E0,7.553784847E-1,-2.108654499E0
1.451284944E1,-2.113873005E0,1.627118111E0,-1.430943131E0
1.453285100E1,5.501103401E-1,1.529048085E0,-2.986956537E-1
1.455484944E1,1.294702649E0,-5.410520732E-2,2.129999846E-1
1.457484944E1,1.404606104E0,-1.501140237E0,9.905965328E-1
1.459484944E1,1.597848892E0,-1.488067746E0,1.584828734E0
1.461484944E1,1.066012144E0,-2.377278090E0,7.056715488E-1
1.463484944E1,5.127602816E-1,-9.702285528E-1,1.395739764E-1
1.465484944E1,9.566847682E-1,1.600885749E0,4.399102330E-1
1.467484944E1,9.098227024E-1,2.212414265E0,4.066966176E-1
1.469484944E1,7.734252214E-1,1.814426780E0,1.009672955E-1
1.471484944E1,5.457644463E-1,1.021453977E0,-1.130624264E-1
1.473484944E1,2.695311904E-1,1.275661141E-1,-1.432566196E-1
1.475484944E1,2.747148275E-2,-5.475097895E-1,-6.143558770E-2
1.477484944E1,-1.589296758E-1,-1.025084257E0,1.719149388E-2
1.479484944E1,-2.664419711E-1,-1.204713464E0,6.571164727E-2
1.481484944E1,-2.635621727E-1,-1.076519132E0,7.780677825E-2
1.483484944E1,-1.703790426E-1,-7.052875757E-1,7.408922911E-2
1.485484944E1,3.218387067E-2,-6.588617712E-2,9.220574051E-2
1.487485100E1,2.739817798E-1,6.902951598E-1,9.206611663E-2
1.489485100E1,4.235565066E-1,1.076466680E0,1.119803265E-1
1.491684944E1,4.434881508E-1,1.052520752E0,1.629788429E-1
1.493685725E1,3.754552305E-1,7.503694296E-1,2.093696892E-1
1.495884944E1,2.517113984E-1,1.846209317E-1,1.774650812E-1
1.497884944E1,1.543394625E-1,-4.408701658E-1,1.141794398E-1
1.499884944E1,1.157502383E-1,-1.031332493E0,1.223650351E-1
1.501884944E1,1.343205422E-1,-1.440751791E0,2.026152760E-1
1.503885100E1,2.746624649E-1,-1.682776690E0,2.586927116E-1
1.506084944E1,5.283809900E-1,-1.816311836E0,1.881988496E-1
1.508084944E1,7.182728052E-1,-1.707385778E0,-1.415985674E-1
1.510084944E1,5.545434356E-1,-1.179074645E0,-3.873234689E-1
1.512084944E1,6.412339956E-2,-8.174772859E-1,-4.123340249E-1
1.514085100E1,-5.975309014E-1,-1.009079576E0,-3.822445571E-1
1.516284944E1,-1.189214945E0,-5.904623270E-1,-5.840569735E-1
1.518284944E1,-1.433700681E0,1.454382837E-1,-6.842563152E-1
1.520284944E1,-1.392510891E0,1.147501588E0,-5.659753680E-1
1.522284944E1,-1.159422159E0,2.343331337E0,-3.110700250E-1
1.524284944E1,-9.043772817E-1,3.317940712E0,-3.740240633E-2
1.526284944E1,-7.041879892E-1,3.679031849E0,2.662150562E-1
1.528284944E1,-5.810899138E-1,3.076072931E0,4.097160399E-1
1.530287600E1,-1.989884734E0,-4.671024680E-1,-2.105373144E0
1.532484944E1,-1.232830763E0,-4.001167417E-1,-5.571963787E-1
1.534484944E1,-7.018841505E-1,-2.377662063E-1,2.838952541E-1
1.536486819E1,-2.840174139E-1,1.567829251E-1,8.289964795E-1
1.538684944E1,1.646718085E-1,5.878094435E-1,1.179702997E0
1.540685256E1,5.089380145E-1,7.685906291E-1,1.235745430E0
1.542685725E1,7.936535478E-1,7.446447015E-1,1.003145456E0
1.544686194E1,1.019376993E0,5.669702291E-1,6.199234724E-1
1.546884944E1,1.177189708E0,2.314481139E-1,2.295806110E-1
1.548884944E1,1.163663387E0,-2.306103557E-1,7.382742595E-3
1.550884944E1,1.034770846E0,-7.912973762E-1,-8.609709144E-2
1.552884944E1,7.764096856E-1,-1.314075828E0,5.759586580E-3
1.554884944E1,1.818283945E-1,-1.974002242E0,-1.409004331E-1
1.556884944E1,-2.841238976E0,-2.188363552E0,-1.398375273E0
1.558884944E1,-4.643867493E0,-5.292361975E-1,-2.069995403E0
1.560884944E1,-2.289505482E0,6.677803993E-1,-1.272100687E0
1.562884944E1,7.176270485E-1,1.461503863E0,-1.809557378E-1
1.564884944E1,1.220351696E0,8.124682307E-1,-1.071981192E-1
1.566884944E1,1.230247736E0,-6.916390657E-1,1.366418302E-1
1.568885100E1,1.340709567E0,-1.763445735E0,5.209109783E-1
1.571085100E1,1.473668694E0,-1.234541178E0,7.009940147E-1
1.573284944E1,1.713040709E0,-8.475318551E-2,8.036193848E-1
1.575284944E1,1.857361913E0,8.424530029E-1,8.113337755E-1
1.577284944E1,8.025023937E-1,5.060582161E-1,2.444333583E-1
1.579284944E1,-1.015956178E-1,2.361430414E-2,-2.028421611E-1
1.581284944E1,-7.859217376E-2,1.662426144E-1,-1.984613836E-1
1.583284944E1,-4.077089205E-2,-6.771877408E-3,-8.477064222E-2
1.585284944E1,2.783800103E-2,-2.996206582E-1,2.281145379E-2
1.587284944E1,6.597344577E-2,-5.664640665E-1,4.651302472E-2
1.589284944E1,9.384635091E-2,-5.851041675E-1,7.539822254E-3
1.591284944E1,1.618967354E-1,-2.844712138E-1,1.132718660E-2
1.593285100E1,2.702991366E-1,1.820203811E-1,6.986553222E-2
1.595285100E1,3.729943037E-1,5.884028673E-1,1.595056355E-1
1.597285100E1,4.426678419E-1,7.890284657E-1,2.911383808E-1
1.599484944E1,4.742408693E-1,6.592631936E-1,4.159643054E-1
1.601484944E1,4.449018836E-1,2.563365102E-1,4.665090442E-1
1.603484944E1,3.823841810E-1,-3.232349753E-1,4.351803958E-1
1.605484944E1,2.848551869E-1,-8.921948671E-1,2.900388241E-1
1.607484944E1,1.746725440E-1,-1.397240758E0,1.110727564E-1
1.609484944E1,9.824458510E-2,-1.715187430E0,4.858996719E-2
1.611484944E1,1.308996975E-1,-1.919897079E0,1.880941391E-1
1.613484944E1,3.347017765E-1,-1.857588768E0,3.394316435E-1
1.615484944E1,6.935065985E-1,-1.570429802E0,2.331061810E-1
1.617484944E1,1.021366715E0,-1.288628936E0,-8.613199741E-2
1.619484944E1,7.049559355E-1,-8.135328889E-1,-1.986533701E-1
1.621484944E1,2.157226950E-2,-5.774073005E-1,-8.862782270E-2
1.623484944E1,-6.551442146E-1,-6.996850371E-1,-4.642575979E-2
1.625484944E1,-1.242744207E0,-5.807234049E-1,-2.202081978E-1
1.627484944E1,-1.501960516E0,-1.050688177E-1,-4.050385654E-1
1.629484944E1,-1.410836935E0,8.962789178E-1,-4.288623035E-1
1.631484944E1,-1.110291243E0,2.039347410E0,-3.207391500E-1
1.633484944E1,-9.013578296E-1,3.098884344E0,-1.005309634E-2
1.635484944E1,-7.251668572E-1,3.567837000E0,4.426155090E-1
1.637484944E1,-5.620483756E-1,3.071657181E0,7.731983066E-1
1.639484944E1,-2.115862608E0,-1.131252646E0,-1.099854112E0
1.641485100E1,-1.664834619E0,-8.882329464E-1,-5.004557371E-1
1.643685100E1,-7.859566808E-1,2.797239125E-1,3.861890137E-1
1.645884944E1,-9.670869261E-2,9.157568216E-1,7.095286846E-1
1.647885100E1,3.164456487E-1,9.108524323E-1,5.600587130E-1
1.650084944E1,6.041806340E-1,7.802494168E-1,3.168645203E-1
1.652084944E1,8.643219471E-1,7.400196195E-1,2.844013870E-1
1.654084944E1,1.057268143E0,6.827902794E-1,3.549126983E-1
1.656084944E1,1.165845037E0,5.397430658E-1,3.527310491E-1
1.658084944E1,1.194416046E0,3.232524395E-1,2.018996924E-1
1.660084944E1,9.983457923E-1,-6.637486815E-2,-8.496262878E-2
1.662084944E1,-2.174680233E-1,-2.013516426E0,-7.415205836E-1
1.664084944E1,-3.052615643E0,-4.062445641E0,-1.702952623E0
1.666084944E1,-4.031815052E0,-1.531351924E0,-1.959812760E0
1.668084944E1,-3.174911022E0,1.450543165E0,-1.662268996E0
1.670084944E1,-4.198040366E-1,3.267692566E0,-4.358959794E-1
1.672084944E1,4.565781355E-1,2.796209335E0,2.882236838E-1
1.674084944E1,4.947484732E-1,1.624430299E0,8.677079082E-1
1.676084944E1,7.016049027E-1,2.277131081E-1,1.384447575E0
1.678084944E1,1.128844023E0,-4.715705216E-1,1.523951650E0
1.680084944E1,1.702778101E0,-1.730144918E-1,1.199582219E0
1.682084944E1,2.247338295E0,3.119252324E-1,9.415876865E-1
1.684084944E1,1.796310306E0,5.697453022E-1,4.955862463E-1
1.686084944E1,7.464773208E-2,-1.221730467E-2,-1.876403540E-1
1.688084944E1,5.619960278E-2,7.598291039E-1,-1.263618376E-2
1.690084944E1,7.010987401E-2,6.806434989E-1,5.953317881E-2
1.692084944E1,9.690067917E-2,2.987654507E-1,6.147049740E-2
1.694084944E1,8.578293025E-2,-1.660157144E-1,5.391322076E-2
1.696084944E1,5.518731102E-2,-5.520650744E-1,6.468190253E-2
1.698084944E1,2.129301615E-2,-7.545582056E-1,9.393361956E-2
1.700084944E1,4.747295752E-3,-8.106530905E-1,1.149997413E-1
1.702084944E1,1.858775690E-2,-7.211874723E-1,1.448972374E-1
1.704084944E1,7.426375896E-2,-4.965636134E-1,1.818109453E-1
1.706084944E1,1.584584415E-1,-2.113768309E-1,1.878672391E-1
1.708084944E1,2.406110913E-1,-1.214749180E-2,1.783901006E-1
1.710084944E1,3.012961745E-1,7.766715251E-3,1.604306698E-1
1.712084944E1,3.437600434E-1,-8.773770183E-2,1.880417764E-1
1.714084944E1,3.765024245E-1,-2.655692995E-1,2.474702299E-1
1.716084944E1,4.242197275E-1,-5.025501251E-1,2.698453665E-1
1.718084944E1,4.633849263E-1,-7.346439958E-1,2.734756470E-1
1.720084944E1,5.064596534E-1,-8.657705784E-1,2.874033749E-1
1.722084944E1,5.093917847E-1,-8.640776277E-1,2.972121239E-1
1.724084944E1,6.019465923E-1,-8.139866590E-1,1.684417278E-1
1.726084944E1,7.521147132E-1,-8.681092858E-1,-1.266061813E-1
1.728084944E1,6.285803318E-1,-8.767836094E-1,-2.428102046E-1
1.730084944E1,1.662077010E-1,-7.997447848E-1,-2.160368562E-1
1.732084944E1,-3.645643592E-1,-8.067260981E-1,-2.592163086E-1
1.734084944E1,-8.651248217E-1,-6.489832401E-1,-4.577824175E-1
1.736084944E1,-1.168271065E0,-2.368237227E-1,-6.631727815E-1
1.738084944E1,-1.168305993E0,3.888593614E-1,-7.383440733E-1
1.740084944E1,-9.808226824E-1,1.335281610E0,-6.538876295E-1
1.742085100E1,-6.853733659E-1,2.342144489E0,-4.901931584E-1
1.744284944E1,-4.714832306E-1,3.273696661E0,-1.863662601E-1
1.746284944E1,-4.007101357E-1,3.465787649E0,3.246137798E-1
1.748284944E1,-3.428524733E-1,2.724354267E0,7.981739640E-1
1.750286350E1,-2.170788050E0,-1.853347659E0,-1.439128637E0
1.752484944E1,-1.257684231E0,-7.956781387E-1,-1.647241712E-1
1.754484944E1,-5.171061754E-1,1.116836220E-1,5.055695176E-1
1.756486819E1,6.337290257E-2,4.895823002E-1,7.296698093E-1
1.758685100E1,5.369505286E-1,5.101946592E-1,6.130992770E-1
1.760686663E1,8.057836294E-1,3.267605305E-1,4.261046946E-1
1.762884944E1,1.065767884E0,1.000422761E-1,3.530626595E-1
1.764884944E1,1.247980237E0,-1.389282104E-2,3.068986833E-1
1.766884944E1,1.345858335E0,-9.431759268E-2,2.188119292E-1
1.768885100E1,1.262222052E0,-2.223723978E-1,6.157521531E-2
1.771084944E1,9.384984374E-1,-6.294530034E-1,-1.828930527E-1
1.773084944E1,-6.558947265E-2,-1.564303756E0,-6.647435427E-1
1.775084944E1,-2.770884752E0,-2.568042517E0,-1.621951938E0
1.777084944E1,-3.985127687E0,-1.027126312E0,-1.900855541E0
1.779084944E1,-3.384280682E0,1.022413850E0,-1.683980942E0
1.781084944E1,-5.445078015E-1,2.273465872E0,-3.400774002E-1
1.783084944E1,7.515562177E-1,1.205429077E0,1.548106968E-1
1.785084944E1,9.724276662E-1,-3.702541590E-1,1.798561811E-1
1.787084944E1,1.255973816E0,-1.582996130E0,2.757969201E-1
1.789084944E1,1.477264166E0,-1.516429305E0,4.412541389E-1
1.791284944E1,1.793831944E0,-4.344997108E-1,5.244888663E-1
1.793284944E1,2.003446102E0,6.350904107E-1,6.527531147E-1
1.795284944E1,-2.518684566E-1,-2.315231562E0,-3.196744919E-1
1.797284944E1,1.526813954E-1,5.262516737E-1,1.915149838E-1
1.799284944E1,3.217689097E-1,1.194520831E0,3.246836066E-1
1.801284944E1,3.590840399E-1,1.058926105E0,2.812772691E-1
1.803284944E1,3.102322817E-1,5.816484094E-1,1.637467891E-1
1.805284944E1,2.375916690E-1,-3.895574808E-2,9.819222242E-2
1.807284944E1,1.244419739E-1,-4.401720464E-1,6.977826357E-2
1.809284944E1,1.563815027E-2,-5.188689232E-1,3.803072497E-2
1.811284944E1,-3.588397056E-2,-3.434807956E-1,5.002113804E-2
1.813284944E1,-1.757546514E-2,-7.529350370E-2,1.093623340E-1
1.815284944E1,5.311036855E-2,2.272942215E-1,1.658411920E-1
1.817284944E1,1.670803726E-1,4.836481810E-1,2.275909334E-1
1.819284944E1,2.645919025E-1,4.785518348E-1,3.127281070E-1
1.821284944E1,3.259925842E-1,2.741388679E-1,3.738844395E-1
1.823284944E1,3.330786228E-1,-7.403686643E-2,3.728721440E-1
1.825284944E1,3.101624548E-1,-4.825835228E-1,3.152413666E-1
1.827284944E1,2.563888729E-1,-8.899608254E-1,2.852042615E-1
1.829284944E1,2.276956588E-1,-1.066361308E0,3.548603356E-1
1.831284944E1,2.888519764E-1,-9.623047113E-1,4.791801572E-1
1.833284944E1,4.799830019E-1,-7.419568896E-1,4.406083822E-1
1.835284944E1,7.078357339E-1,-6.007423401E-1,1.587726027E-1
1.837284944E1,6.588618159E-1,-4.181459844E-1,-1.272345055E-2
1.839284944E1,2.052332610E-1,-3.054500818E-1,7.553785294E-2
1.841284944E1,-3.835012019E-1,-5.694660544E-1,5.969026126E-3
1.843284944E1,-1.007788062E0,-6.783920527E-1,-2.853962481E-1
1.845284944E1,-1.337410927E0,-2.664594054E-1,-5.934468508E-1
1.847284944E1,-1.395966649E0,3.709348142E-1,-7.348708510E-1
1.849284944E1,-1.341076136E0,1.265084505E0,-6.919008493E-1
1.851284944E1,-1.203579068E0,2.161084175E0,-5.504419208E-1
1.853284944E1,-9.241343737E-1,2.637297153E0,-3.907094002E-1
1.855284944E1,-5.239478350E-1,2.656478405E0,-1.434311569E-1
1.857284944E1,-2.563539505E0,-1.911868572E0,-2.442116976E0
1.859284944E1,-1.547565937E0,-2.316401005E-1,-2.369633466E-1
1.861284944E1,-5.402317643E-1,9.675058126E-1,9.838246703E-1
1.863284944E1,2.344151735E-1,1.456302762E0,1.364812613E0
1.865284944E1,6.851813793E-1,1.292032361E0,1.255328059E0
1.867284944E1,9.152157307E-1,9.741904140E-1,9.083740711E-1
1.869284944E1,9.307491779E-1,6.218608022E-1,5.317843556E-1
1.871284944E1,8.329234719E-1,2.959554791E-1,2.927964330E-1
1.873284944E1,6.662445068E-1,-8.342674002E-3,2.398256958E-1
1.875284944E1,5.362524390E-1,-1.489638537E-1,2.901435196E-1
1.877284944E1,4.969650507E-1,-2.490933836E-1,3.116285503E-1
1.879284944E1,4.880813360E-1,-2.084970325E-1,2.039940804E-1
1.881284944E1,3.785619140E-1,-4.544139206E-1,-6.482152641E-2
1.883284944E1,-7.935662866E-1,-1.802837849E0,-7.185171247E-1
1.885284944E1,-3.531045437E0,-2.581656218E0,-1.633697987E0
1.887284944E1,-4.459874630E0,-4.272216856E-1,-1.834515572E0
1.889284944E1,-2.082893372E0,1.223231435E0,-1.016828775E0
1.891284944E1,5.208935142E-1,2.667142391E0,1.166403517E-1
1.893284944E1,1.213928819E0,1.902286649E0,3.474077880E-1
1.895284944E1,1.656177878E0,-1.952499896E-1,5.989795327E-1
1.897284944E1,1.816992521E0,-1.689635754E0,9.421811104E-1
1.899284944E1,1.903351307E0,-1.567794323E0,1.135999918E0
1.901284944E1,1.041350722E0,-2.690250397E0,2.961300015E-1
1.903284944E1,3.699923456E-1,-1.418359280E0,-2.181661548E-3
1.905284944E1,5.669876337E-1,1.073691607E0,3.133215010E-1
1.907284944E1,4.426155090E-1,1.737021446E0,2.899340987E-1
1.909284944E1,2.963219881E-1,1.453143716E0,7.478735596E-2
1.911284944E1,1.108633131E-1,6.036396027E-1,-5.373868719E-2
1.913284944E1,-1.046848446E-1,-2.857278585E-1,-4.063126445E-2
1.915284944E1,-2.497042567E-1,-9.567371607E-1,2.844886668E-2
1.917284944E1,-2.903878689E-1,-1.283043861E0,1.230980754E-1
1.919284944E1,-2.192133516E-1,-1.209251404E0,1.354549974E-1
1.921284944E1,-3.556980938E-2,-9.098227024E-1,7.634069771E-2
1.923284944E1,2.115164548E-1,-5.417327285E-1,4.761258140E-2
1.925284944E1,4.194549918E-1,-2.579771280E-1,8.456119895E-2
1.927284944E1,5.073148608E-1,-7.866198570E-2,1.074250117E-1
1.929284944E1,4.661250710E-1,-1.850049011E-2,1.027475297E-1
1.931285100E1,3.752981424E-1,-8.524188399E-2,9.946631640E-2
1.933484944E1,2.599842548E-1,-2.579596639E-1,1.027824357E-1
1.935484944E1,1.905899495E-1,-4.693190455E-1,9.487609565E-2
1.937484944E1,1.752310544E-1,-6.742730737E-1,4.380776361E-2
1.939484944E1,2.154434472E-1,-8.262912035E-1,3.926991019E-3
1.941484944E1,2.660754323E-1,-8.839219809E-1,3.246312216E-2
1.943484944E1,3.693814874E-1,-8.866970539E-1,1.021192148E-1
1.945484944E1,5.617516637E-1,-8.077208996E-1,9.414306283E-2
1.947484944E1,6.836105585E-1,-5.763251781E-1,-1.027649865E-1
1.949484944E1,4.830722213E-1,-2.782054842E-1,-2.706656456E-1
1.951484944E1,-7.450810820E-2,-1.398881376E-1,-3.030066192E-1
1.953484944E1,-6.776589751E-1,-4.195771366E-2,-3.497814238E-1
1.955484944E1,-1.119663596E0,4.132241607E-1,-5.719444156E-1
1.957484944E1,-1.339069009E0,9.482199550E-1,-7.234040499E-1
1.959484944E1,-1.340761900E0,1.402982950E0,-6.440090537E-1
1.961484944E1,-1.193124533E0,1.948799729E0,-5.206142664E-1
1.963484944E1,-9.219003320E-1,2.402480602E0,-4.050734639E-1
1.965484944E1,-5.212425590E-1,2.261545181E0,-1.394692659E-1
1.967484944E1,-1.168462992E0,-1.197470427E-1,-1.018085480E0
1.969484944E1,-1.152301311E0,-9.731955826E-2,-2.970201373E-1
1.971484944E1,-4.173780382E-1,7.925365567E-1,7.307868004E-1
1.973484944E1,1.365720183E-1,1.127744436E0,9.775239825E-1
1.975484944E1,4.789881706E-1,1.195515633E0,8.286125064E-1
1.977484944E1,5.772851110E-1,1.004105330E0,5.663244128E-1
1.979484944E1,5.358335376E-1,7.522019744E-1,3.673917949E-1
1.981484944E1,4.377809465E-1,5.387308002E-1,3.053453565E-1
1.983484944E1,3.479488492E-1,4.565432370E-1,3.732735515E-1
1.985484944E1,3.033556640E-1,4.779060483E-1,4.372747838E-1
1.987485100E1,3.125186563E-1,5.102644563E-1,3.579146564E-1
1.989684944E1,2.601762414E-1,3.704635799E-1,1.123817489E-1
1.991684944E1,1.428377479E-1,5.576327071E-2,-8.285077661E-2
1.993685100E1,-1.216494478E-2,-4.046196938E-1,-2.872637510E-1
1.995685100E1,-9.376781583E-1,-1.559364438E0,-7.146773934E-1
1.997685725E1,-2.567169905E0,-1.693004251E0,-1.279867411E0
1.999884944E1,-2.680406809E0,2.934945524E-1,-1.081388593E0
2.001884944E1,-1.037336469E0,2.342580795E0,-2.098409384E-1
2.003885100E1,5.095837712E-1,2.846579552E0,4.202578366E-1
2.006084944E1,1.106887817E0,1.318351865E0,3.188192844E-1
2.008084944E1,1.223091841E0,-1.072539687E0,2.706656456E-1
2.010084944E1,1.064581037E0,-2.562632084E0,3.970798552E-1
2.012084944E1,9.756215811E-1,-2.464143038E0,4.777315259E-1
2.014085100E1,9.819222093E-1,-1.935779572E0,3.308969736E-1
2.016284944E1,-1.748121828E-1,-3.024498463E0,-2.845933735E-1
2.018284944E1,3.364122212E-1,-4.771730304E-1,3.718249500E-1
2.020284944E1,5.770407319E-1,6.567150354E-1,3.489785790E-1
2.022284944E1,5.417152643E-1,7.767587900E-1,5.661848187E-2
2.024284944E1,3.676885068E-1,3.044726849E-1,-7.492698729E-2
2.026284944E1,1.683370024E-1,-3.651403189E-1,-2.293362655E-2
2.028284944E1,4.572762642E-3,-8.703957200E-1,2.558652684E-2
2.030284944E1,1.642354764E-2,-1.169841886E0,2.532472648E-2
2.032284944E1,1.542696506E-1,-1.102786303E0,-1.455604564E-2
2.034284944E1,3.394490778E-1,-7.917336822E-1,-6.702063978E-2
2.036284944E1,5.025849938E-1,-4.563163221E-1,-8.730136603E-2
2.038284944E1,5.907067060E-1,-2.037148327E-1,-9.604547173E-2
2.040284944E1,5.786638856E-1,-3.492403775E-2,-6.579891592E-2
2.042284944E1,5.176472068E-1,9.529497474E-3,1.815142459E-3
2.044284944E1,4.315152168E-1,-2.151990868E-2,9.737192094E-2
2.046284944E1,3.496069014E-1,-6.141813472E-2,1.772730947E-1
2.048284944E1,3.146828711E-1,-1.113694608E-1,2.241177261E-1
2.050284944E1,3.024655581E-1,-2.261248529E-1,2.730218470E-1
2.052288069E1,2.994635999E-1,-4.043055177E-1,2.666688561E-1
2.054484944E1,3.341607451E-1,-7.254111767E-1,2.488839477E-1
2.056486975E1,4.487590492E-1,-1.095438480E0,2.904227972E-1
2.058685100E1,5.620134473E-1,-1.286691666E0,2.855184078E-1
2.060686350E1,5.751208663E-1,-1.098649859E0,9.843657166E-2
2.062885412E1,1.642180234E-1,-2.645744681E-1,-8.243189752E-2
2.065085100E1,-4.798084497E-1,3.291341960E-1,-6.604325771E-2
2.067284944E1,-9.945235252E-1,6.831742525E-1,-2.258979678E-1
2.069284944E1,-1.200786471E0,8.778133392E-1,-4.612730742E-1
2.071284944E1,-1.138391018E0,1.145878434E0,-6.030985117E-1
2.073284944E1,-9.769480228E-1,1.729952931E0,-6.085613966E-1
2.075284944E1,-7.862882614E-1,2.333330631E0,-4.013209939E-1
2.077284944E1,-5.947209597E-1,2.643964291E0,-5.298819765E-2
2.079284944E1,-4.016351700E-1,2.386039495E0,3.753330410E-1
2.081284944E1,-8.710065484E-1,3.084520400E-1,-6.696828455E-2
2.083284944E1,-9.796532989E-1,-1.070584953E-1,-2.160717547E-2
2.085284944E1,-5.963266492E-1,2.474527806E-1,3.099181056E-1
2.087284944E1,-3.885102868E-1,4.798608124E-1,3.497116268E-1
2.089284944E1,-2.594955564E-1,7.200006843E-1,2.901260853E-1
2.091284944E1,-1.034107581E-1,9.754645228E-1,3.235142231E-1
2.093285100E1,1.007404029E-1,1.140939236E0,3.672870994E-1
2.095285100E1,3.376863003E-1,1.227332950E0,4.139048159E-1
2.097484944E1,5.459215641E-1,1.079259276E0,3.822445571E-1
2.099484944E1,7.016921639E-1,8.068308234E-1,3.197966814E-1
2.101484944E1,7.663217187E-1,4.282165170E-1,2.065422684E-1
2.103484944E1,7.159864306E-1,-3.199188411E-2,1.678134054E-1
2.105484944E1,5.350481272E-1,-6.187192202E-1,8.333947510E-2
2.107484944E1,2.474876866E-2,-1.778979182E0,-1.619316489E-1
2.109484944E1,-2.335390091E0,-3.450114489E0,-9.450957775E-1
2.111484944E1,-4.082290173E0,-1.364184260E0,-1.315175414E0
2.113484944E1,-3.078935385E0,1.107219458E0,-8.198858500E-1
2.115484944E1,-1.694540232E-1,2.933322430E0,1.572890729E-1
2.117484944E1,9.769654870E-1,2.469536066E0,4.553040266E-1
2.119485100E1,1.482325554E0,4.742757678E-1,8.374613523E-1
2.121684944E1,2.212135077E0,-1.281926870E0,1.089643955E0
2.123685725E1,2.399269104E0,-1.605493426E0,9.002583027E-1
2.125885100E1,3.852465153E-1,-3.102846384E0,-3.577924892E-2
2.128085100E1,6.958104372E-1,-1.736777127E-1,3.297974169E-1
2.130284944E1,6.660176516E-1,1.026602626E0,2.619913816E-1
2.132284944E1,4.671199322E-1,1.225186229E0,1.413367689E-1
2.134284944E1,2.290744632E-1,6.190333962E-1,1.761037298E-2
2.136284944E1,-6.380923837E-2,-2.899864614E-1,-8.389797807E-2
2.138284944E1,-3.064274490E-1,-1.035346746E0,-1.305331737E-1
2.140284944E1,-3.400948644E-1,-1.397851706E0,-1.167276204E-1
2.142284944E1,-2.022836655E-1,-1.420488596E0,-5.722934753E-2
2.144284944E1,1.047197543E-2,-1.157118440E0,-2.820452116E-2
2.146284944E1,2.471560687E-1,-7.290240526E-1,-3.052580915E-2
2.148284944E1,4.405734539E-1,-3.204424381E-1,-5.195845291E-2
2.150284944E1,5.178042650E-1,-3.310889751E-2,-7.127925009E-2
2.152285100E1,4.953593612E-1,1.340063810E-1,-4.480260238E-2
2.154285100E1,4.244989753E-1,2.245540619E-1,2.082177810E-2
2.156486975E1,3.334276974E-1,2.096489519E-1,1.362927556E-1
2.158685100E1,2.540501356E-1,6.941174716E-2,2.764776051E-1
2.160885100E1,1.877101660E-1,-1.924749166E-1,3.147526681E-1
2.162885100E1,1.325054020E-1,-4.635769129E-1,2.668957412E-1
2.165084944E1,6.443755329E-2,-6.975382566E-1,2.036101073E-1
2.167084944E1,4.572762549E-2,-8.666432500E-1,2.194577008E-1
2.169084944E1,1.085071191E-1,-9.517105818E-1,2.874382734E-1
2.171085100E1,2.828655243E-1,-9.817651510E-1,2.625673413E-1
2.173284944E1,4.030488729E-1,-6.059259772E-1,8.777260780E-2
2.175284944E1,1.490860283E-1,-9.505063295E-2,-2.417281084E-2
2.177284944E1,-2.065946162E-1,2.132966816E-1,-1.819854826E-1
2.179284944E1,-5.619785786E-1,4.215842783E-1,-3.902556300E-1
2.181284944E1,-7.538600564E-1,5.322032571E-1,-5.908288360E-1
2.183284944E1,-8.798030019E-1,8.505513072E-1,-7.099475861E-1
2.185284944E1,-8.722806573E-1,1.372649074E0,-7.245559692E-1
2.187284944E1,-7.582233548E-1,1.892460465E0,-5.980021358E-1
2.189285100E1,-5.539500713E-1,2.134275913E0,-2.800380886E-1
2.191285100E1,-3.050835431E-1,1.956618786E0,1.919862181E-1
2.193285100E1,-1.398235559E0,-8.219977021E-1,-6.203598380E-1
2.195285100E1,-7.946833372E-1,-2.241526395E-1,1.983217597E-1
2.197484944E1,-2.987305522E-1,1.727701426E-1,4.250574708E-1
2.199484944E1,-4.587947130E-1,3.879866749E-2,1.711644381E-1
2.201484944E1,-6.508507133E-1,4.164006412E-1,9.721484035E-3
2.203484944E1,-4.774697125E-1,1.026079059E0,8.630653471E-2
2.205484944E1,-8.408996463E-2,1.286202908E0,3.527135849E-1
2.207484944E1,3.398854136E-1,1.157415032E0,5.689249635E-1
2.209484944E1,6.900159121E-1,8.547226191E-1,6.138148308E-1
2.211484944E1,9.034696817E-1,5.343499780E-1,4.931253195E-1
2.213484944E1,9.609084725E-1,1.911659092E-1,3.333579004E-1
2.215484944E1,8.895070553E-1,-1.262396574E-1,2.193006128E-1
2.217484944E1,7.555006742E-1,-5.229704380E-1,1.263792962E-1
2.219484944E1,4.667010307E-1,-1.218833208E0,3.665191354E-3
2.221484944E1,-1.471050739E0,-2.709117413E0,-6.497162580E-1
2.223484944E1,-3.424266100E0,-7.804588675E-1,-1.221817732E0
2.225484944E1,-2.668887615E0,1.228380203E0,-8.486489058E-1
2.227484944E1,-3.151017427E-1,2.601029158E0,-4.321435094E-2
2.229484944E1,8.471130133E-1,2.031022072E0,2.258456051E-1
2.231484944E1,1.574339390E0,1.568527371E-1,5.351703167E-1
2.233484944E1,2.069122791E0,-1.155896664E0,7.072423100E-1
2.235484944E1,3.455228209E-1,-4.093512535E0,-6.329785585E-1
2.237484944E1,1.555088349E-2,-2.229221821E0,-1.099033803E-1
2.239484944E1,6.636614203E-1,-1.125388294E-1,3.366391063E-1
2.241484944E1,8.737467527E-1,6.524738669E-1,2.162462920E-1
2.243484944E1,6.912027597E-1,7.656235695E-1,-7.679448463E-4
2.245484944E1,3.975336552E-1,1.410226058E-2,-9.512044489E-2
2.247484944E1,6.407103688E-2,-9.564055204E-1,-1.019272283E-1
2.249484944E1,-1.403419226E-1,-1.610921383E0,-6.017895415E-2
2.251485256E1,-1.100255549E-1,-1.710474968E0,-3.269001842E-2
2.253684944E1,7.757988572E-2,-1.429442048E0,-4.495968297E-2
2.255685100E1,2.708052993E-1,-1.036079764E0,-6.501351297E-2
2.257884944E1,4.216017425E-1,-5.547180176E-1,-8.988445252E-2
2.259884944E1,4.500855207E-1,-2.269277126E-1,-9.176941216E-2
2.261884944E1,3.823841810E-1,6.204645336E-2,-4.537856206E-2
2.263884944E1,2.847504616E-1,2.854660451E-1,5.338962004E-2
2.265884944E1,2.021614909E-1,4.217588007E-1,1.767494977E-1
2.267884944E1,1.838180721E-1,4.468566477E-1,3.216990829E-1
2.269884944E1,2.014982551E-1,3.383844197E-1,4.351629317E-1
2.271884944E1,2.366666496E-1,-3.665191354E-3,4.730016887E-1
2.273884944E1,2.546958923E-1,-5.343151093E-1,3.578622937E-1
2.275885100E1,2.466673851E-1,-1.068124056E0,1.803797781E-1
2.278085100E1,2.012190074E-1,-1.514020801E0,9.128072113E-2
2.280284944E1,2.205921561E-1,-1.708939075E0,1.854237765E-1
2.282284944E1,3.569372892E-1,-1.621463180E0,2.350260317E-1
2.284285100E1,4.551818669E-1,-1.277109742E0,1.682322919E-1
2.286285100E1,3.085044026E-1,-7.446970940E-1,3.082251363E-2
2.288285100E1,4.881685972E-2,-2.704562247E-1,-1.102699041E-1
2.290484944E1,-3.310016990E-1,1.637467891E-1,-3.529753983E-1
2.292484944E1,-6.465222836E-1,6.009866595E-1,-5.530075431E-1
2.294484944E1,-8.228703737E-1,1.226425409E0,-5.629559755E-1
2.296486819E1,-8.400618434E-1,1.938310266E0,-3.632553816E-1
2.298686038E1,-7.674212456E-1,2.463183165E0,1.668534800E-2
2.300884944E1,-6.145304441E-1,2.298493862E0,4.409574270E-1
2.302884944E1,-3.104417026E-1,1.421483397E0,7.910879254E-1
2.304885100E1,-1.683230400E0,-2.224806070E0,-4.305203557E-1
2.307086350E1,-1.220997453E0,-8.160985112E-1,9.688322991E-2
2.309284944E1,-1.106416583E0,4.469788074E-1,1.877450645E-1
2.311284944E1,-1.043305516E0,1.509587646E0,1.066745222E-1
2.313284944E1,-6.810449362E-1,2.034984112E0,1.669581980E-1
2.315284944E1,-1.451764852E-1,1.929356813E0,3.600439727E-1
2.317284944E1,4.376762211E-1,1.610938907E0,5.236336589E-1
2.319284944E1,9.021607041E-1,1.294353604E0,5.425879359E-1
2.321284944E1,1.199285507E0,1.019150138E0,4.826882482E-1
2.323284944E1,1.356522202E0,7.266503572E-1,3.511602581E-1
2.325284944E1,1.327689409E0,4.889365435E-1,2.001718134E-1
2.327284944E1,1.184938908E0,1.561022550E-1,1.720894687E-2
2.329284944E1,8.499055505E-1,-4.008148611E-1,-1.898220032E-1
2.331285100E1,4.171336815E-2,-1.452079058E0,-5.672494769E-1
2.333484944E1,-3.027936697E0,-1.942254782E0,-1.577969670E0
2.335484944E1,-3.980816841E0,1.887922585E-1,-1.584182978E0
2.337484944E1,-2.191697121E0,1.655113220E0,-6.131341457E-1
2.339484944E1,4.395262599E-1,2.269486427E0,3.795393109E-1
2.341484944E1,1.412198305E0,1.071789265E0,5.095139742E-1
2.343484944E1,1.674381614E0,-5.668305755E-1,7.826405168E-1
2.345484944E1,1.178743005E0,-8.057312369E-1,1.034927845E0
2.347484944E1,-2.317797206E-2,-2.235068560E0,-1.604655683E-1
2.349484944E1,-2.701246142E-1,-1.806677580E0,-4.893030524E-1
2.351484944E1,4.380252659E-1,1.781108528E-1,2.899515331E-1
2.353484944E1,6.331007481E-1,1.014106154E0,4.684114754E-1
2.355484944E1,5.494645238E-1,1.073290229E0,2.990621626E-1
2.357484944E1,3.553490341E-1,4.078834355E-1,8.368853480E-2
2.359484944E1,9.328784794E-2,-4.222126007E-1,6.037093699E-2
2.361484944E1,-1.185253114E-1,-8.818625212E-1,8.738863468E-2
2.363484944E1,-1.829279512E-1,-1.034718394E0,1.361356769E-2
2.365484944E1,-7.602654397E-2,-1.074826121E0,-5.504768342E-2
2.367484944E1,1.204277202E-1,-8.884773254E-1,-7.988371700E-2
2.369484944E1,3.308097124E-1,-5.185024142E-1,-3.427826613E-2
2.371484944E1,4.727224410E-1,-1.356469840E-1,2.560397983E-2
2.373484944E1,5.225864649E-1,1.713738739E-1,5.539675057E-2
2.375484944E1,4.794244766E-1,4.346742630E-1,8.178612590E-2
2.377484944E1,3.861715496E-1,5.640904307E-1,1.516516656E-1
2.379484944E1,3.342131078E-1,4.787088931E-1,2.448522449E-1
2.381484944E1,2.843141258E-1,2.237512022E-1,3.048042953E-1
2.383484944E1,2.604031265E-1,-1.429948211E-1,2.913129032E-1
2.385484944E1,2.281319797E-1,-5.852438211E-1,2.017426044E-1
2.387484944E1,1.708677262E-1,-1.116487145E0,9.717993438E-2
2.389484944E1,1.925272644E-1,-1.741472125E0,1.311265826E-1
2.391484944E1,4.001516402E-1,-2.134345770E0,2.115164548E-1
2.393484944E1,7.132113576E-1,-2.236918688E0,1.583362669E-1
2.395484944E1,8.843234181E-1,-2.033465624E0,-5.489060655E-2
2.397484944E1,5.259200335E-1,-1.127657175E0,-1.952325255E-1
2.399484944E1,-1.714785993E-1,-1.910960972E-1,-1.868200451E-1
2.401485100E1,-7.257253528E-1,3.646690845E-1,-2.815390527E-1
2.403485100E1,-1.044492245E0,8.281587362E-1,-5.088158250E-1
2.405684944E1,-1.133207321E0,1.269849181E0,-6.522818804E-1
2.407684944E1,-1.028801799E0,1.771090269E0,-6.421415210E-1
2.409685100E1,-7.014478445E-1,2.060378551E0,-4.347964227E-1
2.411885100E1,-2.461821795E0,-2.052402496E0,-2.193058491E0
2.414085100E1,-1.580255985E0,-3.527484834E-1,-2.909114659E-1
2.416284944E1,-4.642226696E-1,6.255783439E-1,7.521671057E-1
2.418284944E1,-8.372344077E-2,3.697305620E-1,4.197691381E-1
2.420284944E1,4.011813700E-1,7.634942532E-1,4.074122012E-1
2.422284944E1,-3.557504714E-1,4.623726308E-1,4.569271952E-2
2.424284944E1,-1.162808180E0,1.106765628E0,-1.148077548E-1
2.426284944E1,-1.038418531E0,1.582594752E0,2.250078470E-1
2.428285100E1,-4.623377025E-1,1.356609464E0,6.941872835E-1
2.430287444E1,2.332981676E-1,9.512916803E-1,9.507157207E-1
2.432484944E1,8.967676163E-1,5.601634383E-1,9.101717472E-1
2.434484944E1,1.305977464E0,2.945592105E-1,6.215640903E-1
2.436486819E1,1.436196566E0,6.267477572E-2,3.272841275E-1
2.438684944E1,1.295924425E0,-2.337868512E-1,2.357416153E-1
2.440686975E1,8.159937859E-1,-8.119620681E-1,1.284911335E-1
2.442884944E1,-2.159897327E0,-1.646386504E0,-8.901004791E-1
2.444884944E1,-3.032526970E0,1.366418302E-1,-1.030320168E0
2.446885100E1,-1.813815951E0,1.554250598E0,-6.372371316E-1
2.448885100E1,-4.953244328E-1,2.872812033E0,-4.977329969E-1
2.451084944E1,7.340331078E-1,1.975031972E0,-2.585007250E-1
2.453084944E1,1.520303965E0,-2.666339576E-1,4.698426276E-2
2.455085100E1,1.815107465E0,-1.862423420E0,5.797984004E-1
2.457086662E1,1.175008059E0,-2.726239204E0,4.776093364E-1
2.459284944E1,2.029643357E-1,-1.792034268E0,1.218414381E-1
2.461284944E1,4.965636134E-1,-8.691739291E-2,4.439594150E-1
2.463284944E1,6.325073242E-1,7.895694971E-1,2.641206682E-1
2.465284944E1,5.924345851E-1,9.016894698E-1,8.447393775E-3
2.467284944E1,4.530874789E-1,3.256959021E-1,-1.316676438E-1
2.469284944E1,2.767394185E-1,-4.599291682E-1,-1.090481728E-1
2.471284944E1,1.419650763E-1,-1.072557211E0,-6.881833076E-2
2.473285100E1,1.455430090E-1,-1.240772009E0,-3.803072497E-2
2.475484944E1,2.378011048E-1,-1.057582259E0,-1.305506285E-2
2.477484944E1,3.627143204E-1,-7.533538938E-1,-2.494075522E-2
2.479484944E1,4.775046408E-1,-3.907268643E-1,-6.682865322E-2
2.481484944E1,5.337566137E-1,-6.483898312E-2,-8.079128712E-2
2.483484944E1,5.722759962E-1,1.629962921E-1,-3.979350906E-3
2.485484944E1,5.874778032E-1,2.436305135E-1,1.302364618E-1
2.487485100E1,5.734803081E-1,1.371479779E-1,2.986432910E-1
2.489684944E1,5.005953312E-1,-2.153038085E-1,4.456698298E-1
2.491684944E1,4.135732055E-1,-7.074866891E-1,4.721813798E-1
2.493684944E1,3.056071401E-1,-1.156629682E0,3.994534910E-1
2.495685100E1,1.769240201E-1,-1.444225073E0,2.555860281E-1
2.497885100E1,5.316272750E-2,-1.492622972E0,1.453859210E-1
2.500084944E1,6.178465486E-2,-1.477752805E0,2.250951082E-1
2.502084944E1,2.553591132E-1,-1.352403283E0,3.905523121E-1
2.504084944E1,4.671373665E-1,-1.063237071E0,3.452959359E-1
2.506084944E1,4.146727622E-1,-6.098703742E-1,1.261349469E-1
2.508084944E1,-2.825688012E-2,-3.156777024E-1,-4.754276946E-2
2.510084944E1,-5.514717102E-1,1.368338149E-2,-2.001543641E-1
2.512085100E1,-9.920625687E-1,4.746597409E-1,-4.501727819E-1
2.514085100E1,-1.188167810E0,8.973261118E-1,-6.614449024E-1
2.516284944E1,-1.173315048E0,1.481156230E0,-7.477339506E-1
2.518284944E1,-1.023094535E0,2.187421083E0,-6.834883690E-1
2.520284944E1,-8.443204761E-1,2.729607582E0,-4.409574270E-1
2.522284944E1,-5.630781054E-1,2.722818375E0,1.109854877E-1
2.524285100E1,-2.469902754E0,-1.985172391E0,-1.127866626E0
2.526486819E1,-1.513165593E0,-4.514992237E-1,3.294309080E-1
2.528686350E1,-4.331034422E-1,7.294952869E-1,8.126078248E-1
2.530884944E1,1.673072577E-1,9.185667634E-1,6.653369665E-1
2.532884944E1,2.829527855E-1,5.974087715E-1,3.851767182E-1
2.534884944E1,7.215191424E-2,2.726029754E-1,1.239009202E-1
2.536884944E1,-4.803146049E-2,5.347514153E-1,1.742013097E-1
2.538884944E1,1.306378990E-1,8.691914082E-1,4.428423941E-1
2.540884944E1,4.148996770E-1,9.521992803E-1,6.446897388E-1
2.542884944E1,6.788806915E-1,7.935139537E-1,5.802347064E-1
2.544884944E1,8.557524085E-1,4.741710424E-1,3.370579779E-1
2.546884944E1,9.160360694E-1,6.750933826E-2,5.768313259E-2
2.548884944E1,8.645488620E-1,-4.717799425E-1,-2.013411820E-1
2.550884944E1,4.713610709E-1,-1.254839420E0,-4.915021658E-1
2.552884944E1,-1.871167541E0,-2.737322092E0,-1.278802752E0
2.554884944E1,-3.376269579E0,-6.085439324E-1,-1.563535810E0
2.556884944E1,-2.425798178E0,2.090433121E0,-9.741729498E-1
2.558884944E1,-3.661177158E-1,3.073210716E0,6.895796210E-2
2.560884944E1,6.083868742E-1,1.259220123E0,3.918962181E-1
2.562884944E1,1.208675385E0,-9.143605232E-1,6.734352708E-1
2.564884944E1,1.605441093E0,-1.999937892E0,7.819598913E-1
2.566884944E1,2.015872717E0,-1.831199408E0,6.611830592E-1
2.568884944E1,8.937831223E-2,-4.034607887E0,-5.139645338E-1
2.570884944E1,4.290193915E-1,-2.724284530E-1,4.429645464E-2
2.572885100E1,4.421617091E-1,1.573536515E0,2.202430964E-1
2.574885100E1,4.697553813E-1,1.630992770E0,1.156804189E-1
2.576885100E1,4.705931246E-1,8.642346859E-1,-4.255112633E-2
2.579084944E1,3.083473146E-1,-2.431941777E-1,-4.457570985E-2
2.581087131E1,8.808676898E-2,-8.734500408E-1,3.440044075E-2
2.583284944E1,-6.365215778E-2,-1.223894715E0,7.784168422E-2
2.585284944E1,-7.072073966E-2,-1.240143657E0,6.159266829E-2
2.587284944E1,2.469640970E-2,-9.758833647E-1,1.809906401E-2
2.589284944E1,1.833642870E-1,-6.000616550E-1,1.219985168E-2
2.591284944E1,3.510904312E-1,-2.456550896E-1,5.464625731E-2
2.593284944E1,4.566130340E-1,1.891936921E-2,1.428901106E-1
2.595284944E1,4.658109248E-1,6.052801758E-2,2.141868025E-1
2.597284944E1,4.068537056E-1,-9.051277488E-2,2.717128694E-1
2.599284944E1,3.281742632E-1,-3.575481474E-1,3.172833920E-1
2.601284944E1,2.804394960E-1,-6.763325334E-1,3.257656991E-1
2.603284944E1,2.356019914E-1,-9.711710215E-1,2.602984011E-1
2.605284944E1,1.839576960E-1,-1.150678158E0,1.499586850E-1
2.607284944E1,1.343554407E-1,-1.206197023E0,1.289623827E-1
2.609284944E1,1.544441879E-1,-1.117988110E0,2.000670880E-1
2.611284944E1,2.753955126E-1,-9.545554519E-1,2.866005301E-1
2.613285256E1,4.373969734E-1,-6.403263807E-1,1.875007153E-1
2.615484944E1,3.766769469E-1,-2.957111299E-1,-4.560545459E-2
2.617484944E1,-1.527163107E-2,-2.720444798E-1,-1.574461460E-1
2.619484944E1,-5.220977664E-1,-1.536936909E-1,-2.906845808E-1
2.621484944E1,-8.840441704E-1,1.415287554E-1,-5.530075431E-1
2.623484944E1,-1.009079576E0,5.862735510E-1,-7.348185182E-1
2.625484944E1,-1.015729308E0,1.359244943E0,-6.968401670E-1
2.627484944E1,-9.192823768E-1,2.254092693E0,-4.568922818E-1
2.629484944E1,-7.427597642E-1,2.834851027E0,-6.515314430E-2
2.631484944E1,-4.139746428E-1,2.332440615E0,3.750537932E-1
2.633484944E1,-2.190510273E0,-2.002433777E0,-1.184380412E0
2.635484944E1,-1.051316500E0,-5.520127416E-1,2.808234692E-1
2.637484944E1,-1.831723005E-1,4.936838448E-1,7.609286308E-1
2.639484944E1,2.809107304E-1,9.331926703E-1,6.792472601E-1
2.641484944E1,2.647838891E-1,8.484219909E-1,3.690149486E-1
2.643484944E1,-6.398376822E-2,7.245734334E-1,8.262388408E-2
2.645484944E1,-7.677703351E-2,7.746818662E-1,2.515717447E-1
2.647484944E1,1.850049049E-1,8.115431666E-1,5.690994859E-1
2.649484944E1,5.119574070E-1,7.844556570E-1,7.128273845E-1
2.651484944E1,7.077484727E-1,6.718295813E-1,5.923298597E-1
2.653484944E1,7.849269509E-1,4.137477577E-1,3.244217932E-1
2.655484944E1,7.489207983E-1,6.965608895E-2,5.688028038E-2
2.657484944E1,6.243042946E-1,-4.310614169E-1,-1.557706296E-1
2.659484944E1,1.669756472E-1,-1.266114235E0,-3.748967350E-1
2.661484944E1,-1.566921711E0,-2.395813465E0,-1.015083432E0
2.663484944E1,-2.566105127E0,-6.901904345E-1,-1.287581801E0
2.665484944E1,-2.010462284E0,1.630765796E0,-1.075105309E0
2.667484944E1,-2.373298705E-1,2.574954033E0,-4.062777460E-1
2.669484944E1,8.733976483E-1,1.022710562E0,-3.269001842E-2
2.671484944E1,1.523846984E0,-8.925090432E-1,3.386636972E-1
2.673484944E1,1.550079226E0,-2.488438129E0,3.891037107E-1
2.675484944E1,-5.405110121E-1,-4.309968472E0,-6.186319590E-1
2.677485100E1,2.891661525E-1,-9.936508536E-1,4.678180516E-1
2.679685100E1,9.270491004E-1,1.041978955E0,4.797561169E-1
2.681685100E1,9.363517165E-1,1.779206038E0,2.728124261E-1
2.683685256E1,6.984807849E-1,1.520373702E0,1.063952744E-1
2.685884944E1,3.691022396E-1,6.126803756E-1,-2.733185515E-2
2.687884944E1,7.625343651E-2,-3.582462668E-1,-6.408849359E-2
2.689885100E1,-9.065239877E-2,-9.838595390E-1,-3.474950418E-2
2.691886038E1,-7.602654397E-2,-1.168061614E0,-8.796459064E-3
2.694084944E1,6.990043819E-2,-9.914342761E-1,1.326450263E-3
2.696084944E1,2.446427941E-1,-5.438271165E-1,2.492330223E-2
2.698084944E1,4.055272639E-1,-3.776892647E-2,7.251843065E-2
2.700084944E1,4.620584548E-1,2.787116170E-1,1.539904028E-1
2.702084944E1,4.332779944E-1,4.345695376E-1,2.435607016E-1
2.704084944E1,3.868871331E-1,4.451985955E-1,3.260100484E-1
2.706084944E1,3.193428814E-1,2.817485034E-1,3.862762749E-1
2.708085100E1,2.455503643E-1,2.298598550E-2,4.307996035E-1
2.710284944E1,1.695063710E-1,-2.925520837E-1,3.879692256E-1
2.712284944E1,9.723228961E-2,-5.946162343E-1,2.563016117E-1
2.714284944E1,1.396263367E-3,-8.747764826E-1,9.225810319E-2
2.716284944E1,-3.293436393E-2,-1.131846070E0,1.161516607E-1
2.718284944E1,1.231329814E-1,-1.227769256E0,3.412467837E-1
2.720284944E1,4.887445569E-1,-1.027998924E0,4.422838986E-1
2.722284944E1,8.881108165E-1,-6.810449362E-1,1.854586899E-1
2.724285100E1,8.340230584E-1,8.054694533E-2,-1.536238790E-1
2.726486819E1,-1.012639999E-1,4.932300448E-1,-2.079559863E-1
2.728686350E1,-9.951867461E-1,8.798379302E-1,-1.483006328E-1
2.730885100E1,-1.364184260E0,1.022466183E0,-4.646939039E-1
2.732885100E1,-1.477019787E0,1.225482941E0,-7.960446477E-1
2.735084944E1,-1.399841309E0,1.601252317E0,-8.103039861E-1
2.737084944E1,-1.118040442E0,2.056451559E0,-6.202027202E-1
2.739084944E1,-7.485542893E-1,2.497164726E0,-3.419449031E-1
2.741084944E1,-3.631506562E-1,2.488263607E0,6.339035928E-2
2.743084944E1,-1.221887589E0,6.942919642E-2,-1.430192590E0
2.745084944E1,-7.196167111E-1,2.762332559E-1,-1.966113448E-1
2.747084944E1,-2.097711265E-1,3.265860081E-1,4.965985417E-1
2.749084944E1,9.375908971E-2,2.781705856E-1,6.380923986E-1
2.751085100E1,2.429847419E-1,3.459591568E-1,5.771978498E-1
2.753284944E1,2.872113883E-1,4.781678617E-1,4.105538130E-1
2.755284944E1,2.498438805E-1,5.348561406E-1,3.400250375E-1
2.757285100E1,2.097187638E-1,4.949579239E-1,4.044626057E-1
2.759285100E1,2.338741124E-1,4.132939577E-1,4.834387600E-1
2.761285100E1,3.215070963E-1,2.693217695E-1,4.908738434E-1
2.763484944E1,4.658981860E-1,-7.339109480E-2,4.067140818E-1
2.765484944E1,5.460262299E-1,-5.063374639E-1,2.915397882E-1
2.767485100E1,5.298819542E-1,-9.991835356E-1,2.068913281E-1
2.769684944E1,2.786592543E-1,-1.864796996E0,5.218534265E-3
2.771684944E1,-1.207244277E0,-2.588742256E0,-6.592806578E-1
2.773685100E1,-2.046747684E0,-2.560397983E-1,-1.012639999E0
2.775885100E1,-1.224714994E0,2.034355879E0,-6.718645096E-1
2.778084944E1,3.537433445E-1,2.553870440E0,-2.139250040E-1
2.780084944E1,1.112420559E0,8.175471425E-1,-2.418153733E-1
2.782085100E1,1.560970068E0,-1.194101930E0,-1.236042157E-1
2.784284944E1,-1.031541944E0,-6.777549744E0,-1.343240261E0
2.786284944E1,-8.527853489E-1,-3.720378637E0,2.873684466E-1
2.788284944E1,2.041337043E-1,-7.931474447E-1,6.090326309E-1
2.790284944E1,1.223161697E0,4.086688459E-1,2.188817412E-1
2.792284944E1,1.568021297E0,1.026951671E0,1.296081543E-1
2.794284944E1,1.335682988E0,1.103222609E0,2.293886244E-1
2.796285100E1,8.616166711E-1,7.287273407E-1,1.575334221E-1
2.798484944E1,2.739817798E-1,-2.397384197E-1,-3.872885555E-2
2.800484944E1,-1.308647841E-1,-9.732479453E-1,-1.570447236E-1
2.802484944E1,-2.446078956E-1,-1.236408710E0,-1.811477244E-1
2.804484944E1,-1.547234356E-1,-1.163488865E0,-1.626297832E-1
2.806486975E1,2.328269184E-2,-8.259072304E-1,-1.384744197E-1
2.808686194E1,2.615201473E-1,-3.267430961E-1,-1.239881888E-1
2.810885569E1,4.479911029E-1,7.880161703E-2,-1.082104146E-1
2.813084944E1,5.169839859E-1,3.741636872E-1,-4.951499030E-2
2.815084944E1,4.855331481E-1,6.023305655E-1,4.216715321E-2
2.817084944E1,4.058239460E-1,6.740286946E-1,1.756324768E-1
2.819084944E1,3.143512607E-1,5.597969294E-1,2.974913716E-1
2.821084944E1,2.371204346E-1,2.271022350E-1,3.495196402E-1
2.823084944E1,1.429250091E-1,-2.672622800E-1,3.038443625E-1
2.825084944E1,5.893976986E-2,-7.703883052E-1,2.088810056E-1
2.827084944E1,-3.403391922E-3,-1.246252298E0,1.736951619E-1
2.829084944E1,3.464478627E-2,-1.567427874E0,2.691646814E-1
2.831085100E1,2.364746630E-1,-1.700456858E0,4.233296216E-1
2.833085100E1,5.265309215E-1,-1.596190810E0,4.104490876E-1
2.835285100E1,6.981666088E-1,-1.417050242E0,1.295034289E-1
2.837484944E1,4.107632339E-1,-9.406452179E-1,-1.405164599E-1
2.839484944E1,-1.016305238E-1,-2.242922634E-1,-3.731688559E-1
2.841484944E1,-6.002012491E-1,2.104517967E-1,-6.407452822E-1
2.843484944E1,-9.643642306E-1,5.784021020E-1,-8.109846711E-1
2.845484944E1,-1.199582219E0,1.084268332E0,-9.035220146E-1
2.847484944E1,-1.231870890E0,1.758907914E0,-8.925613761E-1
2.849484944E1,-1.083901763E0,2.355810404E0,-7.798480392E-1
2.851485725E1,-8.805360794E-1,2.681331873E0,-4.962320030E-1
2.853684944E1,-9.375559688E-1,1.833503246E0,-3.237062097E-1
2.855684944E1,-2.026781082E0,-8.023278415E-2,-8.342673779E-1
2.857684944E1,-1.306413889E0,5.877047181E-1,4.346916974E-1
2.859685100E1,-7.632150054E-1,9.137496948E-1,9.620079994E-1
2.861885100E1,-4.490557611E-1,1.013128757E0,9.652543664E-1
2.864084944E1,-3.541796505E-1,8.631525636E-1,6.775891781E-1
2.866085100E1,-1.470789015E-1,1.024595499E0,4.533143640E-1
2.868284944E1,2.661801577E-1,1.372404695E0,4.281292558E-1
2.870284944E1,6.906965971E-1,1.433019996E0,5.342627168E-1
2.872284944E1,1.070724607E0,1.368547559E0,5.606870055E-1
2.874284944E1,1.305244446E0,1.203352213E0,4.469788074E-1
2.876284944E1,1.351774931E0,8.785114884E-1,2.732312977E-1
2.878284944E1,1.176840663E0,3.398505151E-1,9.923942387E-2
2.880284944E1,7.250795960E-1,-5.603379607E-1,-1.150346473E-1
2.882285100E1,-1.525208354E0,-2.940949678E0,-9.290736914E-1
2.884485100E1,-3.664667845E0,-1.355684519E0,-1.348493695E0
2.886486819E1,-2.598830223E0,1.440140963E0,-6.050533056E-1
2.888686038E1,2.575582266E-1,3.909589767E0,5.033529401E-1
2.890885100E1,8.887914419E-1,3.169919252E0,5.462880731E-1
2.893085100E1,9.587442875E-1,3.127630055E-1,6.959500313E-1
2.895284944E1,1.152999401E0,-1.733984590E0,9.625839591E-1
2.897284944E1,1.448885083E0,-2.298947573E0,1.007334232E0
2.899284944E1,1.790917277E0,-1.631638527E0,7.566176653E-1
2.901284944E1,5.764822364E-1,-2.741423607E0,8.133234084E-2
2.903285100E1,3.322059810E-1,-2.197369561E-2,2.074323744E-1
2.905485100E1,-2.825688012E-2,1.432304502E0,9.030333161E-2
2.907684944E1,-2.410648763E-1,1.346626282E0,-7.728318125E-2
2.909685100E1,-3.384367824E-1,6.800675392E-1,-1.619490981E-1
2.911884944E1,-3.929608762E-1,-2.968106866E-1,-6.976080686E-2
2.913884944E1,-4.445353448E-1,-8.198160529E-1,2.947861142E-2
2.915884944E1,-4.657236636E-1,-1.081109285E0,-5.192354321E-2
2.917884944E1,-3.863460720E-1,-1.189267397E0,-1.352455616E-1
2.919884944E1,-2.217789888E-1,-9.641024470E-1,-1.247735843E-1
2.921884944E1,2.584832534E-2,-4.538030624E-1,-2.799508162E-2
2.923884944E1,3.054500818E-1,1.243023500E-1,1.021017581E-1
2.925885100E1,4.622853696E-1,5.308768153E-1,1.825090796E-1
2.928084944E1,4.873482883E-1,6.775717139E-1,2.261772156E-1
2.930084944E1,3.975510895E-1,5.607219338E-1,2.575058639E-1
2.932085100E1,3.008947670E-1,1.786170006E-1,2.998999357E-1
2.934085100E1,2.163335532E-1,-2.736850679E-1,3.477917612E-1
2.936085100E1,1.563291401E-1,-7.373492718E-1,3.425383270E-1
2.938284944E1,1.108109504E-1,-1.208134413E0,2.457249016E-1
2.940284944E1,1.156455129E-1,-1.576084614E0,2.274687588E-1
2.942284944E1,2.532123625E-1,-1.849141479E0,3.225368559E-1
2.944284944E1,5.242620111E-1,-1.943162322E0,3.174230158E-1
2.946285100E1,7.634768486E-1,-1.831915021E0,1.369559914E-1
2.948484944E1,6.965609193E-1,-1.402703643E0,-2.647664398E-2
2.950485100E1,2.958333194E-1,-7.807381153E-1,-1.923701912E-1
2.952685881E1,-3.181037009E-1,-2.985211015E-1,-4.172209501E-1
2.954885100E1,-8.495564461E-1,1.869073063E-1,-6.361725330E-1
2.957086819E1,-1.126034021E0,8.641124964E-1,-6.662619710E-1
2.959284944E1,-1.125004292E0,1.759780526E0,-5.380675793E-1
2.961284944E1,-1.071265578E0,2.462886572E0,-2.898817360E-1
2.963284944E1,-9.072396159E-1,2.374764681E0,7.810348272E-2
2.965284944E1,-7.091621757E-1,1.744282007E0,3.515267670E-1
2.967285100E1,-8.029038310E-1,4.266806543E-1,2.643999159E-1
2.969484944E1,-1.573972821E0,-1.281996727E0,-3.497988880E-1
2.971484944E1,-9.020559788E-1,8.531169593E-2,2.418153733E-1
2.973484944E1,-4.368559122E-1,1.098248482E0,5.022359490E-1
2.975484944E1,-9.773843735E-2,1.523026705E0,5.559571981E-1
2.977485100E1,1.435707808E-1,1.524998903E0,4.757069349E-1
2.979684944E1,4.394389987E-1,1.217943072E0,4.385663271E-1
2.981684944E1,6.926513910E-1,8.812341690E-1,4.772951901E-1
2.983684944E1,8.745495677E-1,6.077585220E-1,4.795990288E-1
2.985684944E1,9.803339839E-1,3.379131854E-1,3.955963254E-1
2.987685100E1,1.017073154E0,3.988077492E-2,2.483429015E-1
2.989885100E1,1.000492573E0,-1.528733820E-1,2.443460980E-4
2.991885881E1,8.498356938E-1,-4.452160299E-1,-3.343178034E-1
2.994085100E1,-1.635373533E-1,-1.020144939E0,-8.221896887E-1
2.996284944E1,-3.149917841E0,3.922976553E-1,-1.628339767E0
2.998284944E1,-2.542752743E0,1.639056206E0,-1.119122624E0
3.000284944E1,-5.393590927E-1,2.922414303E0,-8.059930801E-2
3.002284944E1,4.772777259E-1,1.312348008E0,1.222254038E-1
3.004284944E1,1.099749446E0,-1.120588660E0,8.234463632E-2
3.006284944E1,1.306588411E0,-2.433617353E0,6.009168550E-2
3.008284944E1,-1.166560650E0,-5.897013664E0,-1.604760408E0
3.010284944E1,-4.340284765E-1,-2.461926460E0,8.292059600E-2
3.012285100E1,7.616791129E-1,-1.007054970E-1,5.719269514E-1
3.014484944E1,1.309747458E0,1.341477513E0,6.202551126E-1
3.016486819E1,1.233720899E0,2.028316975E0,5.991017222E-1
3.018684944E1,8.695579171E-1,1.737789392E0,4.156501591E-1
3.020686194E1,5.142961740E-1,7.257951498E-1,1.769414842E-1
3.022884944E1,1.718102098E-1,-3.847752810E-1,1.047197543E-2
3.024884944E1,3.618067503E-2,-1.046394706E0,-3.920009360E-2
3.026885100E1,5.522221699E-2,-1.375232220E0,-4.644321278E-2
3.029085100E1,1.780934036E-1,-1.466111422E0,-1.895427518E-2
3.031085100E1,3.271619678E-1,-1.273846030E0,8.621926419E-3
3.033284944E1,4.713785350E-1,-8.721933961E-1,2.598795295E-2
3.035284944E1,5.325697660E-1,-4.803844094E-1,4.253367335E-2
3.037284944E1,4.953418970E-1,-1.321388781E-1,1.018748656E-1
3.039284944E1,3.890338838E-1,1.327672005E-1,1.684417278E-1
3.041284944E1,2.606998384E-1,2.439970225E-1,2.265961021E-1
3.043285100E1,1.646019965E-1,1.134463996E-1,2.834763825E-1
3.045484944E1,8.929104358E-2,-3.319790661E-1,3.108431399E-1
3.047484944E1,4.906120524E-2,-8.753873110E-1,2.547657192E-1
3.049484944E1,9.278170019E-2,-1.391463757E0,1.815665960E-1
3.051484944E1,2.207317948E-1,-1.598616838E0,1.686337143E-1
3.053484944E1,4.557403624E-1,-1.500826120E0,2.358114272E-1
3.055484944E1,7.456570268E-1,-1.244803667E0,2.564412355E-1
3.057484944E1,8.754047751E-1,-1.055592537E0,1.228362694E-1
3.059484944E1,7.221823335E-1,-7.975630760E-1,-3.963642567E-2
3.061484944E1,1.731017530E-1,-6.213197708E-1,-5.916666240E-2
3.063484944E1,-3.081204295E-1,-5.081875324E-1,-1.198866665E-1
3.065484944E1,-6.171135306E-1,-2.461961508E-1,-3.216641843E-1
3.067485100E1,-8.430463672E-1,3.751410544E-1,-5.437922478E-1
3.069684944E1,-1.060287476E0,1.275504112E0,-5.275432467E-1
3.071684944E1,-1.111477971E0,2.199184656E0,-4.979075193E-1
3.073685100E1,-1.077932835E0,2.888240576E0,-2.995333970E-1
3.075885100E1,-9.178686738E-1,3.078987598E0,1.487020552E-1
3.078084944E1,-2.435153246E0,-8.057487011E-1,-2.201453686E0
3.080084944E1,-2.099264622E0,4.690223336E-1,-8.199557066E-1
3.082084944E1,-9.067683816E-1,1.295331001E0,6.238155961E-1
3.084084944E1,-1.771160066E-1,1.160905719E0,9.363342524E-1
3.086084944E1,1.698728949E-1,6.379702091E-1,6.066939235E-1
3.088084944E1,1.459618807E-1,5.874603987E-1,2.347293347E-1
3.090084944E1,6.885323673E-2,8.896117806E-1,2.247634977E-1
3.092084944E1,8.049458265E-2,1.071893930E0,4.487590492E-1
3.094084944E1,1.332384348E-1,1.093902588E0,6.804515123E-1
3.096084944E1,2.008524835E-1,9.529672265E-1,7.603003383E-1
3.098084944E1,2.490933836E-1,7.159165740E-1,6.703460813E-1
3.100084944E1,3.095864952E-1,4.625995159E-1,5.064421892E-1
3.102085100E1,3.195174336E-1,8.964011073E-2,3.258529603E-1
3.104285100E1,3.140894473E-1,-5.098455548E-1,2.057917714E-1
3.106486975E1,3.216292858E-1,-9.206960797E-1,1.365196556E-1
3.108685100E1,3.070034087E-1,-9.526355863E-1,4.958480224E-2
3.110685881E1,-5.918934941E-1,6.648482680E-1,-5.221326947E-1
3.112686350E1,-2.280307531E0,4.567980289E0,-1.464017034E0
3.114884944E1,-1.022448778E0,4.434898853E0,-6.458416581E-1
3.116884944E1,3.290294707E-1,2.374031782E0,6.393141299E-2
3.118885100E1,1.072644472E0,-7.466169596E-1,3.351031989E-2
3.121084944E1,9.235235453E-1,-2.809683323E0,-1.069712266E-1
3.123084944E1,-1.135877728E0,-6.027424812E0,-1.779380560E0
3.125084944E1,-5.977403522E-1,-3.543053389E0,-4.602433369E-2
3.127084944E1,6.114935279E-1,-1.509098887E0,4.771904647E-1
3.129085100E1,1.412250638E0,-1.441816539E-1,3.134087622E-1
3.131285100E1,1.688763142E0,8.894372582E-1,3.608817160E-1
3.133484944E1,1.436580539E0,1.109191656E0,4.918512404E-1
3.135484944E1,9.852383733E-1,7.067536116E-1,4.817457795E-1
3.137484944E1,4.868944883E-1,9.744173288E-2,3.149795830E-1
3.139484944E1,1.415112913E-1,-4.156326950E-1,1.229933500E-1
3.141485100E1,1.623156248E-3,-7.392516732E-1,-2.172934823E-2
3.143684944E1,2.986258268E-2,-8.078954816E-1,-1.032711342E-1
3.145685413E1,1.632580906E-1,-5.624148846E-1,-1.137431040E-1
3.147884944E1,3.168819845E-1,-1.976236254E-1,-8.782497048E-2
3.149884944E1,4.412716031E-1,2.024581889E-3,-1.727875881E-2
3.151885100E1,5.209284425E-1,1.121374071E-1,9.065239877E-2
3.154084944E1,5.271941423E-1,1.737824380E-1,2.109404951E-1
3.156084944E1,4.548153579E-1,1.409178823E-1,3.199886680E-1
3.158084944E1,3.292912543E-1,-2.577851340E-2,3.889291584E-1
3.160084944E1,1.667312980E-1,-3.348065019E-1,3.900985420E-1
3.162085100E1,7.033676840E-3,-7.154802680E-1,3.029542565E-1
3.164284944E1,-9.072221071E-2,-1.007386565E0,1.280024499E-1
3.166284944E1,-3.991568089E-2,-1.121705651E0,5.466371030E-2
3.168284944E1,1.415462047E-1,-1.109226584E0,1.687907875E-1
3.170285256E1,4.124736488E-1,-9.994453192E-1,2.816263139E-1
3.172484944E1,6.158568859E-1,-8.256454468E-1,1.551423222E-1
3.174484944E1,4.059810340E-1,-4.469962716E-1,-1.514945831E-2
3.176486819E1,-2.207666934E-1,-2.451140434E-1,-6.810274720E-2
3.178684944E1,-8.275303841E-1,9.726719558E-2,-1.322959512E-1
3.180685100E1,-1.134847999E0,7.278372049E-1,-3.187494874E-1
3.182885100E1,-1.270076036E0,1.475972533E0,-4.672246277E-1
3.184885100E1,-1.266777396E0,2.240287066E0,-5.133362412E-1
3.187084944E1,-1.155477762E0,3.171874046E0,-4.284085035E-1
3.189084944E1,-9.297717810E-1,3.673918009E0,-6.084217876E-2
3.191084944E1,-2.182638884E0,5.687329769E-1,-2.468471527E0
3.193085100E1,-2.035176039E0,1.225290895E0,-1.248818040E0
3.195284944E1,-1.030843854E0,1.334164619E0,5.462008119E-1
3.197284944E1,-3.557853699E-1,9.518851042E-1,9.626363516E-1
3.199284944E1,8.681267500E-2,3.769562244E-1,8.487536311E-1
3.201284944E1,2.358288914E-1,1.670629084E-1,6.421415210E-1
3.203284944E1,2.408205271E-1,2.048318386E-1,5.052902699E-1
3.205284944E1,1.448623240E-1,2.383247018E-1,4.278674722E-1
3.207284944E1,5.637413636E-2,2.102598101E-1,4.393517375E-1
3.209284944E1,3.284709528E-2,1.381078959E-1,4.766145051E-1
3.211284944E1,5.070181563E-2,-8.272860199E-3,4.440641105E-1
3.213284944E1,1.069188714E-1,-2.740516067E-1,3.503748477E-1
3.215284944E1,1.721767336E-1,-5.693089366E-1,2.395289838E-1
3.217284944E1,2.673669755E-1,-9.091594815E-1,2.153387219E-1
3.219284944E1,4.219158888E-1,-1.203020573E0,2.020567656E-1
3.221284944E1,5.767614841E-1,-1.076937914E0,4.256857932E-2
3.223284944E1,3.931353986E-1,-6.090326309E-1,-2.914699912E-1
3.225284944E1,-1.746463656E0,3.446204901E0,-1.393139243E0
3.227284944E1,-1.043427587E0,4.243680954E0,-9.669298530E-1
3.229284944E1,1.233773232E-1,2.637332201E0,-1.139176413E-1
3.231284944E1,6.300812960E-1,-1.888271719E-1,-1.186649352E-1
3.233284944E1,8.274082541E-1,-2.825757980E0,-1.457698941E-1
3.235284944E1,8.120493293E-1,-3.895103693E0,-1.208116934E-1
3.237284944E1,-5.336169600E-1,-6.033132076E0,-1.129018545E0
3.239284944E1,-4.712388851E-3,-3.175120354E0,-3.351206779E-1
3.241284944E1,1.006880477E-1,-1.578423381E0,-1.453510225E-1
3.243284944E1,5.697627068E-1,3.524866998E-1,5.871287733E-2
3.245284944E1,8.594699502E-1,1.105107546E0,1.177224591E-1
3.247284944E1,7.978772521E-1,8.007570505E-1,1.124864668E-1
3.249284944E1,6.079331040E-1,1.382126212E-1,1.307949722E-1
3.251285413E1,4.222474992E-1,-5.867971182E-1,1.577254087E-1
3.253484944E1,2.919586897E-1,-1.124533057E0,1.115265414E-1
3.255484944E1,2.486745119E-1,-1.273462057E0,4.490732029E-2
3.257484944E1,2.544166446E-1,-1.122386336E0,-1.169370580E-2
3.259484944E1,3.025528193E-1,-8.058359623E-1,-7.679448463E-3
3.261484944E1,3.614576757E-1,-3.917216957E-1,2.808234841E-2
3.263484944E1,3.752981424E-1,-3.897320107E-2,6.387905031E-2
3.265484944E1,3.334800601E-1,1.441641897E-1,1.026777178E-1
3.267484944E1,2.654471397E-1,1.270425171E-1,1.516865641E-1
3.269484944E1,1.946216673E-1,-5.054473504E-2,2.205572575E-1
3.271484944E1,1.323832273E-1,-3.074572086E-1,2.722888291E-1
3.273484944E1,9.824458510E-2,-5.225515962E-1,2.949257493E-1
3.275484944E1,1.304109991E-1,-5.690646172E-1,2.548878789E-1
3.277484944E1,2.426531315E-1,-5.726599693E-1,2.136457562E-1
3.279484944E1,4.017398953E-1,-6.522993445E-1,2.700547874E-1
3.281484944E1,5.532344580E-1,-6.898413897E-1,3.015230894E-1
3.283484944E1,4.871737659E-1,-5.912477374E-1,1.815840602E-1
3.285484944E1,1.144237816E-1,-4.133986831E-1,-8.028514683E-3
3.287485100E1,-2.545737326E-1,-6.808529049E-2,-1.666265875E-1
3.289685100E1,-5.893628001E-1,6.949900836E-2,-3.680201173E-1
3.291886038E1,-7.555530071E-1,3.601137698E-1,-5.913524628E-1
3.294085100E1,-8.368330002E-1,9.995325804E-1,-7.163180113E-1
3.296085100E1,-7.052875757E-1,1.711120844E0,-7.141538262E-1
3.298085100E1,-6.453180313E-1,2.418520212E0,-6.148969531E-1
3.300085100E1,-2.598376274E0,-2.432989031E-1,-2.392654419E0
3.302085100E1,-1.651360750E0,1.305541158E0,-7.538077235E-2
3.304085100E1,-1.233843088E0,7.663915157E-1,1.677435935E-1
3.306284944E1,-1.525068730E-1,1.018853426E0,5.570043921E-1
3.308285100E1,3.239331022E-2,4.164704680E-1,4.204323590E-1
3.310484944E1,-5.082398653E-1,3.788237274E-1,6.876597553E-2
3.312484944E1,-5.787162781E-1,1.169649839E0,2.285159528E-1
3.314484944E1,-2.559001744E-1,1.590291619E0,5.780879259E-1
3.316486819E1,1.765400469E-1,1.546082497E0,8.502895236E-1
3.318684944E1,6.180734634E-1,1.233040214E0,9.345889091E-1
3.320685412E1,8.992459774E-1,8.734151125E-1,8.429242373E-1
3.322884944E1,1.003546834E0,4.806985855E-1,5.881410241E-1
3.324884944E1,9.225984812E-1,3.897320107E-2,3.313158453E-1
3.326885100E1,6.901729703E-1,-4.629485905E-1,2.228959948E-1
3.329085100E1,3.564660549E-1,-9.471378326E-1,1.394867152E-1
3.331284944E1,-5.194623470E-1,-1.225954175E0,-2.039068192E-1
3.333284944E1,-2.103383541E0,1.427295327E0,-1.020965219E0
3.335284944E1,-1.331215024E0,3.080610752E0,-7.157769799E-1
3.337284944E1,1.450892240E-1,3.158679485E0,-2.045525797E-2
3.339284944E1,8.542688489E-1,1.300078273E0,-7.105235010E-2
3.341284944E1,8.731009364E-1,-1.070462823E0,-2.951700687E-1
3.343284944E1,-2.042907923E-1,-3.424580336E0,-1.115439892E0
3.345284944E1,-1.294929624E0,-3.735179186E0,-6.757042408E-1
3.347284944E1,-3.250501156E-1,-1.552313328E0,3.973242044E-1
3.349284944E1,6.942046881E-1,-1.021855354E0,2.828305960E-1
3.351284944E1,1.054178834E0,-8.374264240E-1,8.033750206E-2
3.353285100E1,1.084128737E0,-1.073726565E-1,3.478964865E-1
3.355484944E1,8.023278713E-1,1.204975322E-1,5.378581285E-1
3.357484944E1,4.821646512E-1,1.242150813E-1,4.268900752E-1
3.359484944E1,2.132094204E-1,-7.579965144E-2,1.855634004E-1
3.361484944E1,4.661774263E-2,-3.524168730E-1,-1.968731359E-2
3.363484944E1,-3.036872949E-3,-5.805837512E-1,-1.137780100E-1
3.365484944E1,6.932447851E-2,-5.959950089E-1,-9.744173288E-2
3.367484944E1,2.063677311E-1,-4.788659811E-1,-3.443534672E-2
3.369484944E1,3.240203857E-1,-3.226939142E-1,4.520402756E-3
3.371484944E1,3.844960332E-1,-1.179318950E-1,4.586725309E-2
3.373484944E1,3.889989853E-1,5.056218803E-2,8.154178411E-2
3.375484944E1,3.616322279E-1,1.598023474E-1,1.448797733E-1
3.377484944E1,3.188192844E-1,1.825963408E-1,2.003114372E-1
3.379484944E1,2.519906461E-1,9.728465229E-2,2.679255009E-1
3.381484944E1,1.580046564E-1,-1.348441392E-1,2.921506763E-1
3.383484944E1,3.637266159E-2,-4.680449367E-1,2.787989080E-1
3.385484944E1,-3.347541392E-2,-7.876321673E-1,2.623055279E-1
3.387484944E1,-3.403391922E-3,-9.933890700E-1,3.144734204E-1
3.389484944E1,1.420174390E-1,-1.058838844E0,4.004308879E-1
3.391484944E1,3.668507636E-1,-1.054842114E0,3.740764260E-1
3.393484944E1,5.583831668E-1,-8.861036301E-1,2.331236303E-1
3.395484944E1,4.369431734E-1,-3.319267035E-1,4.434881732E-2
3.397484944E1,1.259429604E-1,1.491209269E-1,-1.250004768E-1
3.399484944E1,-2.276607454E-1,4.084593952E-1,-3.329389989E-1
3.401484944E1,-5.186594725E-1,4.683241844E-1,-5.697976351E-1
3.403484944E1,-7.473849058E-1,6.434330940E-1,-7.265630960E-1
3.405484944E1,-7.996923923E-1,1.036585927E0,-7.922398448E-1
3.407484944E1,-7.139269114E-1,1.597464919E0,-7.536331415E-1
3.409484944E1,-6.328215003E-1,1.672583938E0,-6.030810475E-1
3.411484944E1,-2.177926540E0,-9.982236028E-1,-1.581111193E0
3.413484944E1,-1.232342124E0,4.088084698E-1,-3.001966327E-2
3.415484944E1,-1.138809919E0,-2.035053819E-2,2.949606441E-2
3.417484944E1,-8.628209829E-1,4.488812387E-1,1.041437984E-1
3.419484944E1,-9.802117944E-1,9.260717034E-1,-3.239331022E-2
3.421484944E1,-7.049559355E-1,1.374150038E0,3.717551380E-2
3.423484944E1,-2.026501745E-1,1.317182541E0,2.351831198E-1
3.425484944E1,2.988876402E-1,9.617113471E-1,4.219682515E-1
3.427484944E1,6.949900985E-1,6.681818366E-1,5.854881406E-1
3.429484944E1,9.636312127E-1,4.741885066E-1,6.823888421E-1
3.431484944E1,1.046970606E0,4.316897392E-1,6.452656984E-1
3.433484944E1,9.483944774E-1,3.284709752E-1,4.771206677E-1
3.435484944E1,7.480829954E-1,1.300270297E-2,3.104417026E-1
3.437485100E1,4.715530574E-1,-4.885351062E-1,2.402445674E-1
3.439485100E1,1.389456540E-1,-1.011627793E0,2.550100684E-1
3.441684944E1,-1.149665833E0,-1.608460546E0,-2.268229872E-1
3.443684944E1,-2.611728191E0,1.672548950E-1,-8.931024075E-1
3.445685100E1,-1.822926641E0,1.701800704E0,-5.686806440E-1
3.447884944E1,-1.547932476E-1,2.648816347E0,-2.565110326E-1
3.449884944E1,1.019953012E0,1.815404177E0,-3.330960870E-1
3.451884944E1,3.238109350E-1,-2.635796309E0,-1.771509171E0
3.453884944E1,-7.539822459E-1,-4.220206261E0,-9.784839153E-1
3.455884944E1,-2.171014994E-1,-1.801773190E0,7.308915257E-1
3.457884944E1,1.808335632E-1,-5.633922815E-1,3.823318183E-1
3.459884944E1,9.849939942E-1,6.110397577E-1,3.620162010E-1
3.461885100E1,1.423699975E0,6.566103101E-1,5.646139979E-1
3.464084944E1,1.316746235E0,2.572964430E-1,8.315621018E-1
3.466084944E1,9.875072837E-1,-1.218065247E-1,8.222071528E-1
3.468084944E1,5.885424614E-1,-2.781880200E-1,5.305626392E-1
3.470084944E1,2.107310593E-1,-4.801749885E-1,1.893158704E-1
3.472084944E1,-2.659881860E-2,-5.669702291E-1,-4.262094200E-2
3.474084944E1,-5.574581772E-2,-4.382696152E-1,-5.204571784E-2
3.476084944E1,1.043706909E-1,-2.958158553E-1,6.812020391E-2
3.478084944E1,3.303035498E-1,-1.753357798E-1,1.550375968E-1
3.480084944E1,4.679925740E-1,-7.384487987E-2,1.273043156E-1
3.482084944E1,4.716752172E-1,-3.206169978E-2,8.199556917E-2
3.484084944E1,4.239753783E-1,-3.017674200E-2,7.894124091E-2
3.486084944E1,3.714758754E-1,-1.331686229E-2,1.349314004E-1
3.488085100E1,3.073873818E-1,6.166248396E-2,2.105739713E-1
3.490285725E1,2.550798655E-1,1.916196942E-1,2.498438805E-1
3.492484944E1,2.293013632E-1,2.544341087E-1,2.600715160E-1
3.494484944E1,2.275036722E-1,1.468345523E-1,2.568077445E-1
3.496486819E1,2.770186663E-1,-1.133940443E-1,2.658485472E-1
3.498684944E1,3.702366948E-1,-4.342029989E-1,2.743133903E-1
3.500685413E1,4.375889599E-1,-6.088930368E-1,2.797762752E-1
3.502685725E1,4.547629952E-1,-6.322280765E-1,2.775946259E-1
3.504686350E1,4.904026091E-1,-5.020264983E-1,2.120749503E-1
3.506884944E1,4.724780917E-1,-2.469117343E-1,6.771877408E-2
3.508884944E1,3.047344834E-2,-1.356120780E-2,-7.901105285E-2
3.510884944E1,-4.324751198E-1,1.050513685E-1,-1.511280537E-1
3.512885100E1,-6.371847987E-1,3.279473782E-1,-3.187145591E-1
3.514885100E1,-6.560168862E-1,6.718470454E-1,-5.289045572E-1
3.517084944E1,-7.103315592E-1,1.192007542E0,-6.801373363E-1
3.519084944E1,-7.155675292E-1,2.058982372E0,-7.210129499E-1
3.521084944E1,-1.449443579E0,1.370066047E0,-1.368722081E0
3.523084944E1,-2.401712656E0,2.040115297E-1,-1.332541466E0
3.525084944E1,-1.519762874E0,6.661049128E-1,2.063502818E-1
3.527084944E1,-7.801796198E-1,6.819874048E-1,5.607568622E-1
3.529085100E1,-8.196066320E-2,6.866823435E-1,5.870764256E-1
3.531085100E1,-1.056098700E0,2.464579493E-1,2.745402977E-2
3.533284944E1,-1.555507183E0,1.276324391E0,-1.858950108E-1
3.535284944E1,-1.143120885E0,2.016675472E0,1.652826816E-1
3.537284944E1,-4.573984444E-1,1.886700869E0,6.592981219E-1
3.539284944E1,2.279749066E-1,1.462167025E0,9.906139970E-1
3.541284944E1,8.128870726E-1,1.036219478E0,1.126034021E0
3.543284944E1,1.269430280E0,7.048512101E-1,1.112333179E0
3.545284944E1,1.570482135E0,5.023755431E-1,8.972912431E-1
3.547284944E1,1.649859786E0,3.983713984E-1,5.464276671E-1
3.549284944E1,1.480876923E0,2.574709654E-1,2.160368562E-1
3.551284944E1,9.795485735E-1,-7.087782025E-2,-7.136651129E-2
3.553284944E1,-1.855843544E0,-1.054423213E0,-9.586569667E-1
3.555284944E1,-3.451563120E0,7.031582594E-1,-1.355876446E0
3.557284944E1,-1.436894655E0,1.809854031E0,-4.560370743E-1
3.559284944E1,3.469365537E-1,2.633248091E0,-3.001966281E-3
3.561285100E1,1.184275746E0,1.129001141E0,-7.155850180E-4
3.563484944E1,1.190017819E0,-1.522625208E0,-2.838777900E-1
3.565484944E1,-1.676720381E0,-4.867653370E0,-1.465971828E0
3.567484944E1,-9.011135101E-1,-1.017876029E0,5.905670524E-1
3.569484944E1,-3.977605328E-2,4.246385992E-1,5.003335476E-1
3.571484944E1,8.737990856E-1,6.478313208E-1,8.660323918E-2
3.573484944E1,1.243337631E0,7.136127949E-1,2.912954390E-1
3.575484944E1,1.267440677E0,4.070631266E-1,4.632103741E-1
3.577485100E1,1.083465457E0,-1.359611452E-1,4.244640768E-1
3.579684944E1,7.943866253E-1,-6.741334200E-1,2.901958823E-1
3.581685100E1,5.436351299E-1,-9.135751128E-1,1.670280099E-1
3.583885100E1,4.023158550E-1,-8.991587162E-1,5.866051465E-2
3.586084944E1,4.125434756E-1,-7.097904682E-1,-3.345796093E-2
3.588084944E1,4.904200733E-1,-4.456523657E-1,-8.883725852E-2
3.590084944E1,5.207887888E-1,-1.190314516E-1,-9.604547173E-2
3.592084944E1,4.848873615E-1,1.668709219E-1,-2.855358645E-2
3.594085100E1,3.966609836E-1,3.926118016E-1,9.716247767E-2
3.596285100E1,2.708925605E-1,5.138424039E-1,2.620611787E-1
3.598484944E1,1.848129183E-1,4.956909716E-1,3.966784179E-1
3.600484944E1,1.830326766E-1,1.730668545E-1,3.948283792E-1
3.602484944E1,2.264564633E-1,-2.023883760E-1,3.328168392E-1
3.604484944E1,2.402096689E-1,-4.058588743E-1,2.764427066E-1
3.606486975E1,1.847954541E-1,-2.607172728E-1,2.948908210E-1
3.608684944E1,9.899507463E-2,1.274264902E-1,3.075270057E-1
3.610685256E1,4.372049868E-2,4.826358855E-1,2.677160501E-1
3.612685256E1,-8.607963473E-2,8.382641673E-1,1.531875432E-1
3.614685413E1,-5.287649632E-1,8.707447648E-1,-6.230825558E-2
3.616685725E1,-8.928056955E-1,4.489684999E-1,-2.594780922E-1
3.618885100E1,-9.148317575E-1,3.540051281E-1,-4.630183876E-1
3.620885100E1,-7.475594282E-1,4.117755294E-1,-6.459289193E-1
3.623084944E1,-6.368706226E-1,6.187541485E-1,-7.258650064E-1
3.625084944E1,-6.753726006E-1,1.385826349E0,-7.785041332E-1
3.627084944E1,-2.334412813E0,-2.235068679E-1,-2.363734245E0
3.629085100E1,-2.285281658E0,1.340273261E0,-8.021882176E-1
3.631284944E1,-1.705483437E0,1.233685970E0,-1.768542081E-1
3.633284944E1,-4.685336351E-1,1.511647105E0,7.267725468E-1
3.635284944E1,4.059461355E-1,1.239986658E0,9.883101583E-1
3.637284944E1,9.827774167E-1,7.814537287E-1,1.014908910E0
3.639285100E1,1.081126690E0,1.792802215E-1,7.580488324E-1
3.641484944E1,-3.556631804E-1,-9.449212253E-2,-4.754276946E-2
3.643484944E1,-1.245484352E0,7.294254303E-1,-1.434660703E-1
3.645484944E1,-9.947155118E-1,1.256689429E0,3.957359493E-1
3.647485100E1,-3.366565704E-1,1.353502870E0,8.776038885E-1
3.649485100E1,3.416481912E-1,1.223144174E0,1.025415897E0
3.651684944E1,9.269792438E-1,7.978423834E-1,8.294851780E-1
3.653685100E1,1.264054656E0,3.290469348E-1,4.305901825E-1
3.655885100E1,1.331843257E0,-1.555786431E-1,6.743951887E-2
3.658084944E1,9.390743971E-1,-1.009638071E0,-1.401150376E-1
3.660084944E1,-8.411265016E-1,-1.642581701E0,-7.431437373E-1
3.662084944E1,-2.337170362E0,4.218460917E-1,-1.280548096E0
3.664084944E1,-1.051124573E0,2.274739981E0,-6.511823535E-1
3.666084944E1,2.530902028E-1,2.654296637E0,-1.810081005E-1
3.668084944E1,7.659028172E-1,7.695680261E-1,-2.369982600E-1
3.670084944E1,4.464028478E-1,-2.133804560E0,-5.287824273E-1
3.672085100E1,-1.490668297E0,-4.334891796E0,-1.180593014E0
3.674284944E1,-4.242895544E-1,-1.459967971E0,6.281265616E-1
3.676284944E1,8.577769399E-1,-3.919485807E-1,5.702340007E-1
3.678284944E1,1.227298021E0,-3.862413764E-2,3.445628881E-1
3.680284944E1,1.264019847E0,8.581958413E-1,6.725625992E-1
3.682284944E1,1.020598769E0,9.339431524E-1,7.990815639E-1
3.684284944E1,7.195817828E-1,6.270619035E-1,5.996776819E-1
3.686284944E1,4.582187533E-1,2.104517967E-1,3.623652458E-1
3.688284944E1,2.538232207E-1,-1.221032366E-1,1.300968379E-1
3.690286350E1,1.578126699E-1,-3.576528728E-1,-4.913101718E-2
3.692484944E1,1.537111402E-1,-4.837005436E-1,-1.145634130E-1
3.694484944E1,2.099107504E-1,-4.123165905E-1,-7.956956327E-2
3.696486819E1,3.225019276E-1,-2.001194507E-1,9.948377265E-4
3.698685569E1,4.260697663E-1,1.163087413E-1,8.686503768E-2
3.700685725E1,4.730540514E-1,3.494672775E-1,1.451764852E-1
3.702884944E1,4.658632874E-1,4.688827097E-1,1.765051484E-1
3.704885100E1,3.791029751E-1,4.078485370E-1,1.991420686E-1
3.707086350E1,2.455503643E-1,8.236208558E-2,2.173283994E-1
3.709284944E1,1.304633617E-1,-4.806985855E-1,2.153736353E-1
3.711284944E1,1.329766363E-1,-1.082994223E0,2.056521475E-1
3.713285412E1,2.614328563E-1,-1.399527192E0,2.205572575E-1
3.715484944E1,5.272465348E-1,-1.442968369E0,2.033657581E-1
3.717484944E1,6.464874148E-1,-1.321371317E0,7.202973962E-2
3.719484944E1,4.003261626E-1,-7.586771846E-1,-6.707300246E-2
3.721484944E1,-1.714960486E-1,1.207418740E-1,-1.291020066E-1
3.723484944E1,-7.061951160E-1,8.012806773E-1,-1.863837093E-1
3.725484944E1,-9.671393037E-1,1.147868156E0,-4.025951028E-1
3.727484944E1,-9.741031528E-1,1.287738800E0,-6.593679190E-1
3.729484944E1,-8.488408923E-1,1.742344737E0,-8.434478045E-1
3.731484944E1,-7.074692249E-1,2.473917007E0,-7.178364396E-1
3.733484944E1,-2.210005760E0,-3.149272203E-1,-1.739011168E0
3.735484944E1,-2.317552805E0,3.516489267E-1,-6.432236433E-1
3.737484944E1,-1.431990266E0,1.114305496E0,4.941027164E-1
3.739484944E1,-7.355690002E-1,1.140258551E0,7.164402008E-1
3.741484944E1,-1.096590385E-1,8.533787131E-1,8.195018768E-1
3.743484944E1,-9.211324453E-1,-3.413340449E-1,4.085641205E-1
3.745484944E1,-1.484611988E0,4.694761038E-1,1.700823307E-1
3.747484944E1,-1.408201456E0,1.745521188E0,3.430619240E-1
3.749484944E1,-8.620705009E-1,1.976375937E0,7.618013024E-1
3.751484944E1,-1.376366615E-1,1.517302036E0,1.056639791E0
3.753484944E1,5.824862123E-1,9.559866190E-1,1.239183784E0
3.755484944E1,1.215551972E0,4.493001103E-1,1.285434961E0
3.757484944E1,1.697769046E0,6.260495633E-2,1.070043921E0
3.759484944E1,1.935203671E0,-2.007652223E-1,6.254736185E-1
3.761484944E1,1.813624024E0,-4.214621186E-1,1.114218161E-1
3.763484944E1,-1.204626262E-1,-6.615670323E-1,-8.729264140E-1
3.765484944E1,-2.633980989E0,7.598116398E-1,-1.489725828E0
3.767484944E1,-1.566467881E0,1.356434941E0,-4.355120063E-1
3.769484944E1,9.780824929E-2,1.650854588E0,4.620410204E-1
3.771485100E1,9.828821421E-1,1.268208623E0,5.994507670E-1
3.773485100E1,1.143731713E0,-1.755801216E-2,7.499330640E-1
3.775684944E1,6.848322749E-1,-3.225193918E-1,9.103114009E-1
3.777685100E1,-1.273741245E0,-1.983723760E0,-6.563659906E-1
3.779884944E1,-5.093743205E-1,-3.071081340E-1,-1.528384835E-1
3.781884944E1,3.262020350E-1,2.752384171E-2,9.932668507E-2
3.783885413E1,5.696405768E-1,1.376192123E-1,1.566433012E-1
3.786084944E1,3.896622062E-1,3.647738136E-3,1.135860309E-1
3.788084944E1,7.492698729E-2,-3.663795292E-1,2.186897583E-2
3.790084944E1,-1.812000871E-1,-7.505614161E-1,-3.913028166E-2
3.792084944E1,-2.319717109E-1,-8.308465481E-1,-1.279151738E-1
3.794084944E1,-1.325577497E-1,-7.571761608E-1,-2.008873969E-1
3.796084944E1,1.980948634E-2,-6.659652591E-1,-1.658760905E-1
3.798084944E1,1.892285943E-1,-5.518556833E-1,-1.016828790E-1
3.800084944E1,3.307224512E-1,-3.034603894E-1,-4.590215907E-2
3.802084944E1,3.450864851E-1,-2.497566119E-2,-6.438519806E-2
3.804084944E1,2.881014943E-1,1.943075061E-1,-4.501204193E-2
3.806084944E1,2.180265337E-1,3.115587234E-1,7.051130291E-3
3.808085100E1,1.722116321E-1,4.223173261E-1,6.953391433E-2
3.810285881E1,1.818109453E-1,4.901408255E-1,1.464680284E-1
3.812484944E1,2.475225925E-1,4.608716369E-1,2.479938269E-1
3.814484944E1,3.161489367E-1,1.347743273E-1,3.173008561E-1
3.816486819E1,4.019493163E-1,-3.796963692E-1,2.944894135E-1
3.818684944E1,5.053426027E-1,-8.797855377E-1,2.167524397E-1
3.820685725E1,5.923996568E-1,-1.213422656E0,1.514771283E-1
3.822884944E1,6.948679090E-1,-1.507667780E0,1.756324768E-1
3.824884944E1,8.104436398E-1,-1.729499102E0,1.635548025E-1
3.826885100E1,8.099026084E-1,-1.576311588E0,1.121897623E-1
3.829084944E1,3.793996572E-1,-5.993286371E-1,7.208209950E-3
3.831084944E1,-1.473930478E-1,3.702017963E-1,-1.326275766E-1
3.833085100E1,-4.250574708E-1,6.684262156E-1,-3.115761876E-1
3.835085100E1,-5.438445807E-1,7.900407314E-1,-4.264363050E-1
3.837085100E1,-6.503794789E-1,1.120815516E0,-4.469264746E-1
3.839284944E1,-7.105235457E-1,1.461381674E0,-3.747570813E-1
3.841284944E1,-1.698746443E0,-3.822794557E-1,-1.089364648E0
3.843284944E1,-1.692306161E0,7.225663215E-2,-4.682020247E-1
3.845284944E1,-1.350518346E0,4.462806880E-1,1.640958488E-1
3.847284944E1,-1.857257247E0,2.415710241E-1,-7.592182141E-3
3.849284944E1,-1.959742904E0,1.195236325E0,-9.152506292E-2
3.851285100E1,-1.747126937E0,2.029294252E0,-1.204451695E-1
3.853285100E1,-1.289798260E0,2.175448179E0,3.420845373E-3
3.855484944E1,-6.239377260E-1,1.889929771E0,3.104766309E-1
3.857484944E1,-4.405210912E-2,1.735956788E0,5.354146361E-1
3.859484944E1,5.255186558E-1,1.494054198E0,7.585200667E-1
3.861484944E1,1.052014709E0,1.192967415E0,9.300336242E-1
3.863485100E1,1.487229943E0,9.810844660E-1,9.528625011E-1
3.865684944E1,1.784319878E0,7.752578259E-1,7.873005867E-1
3.867685100E1,1.828668714E0,5.187816620E-1,4.916068912E-1
3.869885100E1,1.560533762E0,1.190314516E-1,2.269800752E-1
3.872085100E1,7.313802242E-1,-5.073671937E-1,-7.473500073E-2
3.874284944E1,-2.422185421E0,-7.730063051E-2,-1.106852889E0
3.876284944E1,-2.750324726E0,1.311859250E0,-8.910254836E-1
3.878284944E1,-8.001462221E-1,1.774528623E0,5.593780056E-2
3.880284944E1,4.716228545E-1,2.379808903E0,1.510058790E-1
3.882285100E1,8.529598713E-1,1.403279662E0,1.542172879E-1
3.884285100E1,8.564330339E-1,-1.301666498E-1,4.403465688E-1
3.886486819E1,-1.765033960E0,-4.016910076E0,-8.292233944E-1
3.888686038E1,-7.372619510E-1,-8.520697355E-1,4.183728695E-1
3.890885100E1,8.652993441E-1,3.941476941E-1,3.173881173E-1
3.893085100E1,1.513217926E0,9.325119853E-1,4.216541052E-1
3.895284944E1,1.313203216E0,8.133059740E-1,5.634446144E-1
3.897284944E1,9.240645766E-1,3.285233378E-1,4.376936555E-1
3.899284944E1,4.391422868E-1,-2.371204346E-1,1.946565658E-1
3.901284944E1,2.949606394E-3,-7.583106756E-1,2.633701824E-2
3.903284944E1,-2.357590795E-1,-9.493194818E-1,-7.400196046E-2
3.905284944E1,-2.507688999E-1,-9.535955191E-1,-1.228537261E-1
3.907284944E1,-1.222952232E-1,-8.317017555E-1,-6.433283538E-2
3.909284944E1,1.429773718E-1,-6.325422525E-1,2.544690110E-2
3.911284944E1,3.695036471E-1,-3.232873380E-1,-4.677482415E-3
3.913284944E1,4.434532523E-1,-7.035422325E-2,-4.201007634E-2
3.915284944E1,3.672696352E-1,8.368853480E-2,-2.314306609E-2
3.917284944E1,2.515543103E-1,2.232799679E-1,5.777039751E-2
3.919284944E1,1.595579982E-1,3.671649098E-1,1.704837680E-1
3.921284944E1,1.269901544E-1,4.844684899E-1,2.685538232E-1
3.923284944E1,1.330813617E-1,5.400397778E-1,3.326946497E-1
3.925284944E1,1.585980654E-1,4.223347604E-1,3.469539881E-1
3.927285100E1,1.839402467E-1,2.268579006E-1,3.123615682E-1
3.929484944E1,2.202780098E-1,-1.693492979E-1,2.972819209E-1
3.931484944E1,2.847504616E-1,-6.833138466E-1,3.344225287E-1
3.933484944E1,3.976034522E-1,-1.099138498E0,3.509333432E-1
3.935484944E1,4.421442449E-1,-1.217297316E0,3.581066430E-1
3.937484944E1,3.520678282E-1,-1.024037004E0,2.579771280E-1
3.939484944E1,1.955292374E-1,-6.320884228E-1,-1.103048120E-2
3.941484944E1,-8.360127360E-2,-6.440264732E-2,-2.562841475E-1
3.943484944E1,-4.235041440E-1,6.613227129E-1,-5.267403722E-1
3.945484944E1,-6.326818466E-1,1.545401812E0,-6.907489300E-1
3.947484944E1,-6.233966947E-1,2.311321974E0,-6.723880768E-1
3.949484944E1,-5.343499780E-1,2.725226879E0,-4.464901388E-1
3.951484944E1,-3.970798552E-1,2.572318554E0,-8.777260780E-2
3.953484944E1,-1.642005801E0,-4.664566815E-1,-1.664887071E0
3.955484944E1,-1.018748641E0,1.386838555E-1,-1.794896573E-1
3.957484944E1,-6.333276033E-1,-1.232376993E-1,5.503895879E-1
3.959484944E1,-1.780480146E0,-1.633174419E0,1.702743173E-1
3.961484944E1,-2.267444372E0,-5.194798112E-1,-2.104867063E-2
3.963485100E1,-2.073712826E0,1.554878950E0,1.191710830E-1
3.965684944E1,-1.439495206E0,2.861781359E0,4.216366410E-1
3.967684944E1,-7.820296884E-1,2.794638634E0,6.390872002E-1
3.969684944E1,-1.548106968E-1,2.257740498E0,7.772823572E-1
3.971685725E1,4.431565404E-1,1.784110427E0,8.932943940E-1
3.973884944E1,1.110483170E0,1.538647413E0,8.847248554E-1
3.975884944E1,1.561581016E0,1.318631172E0,6.457194686E-1
3.977884944E1,1.751263380E0,8.954935074E-1,2.697406411E-1
3.979884944E1,1.641080737E0,1.511106044E-1,-1.173210293E-1
3.981884944E1,1.048140049E0,-1.019115210E0,-5.454154015E-1
3.983884944E1,-1.353625059E0,-2.041354656E0,-1.444521785E0
3.985884944E1,-2.285473824E0,-1.326624751E-1,-1.655636787E0
3.987885100E1,-5.760633945E-1,1.102716446E0,-5.094790459E-1
3.990084944E1,9.076235890E-1,1.338370800E0,5.416454673E-1
3.992084944E1,6.325073242E-1,9.878039956E-1,8.105832338E-1
3.994084944E1,8.621926606E-2,7.155849785E-2,1.108702898E0
3.996084944E1,7.559020817E-2,-3.582986295E-1,1.120955110E0
3.998084944E1,5.096012354E-1,-2.201907337E-1,7.067361474E-1
4.000084944E1,8.860687613E-1,4.434357882E-1,9.850638360E-2
4.002084944E1,1.226966456E-1,-5.344547033E-1,-7.095810771E-1
4.004084944E1,6.534512341E-2,3.528532088E-1,7.733553648E-2
4.006084944E1,7.890633494E-2,3.847054839E-1,3.905174136E-1
4.008084944E1,5.653121322E-2,-2.251474652E-3,2.479240149E-1
4.010084944E1,-4.878195375E-2,-4.365417361E-1,3.117158078E-2
4.012084944E1,-1.001644433E-1,-7.216936350E-1,-4.171336815E-2
4.014084944E1,-1.178446338E-1,-7.257428169E-1,-5.689773243E-3
4.016084944E1,-8.326965570E-2,-5.374566913E-1,5.995205790E-2
4.018084944E1,3.262020275E-2,-3.028146327E-1,1.311440468E-1
4.020084944E1,1.984962970E-1,-1.185951233E-1,2.035577446E-1
4.022084944E1,3.283836842E-1,-1.708328277E-1,2.368411720E-1
4.024084944E1,3.646516502E-1,-2.092300653E-1,2.398955077E-1
4.026084944E1,3.275459409E-1,-1.966986060E-1,2.148674875E-1
4.028084944E1,2.497566193E-1,-1.931206882E-1,1.776396036E-1
4.030084944E1,1.568701863E-1,-1.474977732E-1,1.691747606E-1
4.032084944E1,9.297368675E-2,-1.665218621E-1,2.087413818E-1
4.034085100E1,6.340780854E-2,-2.974739075E-1,2.222676724E-1
4.036284944E1,1.022413895E-1,-4.539252222E-1,2.136806548E-1
4.038284944E1,1.842544079E-1,-5.839697123E-1,2.296504229E-1
4.040284944E1,3.125710189E-1,-6.963689327E-1,2.617644668E-1
4.042284944E1,4.404338300E-1,-6.970496178E-1,2.355496287E-1
4.044284944E1,5.167745352E-1,-6.856526136E-1,1.466076523E-1
4.046284944E1,5.108229518E-1,-5.212076902E-1,5.314527452E-2
4.048285100E1,2.307325304E-1,-1.418254524E-1,-4.422664270E-2
4.050484944E1,-1.705710292E-1,1.413716674E-1,-2.043955028E-1
4.052484944E1,-4.625646174E-1,2.083748579E-1,-4.706280231E-1
4.054484944E1,-6.799453497E-1,3.617194891E-1,-6.998072267E-1
4.056486975E1,-8.652295470E-1,6.850766540E-1,-8.204269409E-1
4.058685256E1,-9.413433075E-1,1.120117426E0,-8.746193647E-1
4.060685256E1,-1.747755289E0,-3.899240196E-1,-1.688606024E0
4.062885100E1,-1.498522282E0,3.040189147E-1,-7.155849934E-1
4.065085100E1,-1.070427895E0,4.258603230E-2,1.306553483E-1
4.067284944E1,-1.755277663E-1,4.821472168E-1,5.365840197E-1
4.069284944E1,2.437526882E-1,7.253239155E-1,3.548777997E-1
4.071284944E1,-9.212371111E-1,1.210857034E0,-2.528632879E-1
4.073284944E1,-1.894188404E0,1.887224555E0,-4.717799425E-1
4.075284944E1,-1.570447206E0,1.730930328E0,2.775073517E-3
4.077284944E1,-8.019613624E-1,1.139804721E0,5.643172860E-1
4.079284944E1,-5.724680144E-3,6.773971915E-1,8.374089599E-1
4.081284944E1,6.438170671E-1,2.947337627E-1,9.540493488E-1
4.083284944E1,1.134149909E0,5.899212789E-3,9.297543168E-1
4.085284944E1,1.438378215E0,-2.042384297E-1,6.864728928E-1
4.087284944E1,1.511996150E0,-3.957708478E-1,3.277728260E-1
4.089285100E1,1.358145356E0,-7.055668235E-1,9.054768085E-2
4.091484944E1,9.926909208E-1,-1.134568691E0,-3.246312495E-3
4.093484944E1,-3.543193042E-1,-1.406298995E0,-2.877175212E-1
4.095484944E1,-2.963656425E0,4.561243355E-1,-1.087427378E0
4.097484944E1,-1.663298726E0,1.073813796E0,-5.267229080E-1
4.099484944E1,2.429498360E-2,1.854726434E0,-1.187522039E-1
4.101484944E1,8.928406239E-1,1.862056851E0,-1.181587875E-1
4.103484944E1,1.493408442E0,2.310641408E-1,-3.115936220E-1
