"Time (s)","Linear Acceleration x (m/s^2)","Linear Acceleration y (m/s^2)","Linear Acceleration z (m/s^2)"
4.000000000E-3,3.251999915E-1,-1.973999888E-1,8.863999844E-1
2.400000000E-2,6.832000017E-1,-4.731999934E-1,4.697999954E-1
4.400000000E-2,4.475999773E-1,-4.648000002E-1,4.256999791E-1
6.402343800E-2,-2.122000009E-1,-3.725000024E-1,2.426999956E-1
9.400000000E-2,6.893999577E-1,-5.210999846E-1,-1.762899995E0
1.140000000E-1,1.480000019E0,-1.265799999E0,-2.748100042E0
1.340000000E-1,1.213199973E0,2.911999822E-1,5.840099812E0
1.540000000E-1,-7.443999648E-1,5.514000058E-1,3.523099899E0
1.740000000E-1,3.399999812E-3,1.923099995E0,-5.460000038E-2
1.940000000E-1,1.669399977E0,-2.794399977E0,-2.889999866E0
2.140046880E-1,2.992300034E0,-4.652499676E0,-5.220299721E0
2.439984380E-1,7.428999543E-1,-1.041999981E-1,-4.079999924E0
2.640265630E-1,-6.609999537E-1,1.228500009E0,-4.394599915E0
2.939984380E-1,-1.389599919E0,-5.482999682E-1,-5.129499912E0
3.140015630E-1,-4.423099995E0,-1.722399950E0,4.331900120E0
3.439984380E-1,-2.609999895E0,1.202399969E0,-5.482999682E-1
3.640187500E-1,-9.601999521E-1,6.764999628E-1,-1.750599980E0
3.939984380E-1,8.809999824E-1,-5.404999852E-1,2.124699831E0
4.140000000E-1,-1.350799918E0,5.713999867E-1,-1.533000022E-1
4.439984380E-1,8.055999875E-1,-3.788000047E-1,1.761999965E0
4.640171880E-1,2.824499846E0,-1.146999955E0,3.195099831E0
4.939984380E-1,3.560899973E0,-1.690899968E0,4.208300114E0
5.139984380E-1,2.757900000E0,-1.984799981E0,1.690400004E0
5.339984380E-1,2.900699854E0,-2.422899961E0,-1.561399937E0
5.539984380E-1,3.403800011E0,-1.390900016E0,-4.680500031E0
5.739984380E-1,5.119999647E-1,2.395799875E0,3.285999894E-1
5.939984380E-1,-2.249300003E0,4.408299923E0,1.452799916E0
6.139984380E-1,-1.450999975E-1,-1.412699938E0,-1.655200005E0
6.339984380E-1,1.468500018E0,-2.098799944E0,-5.542200089E0
6.539984380E-1,1.396899939E0,-3.192899942E0,-8.155999780E-1
6.739984380E-1,-1.221999973E-1,-4.812399864E0,-2.372299910E0
6.939984380E-1,-1.373199940E0,-4.094500065E0,-2.263999879E-1
7.139984380E-1,-3.372599840E0,-5.537999630E0,-3.366000056E-1
7.339984380E-1,-5.935299873E0,-7.116199970E0,-7.519999743E-1
7.539984380E-1,-8.106900215E0,-8.112500191E0,-1.136299968E0
7.739984380E-1,-1.085859966E1,-9.070799828E0,-2.762300014E0
7.939984380E-1,-9.939899445E0,-9.455999374E0,-3.164499998E0
8.140000000E-1,-4.340499878E0,-1.056149960E1,-2.863999844E0
8.439984380E-1,6.379899979E0,-7.297899723E0,-3.089999855E-1
8.640171880E-1,1.134270000E1,-5.078799725E0,2.260999978E-1
8.939984380E-1,1.661909866E1,-2.657199860E0,2.107999921E-1
9.139984380E-1,1.742510033E1,-5.155000091E-1,-2.340699911E0
9.339984380E-1,1.740359879E1,1.133899927E0,-5.203099728E0
9.539984380E-1,1.652269936E1,1.075799942E0,-7.620499611E0
9.739984380E-1,1.448709965E1,1.084200025E0,-9.822799683E0
9.939984380E-1,1.350649929E1,8.430999517E-1,-1.123799992E1
1.013998438E0,1.200329971E1,-4.639999941E-2,-1.097359943E1
1.033998438E0,9.646999359E0,-5.324999690E-1,-9.829299927E0
1.053998438E0,7.589399815E0,-1.086099982E0,-9.195199966E0
1.073998438E0,5.552299976E0,-2.638799906E0,-9.080900192E0
1.093998438E0,2.887699842E0,-5.636699677E0,-8.911799431E0
1.114000000E0,-2.738999844E0,-7.970099926E0,-5.572099686E0
1.134000000E0,-5.256999969E0,-8.972299576E0,-3.278000057E-1
1.154000000E0,-6.213899612E0,-7.416899681E0,6.742699623E0
1.174000000E0,-6.818299770E0,-7.970999718E0,7.831899643E0
1.194000000E0,-4.579599857E0,-6.366199970E0,4.056699753E0
1.214000000E0,-7.420899868E0,-5.884500027E0,5.189199924E0
1.243998438E0,-4.686399937E0,-2.809900045E0,2.948499918E0
1.264018750E0,-5.990900040E0,5.389999747E-1,-1.187500000E0
1.293998438E0,-5.539700031E0,1.449199915E0,-4.448699951E0
1.313998438E0,-5.620399952E0,6.527000070E-1,-6.313199997E0
1.333998438E0,-2.778800011E0,-7.885999680E-1,-4.399999976E-1
1.353998438E0,-7.049999833E-1,-8.786999583E-1,-2.531499863E0
1.373998438E0,-2.213999987E0,-5.708999634E-1,9.103999734E-1
1.393998438E0,-3.340099812E0,1.767499924E0,1.253999949E0
1.413998438E0,-2.457599878E0,3.056099892E0,2.610499859E0
1.433998438E0,1.289299965E0,-3.396999836E-1,4.493599892E0
1.453998438E0,3.325799942E0,-1.935400009E0,7.587999701E-1
1.473998438E0,2.790199995E0,-3.638599873E0,-3.942600012E0
1.493998438E0,1.700599909E0,-5.653399944E0,-1.183699965E0
1.514000000E0,1.261999905E-1,-2.623499870E0,-1.438899994E0
1.544000000E0,3.792999983E-1,-9.702999592E-1,-1.410999894E-1
1.564017188E0,2.670699835E0,-2.065299988E0,-3.437999785E-1
1.593998438E0,3.436399937E0,-7.509999871E-1,2.014400005E0
1.613998438E0,2.834300041E0,-2.410000004E-2,1.346400023E0
1.633998438E0,3.189100027E0,-6.175999641E-1,1.496199965E0
1.653998438E0,4.425499916E0,-1.819700003E0,2.228999853E0
1.673998438E0,4.807399750E0,-2.061800003E0,1.356199980E0
1.693998438E0,4.588299751E0,-1.849900007E0,-1.941999942E-1
1.713998438E0,3.254299879E0,-8.363999724E-1,-1.253099918E0
1.733998438E0,-1.048200011E0,3.724499941E0,-1.331200004E0
1.753998438E0,-4.226299763E0,4.033999920E0,-1.078899980E0
1.773998438E0,-2.060699940E0,4.637700081E0,-1.966999918E-1
1.793998438E0,-2.884099960E0,6.944399834E0,1.819999963E-1
1.814000000E0,-2.688699961E0,7.134699821E0,9.939000010E-1
1.843998438E0,-8.405999541E-1,7.254499912E0,1.094599962E0
1.864017188E0,-2.648299932E0,7.625599861E0,8.386999965E-1
1.893998438E0,-5.002999783E0,-1.331619930E1,5.972999930E-1
1.913998438E0,-2.507900000E0,-2.667789841E1,4.755199909E0
1.933998438E0,-2.119799852E0,-1.406079960E1,1.385399938E0
1.953998438E0,-1.901299953E0,-1.318699956E0,6.920999885E-1
1.974000000E0,-1.755899906E0,4.910500050E0,1.132300019E0
2.003998438E0,-1.040499926E0,7.421700001E0,-9.307999611E-1
2.023998438E0,-1.754299998E0,6.660299778E0,-1.931399941E0
2.044000000E0,-1.608099937E0,3.597999811E0,-7.818999887E-1
2.064017188E0,-9.631999731E-1,2.654999793E-1,5.906999707E-1
2.093998438E0,9.359999746E-2,-9.268999696E-1,1.845299959E0
2.113998438E0,6.797999740E-1,-1.964000016E-1,2.443099976E0
2.134000000E0,1.233799934E0,-3.283999860E-1,2.961499929E0
2.164017188E0,1.983299971E0,-2.070800066E0,2.225399971E0
2.193998438E0,1.174669933E1,-7.778299809E0,-4.759099960E0
2.213998438E0,5.695399761E0,-3.629099846E0,-4.403800011E0
2.233998438E0,1.845699906E0,6.667000055E-1,-2.540699959E0
2.253998438E0,9.279999733E-1,1.395900011E0,-3.341999948E-1
2.273998438E0,2.419899940E0,-7.639999688E-2,-1.416000009E0
2.293998438E0,2.151399851E0,-2.054699898E0,-2.211599827E0
2.313998438E0,2.216599941E0,-2.122999907E0,-1.362900019E0
2.333998438E0,3.470700026E0,-3.426599979E0,4.856999815E-1
2.353998438E0,3.960099936E0,-4.361799717E0,1.119599938E0
2.373998438E0,4.205299854E0,-4.461199760E0,2.041300058E0
2.393998438E0,3.179600000E0,-2.476199865E0,1.345399976E0
2.413998438E0,1.817099929E0,-2.742999792E-1,1.954099894E0
2.433998438E0,2.626000047E-1,1.262300014E0,2.529299974E0
2.453998438E0,-1.158599973E0,1.999599934E0,3.051299810E0
2.473998438E0,-2.472300053E0,2.197099924E0,3.444000006E0
2.493998438E0,-3.926699877E0,2.644199848E0,3.631299973E0
2.513998438E0,-5.517099857E0,3.197199821E0,3.822399855E0
2.533998438E0,-6.787799835E0,3.586999893E0,3.803900003E0
2.553998438E0,-6.933300018E0,3.696599960E0,3.805699825E0
2.573998438E0,-5.492799759E0,3.112799883E0,4.053100109E0
2.593998438E0,-3.155499935E0,2.324399948E0,3.905900002E0
2.613998438E0,-1.336799979E0,1.324299932E0,3.427699804E0
2.633998438E0,-5.227000117E-1,1.897999942E-1,2.826299906E0
2.653998438E0,-3.567000031E-1,-7.378999591E-1,2.159100056E0
2.673998438E0,-3.775999844E-1,-1.278100014E0,1.295400023E0
2.693998438E0,1.771000028E-1,-2.720499992E0,3.805999756E-1
2.713998438E0,7.864999771E-1,-3.839099884E0,-3.610999882E-1
2.733998438E0,1.404999971E0,-4.429500103E0,-1.275900006E0
2.753998438E0,1.916099906E0,-4.585000038E0,-2.761699915E0
2.773998438E0,2.983500004E0,-3.752300024E0,-5.809599876E0
2.793998438E0,3.739599943E0,-3.759699821E0,-2.586619949E1
2.813998438E0,3.601300001E0,-4.114699841E0,-1.349149990E1
2.833998438E0,1.826200008E0,-2.608999968E0,-5.388899803E0
2.853998438E0,3.662999868E-1,-4.880999923E-1,-1.159500003E0
2.873998438E0,-1.812999994E-1,-1.019999944E-2,6.099999696E-2
2.893998438E0,-2.202999890E-1,-2.710899830E0,1.533699989E0
2.913998438E0,-6.592000127E-1,-5.658799648E0,1.748399973E0
2.943998438E0,-2.326699972E0,-4.128399849E0,2.077499866E0
2.964017188E0,-3.406899929E0,-2.192499876E0,2.823400021E0
2.993998438E0,-3.880999804E0,-3.549999893E-1,3.315599918E0
3.013998438E0,-3.353999853E0,5.873999596E-1,2.729699850E0
3.033998438E0,-2.792299986E0,1.617900014E0,2.175999880E0
3.053998438E0,-2.444700003E0,2.531399965E0,2.174399853E0
3.073998438E0,-2.096099854E0,3.337199926E0,2.422699928E0
3.093998438E0,-1.814899921E0,3.798299789E0,2.317899942E0
3.113998438E0,-1.734799981E0,4.045300007E0,2.238600016E0
3.133998438E0,-1.285699964E0,3.609699965E0,2.138599873E0
3.153998438E0,-9.607999921E-1,2.821799994E0,2.045699835E0
3.173998438E0,-6.459000111E-1,2.004400015E0,2.119799852E0
3.193998438E0,-1.158999950E-1,9.371999502E-1,1.856099963E0
3.213998438E0,2.094999999E-1,-5.619999766E-2,2.138499975E0
3.234000000E0,5.744000077E-1,-7.511000037E-1,2.315500021E0
3.264017188E0,8.563999534E-1,-6.531999707E-1,3.185699940E0
3.293998438E0,1.785899997E0,-8.333999515E-1,1.794899940E0
3.313998438E0,4.738999844E0,-1.458799958E0,-1.090199947E0
3.333998438E0,4.751899719E0,-1.179600000E0,-4.582499981E0
3.364017188E0,3.800199986E0,4.007999897E-1,-7.195399761E0
3.393998438E0,6.019999981E0,-1.788999885E-1,-1.557239914E1
3.413998438E0,2.025000006E-1,1.635499954E0,-7.694999576E-1
3.433998438E0,-1.375399947E0,2.389999852E-2,1.655399919E0
3.453998438E0,-2.225999832E0,-2.181699991E0,9.971999526E-1
3.473998438E0,-1.514199972E0,-3.688599825E0,1.951999962E-1
3.493998438E0,-1.562399983E0,-4.009599686E0,4.389999807E-2
3.513998438E0,-2.246500015E0,-4.165999889E0,6.139999628E-1
3.533998438E0,-2.461899996E0,-4.688299656E0,1.703099966E0
3.553998438E0,-2.024999857E0,-3.896799803E0,2.755499840E0
3.573998438E0,-1.355599999E0,-3.152999878E0,3.623399973E0
3.593998438E0,-1.149099946E0,-2.612999916E0,3.903699875E0
3.613998438E0,-1.539600015E0,-3.001999855E-1,3.507200003E0
3.633998438E0,-1.855999947E0,1.821499944E0,3.557699919E0
3.664017188E0,-1.490299940E0,3.218499899E0,3.287699938E0
3.693998438E0,-1.346599936E0,3.559399843E0,2.327600002E0
3.713998438E0,-1.178799987E0,3.410799980E0,2.202699900E0
3.733998438E0,-9.455999732E-1,3.320899963E0,2.250499964E0
3.753998438E0,-6.261000037E-1,3.158200026E0,2.288899899E0
3.773998438E0,-2.006999999E-1,2.425999880E0,2.332000017E0
3.793998438E0,2.398999929E-1,1.270499945E0,2.317499876E0
3.813998438E0,4.646999836E-1,3.644999862E-1,2.162899971E0
3.833998438E0,8.076999784E-1,-2.450999916E-1,1.926299930E0
3.853998438E0,1.190799952E0,-9.615999460E-1,1.582599998E0
3.873998438E0,1.585600019E0,-1.719200015E0,1.169799924E0
3.893998438E0,1.605099916E0,-2.033699989E0,1.006999969E0
3.913998438E0,1.756399989E0,-2.016900063E0,5.737000108E-1
3.933998438E0,2.086499929E0,-2.337599993E0,2.066999972E-1
3.953998438E0,2.648999929E0,-3.257900000E0,-3.657999933E-1
3.973998438E0,3.286199808E0,-4.643699646E0,-1.285799980E0
3.993998438E0,3.233599901E0,-3.823499918E0,-2.153399944E0
4.013998438E0,2.468499899E0,-6.844999790E-1,-2.949599981E0
4.033998438E0,9.555999637E-1,1.510699987E0,-3.182799816E0
4.053998438E0,2.766999900E-1,-3.990999758E-1,-3.828999996E0
4.073998438E0,-2.879000008E-1,-3.667299986E0,-4.735799789E0
4.093998438E0,-7.494999766E-1,-4.272699833E0,-4.840899944E0
4.113998438E0,-1.249899983E0,-2.648699999E0,-3.797699928E0
4.133998438E0,-1.868099928E0,-1.683799982E0,-2.716399908E0
4.153998438E0,-2.399399996E0,-2.220900059E0,-1.850399971E0
4.173998438E0,-3.545499802E0,-1.799999952E0,-1.009099960E0
4.193998438E0,-4.896100044E0,-1.772999913E-1,1.510999948E-1
4.213998438E0,-5.347199917E0,1.457499981E0,1.612699986E0
4.233998438E0,-4.546899796E0,2.051499844E0,4.612199783E0
4.253998438E0,-4.401099682E0,3.142400026E0,6.330899715E0
4.273998438E0,-1.395639992E1,5.423599720E0,2.284109879E1
4.293998438E0,-2.456699848E0,3.534499884E0,1.410499930E0
4.313998438E0,-1.051599979E0,3.666800022E0,-2.062399864E0
4.333998438E0,-4.878000021E-1,3.670199871E0,-2.520900011E0
4.353998438E0,-6.258000135E-1,2.958999872E0,-1.625299931E0
4.373998438E0,-1.410799980E0,2.287999868E0,-4.528999925E-1
4.393998438E0,-8.901000023E-1,9.139999747E-1,2.272999883E-1
4.413998438E0,-4.675999880E-1,-6.055999994E-1,2.861000001E-1
4.433998438E0,-5.089999735E-2,-1.536799908E0,5.400999784E-1
4.453998438E0,1.927500010E0,-2.318699837E0,8.029999733E-1
4.473998438E0,4.388999939E0,-3.445799828E0,-1.243499994E0
4.493998438E0,4.433199883E0,-2.739199877E0,-7.021299839E0
4.513998438E0,4.622999668E0,-1.177199960E0,-1.074310017E1
4.533998438E0,4.179899693E0,9.427999854E-1,-1.182109928E1
4.553998438E0,8.482999802E-1,9.821999669E-1,-5.335799694E0
4.573998438E0,-2.126699924E0,-2.030499935E0,3.473500013E0
4.593998438E0,-3.543799877E0,-4.840499878E0,7.983799934E0
4.613998438E0,-5.556699753E0,-3.561299801E0,7.971099854E0
4.633998438E0,-5.266200066E0,-3.178799868E0,5.582799911E0
4.653998438E0,-5.508899689E0,-5.283199787E0,9.412799835E0
4.673998438E0,-5.115000010E-1,-4.262899876E0,-4.508000016E-1
4.693998438E0,-8.940000087E-2,-2.655299902E0,-5.072999597E-1
4.713998438E0,-5.363999605E-1,-2.030599833E0,-1.478299975E0
4.733998438E0,-4.387999773E-1,-3.504999876E-1,-4.857999980E-1
4.753998438E0,-5.059999824E-1,1.057899952E0,2.269999869E-2
4.773998438E0,-6.613999605E-1,2.407399893E0,4.372999966E-1
4.793998438E0,-8.429999948E-1,3.597399950E0,5.339999795E-1
4.813998438E0,-8.154000044E-1,4.173500061E0,4.050999880E-1
4.833998438E0,-8.055999875E-1,4.240200043E0,1.291999966E-1
4.853998438E0,-8.565999866E-1,4.335599899E0,-1.547999978E-1
4.873998438E0,-9.486999512E-1,4.242599964E0,-3.111000061E-1
4.893998438E0,-9.839999676E-1,3.747299910E0,-2.258999944E-1
4.914000000E0,-8.913999796E-1,2.976799965E0,-1.270000041E-1
4.943998438E0,-6.310999990E-1,1.548900008E0,1.030000001E-1
4.964017188E0,-2.919999957E-1,6.291999817E-1,1.423999965E-1
4.993998438E0,4.767999947E-1,-9.863999486E-1,1.859999895E-1
5.013998438E0,9.321999550E-1,-2.123499870E0,1.044999957E-1
5.033998438E0,1.344999909E0,-2.889099836E0,-6.899999827E-2
5.054000000E0,1.655200005E0,-3.126199961E0,-4.199999869E-1
5.083998438E0,2.254299879E0,-3.403899908E0,-7.849000096E-1
5.103998438E0,2.820299864E0,-4.778399944E0,-9.747999907E-1
5.123998438E0,3.195299864E0,-6.428599834E0,-1.271600008E0
5.143998438E0,2.585899830E0,-4.487699986E0,-1.042299986E0
5.164017188E0,1.338999987E0,8.298999667E-1,-9.996999502E-1
5.193998438E0,5.252999663E-1,2.422699928E0,-1.189999934E-2
5.213998438E0,1.035999954E-1,-1.060099959E0,-8.569999784E-2
5.233998438E0,-4.147999883E-1,-3.565299988E0,-3.965999782E-1
5.253998438E0,-1.220199943E0,-2.745699883E0,-2.752999961E-1
5.273998438E0,-2.491799831E0,-1.788899899E0,4.978999794E-1
5.293998438E0,-4.974400043E0,-8.299999684E-2,-9.302999973E-1
5.313998438E0,-3.675799847E0,1.226999998E0,-3.634999990E-1
5.333998438E0,-1.242599964E0,5.203999877E-1,-3.306999803E-1
5.353998438E0,-1.243999973E-1,1.279899955E0,-6.279999614E-1
5.374000000E0,-5.550000072E-1,2.820600033E0,8.238999844E-1
5.403998438E0,-1.161599994E0,4.255599976E0,2.000999928E0
5.423998438E0,-1.334699988E0,4.757699966E0,1.522499919E0
5.443998438E0,-1.572699904E0,4.760200024E0,1.502799988E0
5.464017188E0,-1.846499920E0,3.905799866E0,2.519799948E0
5.493998438E0,-1.542699933E0,2.255100012E0,3.425699949E0
5.513998438E0,-7.383999825E-1,1.221300006E0,3.029099941E0
5.533998438E0,-2.066999972E-1,7.580000162E-2,1.966099977E0
5.553998438E0,6.143000126E-1,-1.430299997E0,5.591999888E-1
5.573998438E0,1.322199941E0,-2.338999987E0,-1.696099997E0
5.593998438E0,3.538299799E0,-3.328799963E0,-4.638199806E0
5.613998438E0,3.304399967E0,-2.832299948E0,-7.812099934E0
5.633998438E0,3.108700037E0,-1.292299986E0,-9.748099327E0
5.653998438E0,3.879199982E0,-4.977999926E-1,-9.920100212E0
5.674000000E0,3.701999903E0,-5.555999875E-1,-7.454899788E0
5.703998438E0,-9.764999747E-1,-2.579499960E0,4.753900051E0
5.723998438E0,-1.621500015E0,-5.778999805E0,6.190999985E0
5.743998438E0,-2.889299870E0,-5.000699997E0,6.766799927E0
5.764017188E0,-4.443599701E0,-6.419399738E0,1.412430000E1
5.793998438E0,-1.727699995E0,-1.467199922E0,-2.520000041E-1
5.813998438E0,-9.067999721E-1,-2.207700014E0,7.256999612E-1
5.833998438E0,-3.030999899E-1,-1.406399965E0,1.163100004E0
5.853998438E0,4.230000079E-2,1.841999888E-1,1.141099930E0
5.873998438E0,1.604000032E-1,8.044999838E-1,1.000100017E0
5.893998438E0,1.116999984E-1,1.358999968E0,7.274000049E-1
5.913998438E0,-1.004000008E-1,2.506500006E0,3.475999832E-1
5.933998438E0,-2.931999862E-1,3.582499981E0,-9.659999609E-2
5.953998438E0,-4.211999774E-1,4.094999790E0,-3.032000065E-1
5.973998438E0,-5.988999605E-1,4.231400013E0,-2.305999994E-1
5.993998438E0,-7.239999771E-1,3.890699863E0,-8.439999819E-2
6.013998438E0,-6.660000086E-1,3.024099827E0,2.497999966E-1
6.033998438E0,-4.950999916E-1,2.075399876E0,5.444999933E-1
6.053998438E0,-5.257999897E-1,1.532499909E0,5.832999945E-1
6.073998438E0,-5.440999866E-1,1.061299920E0,5.374000072E-1
6.093998438E0,-3.359999955E-1,2.290999889E-1,5.708999634E-1
6.113998438E0,1.597999930E-1,-6.402999759E-1,4.321999848E-1
6.133998438E0,5.843999982E-1,-1.337399960E0,3.382000029E-1
6.153998438E0,9.810999632E-1,-1.830399990E0,1.023999974E-1
6.173998438E0,1.348199964E0,-2.247299910E0,-3.147999942E-1
6.193998438E0,1.722599983E0,-2.440199852E0,-5.862999558E-1
6.213998438E0,2.084499836E0,-2.201400042E0,-9.089999795E-1
6.233998438E0,2.550600052E0,-2.324199915E0,-1.233099937E0
6.253998438E0,3.258999825E0,-3.769099951E0,-1.837700009E0
6.273998438E0,3.267999887E0,-3.166299820E0,-2.691499949E0
6.293998438E0,2.304600000E0,1.003899932E0,-2.477699995E0
6.313998438E0,1.394099951E0,2.431299925E0,-2.042000055E0
6.333998438E0,1.232299924E0,-1.778199911E0,-2.186599970E0
6.353998438E0,7.324999571E-1,-4.269499779E0,-2.390100002E0
6.373998438E0,7.310000062E-2,-4.334599972E0,-1.854799986E0
6.393998438E0,-1.161299944E0,-2.622599840E0,-3.630000055E-1
6.413998438E0,-2.344799995E0,-1.578699946E0,6.050999761E-1
6.433998438E0,-3.564699888E0,-9.066999555E-1,1.443799973E0
6.453998438E0,-4.765199661E0,2.660999894E-1,3.075999975E0
6.473998438E0,-7.705199718E0,-2.472899914E0,8.651999474E0
6.493998438E0,-5.654900074E0,4.395899773E0,2.903899908E0
6.513998438E0,-3.304600000E0,5.366600037E0,1.862299919E0
6.533998438E0,-1.452000022E0,4.747999668E0,1.169899940E0
6.553998438E0,-4.754000008E-1,3.588599920E0,-2.116999924E-1
6.573998438E0,-6.313999891E-1,3.300299883E0,5.649999902E-2
6.593998438E0,-1.024099946E0,3.320699930E0,1.231199980E0
6.613998438E0,-9.806999564E-1,2.698899984E0,2.335599899E0
6.633998438E0,-3.018999994E-1,1.541199923E0,2.483099937E0
6.653998438E0,2.944000065E-1,4.265999794E-1,2.151200056E0
6.673998438E0,1.023800015E0,-7.209999561E-1,1.312099934E0
6.693998438E0,1.715600014E0,-1.374499917E0,1.650999933E-1
6.713998438E0,3.314399958E0,-2.070499897E0,-2.081599951E0
6.734000000E0,4.589099884E0,-3.365399837E0,-6.739399910E0
6.764018750E0,3.652499914E0,-1.013800025E0,-1.069180012E1
6.793998438E0,3.639400005E0,1.458999991E0,-8.112799644E0
6.813998438E0,1.784999967E0,-1.294700027E0,-2.239699841E0
6.833998438E0,-7.272999883E-1,-4.017399788E0,3.669799805E0
6.853998438E0,-2.371500015E0,-4.571000099E0,6.059899807E0
6.873998438E0,-3.206599951E0,-2.391199827E0,6.057600021E0
6.893998438E0,-5.039599895E0,-3.041599989E0,1.045969963E1
6.913998438E0,-1.470299959E0,-2.837399960E0,1.032799959E0
6.933998438E0,-8.434000015E-1,-3.775099993E0,1.932699919E0
6.953998438E0,-4.153999984E-1,-2.797899961E0,2.362400055E0
6.974000000E0,1.979999989E-2,-1.528800011E0,2.137699842E0
7.003998438E0,2.409999967E-1,-3.400999904E-1,1.587000012E0
7.023998438E0,7.029999793E-2,1.322899938E0,9.404999614E-1
7.043998438E0,-9.539999813E-2,2.827199936E0,5.408999920E-1
7.064017188E0,-1.991999894E-1,3.486199856E0,2.066999972E-1
7.093998438E0,-2.148000002E-1,3.651899815E0,-2.462999970E-1
7.113998438E0,-2.604999840E-1,3.697999954E0,-2.207999974E-1
7.133998438E0,-3.643999994E-1,3.439299822E0,7.009999454E-2
7.153998438E0,-3.731999993E-1,2.996899843E0,3.242000043E-1
7.173998438E0,-4.201999903E-1,2.713899851E0,4.618999958E-1
7.193998438E0,-4.500999749E-1,2.355700016E0,5.346999764E-1
7.213998438E0,-2.791999876E-1,1.470299959E0,4.202999771E-1
7.233998438E0,-2.709999867E-2,4.493999779E-1,2.442999929E-1
7.253998438E0,4.104999900E-1,-4.951999784E-1,3.999999911E-2
7.273998438E0,9.293999672E-1,-1.402199984E0,-4.623000026E-1
7.293998438E0,1.423699975E0,-2.302099943E0,-7.360999584E-1
7.313998438E0,1.779799938E0,-3.017699957E0,-1.085500002E0
7.333998438E0,2.081699848E0,-3.164299965E0,-1.524699926E0
7.353998438E0,2.641299963E0,-3.709599972E0,-1.956900001E0
7.373998438E0,3.265499830E0,-4.790699959E0,-2.803499937E0
7.393998438E0,3.220599890E0,-3.657999992E0,-3.771799803E0
7.413998438E0,1.971300006E0,7.739999890E-1,-3.120499849E0
7.433998438E0,9.350000024E-1,1.985999942E0,-2.618700027E0
7.453998438E0,7.601999640E-1,-1.758999944E0,-2.523699999E0
7.473998438E0,3.106999993E-1,-4.569099903E0,-2.113399982E0
7.493998438E0,-3.547999859E-1,-4.217899799E0,-1.423099995E0
7.513998438E0,-1.454699993E0,-2.032199860E0,-4.506999850E-1
7.533998438E0,-2.692399979E0,-7.641999722E-1,1.100999951E0
7.553998438E0,-3.920699835E0,-4.118999839E-1,2.020799875E0
7.573998438E0,-4.869599819E0,2.314999998E-1,3.576699972E0
7.593998438E0,-8.958299637E0,1.520499945E0,7.148999691E0
7.613998438E0,-4.849699974E0,4.012599945E0,3.625699997E0
7.633998438E0,-2.933300018E0,5.712999821E0,2.688999891E0
7.653998438E0,-1.458699942E0,5.260900021E0,2.070199966E0
7.673998438E0,3.880999982E-1,2.932699919E0,2.258999944E-1
7.693998438E0,1.596999913E-1,2.434799910E0,-1.644299984E0
7.713998438E0,-7.385999560E-1,3.249699831E0,-4.539999738E-2
7.734000000E0,-1.007399917E0,3.074899912E0,1.724900007E0
7.764017188E0,2.766999900E-1,1.091899991E0,2.262199879E0
7.793998438E0,1.370199919E0,-6.304999590E-1,1.223099947E0
7.813998438E0,2.281499863E0,-1.494399905E0,-5.680000037E-2
7.833998438E0,4.623799801E0,-2.971899986E0,-3.766099930E0
7.853998438E0,3.985099792E0,-3.168299913E0,-8.934800148E0
7.873998438E0,3.807699919E0,-1.419899940E0,-1.222620010E1
7.893998438E0,3.628299952E0,7.913999557E-1,-1.069869995E1
7.913998438E0,2.719699860E0,2.169999853E-2,-7.256700039E0
7.933998438E0,-8.967999816E-1,-1.911099911E0,2.765699863E0
7.953998438E0,-1.792299986E0,-4.631599903E0,4.795199871E0
7.973998438E0,-3.286499977E0,-3.479199886E0,5.768300056E0
7.993998438E0,-3.102999926E0,-3.045399904E0,5.093999863E0
8.023998438E0,-2.237299919E0,-4.326200008E0,4.985199928E0
8.043998438E0,-3.223999977E0,-4.420599937E0,6.789899826E0
8.064017188E0,-1.420400023E0,-2.215899944E0,2.098099947E0
8.093998438E0,-9.098999500E-1,-3.858000040E-1,1.707799911E0
8.113998438E0,-6.078000069E-1,8.276999593E-1,1.599099994E0
8.133998438E0,-4.327999949E-1,2.401200056E0,1.076300025E0
8.153998438E0,-2.976999879E-1,3.836399794E0,6.037999988E-1
8.173998438E0,-2.971999943E-1,4.535900116E0,4.282999933E-1
8.193998438E0,-1.123999953E-1,4.646899700E0,2.048999965E-1
8.213998438E0,2.049999870E-2,4.473299980E0,9.229999781E-2
8.233998438E0,1.629000008E-1,3.906199932E0,6.819999963E-2
8.253998438E0,2.748999894E-1,3.162400007E0,8.269999921E-2
8.273998438E0,4.398999810E-1,2.339900017E0,-3.150000051E-2
8.293998438E0,4.795999825E-1,1.497399926E0,1.008000001E-1
8.313998438E0,5.489000082E-1,7.433999777E-1,2.463999987E-1
8.333998438E0,9.104999900E-1,-1.568999887E-1,3.170999885E-1
8.353998438E0,1.388899922E0,-1.340999961E0,2.060000002E-1
8.373998438E0,1.903399944E0,-2.692600012E0,-1.032999977E-1
8.393998438E0,2.294899940E0,-3.280200005E0,-5.809999704E-1
8.413998438E0,2.460399866E0,-3.083599806E0,-7.809999585E-1
8.433998438E0,2.839799881E0,-3.151299953E0,-9.930999875E-1
8.453998438E0,3.606799841E0,-4.844999790E0,-1.639799953E0
8.473998438E0,4.037399769E0,-4.713999748E0,-2.794399977E0
8.493998438E0,3.205699921E0,-7.010999918E-1,-2.895699978E0
8.513998438E0,1.883599997E0,1.836899996E0,-2.414199829E0
8.533998438E0,1.308200002E0,-7.369999886E-1,-2.350899935E0
8.553998438E0,7.615000010E-1,-3.932499886E0,-2.810899973E0
8.573998438E0,-2.089999914E-1,-4.936100006E0,-2.641499996E0
8.593998438E0,-1.348999977E0,-3.295799971E0,-1.703999996E0
8.613998438E0,-2.496299982E0,-1.872200012E0,-7.351999879E-1
8.633998438E0,-3.836699963E0,-1.142499924E0,3.712999821E-1
8.653998438E0,-5.093299866E0,3.700000048E-2,1.991400003E0
8.673998438E0,-5.052399635E0,9.109999537E-1,2.813299894E0
8.693998438E0,-4.047399998E0,2.256299973E0,3.702299833E0
8.713998438E0,-4.191599846E0,5.236899853E0,2.969699860E0
8.733998438E0,-3.272799969E0,6.443299770E0,2.408499956E0
8.753998438E0,-2.481499910E0,6.279399872E0,1.849699974E0
8.773998438E0,-1.777799964E0,4.878999710E0,1.498999953E0
8.793998438E0,-1.302699924E0,3.553799868E0,1.598799944E0
8.813998438E0,-1.071300030E0,2.860499859E0,1.651399970E0
8.833998438E0,-6.290999651E-1,2.205100060E0,1.659399986E0
8.853998438E0,-2.899999917E-2,1.086799979E0,1.647399902E0
8.873998438E0,7.687999606E-1,-5.238999724E-1,1.297599912E0
8.893998438E0,1.767599940E0,-2.226899862E0,1.008599997E0
8.914000000E0,3.052099943E0,-3.092700005E0,4.549999908E-2
8.943998438E0,5.765399933E0,-4.561599731E0,-7.296999931E0
8.964017188E0,5.943699837E0,-2.940999985E0,-1.209959984E1
8.993998438E0,6.349599838E0,2.879400015E0,-1.351749992E1
9.013998438E0,7.515999675E-1,4.154399872E0,1.557799935E0
9.033998438E0,5.052999854E-1,-1.331300020E0,2.801499844E0
9.053998438E0,2.708999813E-1,-4.974599838E0,3.148299932E0
9.073998438E0,-9.952999949E-1,-6.672999859E0,4.168399811E0
9.093998438E0,-1.844699979E0,-5.740599632E0,2.272300005E0
9.113998438E0,-2.437099934E0,-5.716599941E0,3.220799923E0
9.133998438E0,-2.455899954E0,-5.515799999E0,4.320799828E0
9.153998438E0,-2.640300035E0,-3.416999817E0,4.464999676E0
9.173998438E0,-2.228999853E0,-1.124699950E0,4.554500103E0
9.193998438E0,-1.976799965E0,3.480000049E-2,2.777400017E0
9.213998438E0,-2.246399879E0,2.353600025E0,9.963999987E-1
9.233998438E0,-2.155299902E0,4.665899754E0,8.555999994E-1
9.253998438E0,-1.971499920E0,5.736399651E0,5.870000124E-1
9.273998438E0,-1.639099956E0,6.036599636E0,4.982999861E-1
9.293998438E0,-1.555899978E0,6.004999638E0,4.301999807E-1
9.313998438E0,-1.652099967E0,5.531799793E0,5.069999695E-1
9.333998438E0,-1.793799996E0,4.871799946E0,4.827999771E-1
9.353998438E0,-1.851499915E0,3.994199991E0,7.347999811E-1
9.373998438E0,-1.578999996E0,2.802899837E0,9.326999784E-1
9.393998438E0,-9.710999727E-1,1.522300005E0,1.017400026E0
9.413998438E0,-1.881999969E-1,-1.810999960E-1,9.935999513E-1
9.433998438E0,5.467999578E-1,-2.554600000E0,1.021099925E0
9.454000000E0,1.271799922E0,-4.617099762E0,7.917000055E-1
9.483998438E0,2.126499891E0,-4.969999790E0,6.300000101E-2
9.503998438E0,2.626199961E0,-4.202899933E0,-5.263999701E-1
9.523998438E0,3.533099890E0,-4.554100037E0,-1.263399959E0
9.543998438E0,4.792900085E0,-6.445199966E0,-2.194000006E0
9.564017188E0,5.685199738E0,-4.814799786E0,-2.913599968E0
9.593998438E0,3.969399929E0,2.895299911E0,-4.505899906E0
9.613998438E0,1.822799921E0,2.691799879E0,-4.135600090E0
9.633998438E0,1.667999983E0,-1.925300002E0,-3.685899973E0
9.653998438E0,1.454199910E0,-4.636199951E0,-2.372099876E0
9.673998438E0,2.782000005E-1,-4.744199753E0,-1.911700010E0
9.693998438E0,-9.953999519E-1,-2.900300026E0,-1.473599911E0
9.713998438E0,-2.327499866E0,-1.111199975E0,-9.341999888E-1
9.733998438E0,-3.798199892E0,8.599999361E-3,-1.929999888E-1
9.753998438E0,-5.464999676E0,1.349200010E0,1.222399950E0
9.773998438E0,-5.246200085E0,1.934699893E0,3.032899857E0
9.793998438E0,-9.498099327E0,3.588899851E0,3.504499912E0
9.813998438E0,-5.076399803E0,5.309999943E0,1.990700006E0
9.833998438E0,-2.743700027E0,6.094699860E0,1.808799982E0
9.853998438E0,-1.606099963E0,4.511199951E0,2.009899855E0
9.874000000E0,-7.712000012E-1,2.812000036E0,1.799099922E0
9.894000000E0,-7.208999991E-1,2.051300049E0,1.657199979E0
9.914000000E0,-7.659999728E-1,2.404099941E0,2.187299967E0
9.943998438E0,-1.577999890E-1,1.665599942E0,2.064899921E0
9.964017188E0,5.882999897E-1,4.958999753E-1,1.576599956E0
9.993998438E0,2.539299965E0,-2.565099955E0,-3.052999973E-1
1.001399844E1,7.109899998E0,-6.302199841E0,-6.393799782E0
1.003399844E1,4.148200035E0,-2.769999981E0,-7.860299587E0
1.005399844E1,4.209199905E0,-1.015299916E0,-8.080299377E0
1.007399844E1,4.499099731E0,-1.003700018E0,-8.890600204E0
1.009399844E1,1.648099899E0,4.263999760E-1,-2.225100040E0
1.011399844E1,-1.026000008E-1,-3.870999813E-1,3.150399923E0
1.013399844E1,-7.586999536E-1,-2.071899891E0,4.120399952E0
1.015399844E1,-9.157999754E-1,-3.805999994E0,3.187700033E0
1.017399844E1,-4.807999730E-1,-5.676499844E0,1.922499895E0
1.019399844E1,-6.330999732E-1,-6.129499912E0,2.028399944E0
1.021399844E1,-8.456999660E-1,-4.610399723E0,2.811100006E0
1.023399844E1,-1.008499980E0,-2.200000048E0,3.499599934E0
1.025399844E1,-1.031700015E0,-8.610000014E-1,3.418099880E0
1.027399844E1,-9.417999983E-1,-8.126999736E-1,2.481299877E0
1.029399844E1,-1.119099975E0,5.256000161E-1,1.459299922E0
1.031399844E1,-1.656199932E0,3.367399931E0,1.089699984E0
1.033400000E1,-1.537499905E0,4.495800018E0,8.808999658E-1
1.036401719E1,-8.800999522E-1,4.433599949E0,1.065699935E0
1.039399844E1,-5.787000060E-1,4.340899944E0,1.013000011E0
1.041399844E1,-4.729999900E-1,4.138400078E0,8.267999887E-1
1.043399844E1,-4.887000024E-1,3.620499849E0,7.281000018E-1
1.045399844E1,-3.603999913E-1,2.907799959E0,8.022999763E-1
1.047399844E1,-1.512999982E-1,1.920199990E0,8.075999618E-1
1.049400000E1,2.001999915E-1,4.914999902E-1,8.646999598E-1
1.052399844E1,8.677999973E-1,-1.789999962E0,7.642999887E-1
1.054399844E1,1.344200015E0,-2.936599970E0,6.396999955E-1
1.056401719E1,1.704399943E0,-3.103099823E0,3.686999977E-1
1.059399844E1,2.111599922E0,-2.445600033E0,-4.529999942E-2
1.061399844E1,2.703799963E0,-3.072700024E0,-1.861999929E-1
1.063399844E1,3.550499916E0,-4.975299835E0,-6.054999828E-1
1.065399844E1,3.959499836E0,-4.388700008E0,-1.818199992E0
1.067399844E1,3.768999815E0,-5.719999969E-2,-2.273699999E0
1.069399844E1,2.853600025E0,2.116299868E0,-2.418999910E0
1.071399844E1,2.051499844E0,-9.657999873E-1,-2.448199987E0
1.073399844E1,1.535599947E0,-3.996999979E0,-3.138799906E0
1.075399844E1,8.050000072E-1,-3.496199846E0,-3.063499928E0
1.077399844E1,-2.506999969E-1,-2.683300018E0,-2.443099976E0
1.079399844E1,-1.380399942E0,-1.952499986E0,-1.731899977E0
1.081399844E1,-2.474900007E0,-1.262799978E0,-7.981999516E-1
1.083400000E1,-3.892199993E0,-4.240999818E-1,1.278100014E0
1.086401719E1,-9.468599319E0,1.316200018E0,7.758499622E0
1.089399844E1,-4.372299671E0,5.108699799E0,2.105499983E0
1.091399844E1,-2.178200006E0,5.505899906E0,1.860099912E0
1.093399844E1,-9.731999636E-1,4.500000000E0,1.303300023E0
1.095399844E1,-6.662999988E-1,3.556900024E0,8.757999539E-1
1.097399844E1,-9.966999888E-1,3.522300005E0,5.981999636E-1
1.099399844E1,-1.313699961E0,3.351500034E0,1.205699921E0
1.101399844E1,-1.095000029E0,2.513399839E0,1.634699941E0
1.103399844E1,-5.024999976E-1,1.531899929E0,1.919399977E0
1.105399844E1,1.100999936E-1,5.636000037E-1,1.836299896E0
1.107399844E1,6.617000103E-1,-5.461999774E-1,1.050199986E0
1.109399844E1,2.396100044E0,-2.154500008E0,-7.573999763E-1
1.111399844E1,5.354499817E0,-5.167399883E0,-5.842599869E0
1.113399844E1,4.023699760E0,-2.726899862E0,-8.321399689E0
1.115399844E1,4.607699871E0,-1.780999899E0,-1.010179996E1
1.117399844E1,5.307300091E0,-4.891999960E-1,-1.085050011E1
1.119399844E1,1.515999913E0,1.748899937E0,-4.332999885E-1
1.121399844E1,-3.084000051E-1,-1.200099945E0,4.467899799E0
1.123399844E1,-1.809299946E0,-3.278299809E0,6.164499760E0
1.125399844E1,-2.237799883E0,-4.391399860E0,5.161499977E0
1.127399844E1,-2.071099997E0,-4.579499722E0,3.398299932E0
1.129399844E1,-1.888399959E0,-4.838699818E0,3.562999964E0
1.131399844E1,-3.791699886E0,-4.984600067E0,1.348999977E0
1.133399844E1,-1.349299908E0,-3.274600029E0,1.248700023E0
1.135399844E1,-7.567999959E-1,-1.633899927E0,1.738499999E0
1.137399844E1,-4.752999842E-1,-5.285999775E-1,2.064100027E0
1.139399844E1,-1.680999994E-1,9.749999642E-1,1.854900002E0
1.141399844E1,-3.813000023E-1,2.918399811E0,1.365000010E0
1.143399844E1,-4.846999943E-1,4.086400032E0,9.289999604E-1
1.145399844E1,-4.390999973E-1,4.529299736E0,5.547999740E-1
1.147400000E1,-3.269000053E-1,4.511199951E0,2.248999923E-1
1.150399844E1,-4.065999985E-1,4.758299828E0,6.119999662E-2
1.152399844E1,-4.424999952E-1,4.544099808E0,1.368999928E-1
1.154399844E1,-3.542999923E-1,3.604799986E0,3.321999907E-1
1.156401875E1,-2.958999872E-1,2.559299946E0,4.685999751E-1
1.159399844E1,-5.659999698E-2,1.211499929E0,5.307999849E-1
1.161399844E1,2.658999860E-1,7.789999992E-2,5.236999989E-1
1.163399844E1,6.859999895E-1,-1.075899959E0,4.795999825E-1
1.165399844E1,1.100600004E0,-1.808699965E0,3.752999902E-1
1.167399844E1,1.485199928E0,-2.257499933E0,1.527999938E-1
1.169399844E1,1.925300002E0,-3.333799839E0,-1.887999922E-1
1.171399844E1,2.504999876E0,-4.606199741E0,-5.820999742E-1
1.173399844E1,2.845099926E0,-5.301499844E0,-1.125499964E0
1.175399844E1,3.034399986E0,-5.527899742E0,-2.389899969E0
1.177399844E1,2.879099846E0,-2.147099972E0,-4.024600029E0
1.179399844E1,1.801599979E0,2.537400007E0,-3.466899872E0
1.181399844E1,7.332999706E-1,2.035599947E0,-2.843699932E0
1.183399844E1,6.341999769E-1,-3.220599890E0,-2.999699831E0
1.185399844E1,3.826999962E-1,-5.524899960E0,-2.691900015E0
1.187399844E1,-4.184999764E-1,-4.300499916E0,-1.328099966E0
1.189399844E1,-1.817799926E0,-2.000000000E0,-5.636999607E-1
1.191400000E1,-2.874799967E0,-1.268299937E0,5.593000054E-1
1.194399844E1,-3.736500025E0,-3.150000051E-2,3.027799845E0
1.196401719E1,-5.905099869E0,-1.548999995E-1,8.692899704E0
1.199399844E1,-3.452399969E0,5.046499729E0,1.579699993E0
1.201399844E1,-1.750000000E0,5.349699974E0,1.290099978E0
1.203399844E1,-1.108699918E0,4.575200081E0,1.246099949E0
1.205400000E1,-7.931999564E-1,3.757099867E0,9.321999550E-1
1.208400000E1,-8.542999625E-1,3.576999903E0,9.872999787E-1
1.210400000E1,-7.328999639E-1,3.217700005E0,1.626799941E0
1.212400000E1,-4.236999750E-1,2.372999907E0,2.000099897E0
1.215399844E1,2.446999997E-1,7.311999798E-1,2.099099874E0
1.217399844E1,8.454999924E-1,-5.435000062E-1,1.497900009E0
1.219399844E1,1.979299903E0,-1.813699961E0,3.889999911E-2
1.221399844E1,4.191400051E0,-3.934199810E0,-3.412199974E0
1.223399844E1,4.037300110E0,-3.501299858E0,-7.996999741E0
1.225399844E1,4.020999908E0,-1.993499994E0,-9.702199936E0
1.227399844E1,3.167299986E0,-7.383999825E-1,-6.784299850E0
1.229399844E1,3.990199804E0,1.717000008E-1,-3.090899944E0
1.231399844E1,8.057000041E-1,-7.179999948E-1,2.527699947E0
1.233399844E1,-1.728199959E0,-3.056900024E0,4.930099964E0
1.235399844E1,-4.737799644E0,-3.065699816E0,1.665899992E0
1.237399844E1,-5.028800011E0,-3.362999856E-1,-4.671999812E-1
1.239399844E1,-3.411700010E0,-3.452899933E0,3.130599976E0
1.241399844E1,-8.978999853E-1,-6.100299835E0,2.566400051E0
1.243399844E1,-7.439000010E-1,-5.464200020E0,2.673099995E0
1.245399844E1,-3.439999819E-1,-3.521499872E0,2.080800056E0
1.247399844E1,8.280000091E-2,-1.853399992E0,1.932199955E0
1.249399844E1,5.266000032E-1,-4.475999773E-1,1.520299911E0
1.251399844E1,5.206999779E-1,1.480299950E0,1.137799978E0
1.253399844E1,4.193999767E-1,3.266399860E0,6.692000031E-1
1.255399844E1,2.590000033E-1,4.149499893E0,3.589999974E-1
1.257399844E1,2.301999927E-1,4.502999783E0,-1.078999937E-1
1.259399844E1,5.669999868E-2,4.748199940E0,-2.953000069E-1
1.261399844E1,-1.692000031E-1,5.002299786E0,-2.369999886E-1
1.263399844E1,-3.014999926E-1,5.099299908E0,-1.334999949E-1
1.265399844E1,-4.353999794E-1,4.716599941E0,1.263999939E-1
1.267399844E1,-5.587999821E-1,3.756699800E0,4.211999774E-1
1.269399844E1,-5.821999907E-1,2.661099911E0,5.708999634E-1
1.271399844E1,-4.874999821E-1,1.526499987E0,6.516000032E-1
1.273399844E1,-2.612999976E-1,3.138999939E-1,8.800999522E-1
1.275399844E1,3.172999918E-1,-1.222499967E0,8.740999699E-1
1.277399844E1,9.299999475E-1,-2.906899929E0,8.332999945E-1
1.279399844E1,1.398599982E0,-3.807899952E0,4.939000010E-1
1.281399844E1,1.726799965E0,-3.571699858E0,6.319999695E-2
1.283399844E1,2.049599886E0,-3.422799826E0,-2.836000025E-1
1.285399844E1,2.756399870E0,-4.941199780E0,-5.593999624E-1
1.287399844E1,3.496699810E0,-6.784599781E0,-1.495999932E0
1.289399844E1,3.354300022E0,-4.512399673E0,-3.259999990E0
1.291399844E1,2.464200020E0,1.042599916E0,-3.631799936E0
1.293399844E1,1.558200002E0,3.364399910E0,-3.400599957E0
1.295399844E1,1.392799973E0,-6.574000120E-1,-2.566999912E0
1.297399844E1,4.791999757E-1,-3.993799925E0,-2.497499943E0
1.299399844E1,-4.714999795E-1,-4.408999920E0,-2.008499861E0
1.301399844E1,-1.514099956E0,-2.865299940E0,-9.957000017E-1
1.303399844E1,-2.484499931E0,-1.471099973E0,-1.782999933E-1
1.305399844E1,-3.507999897E0,-9.699999690E-1,8.082000017E-1
1.307399844E1,-6.026599884E0,-1.643000007E0,1.006949997E1
1.309399844E1,-4.700500011E0,9.061999917E-1,1.690299988E0
1.311399844E1,-2.579799891E0,3.478499889E0,1.577299953E0
1.313399844E1,-1.015299916E0,3.958299875E0,1.871999949E-1
1.315399844E1,-1.001999974E0,4.025899887E0,-7.378999591E-1
1.317399844E1,-1.725299954E0,4.727299690E0,7.016999722E-1
1.319399844E1,-2.157899857E0,4.844599724E0,2.434499979E0
1.321399844E1,-2.199399948E0,4.247099876E0,3.409799814E0
1.323399844E1,-1.839199901E0,3.335099936E0,3.488099813E0
1.325399844E1,-1.273199916E0,2.486500025E0,3.435599804E0
1.327399844E1,-6.507999897E-1,1.756500006E0,2.966099977E0
1.329399844E1,1.699999906E-2,1.069100022E0,2.302399874E0
1.331399844E1,6.590999961E-1,-6.389999986E-1,1.600799918E0
1.333399844E1,3.729599953E0,-4.020400047E0,-2.200700045E0
1.335399844E1,5.503499985E0,-5.196899891E0,-1.068639946E1
1.337399844E1,4.138599873E0,-1.250000000E0,-9.640899658E0
1.339399844E1,3.464599848E0,-4.100000020E-3,-6.971099854E0
1.341399844E1,3.276000023E0,6.990999579E-1,-4.588900089E0
1.343399844E1,7.828999758E-1,-9.057999849E-1,4.000499725E0
1.345399844E1,-3.215999901E-1,-3.160799980E0,4.949699879E0
1.347399844E1,-1.230999947E0,-3.360399961E0,4.085999966E0
1.349399844E1,-1.008999944E0,-4.853399754E0,3.287599802E0
1.351399844E1,-3.594999909E-1,-7.660199642E0,2.977799892E0
1.353400469E1,-7.191999555E-1,-6.439099789E0,3.371500015E0
1.356401875E1,-2.708899975E0,-3.122999907E0,9.564199448E0
1.359399844E1,-1.993999928E-1,-1.085799932E0,2.616999865E0
1.361399844E1,-1.588999927E-1,3.208999932E-1,2.444700003E0
1.363399844E1,4.050000012E-2,1.972599983E0,2.264899969E0
1.365399844E1,7.599999756E-2,3.437099934E0,1.938499928E0
1.367399844E1,1.314000040E-1,4.136399746E0,1.465299964E0
1.369399844E1,2.557999790E-1,4.393199921E0,1.038999915E0
1.371399844E1,2.265999913E-1,4.561299801E0,7.455999851E-1
1.373399844E1,2.326999903E-1,4.846499920E0,5.561999679E-1
1.375399844E1,1.930999905E-1,4.837999821E0,5.370999575E-1
1.377399844E1,2.922999859E-1,4.016099930E0,5.956999660E-1
1.379399844E1,4.680999815E-1,2.704799891E0,6.295999885E-1
1.381399844E1,5.424999595E-1,2.021499872E0,5.939999819E-1
1.383399844E1,5.496000051E-1,1.386500001E0,6.315999627E-1
1.385399844E1,7.836999893E-1,-1.405999959E-1,6.620999575E-1
1.387399844E1,1.059800029E0,-1.932999969E0,5.320000052E-1
1.389399844E1,1.480499983E0,-3.097999811E0,3.554999828E-1
1.391399844E1,1.693599939E0,-2.909499884E0,-5.999999866E-2
1.393399844E1,2.108000040E0,-2.712299824E0,-3.804999888E-1
1.395399844E1,2.652699947E0,-3.820199966E0,-9.787999988E-1
1.397399844E1,3.070499897E0,-5.115200043E0,-2.035300016E0
1.399399844E1,3.179399967E0,-5.661000013E-1,-3.120100021E0
1.401399844E1,2.347499847E0,3.738399982E0,-2.424799919E0
1.403399844E1,1.216599941E0,2.591799974E0,-1.689899921E0
1.405399844E1,7.163999677E-1,-2.741499901E0,-2.095399857E0
1.407399844E1,2.044999897E-1,-5.563899994E0,-1.972399950E0
1.409399844E1,-7.119999826E-2,-5.415100098E0,-1.260699987E0
1.411399844E1,-1.067199945E0,-3.512499809E0,-1.010399938E0
1.413399844E1,-2.354300022E0,-2.788800001E0,1.733999997E-1
1.415399844E1,-3.388199806E0,-2.429199934E0,1.635499954E0
1.417399844E1,-3.744499922E0,-2.256500006E0,2.990599871E0
1.419399844E1,-5.282700062E0,-7.342000008E-1,1.652199984E0
1.421399844E1,-2.830499887E0,2.267699957E0,1.700500011E0
1.423399844E1,-9.708999991E-1,2.539399862E0,1.551399946E0
1.425399844E1,-2.928999960E-1,2.604300022E0,3.276000023E-1
1.427399844E1,-3.858000040E-1,3.273699999E0,6.583999991E-1
1.429399844E1,-7.447999716E-1,4.148600101E0,1.626199961E0
1.431399844E1,-8.704999685E-1,4.481199741E0,2.308099985E0
1.433400000E1,-8.751999736E-1,4.353199959E0,2.514899969E0
1.436401719E1,-2.989999950E-1,3.695599794E0,2.013200045E0
1.439399844E1,4.132999778E-1,1.993899941E0,1.406799912E0
1.441399844E1,9.625999928E-1,6.069999933E-1,9.141999483E-1
1.443399844E1,2.246199846E0,-9.177999496E-1,-2.875999808E-1
1.445399844E1,6.908499718E0,-5.083399773E0,-9.896800041E0
1.447399844E1,5.074100018E0,-2.277899981E0,-9.890399933E0
1.449399844E1,3.533699989E0,-3.370999992E-1,-5.292599678E0
1.451399844E1,4.399600029E0,1.159600019E0,-4.235399723E0
1.453399844E1,2.259199858E0,-1.645999998E-1,1.886999965E0
1.455399844E1,-7.766999602E-1,-3.670799971E0,3.881699800E0
1.457399844E1,-2.977799892E0,-5.204499722E0,3.631500006E0
1.459399844E1,-3.083699942E0,-4.663599968E0,2.780200005E0
1.461399844E1,-3.933799982E0,-1.002390003E1,1.508959961E1
1.463399844E1,-2.305799961E0,-7.431499958E0,1.477699995E0
1.465399844E1,-1.259599924E0,-3.909999847E0,2.127199888E0
1.467399844E1,-7.558000088E-1,-2.278899908E0,2.893999815E0
1.469399844E1,-7.899999619E-2,-2.141999960E0,3.249599934E0
1.471399844E1,8.049999923E-2,-3.659999967E-1,2.611999989E0
1.473399844E1,-1.131999940E-1,2.364699841E0,1.895699978E0
1.475399844E1,-2.250999957E-1,4.326799870E0,1.289499998E0
1.477399844E1,-1.191999987E-1,5.012599945E0,9.063999653E-1
1.479399844E1,-1.388999969E-1,5.520699978E0,5.785999894E-1
1.481399844E1,-1.336999983E-1,5.616499901E0,3.824999928E-1
1.483399844E1,-1.840000004E-1,5.467000008E0,2.637999952E-1
1.485399844E1,-3.861999810E-1,5.112699986E0,1.486999989E-1
1.487400000E1,-3.885000050E-1,4.241899967E0,2.495999932E-1
1.489400000E1,-4.394999743E-1,2.922899961E0,5.838999748E-1
1.492399844E1,-3.488000035E-1,1.137699962E0,8.436999917E-1
1.494399844E1,9.329999983E-2,-2.497999966E-1,8.945999742E-1
1.496401719E1,7.569999695E-1,-1.766299963E0,7.739999890E-1
1.499399844E1,1.529899955E0,-3.185699940E0,5.627999902E-1
1.501399844E1,1.951699972E0,-3.125499964E0,1.631999910E-1
1.503399844E1,2.479099989E0,-3.104199886E0,-2.397999913E-1
1.505399844E1,3.162799835E0,-4.014100075E0,-1.091899991E0
1.507399844E1,4.384299755E0,-6.002699852E0,-2.788199902E0
1.509399844E1,4.508599758E0,-3.845299959E0,-4.755399704E0
1.511399844E1,2.644999981E0,1.536299944E0,-4.633500099E0
1.513399844E1,1.425400019E0,1.217999980E-1,-3.799399853E0
1.515399844E1,1.838799953E0,-5.577199936E0,-3.562199831E0
1.517399844E1,1.213999987E0,-6.661699772E0,-2.115799904E0
1.519399844E1,-1.546999961E-1,-4.981100082E0,-9.192999601E-1
1.521399844E1,-1.512599945E0,-3.164599895E0,-3.571999967E-1
1.523399844E1,-2.686699867E0,-2.040199995E0,4.013999999E-1
1.525399844E1,-3.905399799E0,-5.698999763E-1,1.364300013E0
1.527399844E1,-4.973499775E0,1.133999944E0,2.930199862E0
1.529399844E1,-1.070129967E1,1.998099923E0,8.692600250E0
1.531399844E1,-5.603799820E0,5.274799824E0,3.533200026E0
1.533399844E1,-3.737999916E0,7.649600029E0,3.025799990E0
1.535399844E1,-2.937700033E0,8.138299942E0,2.518100023E0
1.537399844E1,-2.556099892E0,6.788499832E0,2.584599972E0
1.539399844E1,-2.044600010E0,5.151000023E0,2.674999952E0
1.541399844E1,-1.078799963E0,3.333699942E0,2.761799812E0
1.543399844E1,-4.723999798E-1,1.855899930E0,2.843899965E0
1.545399844E1,1.543999910E-1,3.707999885E-1,2.860599995E0
1.547399844E1,7.838000059E-1,-1.452199936E0,2.784600019E0
1.549399844E1,1.481899977E0,-2.857899904E0,2.345900059E0
1.551399844E1,2.149099827E0,-3.169799805E0,1.862399936E0
1.553399844E1,3.081499815E0,-3.290599823E0,5.870999694E-1
1.555399844E1,6.112899780E0,-4.125699997E0,-4.940899849E0
1.557399844E1,8.780499458E0,-4.397299767E0,-1.525029945E1
1.559399844E1,5.313999653E0,-9.910999537E-1,-8.503700256E0
1.561399844E1,3.962999821E0,2.307600021E0,-2.713500023E0
1.563399844E1,2.243599892E0,-3.849999979E-2,1.323199987E0
1.565399844E1,5.601999760E-1,-1.229200006E0,3.014799833E0
1.567399844E1,-1.029799938E0,-2.145999908E0,4.078400135E0
1.569399844E1,-1.099799991E0,-4.055500031E0,2.983199835E0
1.571399844E1,-1.078799963E0,-6.165400028E0,2.900099993E0
1.573399844E1,-1.525499940E0,-5.388000011E0,3.760799885E0
1.575399844E1,-1.758999944E0,-2.988799810E0,3.193300009E0
1.577399844E1,-2.623399973E0,-2.157799959E0,7.908899784E0
1.579399844E1,-1.520599961E0,-2.264099836E0,3.004299879E0
1.581399844E1,-1.493999958E0,6.532999873E-1,2.845099926E0
1.583399844E1,-1.518899918E0,2.787099838E0,2.238299847E0
1.585399844E1,-1.232699990E0,3.609799862E0,2.037299871E0
1.587399844E1,-9.448999763E-1,3.885699987E0,1.457899928E0
1.589399844E1,-8.411999941E-1,4.142399788E0,9.441999793E-1
1.591399844E1,-1.107299924E0,4.222700119E0,6.444000006E-1
1.593400000E1,-1.297199965E0,4.264299870E0,5.464999676E-1
1.595400000E1,-1.536999941E0,4.367799759E0,5.586000085E-1
1.597400000E1,-1.662599921E0,4.051499844E0,7.340999842E-1
1.600399844E1,-1.411899924E0,2.467799902E0,1.050999999E0
1.602399844E1,-9.214999676E-1,1.347899914E0,1.044799924E0
1.604399844E1,-5.079999939E-2,-2.919999957E-1,7.944999933E-1
1.606401875E1,8.429999948E-1,-2.347499847E0,4.816999733E-1
1.609399844E1,1.972199917E0,-4.296799660E0,-1.880999953E-1
1.611399844E1,2.371700048E0,-3.844899893E0,-5.238000154E-1
1.613399844E1,3.043999910E0,-3.352499962E0,-1.726699948E0
1.615399844E1,4.854599953E0,-5.958699703E0,-3.008399963E0
1.617399844E1,6.179299831E0,-6.018099785E0,-4.857100010E0
1.619399844E1,4.094200134E0,2.999999821E-1,-5.542699814E0
1.621399844E1,1.633499980E0,3.736599922E0,-4.067100048E0
1.623399844E1,1.330699921E0,1.282999963E-1,-3.225899935E0
1.625399844E1,1.467999935E0,-5.093299866E0,-2.743399858E0
1.627399844E1,6.988999844E-1,-6.346699715E0,-1.549399972E0
1.629399844E1,-5.124999881E-1,-4.295300007E0,-5.903999805E-1
1.631399844E1,-1.720799923E0,-2.478699923E0,-2.017999887E-1
1.633399844E1,-3.350399971E0,-1.347999930E0,3.528999984E-1
1.635399844E1,-4.700500011E0,-2.597999871E-1,1.476799965E0
1.637399844E1,-5.171199799E0,1.256099939E0,3.075799942E0
1.639399844E1,-8.580299377E0,1.794499993E0,1.105949974E1
1.641400000E1,-5.238999844E0,5.283899784E0,2.651799917E0
1.644399844E1,-2.724599838E0,6.354399681E0,2.349499941E0
1.646401719E1,-1.706699967E0,4.999499798E0,2.595700026E0
1.649399844E1,-9.636999965E-1,3.434099913E0,2.095299959E0
1.651399844E1,-1.108999968E0,3.274600029E0,2.214699984E0
1.653399844E1,-9.717999697E-1,3.144599915E0,2.118299961E0
1.655399844E1,-5.701000094E-1,2.324100018E0,1.977599978E0
1.657399844E1,1.621000022E-1,7.071999907E-1,1.648299932E0
1.659399844E1,1.021999955E0,-1.404500008E0,9.281999469E-1
1.661399844E1,3.213199854E0,-3.568300009E0,-6.207000017E-1
1.663399844E1,6.043499947E0,-5.676899910E0,-8.508500099E0
1.665399844E1,4.996699810E0,-2.693300009E0,-9.841099739E0
1.667399844E1,5.415199757E0,-2.089400053E0,-1.128279972E1
1.669399844E1,5.398600101E0,1.291100025E0,-1.048159981E1
1.671399844E1,2.203999907E-1,3.682999909E-1,2.011499882E0
1.673399844E1,-1.030099988E0,-2.694399834E0,3.252399921E0
1.675399844E1,-2.040299892E0,-3.947799921E0,5.015799999E0
1.677399844E1,-2.141399860E0,-4.821099758E0,5.056999683E0
1.679399844E1,-1.671299934E0,-6.527299881E0,5.020299911E0
1.681399844E1,-2.356999874E0,-5.036099911E0,5.056099892E0
1.683399844E1,-2.374300003E0,-2.776299953E0,3.648199797E0
1.685399844E1,-2.945999861E0,-1.800099969E0,1.218799949E0
1.687399844E1,-2.026299953E0,-5.351999998E-1,2.890199900E0
1.689399844E1,-1.447899938E0,2.988999784E-1,3.062299967E0
1.691399844E1,-1.037199974E0,1.565999985E0,2.822099924E0
1.693399844E1,-7.468999624E-1,3.039499998E0,2.279399872E0
1.695399844E1,-6.359999776E-1,3.924399853E0,1.882799983E0
1.697399844E1,-5.371999741E-1,4.279299736E0,1.389199972E0
1.699399844E1,-3.595999777E-1,4.271299839E0,1.082099915E0
1.701399844E1,-2.456000000E-1,4.204400063E0,8.373999596E-1
1.703399844E1,-1.420999914E-1,4.001100063E0,6.773999929E-1
1.705399844E1,1.469999924E-2,3.464799881E0,5.238000154E-1
1.707399844E1,1.237999946E-1,2.420300007E0,5.065000057E-1
1.709399844E1,2.366999984E-1,1.180499911E0,5.004000068E-1
1.711399844E1,3.076999784E-1,2.451999933E-1,4.126999974E-1
1.713399844E1,6.297000051E-1,-4.935999811E-1,3.080999851E-1
1.715399844E1,1.111299992E0,-1.653800011E0,2.660999894E-1
1.717399844E1,1.644899964E0,-2.666499853E0,3.219999745E-2
1.719399844E1,2.041399956E0,-3.092599869E0,-3.682999909E-1
1.721399844E1,2.564100027E0,-2.901099920E0,-1.108699918E0
1.723399844E1,3.518599987E0,-3.201099873E0,-2.020499945E0
1.725399844E1,4.921999931E0,-5.052000046E0,-2.898999929E0
1.727399844E1,4.617700100E0,-3.414199829E0,-3.875099897E0
1.729399844E1,3.145900011E0,1.908399940E0,-3.372200012E0
1.731399844E1,2.340800047E0,2.445899963E0,-2.581699848E0
1.733399844E1,2.362599850E0,-2.526299953E0,-2.598599911E0
1.735399844E1,1.782499909E0,-5.696199894E0,-1.910200000E0
1.737399844E1,8.134999871E-1,-5.087699890E0,-7.622999549E-1
1.739399844E1,-3.427999914E-1,-3.438099861E0,-2.229999900E-1
1.741400000E1,-1.411999941E0,-2.475999832E0,3.235999942E-1
1.744399844E1,-3.638099909E0,-7.917999625E-1,6.694999933E-1
1.746401719E1,-5.443799973E0,1.357900023E0,1.781499982E0
1.749399844E1,-8.570599556E0,1.123999953E-1,1.304929924E1
1.751399844E1,-5.980199814E0,5.593999863E0,2.193599939E0
1.753399844E1,-3.812799931E0,6.589499950E0,1.962499976E0
1.755399844E1,-2.660199881E0,5.830599785E0,2.137199879E0
1.757399844E1,-1.904399991E0,4.312799931E0,2.245699883E0
1.759399844E1,-1.282899976E0,3.283399820E0,2.008800030E0
1.761399844E1,-1.052899957E0,2.801199913E0,2.182499886E0
1.763399844E1,-8.549000025E-1,2.060899973E0,2.051300049E0
1.765399844E1,-3.633999825E-1,1.071699977E0,1.874899983E0
1.767399844E1,1.110999957E-1,-3.513000011E-1,1.287099957E0
1.769399844E1,1.023999929E0,-1.723799944E0,9.110999703E-1
1.771399844E1,2.579299927E0,-2.665699959E0,3.989999741E-2
1.773400000E1,6.629600048E0,-5.442199707E0,-6.457599640E0
1.776401875E1,5.167900085E0,-2.362999916E0,-8.917900085E0
1.779399844E1,5.405499935E0,-4.082999825E-1,-8.130800247E0
1.781399844E1,2.383100033E0,1.725600004E0,5.541999936E-1
1.783399844E1,1.007200003E0,-3.368999958E-1,2.566699982E0
1.785399844E1,3.130000085E-2,-1.589199901E0,4.491600037E0
1.787399844E1,-6.057999730E-1,-3.651599884E0,3.688099861E0
1.789399844E1,-7.786999941E-1,-6.039899826E0,3.051899910E0
1.791399844E1,-1.307699919E0,-6.507799625E0,3.156299829E0
1.793399844E1,-2.220299959E0,-4.249700069E0,3.817699909E0
1.795399844E1,-4.767299652E0,-3.357899904E0,1.313099980E0
1.797399844E1,-1.956799984E0,-1.588899970E0,2.289299965E0
1.799399844E1,-1.714499950E0,-6.947999597E-1,2.992100000E0
1.801399844E1,-1.479200006E0,7.814999819E-1,2.500099897E0
1.803399844E1,-1.310699940E0,2.183799982E0,2.240599871E0
1.805399844E1,-1.307500005E0,3.298899889E0,1.682799935E0
1.807399844E1,-1.150900006E0,4.087899685E0,9.124999642E-1
1.809399844E1,-1.085899949E0,4.512000084E0,3.971999884E-1
1.811399844E1,-1.182299972E0,4.797199726E0,2.043000013E-1
1.813399844E1,-1.196900010E0,4.661200047E0,1.588999927E-1
1.815399844E1,-1.179299951E0,4.027400017E0,1.479000002E-1
1.817399844E1,-1.120499969E0,3.257499933E0,2.917000055E-1
1.819399844E1,-9.178999662E-1,2.402499914E0,4.264999926E-1
1.821399844E1,-4.048999846E-1,1.215899944E0,4.095999897E-1
1.823399844E1,4.626999795E-1,-2.446999997E-1,2.917000055E-1
1.825399844E1,1.228999972E0,-1.814799905E0,1.131999940E-1
1.827399844E1,1.868999958E0,-2.896499872E0,-2.554999888E-1
1.829399844E1,2.359099865E0,-2.801599979E0,-7.989000082E-1
1.831399844E1,2.775099993E0,-2.216699839E0,-1.258099914E0
1.833400000E1,3.978499889E0,-3.209599972E0,-1.949199915E0
1.836401719E1,5.404999733E0,-5.470099926E0,-3.887399912E0
1.839399844E1,2.894799948E0,2.048500061E0,-3.828799963E0
1.841399844E1,2.390300035E0,1.421999931E0,-3.281699896E0
1.843399844E1,2.684299946E0,-3.852799892E0,-3.517499924E0
1.845399844E1,2.142999887E0,-5.582200050E0,-2.024399996E0
1.847399844E1,1.034199953E0,-4.292500019E0,-9.995999932E-1
1.849399844E1,-1.740000024E-2,-3.434999943E0,-6.822999716E-1
1.851399844E1,-1.200399995E0,-2.979199886E0,7.109999657E-2
1.853399844E1,-2.503700018E0,-2.625499964E0,1.777099967E0
1.855399844E1,-3.911999941E0,-1.631500006E0,3.279500008E0
1.857399844E1,-9.129699707E0,-1.079200029E0,3.630499840E0
1.859399844E1,-7.146599770E0,3.579499960E0,2.754499912E0
1.861399844E1,-5.277800083E0,5.895599842E0,3.475899935E0
1.863399844E1,-3.686100006E0,5.639599800E0,3.660799980E0
1.865399844E1,-2.373399973E0,4.821700096E0,3.386899948E0
1.867399844E1,-1.664399981E0,3.878299952E0,2.450299978E0
1.869399844E1,-1.499400020E0,3.081499815E0,1.819399953E0
1.871399844E1,-1.333499908E0,3.127499819E0,1.390799999E0
1.873399844E1,-1.085500002E0,3.236699820E0,1.162199974E0
1.875399844E1,-7.020999789E-1,2.705099821E0,1.041999936E0
1.877399844E1,-1.179999951E-2,1.150799990E0,1.012799978E0
1.879399844E1,1.245899916E0,-5.816999674E-1,5.080000162E-1
1.881399844E1,2.519799948E0,-2.171399832E0,5.790000036E-2
1.883399844E1,6.879600048E0,-4.888700008E0,-6.999599934E0
1.885399844E1,6.202600002E0,-3.609999895E0,-1.162529945E1
1.887399844E1,4.724999905E0,-6.660999656E-1,-8.993199348E0
1.889399844E1,4.421400070E0,3.336099863E0,-4.791500092E0
1.891400000E1,2.793900013E0,2.629400015E0,-5.651999712E-1
1.894399844E1,8.891999722E-1,-4.927299976E0,5.251599789E0
1.896401719E1,-1.216199994E0,-5.025099754E0,4.280200005E0
1.899399844E1,-2.115499973E0,-3.557899952E0,2.698400021E0
1.901399844E1,-4.300099850E0,-8.474499702E0,1.597239971E1
1.903399844E1,-1.851599932E0,-5.789199829E0,9.756000042E-1
1.905399844E1,-9.418999553E-1,-3.529500008E0,1.886099935E0
1.907399844E1,-7.034999728E-1,-1.471300006E0,2.674999952E0
1.909400000E1,-1.039999947E-1,-1.076499939E0,3.160199881E0
1.912399844E1,-1.423999965E-1,6.150999665E-1,2.520799875E0
1.914399844E1,-3.051999807E-1,2.780499935E0,1.996099949E0
1.916401719E1,-3.427000046E-1,3.835699797E0,1.497599959E0
1.919399844E1,-9.939999878E-2,3.763099909E0,8.429999948E-1
1.921399844E1,-1.329999976E-2,3.840099812E0,8.007999659E-1
1.923399844E1,-8.339999616E-2,4.293399811E0,7.462999821E-1
1.925399844E1,-6.379999965E-2,4.408099651E0,7.188000083E-1
1.927399844E1,-2.999999851E-4,3.753000021E0,5.054000020E-1
1.929399844E1,1.275999993E-1,2.811399937E0,3.595999777E-1
1.931399844E1,2.355999947E-1,1.829599977E0,3.046000004E-1
1.933399844E1,4.229999781E-1,7.278999686E-1,2.890000045E-1
1.935399844E1,7.795000076E-1,-2.673999965E-1,2.060000002E-1
1.937399844E1,1.213799953E0,-1.175799966E0,1.281999946E-1
1.939399844E1,1.551999927E0,-2.026299953E0,-1.327999979E-1
1.941399844E1,1.752099991E0,-2.062000036E0,-5.776999593E-1
1.943399844E1,2.001399994E0,-1.892599940E0,-1.021000028E0
1.945399844E1,2.619499922E0,-2.887399912E0,-1.931499958E0
1.947399844E1,3.410099983E0,-4.323499680E0,-3.335199833E0
1.949399844E1,3.011699915E0,-3.311599970E0,-4.576999664E0
1.951399844E1,1.643499970E0,2.999999851E-4,-3.976300001E0
1.953399844E1,1.109399915E0,-6.723999977E-1,-3.682999849E0
1.955399844E1,1.441200018E0,-3.880800009E0,-2.797099829E0
1.957399844E1,7.886999846E-1,-4.665999889E0,-1.295199990E0
1.959399844E1,-1.290999949E-1,-4.826999664E0,2.259999886E-2
1.961399844E1,-1.052099943E0,-3.865899801E0,8.589999676E-1
1.963399844E1,-2.214400053E0,-3.149600029E0,1.836799979E0
1.965399844E1,-3.696599960E0,-2.484999895E0,3.564399958E0
1.967399844E1,-7.148099899E0,-5.038199902E0,1.125739956E1
1.969399844E1,-6.704299927E0,1.804499984E0,2.330100060E0
1.971399844E1,-4.778899670E0,4.491399765E0,2.835599899E0
1.973399844E1,-3.136799812E0,4.911799908E0,2.841199875E0
1.975399844E1,-2.062099934E0,4.843199730E0,2.398699999E0
1.977399844E1,-1.775399923E0,5.030499935E0,2.049700022E0
1.979399844E1,-1.803799987E0,5.003299713E0,1.549699903E0
1.981399844E1,-1.804499984E0,4.703299999E0,1.440299988E0
1.983399844E1,-1.592700005E0,4.145499706E0,1.308699965E0
1.985399844E1,-1.024399996E0,2.906100035E0,1.279099941E0
1.987400000E1,2.789999917E-2,1.383499980E0,1.246699929E0
1.990399844E1,1.462799907E0,-8.143999577E-1,9.528999925E-1
1.992400000E1,2.348299980E0,-1.830999970E0,5.375999808E-1
1.995399844E1,5.597199917E0,-3.380499840E0,-4.127699852E0
1.997399844E1,5.825099945E0,-2.215299845E0,-8.524299622E0
1.999399844E1,4.850399971E0,3.208000064E-1,-8.846399307E0
2.001399844E1,4.313199997E0,1.949199915E0,-6.241299629E0
2.003399844E1,3.098099947E0,4.429000020E-1,1.180000007E-1
2.005399844E1,3.098699808E0,-4.266699791E0,2.471699953E0
2.007399844E1,9.454999566E-1,-5.270400047E0,4.076799870E0
2.009399844E1,-1.289199948E0,-3.167899847E0,2.875999928E0
2.011399844E1,-1.648999929E0,-2.536599874E0,2.098599911E0
2.013399844E1,-1.179700017E0,-4.747900009E0,2.938799858E0
2.015399844E1,-3.456300020E0,-5.984499931E0,4.135799885E0
2.017399844E1,-1.630399942E0,-2.867599964E0,1.727999926E0
2.019399844E1,-4.791999757E-1,-1.283299923E0,2.577899933E0
2.021399844E1,3.140999973E-1,-2.297499895E0,3.097999811E0
2.023399844E1,2.739000022E-1,-1.152400017E0,2.882400036E0
2.025399844E1,-1.234999970E-1,1.386399984E0,2.491699934E0
2.027399844E1,-2.022999972E-1,2.762500048E0,1.719200015E0
2.029399844E1,-2.011999935E-1,2.940099955E0,1.497799993E0
2.031399844E1,-1.586999893E-1,3.352999926E0,1.073199987E0
2.033399844E1,-1.817999929E-1,3.728399992E0,7.045999765E-1
2.035399844E1,-1.140999943E-1,3.685199976E0,5.773000121E-1
2.037399844E1,-3.149999976E-1,3.987799883E0,5.072999597E-1
2.039399844E1,-4.676999748E-1,4.086299896E0,3.506000042E-1
2.041400000E1,-6.211999655E-1,3.605999947E0,2.949999869E-1
2.044399844E1,-6.636999846E-1,2.380800009E0,1.292999983E-1
2.046401719E1,-6.480000019E-1,1.692699909E0,1.125999987E-1
2.049399844E1,-5.327000022E-1,1.158000007E-1,1.669999957E-2
2.051400313E1,4.559999704E-2,-1.492499948E0,-1.709000021E-1
2.054399844E1,1.151499987E0,-3.040499926E0,-5.259999633E-1
2.056401875E1,1.782299995E0,-2.992899895E0,-1.086199999E0
2.059399844E1,3.266399860E0,-5.011399746E0,-2.812999964E0
2.061399844E1,3.993599892E0,-6.898999691E0,-4.720499992E0
2.063399844E1,2.343400002E0,-1.769699931E0,-4.388700008E0
2.065399844E1,1.032500029E0,1.876699924E0,-3.041100025E0
2.067399844E1,1.019099951E0,-1.373399973E0,-2.055999994E0
2.069399844E1,6.079999804E-1,-4.561599731E0,-1.083400011E0
2.071399844E1,9.690000117E-2,-5.328899860E0,-1.915999949E-1
2.073399844E1,-9.641999602E-1,-3.582799911E0,1.680999994E-1
2.075399844E1,-2.254099846E0,-1.945499897E0,1.329499960E0
2.077399844E1,-3.449100018E0,-9.183999896E-1,2.069099903E0
2.079399844E1,-4.100999832E0,1.229999959E-1,3.203699827E0
2.081399844E1,-5.627599716E0,7.119999826E-2,7.672299862E0
2.083399844E1,-3.781899929E0,3.985299826E0,2.227299929E0
2.085399844E1,-2.338299990E0,4.829400063E0,1.516699910E0
2.087399844E1,-1.526099920E0,4.579299927E0,1.222399950E0
2.089399844E1,-1.528499961E0,4.449999809E0,1.166700006E0
2.091399844E1,-1.558799982E0,4.373399734E0,1.648499966E0
2.093399844E1,-1.640299916E0,3.996799946E0,2.005599976E0
2.095399844E1,-1.490599990E0,3.424599886E0,2.396800041E0
2.097399844E1,-1.273999929E0,2.815899849E0,2.585799932E0
2.099399844E1,-7.781999707E-1,1.966599941E0,2.578299999E0
2.101399844E1,-1.002999991E-1,9.307000041E-1,2.304800034E0
2.103399844E1,4.902999997E-1,-1.185999960E-1,1.815799952E0
2.105399844E1,1.444199920E0,-1.270699978E0,1.293299913E0
2.107399844E1,3.426100016E0,-3.175299883E0,-7.210999727E-1
2.109399844E1,6.347599983E0,-5.386799812E0,-1.057069969E1
2.111399844E1,5.177599907E0,-2.262799978E0,-1.252719975E1
2.113399844E1,4.307099819E0,-4.535000026E-1,-9.170499802E0
2.115399844E1,2.419800043E0,1.686699986E0,-3.214399815E0
2.117399844E1,7.534999847E-1,-1.227599978E0,3.540599823E0
2.119400000E1,-1.151299953E0,-3.978999853E0,6.765399933E0
2.122399844E1,-1.806699991E0,-3.249699831E0,4.296400070E0
2.124399844E1,-5.220299721E0,-4.465600014E0,1.363140011E1
2.126401719E1,-1.864199996E0,-2.575500011E0,-1.722999960E-1
2.129399844E1,-2.325999886E-1,-4.146199703E0,1.870099902E0
2.131399844E1,1.081999987E-1,-3.263999939E0,2.123600006E0
2.133399844E1,6.090999842E-1,-2.722399950E0,2.600999832E0
2.135399844E1,8.789999485E-1,-2.334800005E0,2.298300028E0
2.137399844E1,8.086999655E-1,-5.709999800E-1,1.616699934E0
2.139399844E1,4.766999781E-1,1.766600013E0,1.151000023E0
2.141399844E1,3.804999888E-1,2.844399929E0,9.551999569E-1
2.143399844E1,4.708999991E-1,3.164299965E0,5.331000090E-1
2.145399844E1,3.999999762E-1,3.516199827E0,2.443999946E-1
2.147399844E1,1.942999959E-1,4.078999996E0,2.161999941E-1
2.149399844E1,-2.799999900E-3,4.527400017E0,1.932999939E-1
2.151399844E1,-1.719999909E-1,4.545799732E0,1.245999932E-1
2.153399844E1,-3.097999990E-1,3.963699818E0,6.409999728E-2
2.155399844E1,-4.188999832E-1,3.175499916E0,1.518999934E-1
2.157399844E1,-5.392000079E-1,2.348000050E0,1.856999993E-1
2.159399844E1,-3.870999813E-1,1.119300008E0,2.663999796E-1
2.161399844E1,1.351999938E-1,-1.483999938E-1,1.362999976E-1
2.163399844E1,7.637999654E-1,-1.358699918E0,-1.456999928E-1
2.165399844E1,1.388000011E0,-2.158499956E0,-4.132999778E-1
2.167400000E1,1.703299999E0,-2.577499866E0,-6.689999700E-1
2.170399844E1,2.685499907E0,-4.611799717E0,-1.002200007E0
2.172399844E1,3.562799931E0,-7.038699627E0,-2.170099974E0
2.174399844E1,3.234499931E0,-4.093400002E0,-3.019500017E0
2.176401719E1,2.203500032E0,1.212999940E0,-2.147799969E0
2.179399844E1,1.412599921E0,7.565000057E-1,-1.444000006E0
2.181399844E1,1.043300033E0,-3.233799934E0,-1.189999938E0
2.183399844E1,2.834999859E-1,-4.652800083E0,-1.001899958E0
2.185399844E1,-6.065999866E-1,-3.607199907E0,-2.361999899E-1
2.187399844E1,-1.710199952E0,-2.418400049E0,5.755999684E-1
2.189399844E1,-3.016299963E0,-1.481999993E0,1.766899943E0
2.191400000E1,-3.938299894E0,-4.176999927E-1,2.802999973E0
2.193400938E1,-5.634999752E0,3.529999852E-1,2.499899864E0
2.196401719E1,-2.510699987E0,3.231599808E0,1.757599950E0
2.199399844E1,-4.887000024E-1,3.191699982E0,-4.787999988E-1
2.201399844E1,-8.084999919E-1,3.924199820E0,-1.867999882E-1
2.203399844E1,-1.256199956E0,4.629399776E0,1.086499929E0
2.205399844E1,-1.729599953E0,4.638099670E0,2.353699923E0
2.207399844E1,-1.630800009E0,4.091300011E0,2.941699982E0
2.209399844E1,-1.327299953E0,3.262699842E0,2.993999958E0
2.211399844E1,-7.475999594E-1,2.317899942E0,2.744099855E0
2.213399844E1,-1.054999977E-1,1.610199928E0,2.272799969E0
2.215399844E1,4.842000008E-1,6.252999902E-1,1.781099916E0
2.217399844E1,1.291299939E0,-8.050000072E-1,1.380599976E0
2.219399844E1,2.606999874E0,-2.703199863E0,6.579999626E-2
2.221399844E1,7.138599873E0,-5.839299679E0,-1.128509998E1
2.223399844E1,5.710799694E0,-2.455899954E0,-1.271619987E1
2.225399844E1,4.842599869E0,1.539999992E-2,-8.111599922E0
2.227399844E1,3.923799992E0,8.129999638E-1,-2.980399847E0
2.229399844E1,1.517300010E0,-2.404299974E0,4.348499775E0
2.231399844E1,-2.642999887E-1,-4.601599693E0,6.583600044E0
2.233399844E1,-1.511099935E0,-3.819999933E0,4.372499943E0
2.235399844E1,-6.401999950E0,-5.745800018E0,1.218089962E1
2.237399844E1,-2.518299818E0,-2.472199917E0,7.910999656E-1
2.239399844E1,-2.002999932E-1,-4.054599762E0,2.760599852E0
2.241399844E1,1.898999959E-1,-3.826999903E0,2.557899952E0
2.243399844E1,5.335999727E-1,-2.547999859E0,2.462499857E0
2.245399844E1,7.930999994E-1,-1.870399952E0,2.649199963E0
2.247399844E1,7.475999594E-1,-9.946999550E-1,2.072599888E0
2.249399844E1,4.028999805E-1,1.062500000E0,1.410300016E0
2.251400156E1,1.144999936E-1,2.775699854E0,8.486999869E-1
2.254400000E1,-1.019999944E-2,3.313199997E0,4.368000031E-1
2.256401719E1,-7.979999483E-2,3.374699831E0,1.524000019E-1
2.259399844E1,-1.674000025E-1,3.665799856E0,1.894000024E-1
2.261399844E1,-4.382999837E-1,4.072499752E0,1.560000032E-1
2.263399844E1,-6.829999685E-1,4.018300056E0,2.105000019E-1
2.265399844E1,-8.528999686E-1,3.522099972E0,2.825999856E-1
2.267400000E1,-1.017699957E0,2.802299976E0,4.302999973E-1
2.270399844E1,-9.424999952E-1,1.236699939E0,5.552999973E-1
2.272399844E1,-4.502999783E-1,-5.799999833E-2,5.483999848E-1
2.274399844E1,3.810999990E-1,-1.256899953E0,4.687999785E-1
2.276401719E1,1.167899966E0,-1.967199922E0,1.459999941E-2
2.279399844E1,1.767899990E0,-2.169499874E0,-7.565999627E-1
2.281399844E1,2.533399820E0,-3.255100012E0,-1.357499957E0
2.283400000E1,3.498099804E0,-5.938199997E0,-2.053099871E0
2.285400000E1,3.322399855E0,-3.836299896E0,-2.871999979E0
2.288400000E1,1.759899974E0,1.930899978E0,-2.537999868E0
2.291400000E1,1.250699997E0,-2.545199871E0,-2.591500044E0
2.294399844E1,-1.099999994E-1,-4.195799828E0,-1.718699932E0
2.296401719E1,-1.368699908E0,-3.699299812E0,-7.626999617E-1
2.299399844E1,-3.287499905E0,-2.548199892E0,9.249999523E-1
2.301399844E1,-4.257899761E0,-1.866599917E0,2.616899967E0
2.303399844E1,-4.090199947E0,-9.793999791E-1,2.745599985E0
2.305399844E1,-5.141599655E0,1.040099978E0,4.068000019E-1
2.307399844E1,-2.619400024E0,2.363100052E0,-5.582000017E-1
2.309399844E1,-7.326999903E-1,2.885299921E0,-1.669899940E0
2.311399844E1,-7.878999710E-1,3.726199865E0,-3.870999813E-1
2.313399844E1,-1.119099975E0,4.411299706E0,1.684899926E0
2.315399844E1,-1.443399906E0,4.425499916E0,2.979499817E0
2.317399844E1,-1.332599998E0,4.050199986E0,3.192299843E0
2.319399844E1,-1.109799981E0,3.522300005E0,2.728199959E0
2.321399844E1,-8.456999660E-1,2.880300045E0,2.411499977E0
2.323399844E1,-3.137999773E-1,2.360299826E0,1.951200008E0
2.325399844E1,2.996000051E-1,1.373199940E0,1.503000021E0
2.327399844E1,1.184999943E0,-1.141999960E-1,9.921999574E-1
2.329399844E1,2.096699953E0,-1.307899952E0,4.629999995E-1
2.331399844E1,5.440499783E0,-3.648799896E0,-4.408899784E0
2.333399844E1,6.480899811E0,-3.895200014E0,-1.214269924E1
2.335399844E1,4.310100079E0,-6.825999618E-1,-8.861800194E0
2.337399844E1,3.761999846E0,1.142499924E0,-4.204199791E0
2.339399844E1,2.818399906E0,8.720999956E-1,5.453000069E-1
2.341399844E1,1.126099944E0,-2.417399883E0,4.018199921E0
2.343399844E1,-7.644000053E-1,-4.112800121E0,2.239799976E0
2.345399844E1,-2.525300026E0,-2.534299850E0,-8.932999969E-1
2.347399844E1,-2.634099960E0,-7.217999935E0,1.146010017E1
2.349399844E1,-2.205399990E0,-4.663199902E0,2.316799879E0
2.351399844E1,-1.044999957E0,-4.848000050E0,2.518100023E0
2.353399844E1,-4.461999834E-1,-3.211099863E0,2.551599979E0
2.355399844E1,3.236999810E-1,-2.306900024E0,3.009999990E0
2.357399844E1,5.783999562E-1,-1.969199896E0,3.138700008E0
2.359399844E1,3.430999815E-1,-4.425999820E-1,2.270999908E0
2.361399844E1,3.396999836E-1,1.363799930E0,1.408599973E0
2.363399844E1,4.262999892E-1,2.451099873E0,1.231400013E0
2.365399844E1,3.567999899E-1,3.183599949E0,1.121899962E0
2.367399844E1,1.963000000E-1,3.927399874E0,7.989999652E-1
2.369399844E1,2.060000040E-2,4.459000111E0,5.138999820E-1
2.371399844E1,-4.900000058E-3,4.445799828E0,3.488999903E-1
2.373399844E1,-1.153999940E-1,4.297800064E0,2.397999913E-1
2.375399844E1,-1.950999945E-1,4.051499844E0,9.109999985E-2
2.377399844E1,-3.208999932E-1,3.332099915E0,2.398999929E-1
2.379399844E1,-3.127999902E-1,2.063499928E0,4.535999894E-1
2.381399844E1,-1.088999957E-1,8.733999729E-1,4.334999919E-1
2.383399844E1,3.710999787E-1,-2.777999938E-1,3.369999826E-1
2.385399844E1,1.161999941E0,-1.567600012E0,-5.099999718E-3
2.387399844E1,1.798200011E0,-2.466799974E0,-3.157999814E-1
2.389399844E1,2.061199903E0,-2.347199917E0,-5.557000041E-1
2.391399844E1,2.497299910E0,-2.373899937E0,-1.188599944E0
2.393399844E1,3.528199911E0,-4.008800030E0,-2.123399973E0
2.395399844E1,4.180900097E0,-6.546599865E0,-3.927299976E0
2.397399844E1,3.302899837E0,-3.910499811E0,-5.753099918E0
2.399399844E1,1.558599949E0,1.676899910E0,-4.373699665E0
2.401400000E1,1.079599977E0,1.107499957E0,-2.991799831E0
2.403400000E1,8.003999591E-1,-3.455099821E0,-2.348599911E0
2.406401875E1,-2.171999961E-1,-5.784399986E0,-4.957999885E-1
2.409399844E1,-2.290999889E0,-2.449499846E0,2.061100006E0
2.411399844E1,-6.770199776E0,-5.044600010E0,1.275319958E1
2.413399844E1,-5.726500034E0,-2.639999986E-2,1.646999955E0
2.415399844E1,-3.728799820E0,3.887699842E0,2.939399958E0
2.417399844E1,-2.566999912E0,2.875799894E0,5.195499897E0
2.419399844E1,-1.310599923E0,3.850799799E0,2.213700056E0
2.421399844E1,5.703999996E-1,3.106400013E0,-1.124199986E0
2.423399844E1,5.528999567E-1,3.744099855E0,-3.450999975E0
2.425399844E1,-1.031099916E0,5.226399899E0,3.312000036E-1
2.427399844E1,-1.693799973E0,5.083399773E0,2.912299871E0
2.429399844E1,-1.536099911E0,3.907799959E0,3.667999983E0
2.431399844E1,-8.937999606E-1,2.327699900E0,3.633299828E0
2.433399844E1,-9.589999914E-2,9.659000039E-1,2.974200010E0
2.435399844E1,6.373999715E-1,1.889999956E-1,2.295699835E0
2.437399844E1,1.067399979E0,-2.214999944E-1,1.594999909E0
2.439399844E1,1.904500008E0,-1.118799925E0,5.837999582E-1
2.441399844E1,4.619299889E0,-2.760299921E0,-4.127399921E0
2.443399844E1,6.834099770E0,-3.982299805E0,-1.268279934E1
2.445399844E1,4.661699772E0,-9.559999406E-2,-7.282999992E0
2.447399844E1,5.763199806E0,1.823300004E0,-6.358599663E0
2.449399844E1,3.781999826E0,1.343599916E0,-4.199999943E-2
2.451400781E1,2.048599958E0,-2.419399977E0,6.402400017E0
2.454399844E1,-1.435299993E0,-4.817999840E0,5.450900078E0
2.456401719E1,-3.465899944E0,-3.572700024E0,1.672500014E0
2.459399844E1,-1.907799959E0,-5.689899921E0,8.323000073E-1
2.461399844E1,-2.538000047E-1,-6.883999825E0,2.400699854E0
2.463399844E1,-1.925999969E-1,-4.235099792E0,2.393699884E0
2.465399844E1,-2.331999987E-1,-2.159699917E0,2.960399866E0
2.467399844E1,-3.439999819E-1,-1.415599942E0,2.964799881E0
2.469399844E1,-6.459999681E-1,-1.176999956E-1,2.395200014E0
2.471399844E1,-8.303999901E-1,1.815299988E0,1.769099951E0
2.473399844E1,-1.012099981E0,3.512499809E0,1.187999964E0
2.475399844E1,-1.021399975E0,4.318299770E0,7.283999920E-1
2.477399844E1,-1.001699924E0,4.576499939E0,5.105000138E-1
2.479399844E1,-9.803999662E-1,4.678699970E0,2.812999785E-1
2.481399844E1,-1.000599980E0,4.819900036E0,2.311999947E-1
2.483399844E1,-1.180999994E0,4.597700119E0,2.234999985E-1
2.485399844E1,-1.355299950E0,3.738899946E0,2.543999851E-1
2.487400000E1,-1.379299998E0,2.892099857E0,1.428999901E-1
2.490399844E1,-8.768999577E-1,1.569000006E0,9.309999645E-2
2.492399844E1,-8.989999443E-2,4.492999911E-1,-2.009999901E-1
2.494399844E1,8.651999831E-1,-1.251500010E0,-6.561999917E-1
2.496401719E1,1.773499966E0,-3.091799974E0,-1.181100011E0
2.499399844E1,2.634199858E0,-3.864099979E0,-1.656499982E0
2.501399844E1,3.137899876E0,-3.537799835E0,-2.131599903E0
2.503399844E1,4.181299686E0,-5.309999943E0,-3.074999809E0
2.505399844E1,4.677099705E0,-6.122699738E0,-4.279999733E0
2.507399844E1,3.338099957E0,-8.774999976E-1,-3.826399803E0
2.509399844E1,2.054699898E0,1.985599995E0,-3.287099838E0
2.511399844E1,1.822099924E0,-1.288399935E0,-2.973399878E0
2.513400000E1,1.502799988E0,-5.418299675E0,-2.174799919E0
2.516401719E1,-4.690000042E-2,-4.681399822E0,-7.361999750E-1
2.519399844E1,-2.157899857E0,-1.416099906E0,3.571999967E-1
2.521399844E1,-3.972199917E0,-7.305999994E-1,2.022399902E0
2.523400000E1,-6.288300037E0,-2.622499943E0,1.184070015E1
2.525400000E1,-6.711999893E0,1.618999958E0,1.498600006E0
2.528399844E1,-2.965699911E0,5.182600021E0,2.497499943E0
2.530399844E1,-1.652599931E0,4.894099712E0,2.533999920E0
2.532399844E1,-9.178999662E-1,3.835500002E0,1.732199907E0
2.534399844E1,-4.756999910E-1,2.878000021E0,3.522000015E-1
2.536401719E1,-9.192999601E-1,3.539499998E0,2.843999863E-1
2.539399844E1,-1.298099995E0,4.065599918E0,1.777099967E0
2.541399844E1,-7.452999949E-1,3.067799807E0,2.194900036E0
2.543399844E1,5.929999799E-2,1.831399918E0,2.153599977E0
2.545399844E1,9.114999771E-1,4.800999761E-1,1.862800002E0
2.547399844E1,1.679299951E0,-5.388999581E-1,1.458899975E0
2.549399844E1,2.687899828E0,-1.397099972E0,5.670999885E-1
2.551399844E1,4.897099972E0,-2.803099871E0,-3.028999805E0
2.553399844E1,6.999199867E0,-3.075099945E0,-1.289619923E1
2.555399844E1,5.021100044E0,-5.329999700E-2,-1.018959999E1
2.557399844E1,4.618400097E0,7.233999968E-1,-7.779099941E0
2.559399844E1,1.633899927E0,-4.768999815E-1,3.231299877E0
2.561399844E1,5.157999992E-1,-3.031399965E0,5.800199986E0
2.563399844E1,-8.608999848E-1,-4.655699730E0,4.891299725E0
2.565399844E1,-1.409299970E0,-5.127399921E0,4.543999672E0
2.567399844E1,-1.526299953E0,-6.493799686E0,3.119899988E0
2.569399844E1,-2.796599865E0,-7.701999664E0,3.312999904E-1
2.571399844E1,-1.379899979E0,-3.285799980E0,2.656999826E-1
2.573399844E1,-1.023199916E0,-1.176299930E0,2.505399942E0
2.575399844E1,-3.491999805E-1,-1.331699967E0,3.652099848E0
2.577399844E1,-2.280000001E-1,-2.960000001E-2,3.211499929E0
2.579399844E1,-5.185999870E-1,1.896699905E0,2.085500002E0
2.581399844E1,-7.910999656E-1,3.507499933E0,1.146899939E0
2.583399844E1,-6.994999647E-1,4.165800095E0,8.179000020E-1
2.585399844E1,-6.177999973E-1,4.460400105E0,5.352999568E-1
2.587399844E1,-4.584999979E-1,4.588299751E0,2.759000063E-1
2.589399844E1,-3.761000037E-1,4.569799900E0,2.569999993E-1
2.591399844E1,-4.138000011E-1,4.357999802E0,2.313999981E-1
2.593399844E1,-4.160999954E-1,3.775499821E0,1.758999974E-1
2.595399844E1,-3.186999857E-1,2.634699821E0,2.307999879E-1
2.597399844E1,-7.679999620E-2,1.641699910E0,2.208999991E-1
2.599399844E1,1.922999918E-1,7.271999717E-1,1.517999917E-1
2.601399844E1,8.007999659E-1,-7.286999822E-1,6.289999932E-2
2.603399844E1,1.540899992E0,-2.410599947E0,-3.035999835E-1
2.605399844E1,2.186899900E0,-3.427299976E0,-7.289999723E-1
2.607399844E1,2.452800035E0,-3.092000008E0,-1.240499973E0
2.609399844E1,2.818599939E0,-2.688199997E0,-1.569099903E0
2.611399844E1,3.464200020E0,-3.480199814E0,-2.253099918E0
2.613399844E1,4.465699673E0,-5.438799858E0,-3.376699924E0
2.615399844E1,3.611799955E0,-2.849200010E0,-3.611199856E0
2.617399844E1,1.969099998E0,1.729499936E0,-2.904500008E0
2.619399844E1,1.452999949E0,1.012599945E0,-2.972699881E0
2.621399844E1,1.444000006E0,-3.059799910E0,-2.548799992E0
2.623399844E1,1.000200033E0,-5.824100018E0,-1.791599989E0
2.625399844E1,-1.489000022E-1,-4.918200016E0,-1.023299932E0
2.627399844E1,-1.709399939E0,-2.567399979E0,2.410000004E-2
2.629399844E1,-3.257499933E0,-1.054499984E0,1.404799938E0
2.631399844E1,-4.512899876E0,-1.706999987E-1,3.958299875E0
2.633399844E1,-6.775099754E0,4.012999833E-1,2.253900051E0
2.635399844E1,-4.281699657E0,4.129899979E0,2.182499886E0
2.637399844E1,-2.103199959E0,5.270899773E0,1.845699906E0
2.639399844E1,-1.064100027E0,4.598099709E0,1.375199914E0
2.641399844E1,-3.639999777E-2,3.566099882E0,7.759999484E-2
2.643399844E1,-1.248999983E-1,3.405900002E0,-4.544000030E-1
2.645399844E1,-9.606999755E-1,4.179800034E0,1.118999958E0
2.647399844E1,-1.080199957E0,3.811399937E0,1.867199898E0
2.649399844E1,-6.523000002E-1,2.797999859E0,2.139999866E0
2.651399844E1,2.079999894E-1,1.517799973E0,1.990499973E0
2.653399844E1,1.043200016E0,3.838999867E-1,1.645900011E0
2.655399844E1,1.794699907E0,-5.860999823E-1,1.240000010E0
2.657399844E1,2.531199932E0,-1.319800019E0,5.629999638E-1
2.659399844E1,3.823199987E0,-1.980299950E0,-1.058200002E0
2.661399844E1,7.291999817E0,-3.438400030E0,-9.924300194E0
2.663399844E1,6.232699871E0,-1.249199986E0,-1.114869976E1
2.665399844E1,6.111299992E0,9.499999695E-3,-9.311100006E0
2.667399844E1,3.196199894E0,-3.599999845E-2,1.697999984E-1
2.669399844E1,1.083599925E0,-3.328500032E0,5.938199997E0
2.671399844E1,-7.387999892E-1,-5.089600086E0,5.686100006E0
2.673399844E1,-2.470499992E0,-5.050899982E0,4.977200031E0
2.675399844E1,-4.749599934E0,-2.106299877E0,-2.777000070E-1
2.677400000E1,-1.576099992E0,-3.978599787E0,1.307600021E0
2.680399844E1,-2.919999957E-1,-3.894699812E0,2.238499880E0
2.682399844E1,-5.225999951E-1,-1.759899974E0,2.669399977E0
2.684400000E1,-4.828999937E-1,-1.131099939E0,2.588099957E0
2.686401719E1,-3.772999942E-1,-2.996999919E-1,2.383899927E0
2.689399844E1,-7.548999786E-1,2.604300022E0,1.471799970E0
2.691399844E1,-8.635999560E-1,3.445199966E0,1.055799961E0
2.693399844E1,-8.998999596E-1,3.797099829E0,6.851999760E-1
2.695399844E1,-8.549000025E-1,4.043299675E0,2.712000012E-1
2.697399844E1,-9.476999640E-1,4.243899822E0,2.052000016E-1
2.699399844E1,-1.090799928E0,4.289700031E0,2.833999991E-1
2.701399844E1,-1.134199977E0,4.416199684E0,2.775999904E-1
2.703399844E1,-1.122499943E0,4.033199787E0,3.310000002E-1
2.705399844E1,-9.368999600E-1,2.953999996E0,3.348999918E-1
2.707399844E1,-6.297999620E-1,1.481899977E0,2.960000038E-1
2.709399844E1,4.109999910E-2,4.307999909E-1,1.075999960E-1
2.711399844E1,9.122999907E-1,-9.448999763E-1,-9.459999949E-2
2.713400000E1,1.945099950E0,-3.324399948E0,-4.321999848E-1
2.716401719E1,2.739699841E0,-4.254199982E0,-8.684999943E-1
2.719399844E1,3.688399792E0,-2.906999826E0,-1.757599950E0
2.721399844E1,5.239999771E0,-4.519700050E0,-3.212199926E0
2.723399844E1,5.757899761E0,-5.624199867E0,-5.684700012E0
2.725399844E1,3.714399815E0,-3.027299881E0,-5.109399796E0
2.727399844E1,1.489799976E0,2.570499897E0,-4.033199787E0
2.729399844E1,1.069700003E0,2.413899899E0,-2.245499849E0
2.731399844E1,1.459800005E0,-2.042899847E0,-1.320400000E0
2.733399844E1,8.039999604E-1,-5.079799652E0,-7.884999514E-1
2.735399844E1,-3.396999836E-1,-5.217000008E0,-3.099999949E-2
2.737399844E1,-1.642099977E0,-2.437299967E0,1.003999949E0
2.739399844E1,-3.068300009E0,-8.233999610E-1,1.737299919E0
2.741400000E1,-4.035299778E0,-1.463999897E-1,2.922099829E0
2.744399844E1,-5.311299801E0,2.501499891E0,2.421599865E0
2.746401719E1,-3.139199972E0,5.023200035E0,2.475299835E0
2.749399844E1,-1.894299984E0,4.665499687E0,1.688099980E0
2.751399844E1,-1.588899970E0,4.471399784E0,1.234699965E0
2.753399844E1,-1.217399955E0,4.376199722E0,1.216499925E0
2.755399844E1,-1.136799932E0,4.361400127E0,1.304299951E0
2.757400000E1,-1.062999964E0,3.953699827E0,1.580799937E0
2.759400000E1,-6.873999834E-1,2.899099827E0,1.735799909E0
2.761400000E1,-4.309999943E-2,1.678999901E0,2.052099943E0
2.764399844E1,1.102499962E0,-7.889999449E-2,1.805799961E0
2.766401719E1,1.819299936E0,-1.387399912E0,1.413999915E0
2.769399844E1,3.743799925E0,-3.057099819E0,-3.869999945E-1
2.771399844E1,7.974599838E0,-4.967299938E0,-1.210260010E1
2.773399844E1,6.605700016E0,-2.540799856E0,-1.327740002E1
2.775399844E1,5.433399677E0,2.444999963E-1,-9.280599594E0
2.777400000E1,3.515499830E0,1.929999888E-1,-3.225999773E-1
2.780399844E1,1.565999985E0,-5.889800072E0,5.802099705E0
2.782400000E1,-1.381500006E0,-4.940700054E0,4.974699974E0
2.785399844E1,-6.047100067E0,6.371999979E-1,-2.541299820E0
2.787399844E1,-1.794499993E0,-1.640100002E0,-1.001999974E-1
2.789399844E1,3.271999955E-1,-4.842999935E0,3.120299816E0
2.791400000E1,-9.519999474E-2,-4.388299942E0,2.849999905E0
2.794399844E1,-8.779999614E-2,-1.932099938E0,1.820400000E0
2.796401719E1,5.013999939E-1,-1.592399955E0,1.631899953E0
2.799399844E1,3.946000040E-1,3.006999791E-1,1.203099966E0
2.801399844E1,-5.339999869E-2,2.504400015E0,8.323999643E-1
2.803399844E1,-2.716000080E-1,3.459199905E0,5.967999697E-1
2.805400000E1,-3.300999999E-1,3.531599998E0,2.766000032E-1
2.808399844E1,-4.648000002E-1,3.850999832E0,1.775999963E-1
2.810399844E1,-6.500999928E-1,4.293299675E0,1.815999895E-1
2.812399844E1,-8.693000078E-1,4.532099724E0,9.189999849E-2
2.814399844E1,-1.097999930E0,4.152999878E0,-4.509999976E-2
2.816401719E1,-1.191999912E0,3.216599941E0,-6.399999838E-3
2.819399844E1,-1.180699944E0,1.734899998E0,1.928000003E-1
2.821399844E1,-7.360999584E-1,8.305000067E-1,2.358999997E-1
2.823399844E1,1.990000010E-1,-5.248999596E-1,9.629999846E-2
2.825399844E1,1.108500004E0,-2.187700033E0,-1.797999889E-1
2.827399844E1,1.704399943E0,-3.106299877E0,-3.637000024E-1
2.829399844E1,1.991499901E0,-2.906899929E0,-5.665000081E-1
2.831400000E1,2.442699909E0,-2.842700005E0,-9.337999821E-1
2.833400000E1,3.531799793E0,-5.189599991E0,-1.665799975E0
2.835400000E1,4.468699932E0,-6.734799862E0,-2.886099815E0
2.838399844E1,3.184599876E0,-8.041999936E-1,-4.221300125E0
2.840399844E1,2.158599854E0,7.606999874E-1,-3.491699934E0
2.842399844E1,1.311699986E0,-2.716199875E0,-3.105700016E0
2.844399844E1,5.060999990E-1,-4.946399689E0,-2.610100031E0
2.846401719E1,-4.082999825E-1,-4.151700020E0,-1.777599931E0
2.849399844E1,-2.219099998E0,-1.197999954E0,-1.714999974E-1
2.851400625E1,-3.797999859E0,1.184000000E-1,8.912000060E-1
2.854399844E1,-7.938899994E0,-8.445999622E-1,6.899799824E0
2.856401875E1,-6.493999958E0,4.106800079E0,1.871699929E0
2.859399844E1,-3.663800001E0,6.058199883E0,2.077100039E0
2.861399844E1,-2.304100037E0,5.382699966E0,1.593299985E0
2.863400000E1,-1.557500005E0,4.212100029E0,1.302799940E0
2.866401719E1,-1.954800010E0,3.410199881E0,1.357599974E0
2.869399844E1,-2.384799957E0,2.892099857E0,2.595599890E0
2.871400000E1,-1.941399932E0,1.552899957E0,2.595899820E0
2.874399844E1,-7.407999635E-1,-1.375000030E-1,2.055999994E0
2.876401719E1,6.960000098E-2,-1.078099966E0,1.624799967E0
2.879399844E1,1.731400013E0,-2.949999809E0,6.462999582E-1
2.881399844E1,5.516099930E0,-4.955800056E0,-4.254399776E0
2.883400156E1,6.213999748E0,-3.680199862E0,-1.237440014E1
2.886401719E1,4.403999805E0,3.014999926E-1,-8.242899895E0
2.889399844E1,3.855199814E0,-7.459999621E-2,-3.090699911E0
2.891400000E1,1.948699951E0,-3.171399832E0,3.101099968E0
2.894399844E1,-1.123700023E0,-3.352699995E0,4.586400032E0
2.896401875E1,-1.886599898E0,-2.639600039E0,4.033800125E0
2.899399844E1,-1.124099970E0,-4.183700085E0,3.363199949E0
2.901399844E1,-3.053099871E0,-4.110199928E0,4.604599953E0
2.903399844E1,-5.600999594E-1,-3.201499939E0,2.468999922E-1
2.905400000E1,-2.726999819E-1,-1.578099966E0,1.789899945E0
2.908399844E1,1.269000024E-1,-5.494999886E-1,2.592200041E0
2.910399844E1,2.809999883E-1,4.950999916E-1,2.444299936E0
2.912399844E1,6.899999920E-3,2.420500040E0,1.925799966E0
2.914399844E1,7.409999520E-2,3.651899815E0,1.068499923E0
2.916401719E1,1.343999952E-1,3.763499975E0,1.021899939E0
2.919399844E1,-1.867000014E-1,4.310899734E0,4.745999873E-1
2.921399844E1,-3.229999840E-1,4.794699669E0,3.626999855E-1
2.923399844E1,-3.975999951E-1,4.677599907E0,3.213999867E-1
2.925399844E1,-3.805999756E-1,3.988399982E0,3.874000013E-1
2.927399844E1,-2.454999983E-1,2.812399864E0,4.743999839E-1
2.929399844E1,-1.922999918E-1,1.724599957E0,5.338000059E-1
2.931399844E1,-2.078000009E-1,1.164999962E0,6.891999841E-1
2.933399844E1,8.219999820E-2,4.274999797E-1,5.659999847E-1
2.935399844E1,6.579999924E-1,-8.981999755E-1,3.752999902E-1
2.937399844E1,1.527099967E0,-2.530599833E0,5.130000040E-2
2.939399844E1,2.048699856E0,-3.369699955E0,-2.226999998E-1
2.941399844E1,2.298599958E0,-3.316299915E0,-4.257999957E-1
2.943399844E1,2.975899935E0,-3.959699869E0,-7.822999954E-1
2.945399844E1,3.946999788E0,-6.111799717E0,-1.596599936E0
2.947399844E1,3.684299946E0,-4.155699730E0,-3.001600027E0
2.949399844E1,2.563400030E0,1.023800015E0,-3.846199989E0
2.951399844E1,1.544799924E0,2.660399914E0,-3.783199787E0
2.953399844E1,1.208099961E0,-1.078699946E0,-3.687899828E0
2.955400000E1,6.859999895E-1,-4.644000053E0,-3.159399986E0
2.958399844E1,-5.087000132E-1,-4.519299984E0,-1.588699937E0
2.960399844E1,-1.802199960E0,-2.617799997E0,-7.976999879E-1
2.962399844E1,-3.084199905E0,-1.853999972E0,1.240399957E0
2.964399844E1,-3.649999857E0,-1.221899986E0,2.206899881E0
2.966401719E1,-3.336299896E0,3.691000044E-1,2.566900015E0
2.969399844E1,-3.770999908E0,3.537999868E0,1.320400000E0
2.971399844E1,-2.547799826E0,4.746799946E0,1.214999914E0
2.973399844E1,-1.793199897E0,4.735699654E0,1.400900006E0
2.975399844E1,-1.579699993E0,4.487999916E0,1.806800008E0
2.977400000E1,-1.300599933E0,4.055500031E0,2.207099915E0
2.980399844E1,-1.331399918E0,3.198999882E0,2.755499840E0
2.982399844E1,-1.053900003E0,2.654299974E0,2.576699972E0
2.984399844E1,-5.311999917E-1,2.227099895E0,2.312199831E0
2.986401719E1,1.912999898E-1,1.734099984E0,2.091899872E0
2.989399844E1,1.383599997E0,-5.540999770E-1,1.343699932E0
2.991399844E1,2.772699833E0,-2.487499952E0,4.676999748E-1
2.993399844E1,4.565499783E0,-3.522300005E0,-2.352200031E0
2.995399844E1,8.960999489E0,-4.759099960E0,-1.800609970E1
2.997399844E1,5.743199825E0,3.755999804E-1,-9.638500214E0
2.999399844E1,4.871299744E0,2.368599892E0,-5.539799690E0
3.001399844E1,3.419099808E0,-1.248299956E0,3.184399843E0
3.003399844E1,1.775399923E0,-4.146800041E0,5.552799702E0
3.005399844E1,-1.352999955E-1,-4.336699963E0,4.207200050E0
3.007399844E1,-4.968999863E0,-8.283499718E0,1.087220001E1
3.009399844E1,-3.519699812E0,-2.180399895E0,3.061999977E-1
3.011400000E1,-4.917999804E-1,-4.298299789E0,2.901000023E0
3.013400000E1,-2.574999928E-1,-3.589399815E0,2.940099955E0
3.016401719E1,-4.894999862E-1,-2.536999941E0,2.311399937E0
3.019399844E1,-1.811999977E-1,-2.625000000E0,2.664199829E0
3.021399844E1,-3.755999804E-1,-3.064999878E-1,2.223700047E0
3.023399844E1,-6.475999951E-1,2.013000011E0,1.654500008E0
3.025399844E1,-7.501999736E-1,2.964900017E0,1.270799994E0
3.027399844E1,-6.552000046E-1,3.033099890E0,8.973000050E-1
3.029399844E1,-6.452999711E-1,3.327699900E0,5.042999983E-1
3.031399844E1,-6.865999699E-1,3.968099833E0,1.731999964E-1
3.033400469E1,-6.474999785E-1,4.503200054E0,-7.129999995E-2
3.036401719E1,-6.966999769E-1,3.815699816E0,-4.091999829E-1
3.039399844E1,-5.783999562E-1,2.274099827E0,-5.087999701E-1
3.041399844E1,-5.623999834E-1,2.202299833E0,-3.342999816E-1
3.043399844E1,-3.321999907E-1,2.088299990E0,-1.209999993E-1
3.045399844E1,2.933000028E-1,1.240499973E0,6.639999896E-2
3.047399844E1,1.339800000E0,-2.936999798E-1,4.759999737E-2
3.049399844E1,2.236299992E0,-1.722399950E0,-2.135999948E-1
3.051399844E1,2.705199957E0,-1.964899898E0,-6.777999997E-1
3.053399844E1,2.862200022E0,-1.530399919E0,-1.071900010E0
3.055399844E1,3.372900009E0,-1.781699896E0,-1.714999914E0
3.057399844E1,4.231899738E0,-3.652899981E0,-2.658999920E0
3.059399844E1,4.097199917E0,-4.135799885E0,-3.955299854E0
3.061399844E1,2.238299847E0,-8.069999516E-2,-3.537299871E0
3.063399844E1,1.044899940E0,2.036399841E0,-2.736899853E0
3.065399844E1,1.384199977E0,-8.849999905E-1,-2.579999924E0
3.067400000E1,1.251299977E0,-4.455899715E0,-3.036700010E0
3.070400000E1,-1.821999997E-1,-4.574199677E0,-2.041199923E0
3.073399844E1,-2.242899895E0,-3.937399864E0,-4.101999998E-1
3.075399844E1,-4.067500114E0,-4.217400074E0,8.205999732E-1
3.077399844E1,-7.071399689E0,-8.911099434E0,1.029640007E1
3.079399844E1,-8.098199844E0,-3.136999905E-1,-4.529999793E-1
3.081399844E1,-4.774799824E0,3.191399813E0,2.990900040E0
3.083399844E1,-2.461199999E0,3.371799946E0,2.698299885E0
3.085399844E1,-6.556999683E-1,1.949000001E0,1.837299943E0
3.087399844E1,-1.539999992E-1,2.372299910E0,2.020999938E-1
3.089399844E1,-6.473999619E-1,3.600799799E0,8.479999751E-2
3.091399844E1,-1.117799997E0,4.335099697E0,8.398999572E-1
3.093399844E1,-1.124199986E0,4.345200062E0,1.405799985E0
3.095399844E1,-7.238000035E-1,3.951599836E0,1.661199927E0
3.097399844E1,-1.928000003E-1,3.677899837E0,1.574000001E0
3.099399844E1,2.919999957E-1,3.441499949E0,1.601300001E0
3.101399844E1,9.497999549E-1,2.505899906E0,1.535300016E0
3.103399844E1,1.479699969E0,1.568099976E0,1.475700021E0
3.105399844E1,2.174299955E0,3.610000014E-1,1.082099915E0
3.107399844E1,2.759999990E0,-3.756999969E-1,4.939999804E-2
3.109399844E1,3.678900003E0,-8.488000035E-1,-1.982599974E0
3.111399844E1,9.917799950E0,-4.567599773E0,-2.133689880E1
3.113399844E1,4.209599972E0,-5.593999624E-1,-4.914700031E0
3.115399844E1,2.681599855E0,-9.079999477E-2,1.590699911E0
3.117399844E1,2.185299873E0,-3.318300009E0,5.209199905E0
3.119399844E1,6.710000038E-1,-4.265999794E0,3.715199947E0
3.121399844E1,-1.317699909E0,-3.739599943E0,6.480999589E-1
3.123399844E1,-4.344899654E0,-3.773999929E0,-6.509000063E-1
3.125399844E1,-1.624699950E0,-5.818599701E0,7.588999867E-1
3.127400000E1,5.619999766E-2,-5.294300079E0,3.315199852E0
3.130399844E1,-2.992999852E-1,-2.935799837E0,2.897099972E0
3.132399844E1,-5.166000128E-1,-2.779799938E0,2.387699842E0
3.134399844E1,-4.427999854E-1,-2.814999819E0,2.023200035E0
3.136401719E1,-2.793999910E-1,-1.288499951E0,1.377599955E0
3.139399844E1,-4.694999754E-1,2.138299942E0,7.077999711E-1
3.141400000E1,-5.126999617E-1,3.131500006E0,6.775999665E-1
3.144399844E1,-7.231000066E-1,3.590600014E0,1.441999972E-1
3.146401875E1,-7.595999837E-1,4.040400028E0,-1.383000016E-1
3.149399844E1,-1.019600034E0,4.726900101E0,-1.064999998E-1
3.151399844E1,-1.228999972E0,4.708899975E0,-1.833999902E-1
3.153399844E1,-1.300799966E0,4.201900005E0,-3.743999898E-1
3.155399844E1,-1.203499913E0,3.685999870E0,-5.392000079E-1
3.157399844E1,-9.772999883E-1,3.033499956E0,-6.316999793E-1
3.159399844E1,-1.885999888E-1,1.607199907E0,-6.935999990E-1
3.161399844E1,8.399999738E-1,-4.574999809E-1,-6.818999648E-1
3.163399844E1,2.005899906E0,-2.385499954E0,-7.851999998E-1
3.165399844E1,2.777999878E0,-2.746099949E0,-9.635999799E-1
3.167399844E1,2.962699890E0,-2.048899889E0,-1.204299927E0
3.169399844E1,3.312199831E0,-2.331899881E0,-1.624699950E0
3.171399844E1,4.473700047E0,-4.556799889E0,-2.465999842E0
3.173399844E1,5.375099659E0,-6.803999901E0,-4.022999763E0
3.175399844E1,3.803299904E0,-2.806200027E0,-3.985999823E0
3.177399844E1,1.916499972E0,1.469099998E0,-2.958299875E0
3.179399844E1,1.404299974E0,3.447999954E-1,-2.535899878E0
3.181399844E1,1.260800004E0,-3.164499998E0,-2.260400057E0
3.183399844E1,3.533999920E-1,-5.464900017E0,-1.895999908E0
3.185399844E1,-1.007900000E0,-4.556299686E0,-1.259899974E0
3.187399844E1,-2.848700047E0,-3.057699919E0,-1.357000023E-1
3.189399844E1,-4.921000004E0,-2.104199886E0,1.309799910E0
3.191400000E1,-1.130859947E1,-5.010499954E0,4.588399887E0
3.193401875E1,-7.027400017E0,2.989199877E0,2.184000015E0
3.196401719E1,-3.141999960E0,5.346399784E0,3.097999811E0
3.199399844E1,-1.137399912E0,4.038099766E0,2.199199915E0
3.201399844E1,-8.947999477E-1,3.957999945E0,1.296299934E0
3.203399844E1,-7.246999741E-1,3.958999872E0,9.128999710E-1
3.205399844E1,-4.083999991E-1,3.563199997E0,1.075500011E0
3.207399844E1,-1.671999991E-1,2.927799940E0,1.451599956E0
3.209399844E1,3.050999939E-1,2.124500036E0,1.761999965E0
3.211399844E1,8.751999736E-1,1.357999921E0,1.880699992E0
3.213399844E1,1.459199905E0,7.386999726E-1,1.771499991E0
3.215399844E1,1.898599982E0,2.863999903E-1,1.641699910E0
3.217399844E1,2.200299978E0,2.154999971E-1,1.535699964E0
3.219399844E1,2.818599939E0,-8.324999809E-1,9.462999701E-1
3.221399844E1,3.499300003E0,-2.161999941E0,-4.386999905E-1
3.223399844E1,6.007599831E0,-3.334599972E0,-7.379399776E0
3.225399844E1,7.832999706E0,-2.543200016E0,-1.512869930E1
3.227399844E1,3.133299828E0,8.216999769E-1,-1.508799911E0
3.229399844E1,2.736899853E0,-2.811499834E0,4.114599705E0
3.231399844E1,9.907999635E-1,-3.814199924E0,4.771399975E0
3.233399844E1,-1.487499952E0,-2.532699823E0,3.481099844E0
3.235399844E1,-2.002399921E0,-3.073099852E0,2.254099846E0
3.237399844E1,-4.648600101E0,-6.358099937E0,4.949199677E0
3.239399844E1,-1.712299943E0,-6.800199986E0,6.814999580E-1
3.241399844E1,-1.967299938E0,-2.863799810E0,4.295700073E0
3.243399844E1,-5.590000153E-1,-9.368999600E-1,1.903999925E0
3.245399844E1,-6.899999827E-2,-1.369799972E0,2.660199881E0
3.247399844E1,-2.075999975E-1,-3.572999835E-1,2.118000031E0
3.249399844E1,-4.129000008E-1,2.140699863E0,1.811699986E0
3.251399844E1,-4.235999882E-1,3.417899847E0,1.402799964E0
3.253399844E1,-3.341999948E-1,4.073999882E0,8.650999665E-1
3.255399844E1,-2.890999913E-1,4.491899967E0,3.147999942E-1
3.257399844E1,-2.151999921E-1,4.731599808E0,-6.329999864E-2
3.259399844E1,-3.228999972E-1,4.665800095E0,-2.181999981E-1
3.261399844E1,-2.453999966E-1,4.022399902E0,-4.127999842E-1
3.263399844E1,-1.568000019E-1,3.075999975E0,-3.811999857E-1
3.265399844E1,-1.624999940E-1,2.531800032E0,-3.652999997E-1
3.267399844E1,-3.184999824E-1,2.203099966E0,-2.730999887E-1
3.269399844E1,-2.872999907E-1,1.462599993E0,-2.549999952E-1
3.271399844E1,9.839999676E-2,-1.298999935E-1,-4.274999797E-1
3.273399844E1,7.281000018E-1,-2.204099894E0,-6.987000108E-1
3.275399844E1,1.621799946E0,-3.522899866E0,-9.163999557E-1
3.277399844E1,2.299799919E0,-3.332299948E0,-9.772999883E-1
3.279399844E1,2.796499968E0,-3.151700020E0,-1.287599921E0
3.281399844E1,3.608500004E0,-4.127399921E0,-1.913999915E0
3.283399844E1,4.429899693E0,-5.604199886E0,-2.878799915E0
3.285399844E1,3.360599995E0,-8.661999702E-1,-2.783799887E0
3.287400000E1,1.939299941E0,3.036199808E0,-2.727900028E0
3.290399844E1,1.397599936E0,-1.469499946E0,-1.852199912E0
3.292399844E1,9.460999966E-1,-4.557099819E0,-1.926899910E0
3.294400000E1,5.869999900E-2,-5.099799633E0,-9.202999473E-1
3.296401719E1,-1.316599965E0,-3.679699898E0,-3.655000031E-1
3.299400000E1,-7.451299667E0,-6.603499889E0,5.830399990E0
3.302399844E1,-5.512099743E0,2.079999924E0,2.386299849E0
3.304400000E1,-4.025399685E0,3.006199837E0,2.449899912E0
3.306401875E1,-1.953699946E0,3.065999985E0,2.285199881E0
3.309399844E1,5.703999996E-1,2.971299887E0,-1.896899939E0
3.311399844E1,-7.764999866E-1,4.375599861E0,-1.313799977E0
3.313399844E1,-1.760499954E0,5.084499836E0,1.171399951E0
3.315399844E1,-2.010599852E0,4.537300110E0,2.544600010E0
3.317399844E1,-1.622499943E0,3.424199820E0,3.107299805E0
3.319399844E1,-1.106899977E0,2.513399839E0,2.892699957E0
3.321399844E1,-3.446999788E-1,1.735299945E0,2.440500021E0
3.323399844E1,6.107999682E-1,9.620999694E-1,2.070800066E0
3.325399844E1,1.182299972E0,2.960000038E-1,1.325099945E0
3.327400000E1,1.959100008E0,-6.830999851E-1,7.974999547E-1
3.330399844E1,4.265599728E0,-2.650699854E0,-2.735299826E0
3.332399844E1,8.438599586E0,-4.210000038E0,-1.638559914E1
3.334399844E1,5.197700024E0,1.370999962E-1,-7.706899643E0
3.336401719E1,4.432300091E0,3.464999795E-1,-1.788100004E0
3.339399844E1,3.574100018E0,-5.355299950E0,3.673899889E0
3.341399844E1,1.456999928E-1,-3.835199833E0,2.145900011E0
3.343399844E1,-4.502299786E0,-5.911099911E0,5.938600063E0
3.345399844E1,-4.259299755E0,-8.870999813E-1,-1.194999933E0
3.347399844E1,-9.139999747E-1,-3.943300009E0,2.565700054E0
3.349399844E1,1.758999974E-1,-6.587100029E0,5.916399956E0
3.351399844E1,-2.717999816E-1,-3.519099951E0,2.660799980E0
3.353399844E1,-4.131999910E-1,-1.504499912E0,1.956699967E0
3.355399844E1,-5.810000002E-2,-1.388000011E0,1.476899981E0
3.357399844E1,2.856999934E-1,-9.024999738E-1,1.346699953E0
3.359399844E1,2.276999950E-1,7.409999967E-1,1.137699962E0
3.361399844E1,-3.749999776E-2,2.423799992E0,9.793999791E-1
3.363399844E1,-2.563000023E-1,3.315599918E0,8.158999681E-1
3.365399844E1,-5.137999654E-1,3.970299959E0,5.823000073E-1
3.367399844E1,-6.092999578E-1,4.519199848E0,4.576999843E-1
3.369399844E1,-6.467999816E-1,4.777499676E0,3.109000027E-1
3.371399844E1,-6.908999681E-1,4.664400101E0,1.484999955E-1
3.373399844E1,-6.804999709E-1,4.209700108E0,1.335999966E-1
3.375399844E1,-6.419999599E-1,3.530099869E0,3.739999980E-2
3.377399844E1,-5.938000083E-1,2.713399887E0,1.370000001E-2
3.379399844E1,-3.086999953E-1,1.573199987E0,-8.899999410E-2
3.381399844E1,2.145999968E-1,-8.639999479E-2,-1.064999998E-1
3.383399844E1,9.642999768E-1,-1.677799940E0,-2.379999906E-1
3.385399844E1,1.534299970E0,-2.408900023E0,-3.989000022E-1
3.387399844E1,1.798499942E0,-2.316299915E0,-5.940999985E-1
3.389399844E1,2.204599857E0,-2.771899939E0,-8.172999620E-1
3.391399844E1,3.133499861E0,-4.861999989E0,-1.139199972E0
3.393399844E1,3.834399939E0,-6.670300007E0,-1.954299927E0
3.395399844E1,3.134999990E0,-2.399999857E0,-3.206199884E0
3.397399844E1,2.096899986E0,2.269199848E0,-2.468999863E0
3.399399844E1,1.723099947E0,2.198899984E0,-2.349499941E0
3.401399844E1,1.607299924E0,-1.415300012E0,-2.121299982E0
3.403399844E1,1.243999958E0,-4.398600101E0,-1.594900012E0
3.405399844E1,4.047999978E-1,-4.474499702E0,-1.042500019E0
3.407399844E1,-8.391999602E-1,-2.859999895E0,-3.251000047E-1
3.409399844E1,-2.128000021E0,-2.492899895E0,1.114499927E0
3.411399844E1,-5.131499767E0,-3.043499947E0,2.099999972E-2
3.413399844E1,-3.638799906E0,1.511999965E-1,1.343799949E0
3.415399844E1,-2.599699974E0,1.873899937E0,7.231999636E-1
3.417399844E1,-7.469999790E-1,1.441499949E0,-1.148100019E0
3.419399844E1,-5.261999965E-1,2.511600018E0,-1.182099938E0
3.421399844E1,-1.463400006E0,4.250299931E0,1.197399974E0
3.423399844E1,-1.776399970E0,4.730400085E0,2.965699911E0
3.425399844E1,-1.832499981E0,4.384299755E0,3.229300022E0
3.427399844E1,-1.744300008E0,3.844499826E0,2.915199995E0
3.429399844E1,-1.406099916E0,2.901199818E0,2.427399874E0
3.431399844E1,-7.610999942E-1,2.248399973E0,1.653399944E0
3.433399844E1,-5.719999969E-2,1.912400007E0,1.246699929E0
3.435399844E1,4.896999896E-1,1.386699915E0,8.400999904E-1
3.437400000E1,1.076599956E0,3.495000005E-1,3.940999806E-1
3.439400000E1,2.083499908E0,-8.812999725E-1,-6.602999568E-1
3.442400000E1,7.723799706E0,-4.147599697E0,-1.498250008E1
3.444400000E1,4.936800003E0,-4.984999895E-1,-1.044589996E1
3.446401719E1,4.569699764E0,1.851300001E0,-5.730700016E0
3.449399844E1,2.986699820E0,-2.431900024E0,4.256999969E0
3.451400000E1,2.190500021E0,-7.890599728E0,7.809000015E0
3.453400000E1,-5.070600033E0,-3.039799929E0,1.048000008E-1
3.456401875E1,-2.896299839E0,-8.026999831E-1,1.181499958E0
3.459399844E1,-6.567999721E-1,-2.996299982E0,2.579999924E0
3.461399844E1,-3.838999867E-1,-4.240499973E0,3.474399805E0
3.463399844E1,-5.106999874E-1,-3.457799911E0,2.399399996E0
3.465399844E1,-9.919999540E-2,-2.522199869E0,1.536099911E0
3.467399844E1,4.878999889E-1,-2.167599916E0,6.916999817E-1
3.469399844E1,6.176999807E-1,-1.614199996E0,3.540000021E-1
3.471399844E1,3.915999830E-1,2.974999845E-1,1.920999885E-1
3.473399844E1,-2.003999949E-1,2.513200045E0,1.278999895E-1
3.475399844E1,-3.691000044E-1,3.403299809E0,3.546999991E-1
3.477399844E1,-3.729999959E-1,3.818099976E0,2.960999906E-1
3.479399844E1,-2.132999897E-1,3.964299917E0,1.727000028E-1
3.481399844E1,-1.240999997E-1,4.103600025E0,-2.099999925E-3
3.483399844E1,-2.646999955E-1,4.307899952E0,-7.469999790E-2
3.485399844E1,-3.865000010E-1,4.050499916E0,-1.867000014E-1
3.487400000E1,-3.027999997E-1,3.361399889E0,-3.280999959E-1
3.490399844E1,2.419999987E-2,2.087800026E0,-5.155999660E-1
3.492399844E1,3.210999966E-1,1.085399985E0,-5.925999880E-1
3.494399844E1,7.667999864E-1,-1.247999966E-1,-5.379999876E-1
3.496401719E1,1.379299998E0,-1.373600006E0,-6.793000102E-1
3.499399844E1,2.307299852E0,-2.669499874E0,-1.222399950E0
3.501399844E1,2.618099928E0,-2.506999969E0,-1.775900006E0
3.503399844E1,3.038499832E0,-2.541399956E0,-2.483299971E0
3.505399844E1,3.596899986E0,-3.881599903E0,-3.225099802E0
3.507399844E1,3.672599792E0,-4.959300041E0,-4.184899807E0
3.509399844E1,2.139799833E0,-6.256999969E-1,-3.459999800E0
3.511399844E1,6.857999563E-1,2.364500046E0,-2.163599968E0
3.513399844E1,7.529999614E-1,-1.383299947E0,-2.056099892E0
3.515399844E1,4.711999893E-1,-5.037799835E0,-1.817399979E0
3.517399844E1,-3.249999881E-2,-6.020299911E0,-1.267300010E0
3.519399844E1,-1.485499978E0,-3.732800007E0,-9.312999845E-1
3.521399844E1,-6.715299606E0,-6.272899628E0,9.268099785E0
3.523399844E1,-6.233900070E0,-1.879899979E0,6.988999844E-1
3.525399844E1,-5.897899628E0,5.428000093E-1,5.950099945E0
3.527400000E1,-3.264400005E0,2.308699846E0,2.732800007E0
3.530399844E1,1.569800019E0,1.206499934E0,-4.886399746E0
3.532399844E1,4.880999923E-1,3.458899975E0,-3.463699818E0
3.534400000E1,-1.285899997E0,5.775799751E0,3.301999867E-1
3.536401875E1,-2.421900034E0,6.656300068E0,3.240099907E0
3.539399844E1,-2.161900043E0,5.081899643E0,4.090699673E0
3.541400000E1,-1.749699950E0,3.930499792E0,3.702600002E0
3.544399844E1,-6.769999862E-1,1.776199937E0,2.578699827E0
3.546401875E1,2.782999873E-1,7.448999882E-1,1.711899996E0
3.549399844E1,1.521600008E0,-1.189499974E0,4.865999818E-1
3.551399844E1,3.306599855E0,-3.321199894E0,-1.737899899E0
3.553399844E1,9.435299873E0,-6.723499775E0,-1.762800026E1
3.555399844E1,5.439300060E0,-1.274199963E0,-1.050929928E1
3.557399844E1,4.647099972E0,2.456599951E0,-4.414999962E0
3.559399844E1,4.124099731E0,-1.676100016E0,6.640999913E-1
3.561399844E1,2.367399931E0,-7.244999886E0,5.456899643E0
3.563399844E1,-6.965999603E-1,-8.114199638E0,4.912399769E0
3.565399844E1,-7.180500031E0,-1.820400000E0,-2.281299829E0
3.567399844E1,-3.374099970E0,2.703000009E-1,-9.791999459E-1
3.569399844E1,-1.064399958E0,-4.479799747E0,6.434499741E0
3.571399844E1,-8.443999887E-1,-5.702600002E0,3.922999859E0
3.573399844E1,-9.947999716E-1,-2.986699820E0,3.294199944E0
3.575399844E1,-1.468999982E-1,-2.328899860E0,2.355299950E0
3.577400000E1,4.339999855E-1,-1.155300021E0,1.628499985E0
3.580400781E1,2.820000052E-1,1.748600006E0,2.240999937E-1
3.583399844E1,-1.451999992E-1,4.110300064E0,-2.723000050E-1
3.585399844E1,-2.877999842E-1,4.813999653E0,-5.059999824E-1
3.587399844E1,-3.519999981E-1,5.083699703E0,-7.152999640E-1
3.589399844E1,-5.203999877E-1,5.224799633E0,-8.563999534E-1
3.591399844E1,-7.172999978E-1,5.218699932E0,-1.003499985E0
3.593399844E1,-9.592999816E-1,5.005899906E0,-9.154999852E-1
3.595399844E1,-1.013999939E0,4.078700066E0,-8.757999539E-1
3.597399844E1,-9.510999918E-1,2.359799862E0,-9.838999510E-1
3.599399844E1,-4.202999771E-1,2.703000009E-1,-8.583999872E-1
3.601399844E1,8.446999788E-1,-9.756999612E-1,-1.232399940E0
3.603399844E1,1.943599939E0,-1.782199979E0,-1.840399981E0
3.605399844E1,2.589200020E0,-2.306099892E0,-2.655599833E0
3.607399844E1,3.032799959E0,-1.908299923E0,-3.223500013E0
3.609399844E1,3.488899946E0,-1.629299998E0,-3.383100033E0
3.611400000E1,4.025399685E0,-2.389899969E0,-3.598099947E0
3.613400000E1,4.614900112E0,-4.652400017E0,-3.555999994E0
3.616401719E1,2.502300024E0,-9.174000025E-1,-1.013100028E0
3.619399844E1,1.271700025E0,2.958999872E-1,-3.486999869E-1
3.621399844E1,1.027099967E0,-4.998499870E0,-5.404999852E-1
3.623399844E1,5.760999918E-1,-8.479299545E0,-8.043999672E-1
3.625399844E1,-9.746999741E-1,-6.151299953E0,-6.592000127E-1
3.627399844E1,-7.325599670E0,-5.702300072E0,5.588099957E0
3.629399844E1,-5.968400002E0,-1.650499940E0,2.262300014E0
3.631399844E1,-6.969699860E0,1.111299992E0,2.970899820E0
3.633399844E1,-4.991499901E0,2.564100027E0,4.819399834E0
3.635399844E1,-3.227699995E0,4.042200089E0,3.667799950E0
3.637399844E1,-1.736499906E0,4.439399719E0,2.642499924E0
3.639399844E1,-2.897000015E-1,3.986199856E0,3.021000028E-1
3.641399844E1,2.226500034E0,2.222100019E0,-7.433599949E0
3.643399844E1,-9.836999774E-1,4.823299885E0,-2.179800034E0
3.645399844E1,-2.079999924E0,5.499799728E0,1.255699992E0
3.647400000E1,-1.712799907E0,4.347899914E0,2.402799845E0
3.649400000E1,-1.059100032E0,3.094599962E0,2.732100010E0
3.652399844E1,2.597999871E-1,6.308999658E-1,2.271399975E0
3.654399844E1,1.178900003E0,-5.539000034E-1,1.460299969E0
3.656401875E1,2.023599863E0,-1.475999951E0,1.254999936E-1
3.659399844E1,6.469099998E0,-3.531199932E0,-8.316399574E0
3.661399844E1,7.592599869E0,-2.534899950E0,-1.443610001E1
3.663399844E1,4.730099678E0,1.356499910E0,-6.438799858E0
3.665399844E1,4.076600075E0,-2.924999893E-1,-1.560299993E0
3.667399844E1,2.235599995E0,-5.147399902E0,3.537099838E0
3.669399844E1,-7.292000055E-1,-5.910899639E0,3.718400002E0
3.671399844E1,-7.196899891E0,-3.670799971E0,8.746999502E-1
3.673400000E1,-2.859200001E0,-2.385499954E0,8.314999938E-1
3.676401719E1,3.071999848E-1,-7.155999660E0,5.453099728E0
3.679399844E1,-7.759999633E-1,-3.002199888E0,2.511699915E0
3.681399844E1,-4.265999794E-1,-1.574100018E0,2.450199842E0
3.683399844E1,2.069999874E-1,-1.198499918E0,2.118999958E0
3.685399844E1,1.889999956E-1,6.344000101E-1,1.634400010E0
3.687399844E1,8.379999548E-2,2.780099869E0,9.447999597E-1
3.689399844E1,-9.709999710E-2,4.436100006E0,7.235999703E-1
3.691399844E1,-2.638999820E-1,5.114999771E0,5.270000100E-1
3.693399844E1,-4.522999823E-1,5.555999756E0,2.669000030E-1
3.695399844E1,-5.225999951E-1,5.713399887E0,8.320000023E-2
3.697399844E1,-5.437999964E-1,5.334099770E0,-1.422999948E-1
3.699399844E1,-4.834999740E-1,4.349499702E0,-2.087999880E-1
3.701399844E1,-3.750999868E-1,2.934799910E0,-1.670999974E-1
3.703399844E1,-1.793999970E-1,1.402699947E0,-3.088999987E-1
3.705399844E1,6.469999999E-2,-9.030000120E-2,-3.030000031E-1
3.707400000E1,5.606999993E-1,-1.467899919E0,-3.743000031E-1
3.710399844E1,1.736699939E0,-3.284299850E0,-6.147999763E-1
3.712399844E1,2.318399906E0,-3.829299927E0,-1.228699923E0
3.714399844E1,2.741799831E0,-3.236899853E0,-1.798599958E0
3.716401719E1,3.367899895E0,-4.075500011E0,-2.598799944E0
3.719399844E1,3.619299889E0,-6.192899704E0,-5.013199806E0
3.721399844E1,2.082900047E0,3.166999817E-1,-4.387000084E0
3.723399844E1,9.754999876E-1,1.893799901E0,-3.248399973E0
3.725399844E1,8.941999674E-1,-2.424499989E0,-1.765199900E0
3.727399844E1,5.961999893E-1,-5.455999851E0,-9.497999549E-1
3.729399844E1,-4.418999851E-1,-4.544899940E0,-4.001999795E-1
3.731399844E1,-2.151200056E0,-2.473700047E0,4.849999845E-1
3.733399844E1,-6.836799622E0,-4.579999924E0,1.162290001E1
3.735399844E1,-6.131700039E0,-3.894999921E-1,1.035099983E0
3.737399844E1,-5.123300076E0,1.915499926E0,5.835700035E0
3.739399844E1,-3.332999945E0,3.540699959E0,3.235800028E0
3.741399844E1,-1.434399962E0,3.701200008E0,2.288699865E0
3.743399844E1,8.879999518E-1,2.358399868E0,-3.023000002E0
3.745399844E1,-3.920000046E-2,3.399099827E0,-2.819499969E0
3.747399844E1,-1.186499953E0,4.269499779E0,-1.510999948E-1
3.749399844E1,-1.825500011E0,4.473299980E0,2.893999815E0
3.751399844E1,-1.876199961E0,3.916299820E0,4.099199772E0
3.753399844E1,-1.642099977E0,3.090699911E0,4.345900059E0
3.755399844E1,-1.158999920E0,1.712000012E0,3.934999943E0
3.757399844E1,-2.590999901E-1,3.649999946E-2,3.077100039E0
3.759399844E1,7.773000002E-1,-1.299799919E0,1.828899980E0
3.761399844E1,1.920499921E0,-2.494699955E0,1.336999983E-1
3.763399844E1,8.833299637E0,-6.935899734E0,-1.550809956E1
3.765399844E1,5.582599640E0,-2.997099876E0,-1.010579967E1
3.767399844E1,3.053499937E0,1.862699986E0,-1.937599897E0
3.769399844E1,3.519099951E0,-6.625999808E-1,-2.201999873E-1
3.771400000E1,2.358099937E0,-5.613100052E0,2.881199837E0
3.773400000E1,-5.409999937E-2,-5.272299767E0,2.391599894E0
3.776401719E1,-2.420699835E0,-4.247099876E0,3.085700035E0
3.779399844E1,-1.360700011E0,-4.726500034E0,1.733799934E0
3.781399844E1,-4.298999906E-1,-4.852200031E0,3.662400007E0
3.783399844E1,-3.630999923E-1,-1.722899914E0,2.769399881E0
3.785399844E1,-1.326999962E-1,-1.454000026E-1,2.050899982E0
3.787399844E1,2.518999875E-1,-3.194999993E-1,1.591899991E0
3.789399844E1,4.149999917E-1,2.917000055E-1,1.272499919E0
3.791399844E1,5.047999620E-1,1.816399932E0,1.228099942E0
3.793399844E1,4.451999962E-1,3.496099949E0,1.248899937E0
3.795399844E1,1.543999910E-1,4.695799828E0,1.167999983E0
3.797399844E1,7.970000058E-2,4.771800041E0,1.128099918E0
3.799399844E1,1.530999988E-1,4.372999668E0,7.005000114E-1
3.801399844E1,2.304999977E-1,3.988699913E0,5.360000134E-1
3.803399844E1,1.801999956E-1,3.389599800E0,4.830999970E-1
3.805399844E1,1.188999936E-1,2.581500053E0,5.568999648E-1
3.807399844E1,7.319999486E-2,1.753399968E0,5.184000134E-1
3.809399844E1,2.659999952E-2,1.268000007E0,5.462999940E-1
3.811399844E1,-7.589999586E-2,1.126899958E0,6.319000125E-1
3.813399844E1,-1.459999941E-2,4.287999868E-1,7.371999621E-1
3.815399844E1,3.912999928E-1,-1.110399961E0,6.265999675E-1
3.817399844E1,1.020900011E0,-2.608599901E0,2.448999882E-1
3.819399844E1,1.731799960E0,-3.353899956E0,-2.328999937E-1
3.821399844E1,2.007900000E0,-3.451399803E0,-8.411999941E-1
3.823399844E1,2.194099903E0,-3.637399912E0,-1.259999990E0
3.825399844E1,2.452600002E0,-4.922299862E0,-1.982499957E0
3.827399844E1,2.266499996E0,-3.885099888E0,-3.593699932E0
3.829399844E1,1.668299913E0,5.022999644E-1,-4.666299820E0
3.831399844E1,6.180999875E-1,2.865799904E0,-3.066900015E0
3.833399844E1,-1.560000032E-1,-2.352999896E-1,-1.990099907E0
3.835399844E1,-6.717999578E-1,-4.114500046E0,-1.901899934E0
3.837399844E1,-1.501399994E0,-4.888099670E0,-1.217100024E0
3.839399844E1,-2.913399935E0,-3.399399996E0,2.257999927E-1
3.841399844E1,-6.526999950E0,-3.565199852E0,5.923999786E0
3.843399844E1,-3.864799976E0,-1.373700023E0,6.855999827E-1
3.845399844E1,-1.537499905E0,5.860999823E-1,-3.258000016E-1
3.847399844E1,-6.143999696E-1,1.146099925E0,-1.656199932E0
3.849399844E1,-6.380999684E-1,2.334599972E0,-6.705999970E-1
3.851399844E1,-1.066499949E0,3.822199821E0,1.584599972E0
3.853399844E1,-1.717700005E0,5.029699802E0,3.839499950E0
3.855399844E1,-1.826599956E0,5.531699657E0,3.983199835E0
3.857399844E1,-1.731799960E0,5.062399864E0,3.668399811E0
3.859399844E1,-1.787299991E0,4.349800110E0,3.853799820E0
3.861399844E1,-1.492399931E0,3.328299999E0,3.644999981E0
3.863400000E1,-1.026600003E0,2.070199966E0,2.931900024E0
3.866401719E1,8.909999579E-2,1.814000010E-1,1.904799938E0
3.869400000E1,1.041599989E0,-6.340000033E-1,5.875999928E-1
3.871400000E1,2.495499849E0,-1.636999965E0,-1.352499962E0
3.874399844E1,7.296599865E0,-4.706500053E0,-1.456359959E1
3.876401719E1,4.175600052E0,-5.845999718E-1,-7.057499886E0
3.879399844E1,4.035599709E0,-8.521999717E-1,-2.914000034E0
3.881399844E1,2.094599962E0,-5.339499950E0,1.754499912E0
3.883399844E1,-7.064999938E-1,-6.417899609E0,3.471499920E0
3.885399844E1,-7.415799618E0,-6.844500065E0,1.150759983E1
3.887399844E1,-4.165100098E0,-6.654999852E-1,-1.708499908E0
3.889399844E1,-3.809999824E-1,-3.617299795E0,3.744299889E0
3.891399844E1,-4.088999927E-1,-4.732999802E0,3.888599873E0
3.893399844E1,-7.960999608E-1,-3.056599855E0,2.868099928E0
3.895399844E1,-3.278000057E-1,-2.049499989E0,2.239799976E0
3.897399844E1,3.574000001E-1,-1.361799955E0,1.533399940E0
3.899399844E1,7.579999566E-1,-6.622999907E-1,9.967999458E-1
3.901399844E1,6.960999966E-1,7.481999993E-1,6.100999713E-1
3.903399844E1,6.498000026E-1,2.354699850E0,4.906999767E-1
3.905399844E1,3.465999961E-1,4.113500118E0,4.558999836E-1
3.907399844E1,1.973999888E-1,4.509200096E0,4.341000021E-1
3.909399844E1,2.766999900E-1,4.478199959E0,2.490999997E-1
3.911399844E1,3.519999981E-1,4.543099880E0,-2.919999883E-2
3.913399844E1,2.933999896E-1,4.295399666E0,-7.779999822E-2
3.915399844E1,1.075999960E-1,3.754400015E0,-2.565999925E-1
3.917399844E1,-2.190000005E-2,3.073199987E0,-2.671999931E-1
3.919399844E1,-7.639999688E-2,2.117100000E0,-1.362999976E-1
3.921399844E1,-1.908999979E-1,1.161199927E0,-1.609999985E-1
3.923399844E1,-7.360000163E-2,9.800000116E-3,-7.580000162E-2
3.925399844E1,2.991999984E-1,-1.454899907E0,-2.171999961E-1
3.927399844E1,8.792999983E-1,-2.645299911E0,-3.511999846E-1
3.929399844E1,1.501299977E0,-2.972699881E0,-4.535999894E-1
3.931399844E1,2.096999884E0,-3.310999870E0,-5.807999969E-1
3.933399844E1,2.770099878E0,-5.070300102E0,-9.883999825E-1
3.935399844E1,3.194199800E0,-5.701600075E0,-1.808200002E0
3.937399844E1,3.047299862E0,-2.440999895E-1,-1.661899924E0
3.939399844E1,2.453999996E0,1.278699994E0,-2.075199842E0
3.941399844E1,1.809700012E0,-1.816999912E-1,-2.547299862E0
3.943399844E1,1.525499940E0,-2.576499939E0,-2.407099962E0
3.945399844E1,5.949999690E-1,-3.955199957E0,-1.708400011E0
3.947399844E1,-7.541999817E-1,-3.632999897E0,-7.141999602E-1
3.949399844E1,-2.455600023E0,-2.293299913E0,6.042999625E-1
3.951399844E1,-4.299299717E0,-1.186800003E0,1.657699943E0
3.953399844E1,-8.840700150E0,-2.748899937E0,4.324899673E0
3.955399844E1,-6.135200024E0,1.404799938E0,2.171900034E0
3.957399844E1,-2.368099928E0,2.159800053E0,2.504999936E-1
3.959399844E1,3.399999812E-2,1.196599960E0,-3.616499901E0
3.961399844E1,-4.949999750E-1,3.059399843E0,-2.953399897E0
3.963400000E1,-1.130999923E0,4.086499691E0,-1.148199916E0
3.966401719E1,-1.449599981E0,4.472000122E0,2.436300039E0
3.969399844E1,-1.408599973E0,4.570600033E0,4.010399818E0
3.971399844E1,-1.429499984E0,4.193299770E0,4.079100132E0
3.973399844E1,-1.023299932E0,3.250000000E0,3.718400002E0
3.975399844E1,-1.228000000E-1,1.688899994E0,3.097399950E0
3.977399844E1,6.435999870E-1,5.252999663E-1,2.398000002E0
3.979399844E1,1.495299935E0,-8.370999694E-1,1.279799938E0
3.981399844E1,3.078199863E0,-2.694399834E0,-1.023399949E0
3.983399844E1,8.062700272E0,-5.043499947E0,-1.247299957E1
3.985399844E1,5.717700005E0,-4.906999767E-1,-9.853300095E0
3.987399844E1,2.690899849E0,3.335099936E0,-1.650799990E0
3.989399844E1,1.644199967E0,-1.867000014E-1,8.830999732E-1
3.991399844E1,1.068699956E0,-4.404399872E0,-1.404599905E0
3.993399844E1,-1.148999929E0,-4.964099884E0,1.263800025E0
3.995399844E1,-2.166300058E0,-6.166899681E0,2.527299881E0
3.997399844E1,-2.211199999E0,-8.189000130E0,4.129300117E0
3.999399844E1,-2.676100016E0,-8.480799675E0,3.639699936E0
4.001399844E1,-4.867499828E0,-5.022999763E0,7.074699879E0
4.003399844E1,-3.904199839E0,-2.346600056E0,2.236399889E0
4.005399844E1,-1.747799993E0,-1.649199963E0,2.407599926E0
4.007399844E1,-6.658999920E-1,-1.091099977E0,2.237400055E0
4.009399844E1,-6.659999490E-2,7.583999634E-1,1.675599933E0
4.011399844E1,-8.619999886E-2,2.434999943E0,1.297699928E0
4.013399844E1,-1.810999960E-1,3.706300020E0,7.513999939E-1
4.015399844E1,-8.529999852E-2,4.811500072E0,4.188999832E-1
4.017399844E1,-1.069999952E-2,5.604199886E0,4.828999937E-1
4.019399844E1,1.814000010E-1,5.940399647E0,5.600000024E-1
4.021399844E1,3.810999990E-1,5.850199699E0,8.991000056E-1
4.023399844E1,6.272999644E-1,5.008599758E0,6.241999865E-1
4.025399844E1,8.944000006E-1,3.559700012E0,3.687999845E-1
4.027400000E1,1.229499936E0,2.217900038E0,1.821999997E-1
4.030399844E1,1.444000006E0,6.200999618E-1,-9.749999642E-2
4.032400000E1,1.709299922E0,-6.699999571E-1,-7.059999555E-2
4.034400000E1,2.100399971E0,-2.451599836E0,-1.715999991E-1
4.036401875E1,2.405799866E0,-3.438999891E0,-3.599999845E-1
4.039399844E1,2.560199976E0,-3.197399855E0,-6.238999963E-1
4.041399844E1,2.820099831E0,-3.570799828E0,-1.058599949E0
4.043399844E1,3.041499853E0,-4.427099705E0,-1.464200020E0
4.045399844E1,3.160899878E0,-5.203000069E0,-2.204499960E0
4.047399844E1,2.788499832E0,-3.488699913E0,-3.216199875E0
4.049400000E1,1.716899991E0,7.518999577E-1,-2.746099949E0
4.052399844E1,8.701999784E-1,1.051499963E0,-1.720399976E0
4.054399844E1,5.040999651E-1,-2.665299892E0,-1.706099987E0
4.056401875E1,-1.779999882E-1,-4.938299656E0,-1.194199920E0
4.059399844E1,-2.183699846E0,-3.183499813E0,1.043399930E0
4.061399844E1,-5.558700085E0,-2.152299881E0,1.857800007E0
4.063399844E1,-4.951600075E0,4.623000026E-1,2.715999842E0
4.065399844E1,-4.055500031E0,1.539399981E0,3.422399998E0
4.067399844E1,-1.810099959E0,2.430500031E0,3.667799950E0
4.069399844E1,9.139999747E-2,2.826200008E0,1.226499915E0
4.071399844E1,2.795399904E0,1.661700010E0,-7.248999596E0
4.073399844E1,-1.885000020E-1,4.534699917E0,-5.245999694E-1
4.075399844E1,-1.748899937E0,6.101399899E0,3.303999901E0
4.077399844E1,-1.945699930E0,5.796999931E0,4.886300087E0
4.079399844E1,-1.670399904E0,4.638899803E0,4.767699718E0
4.081399844E1,-1.333499908E0,3.457199812E0,4.499199867E0
4.083399844E1,-6.356999874E-1,1.982699990E0,3.792500019E0
4.085399844E1,1.709999889E-1,8.294999599E-1,3.062399864E0
4.087399844E1,7.932999730E-1,-1.019999981E-1,2.305500031E0
4.089399844E1,1.251399994E0,-1.037799954E0,1.616899967E0
4.091399844E1,1.955399990E0,-2.346499920E0,3.400999904E-1
4.093399844E1,6.090699673E0,-5.434299946E0,-1.130929947E1
4.095399844E1,6.305999756E0,-4.095099926E0,-1.358119965E1
4.097399844E1,3.903899908E0,1.909500003E0,-4.687699795E0
4.099399844E1,4.337699890E0,1.383499980E0,-2.743299961E0
4.101399844E1,3.082299948E0,-3.677699804E0,3.142999887E0
4.103399844E1,2.434499979E0,-7.849699974E0,5.525000095E0
4.105399844E1,-1.485000014E0,-4.952300072E0,3.615999937E0
4.107399844E1,-8.738299370E0,-7.110999823E-1,5.065999627E-1
4.109399844E1,-5.274399757E0,8.964999914E-1,-1.198899984E0
4.111399844E1,-1.346300006E0,-2.699699879E0,2.593199968E0
4.113399844E1,-2.674999833E-1,-6.126499653E0,4.325500011E0
4.115399844E1,-6.308999658E-1,-5.302999973E0,3.000200033E0
4.117399844E1,-4.969999939E-2,-3.094300032E0,2.075999975E0
4.119399844E1,6.079999804E-1,-1.111299992E0,1.357100010E0
4.121399844E1,7.851999998E-1,3.720999956E-1,7.472999692E-1
4.123399844E1,6.857999563E-1,1.959499955E0,3.932999969E-1
4.125399844E1,4.605000019E-1,3.567299843E0,4.826999903E-1
4.127399844E1,1.963000000E-1,4.520199776E0,6.056999564E-1
4.129399844E1,2.611999810E-1,4.734899998E0,8.014000058E-1
4.131399844E1,1.821999997E-1,4.988999844E0,5.893999934E-1
4.133399844E1,6.089999899E-2,4.806099892E0,3.813000023E-1
4.135399844E1,-8.879999816E-2,4.337899685E0,3.845999837E-1
4.137399844E1,-9.749999642E-2,3.278599977E0,5.885999799E-1
4.139399844E1,-8.150000125E-2,2.178599834E0,6.220999956E-1
4.141399844E1,-1.235999987E-1,1.196099997E0,6.173999906E-1
4.143399844E1,2.469999902E-2,9.299999475E-2,6.074000001E-1
4.145399844E1,4.092999995E-1,-1.330299973E0,3.253999949E-1
4.147399844E1,1.057099938E0,-2.772500038E0,6.699999794E-3
4.149399844E1,1.637499928E0,-3.155200005E0,-5.259999633E-1
4.151399844E1,1.892899990E0,-2.674799919E0,-8.510999680E-1
4.153399844E1,2.095200062E0,-2.320099831E0,-1.287599921E0
4.155399844E1,2.592099905E0,-3.054899931E0,-2.203500032E0
4.157399844E1,3.054999828E0,-4.543299675E0,-4.446000099E0
4.159399844E1,3.166599989E0,-3.613099813E0,-5.041100025E0
4.161399844E1,2.152199984E0,1.565099955E0,-3.053999901E0
4.163400000E1,1.145099998E0,2.027299881E0,-1.287699938E0
4.166401719E1,2.181999981E-1,-5.592799664E0,-1.105499983E0
4.169399844E1,-1.148599982E0,-6.052000046E0,-3.059999831E-2
4.171399844E1,-2.947499990E0,-2.950199842E0,9.400999546E-1
4.173399844E1,-4.994599819E0,-1.233199954E0,3.135999918E0
4.175399844E1,-6.883699894E0,-6.371999979E-1,2.157299995E0
4.177399844E1,-5.056699753E0,2.923099995E0,3.549700022E0
4.179399844E1,-3.093400002E0,4.280200005E0,3.773599863E0
4.181399844E1,-7.239999771E-1,3.650499821E0,7.343999743E-1
4.183399844E1,6.812999845E-1,3.288699865E0,-2.613699913E0
4.185399844E1,-9.109999537E-1,5.088200092E0,-7.342000008E-1
4.187399844E1,-1.898000002E0,5.882499695E0,1.817099929E0
4.189400000E1,-2.113800049E0,5.361799717E0,3.900199890E0
4.192399844E1,-1.557799935E0,3.226599932E0,4.527999878E0
4.194399844E1,-9.930999875E-1,1.865399957E0,3.820299864E0
4.196401719E1,-2.140000015E-1,4.208000004E-1,3.407399893E0
4.199399844E1,9.151999950E-1,-7.964999676E-1,2.163499832E0
4.201399844E1,1.682199955E0,-1.867799997E0,1.024399996E0
4.203399844E1,5.456999779E0,-5.214699745E0,-6.447099686E0
4.205399844E1,7.749599934E0,-5.515399933E0,-1.570939922E1
4.207399844E1,3.978099823E0,1.038200021E0,-4.269700050E0
4.209399844E1,4.292399883E0,1.776499987E0,-2.336599827E0
4.211399844E1,4.162499905E0,-3.818199873E0,1.725499988E0
4.213399844E1,3.032500029E0,-7.367499828E0,4.323499680E0
4.215399844E1,-1.035499930E0,-4.428800106E0,2.717399836E0
4.217399844E1,-4.286999702E0,-8.220999837E-1,6.301999688E-1
4.219399844E1,-5.951799870E0,4.407999814E-1,-2.549999952E-1
4.221399844E1,-2.226399899E0,-3.370599985E0,2.598299980E0
4.223399844E1,-1.075999960E-1,-6.550199986E0,4.456099987E0
4.225399844E1,-4.847999811E-1,-4.065299988E0,2.835099936E0
4.227399844E1,-5.428000093E-1,-1.839199901E0,2.237499952E0
4.229400000E1,-1.333999932E-1,-1.222800016E0,1.748499990E0
4.232399844E1,2.709999979E-1,5.958999991E-1,1.255299926E0
4.234399844E1,2.782000005E-1,2.169999838E0,1.093099952E0
4.236401875E1,1.265999973E-1,3.737399817E0,9.682999849E-1
4.239399844E1,-2.391999960E-1,5.077300072E0,9.465999603E-1
4.241399844E1,-2.795000076E-1,5.437500000E0,7.799999714E-1
4.243399844E1,-4.260999858E-1,5.421799660E0,6.649000049E-1
4.245399844E1,-5.715000033E-1,4.910500050E0,5.320999622E-1
4.247399844E1,-6.550999880E-1,3.831399918E0,4.984999895E-1
4.249399844E1,-7.175999880E-1,2.261299849E0,5.909000039E-1
4.251399844E1,-8.161000013E-1,8.193999529E-1,6.646999717E-1
4.253399844E1,-8.229999542E-1,-1.136999950E-1,8.046000004E-1
4.255399844E1,-1.559000015E-1,-7.998999953E-1,8.430999517E-1
4.257399844E1,7.335000038E-1,-1.898499966E0,7.208999991E-1
4.259399844E1,1.510999918E0,-3.124399900E0,2.728999853E-1
4.261399844E1,1.903599977E0,-3.544299841E0,-3.576000035E-1
4.263399844E1,2.220200062E0,-3.430899858E0,-1.112100005E0
4.265399844E1,2.896399975E0,-4.028899670E0,-1.949000001E0
4.267399844E1,3.561699867E0,-4.923599720E0,-3.205899954E0
4.269399844E1,3.803999901E0,-4.783699989E0,-5.093400002E0
4.271399844E1,2.783499956E0,-1.482599974E0,-4.911999702E0
4.273399844E1,1.277300000E0,2.142999887E0,-2.760999918E0
4.275399844E1,1.028999925E0,8.366000056E-1,-1.360399961E0
4.277399844E1,7.640999556E-1,-2.264799833E0,-1.104200006E0
4.279399844E1,-1.840000004E-1,-4.253900051E0,-7.881000042E-1
4.281399844E1,-1.195099950E0,-4.184099674E0,-4.639999941E-2
4.283399844E1,-2.832299948E0,-2.355799913E0,8.073999882E-1
4.285399844E1,-4.810899734E0,-1.279999971E0,2.938599825E0
4.287399844E1,-6.926399708E0,-7.303000093E-1,1.786599994E0
4.289399844E1,-5.339200020E0,2.830699921E0,4.201900005E0
4.291399844E1,-3.143499851E0,4.449599743E0,4.333600044E0
4.293400781E1,-1.846399903E0,4.449100018E0,3.070299864E0
4.296401719E1,-4.092999995E-1,3.897899866E0,7.069999725E-2
4.299399844E1,-4.386000037E-1,4.242899895E0,-1.588400006E0
4.301399844E1,-1.626799941E0,4.744699955E0,1.400799990E0
4.303399844E1,-1.822699904E0,4.088099957E0,3.204999924E0
4.305399844E1,-1.149999976E0,2.057399988E0,3.377399921E0
