"Time (s)","Linear Acceleration x (m/s^2)","Linear Acceleration y (m/s^2)","Linear Acceleration z (m/s^2)"
1.617348900E-2,0.000000000E0,0.000000000E0,0.000000000E0
2.128859400E-2,-4.237079620E-2,3.777408600E-2,-1.932144165E-2
2.640364600E-2,-8.089542389E-2,-1.478195190E-5,-8.015155792E-2
3.151875000E-2,-6.383848190E-2,-3.170537949E-2,-2.386598587E-1
3.663385400E-2,-2.365350723E-2,-9.989261627E-2,-2.610969543E-1
4.174890600E-2,7.536363602E-2,-1.180877686E-1,-1.475973129E-1
4.686401000E-2,1.042821407E-1,-1.697468758E-1,-3.862190247E-2
5.197911400E-2,3.093471527E-1,-2.496881485E-1,5.720901489E-2
5.709416700E-2,7.485463619E-1,-3.585853577E-1,1.232414246E-1
6.220927100E-2,1.209337950E0,-4.878735542E-1,6.792736053E-2
6.732437500E-2,1.533188939E0,-5.504755974E-1,5.772304535E-2
7.243947900E-2,1.622923493E0,-5.604062080E-1,2.618474960E-1
7.755453100E-2,1.604635596E0,-4.860401154E-1,7.322149277E-1
8.266963500E-2,1.353882074E0,-4.501185417E-1,1.253464699E0
8.778473900E-2,9.481503963E-1,-4.826650620E-1,1.708522797E0
9.289979200E-2,3.532198668E-1,-6.502785683E-1,1.970754623E0
9.801489600E-2,-3.577772379E-1,-8.290910721E-1,1.866530418E0
1.031300000E-1,-8.966548443E-1,-9.551372528E-1,1.681206703E0
1.082450520E-1,-1.328625083E0,-1.010137081E0,1.215509415E0
1.133601560E-1,-1.607941747E0,-8.675913811E-1,5.977687836E-1
1.184752600E-1,-1.723753333E0,-7.036702633E-1,4.074096680E-1
1.235903640E-1,-1.501732469E0,-5.221755505E-1,7.666606903E-1
1.287054170E-1,-9.616824389E-1,-3.882157803E-1,7.955760956E-1
1.338205210E-1,-3.633569479E-1,-3.647811413E-1,3.568582535E-1
1.389356250E-1,2.511763573E-1,-3.965480328E-1,-1.197614670E-1
1.440506770E-1,7.487055063E-1,-4.466972351E-1,-1.560010910E-1
1.491657810E-1,1.180345416E0,-4.536519051E-1,1.036634445E-1
1.542808850E-1,9.882805347E-1,-6.415565014E-1,-5.206527710E-1
1.593959890E-1,5.803653002E-1,-8.516049385E-1,-1.083507538E0
1.645110420E-1,2.240467072E-1,-1.159152508E0,-1.030728340E0
1.696261460E-1,-2.532779574E-1,-1.347408056E0,-1.126867294E0
1.747412500E-1,-6.523829699E-1,-1.454040289E0,-1.202868462E0
1.798563540E-1,-7.492557764E-1,-1.490372181E0,-8.577518463E-1
1.849714060E-1,-9.207016230E-1,-1.506410837E0,-7.465496063E-1
1.900865100E-1,-8.536985517E-1,-1.441454411E0,-7.852134705E-1
1.952016140E-1,-3.884911537E-1,-1.217015982E0,-7.946262360E-1
2.003166670E-1,4.196099639E-1,-8.301289678E-1,-8.342819214E-1
2.054317710E-1,1.387469411E0,-5.016642809E-1,-1.017945290E0
2.105468750E-1,2.285070896E0,-1.235382557E-1,-1.365873337E0
2.156619790E-1,3.006044149E0,1.732066870E-1,-1.708181381E0
2.207770310E-1,3.409055710E0,3.320344687E-1,-2.015250206E0
2.258921350E-1,3.403796673E0,1.380176544E-1,-2.488161087E0
2.310072390E-1,3.078512907E0,-1.002421379E-1,-3.153881073E0
2.361223440E-1,2.595029831E0,-3.403103352E-1,-3.845377922E0
2.412373960E-1,2.096875191E0,-4.430652857E-1,-4.476393700E0
2.463525000E-1,1.770076752E0,5.653870106E-2,-5.120234489E0
2.514676040E-1,1.061229229E0,-1.313123703E-1,-5.470659256E0
2.565827080E-1,7.896947861E-1,-3.554919958E-1,-5.546409607E0
2.616978120E-1,5.968773365E-1,-5.017534494E-1,-5.377737999E0
2.668128640E-1,4.256412983E-1,-6.400078535E-1,-5.002891541E0
2.719279690E-1,2.323768139E-1,-7.510942221E-1,-4.498535156E0
2.770430730E-1,1.454064846E-1,-8.668818474E-1,-3.949954033E0
2.821581770E-1,1.469135284E-2,-8.936136961E-1,-3.466179848E0
2.872732290E-1,-8.205199242E-2,-1.070584059E0,-2.615675449E0
2.923883330E-1,-1.422270536E-1,-1.151265502E0,-1.612631798E0
2.975034370E-1,-4.294172525E-1,-1.180839300E0,-7.890815735E-1
3.026185420E-1,-8.745858669E-1,-1.112465978E0,-3.533306122E-1
3.077335940E-1,-1.422496796E0,-9.075567722E-1,-3.946571350E-1
3.128486980E-1,-2.020602226E0,-5.681169033E-1,-7.333688736E-1
3.179638020E-1,-2.335543156E0,-6.961244345E-2,-1.170946121E0
3.230789060E-1,-2.335249901E0,4.849799871E-1,-1.664029121E0
3.281940100E-1,-1.934589148E0,1.239433527E0,-2.127626419E0
3.333090620E-1,-2.043279648E0,1.556390166E0,-2.637168884E0
3.384241670E-1,-2.047695875E0,1.713428974E0,-2.883683205E0
3.435392710E-1,-1.959959745E0,1.949587703E0,-3.003402233E0
3.486543750E-1,-1.736374855E0,2.353469849E0,-3.034854889E0
3.537694270E-1,-1.421778202E0,2.232893944E0,-2.903891563E0
3.588845310E-1,-1.071058750E0,2.175042868E0,-2.900642395E0
3.639996350E-1,-7.875408530E-1,1.979284048E0,-2.733132839E0
3.691147390E-1,-5.915681124E-1,1.772783995E0,-2.445058346E0
3.742297920E-1,-4.640477896E-1,1.508921385E0,-2.137287140E0
3.793448960E-1,-4.104254842E-1,1.308444500E0,-1.707453728E0
3.844600000E-1,-3.908609748E-1,1.174798846E0,-1.269401550E0
3.895751040E-1,-4.062972069E-1,1.130075097E0,-9.366130829E-1
3.946902080E-1,-4.666680694E-1,1.102574110E0,-7.348690033E-1
3.998053120E-1,-3.999923766E-1,1.030531645E0,-6.152057648E-1
4.049203640E-1,-2.991493344E-1,1.019896507E0,-4.831857681E-1
4.100354690E-1,-1.732227802E-1,9.302417040E-1,-3.672475815E-1
4.151505730E-1,-4.086656868E-2,9.208276868E-1,-3.214921951E-1
4.202656770E-1,9.238630533E-3,9.651104212E-1,-4.005489349E-1
4.253807810E-1,-1.632467210E-1,1.396031141E0,-6.926794052E-1
4.304958330E-1,3.218530118E-1,1.534832239E0,-8.239860535E-1
4.356109370E-1,7.339134216E-1,1.498649240E0,-9.489221573E-1
4.407260420E-1,1.052832007E0,1.340707064E0,-1.127863884E0
4.458411460E-1,9.951127172E-1,1.299591184E0,-1.253681183E0
4.509562500E-1,8.151963353E-1,1.218711615E0,-1.246519089E0
4.560713020E-1,6.402530074E-1,1.101600170E0,-1.067551613E0
4.611864060E-1,1.198154211E0,1.667625427E0,-8.616466522E-1
4.663015100E-1,1.051511765E0,1.628773689E0,-1.081145287E0
4.714166140E-1,5.343645811E-1,1.257448912E0,-1.126070976E0
4.765317190E-1,-7.571882010E-2,9.823764563E-1,-1.045844078E0
4.816467710E-1,-3.611588478E-1,9.997984767E-1,-1.149754524E0
4.867618750E-1,-4.196069837E-1,1.133311152E0,-1.380270004E0
4.918769790E-1,-4.568752050E-1,1.207271457E0,-1.553775787E0
4.969920830E-1,-4.458644092E-1,1.176049709E0,-1.636597633E0
5.021071870E-1,-4.481674433E-1,1.155866861E0,-1.674779892E0
5.072222920E-1,-4.738212824E-1,1.097407579E0,-1.735311985E0
5.123373440E-1,-5.200128555E-1,9.946213365E-1,-1.818267822E0
5.174524480E-1,-4.893213809E-1,1.054402471E0,-1.850271225E0
5.225675520E-1,-3.828441501E-1,1.240355968E0,-1.781036377E0
5.276826560E-1,-1.782912612E-1,1.418912649E0,-1.638796806E0
5.327977600E-1,-8.376419544E-2,1.472123265E0,-1.324482918E0
5.379128640E-1,-6.751358509E-2,1.220926046E0,-9.010934830E-1
5.430279170E-1,-1.801230311E-1,7.571390867E-1,-3.918285370E-1
5.481430210E-1,-3.570075035E-1,3.103885055E-1,-3.327465057E-2
5.532581250E-1,-9.154568315E-1,-7.631823421E-2,-5.638313293E-2
5.583732290E-1,-1.574479580E0,-1.777700335E-1,-7.340736389E-1
5.634883330E-1,-1.589583993E0,-9.265407920E-2,-6.928300858E-1
5.686034370E-1,-1.400176644E0,1.704339236E-1,2.993354797E-1
5.737184890E-1,-1.121462345E0,4.822935164E-1,6.339435577E-1
5.788335940E-1,-7.399815917E-1,9.048181772E-1,6.325054169E-1
5.839486980E-1,-5.187473297E-1,1.148979306E0,8.629722595E-1
5.890638020E-1,-6.099026203E-1,1.188726544E0,1.725814819E0
5.941789060E-1,-7.076125741E-1,1.119423509E0,2.533411026E0
5.992940100E-1,-5.631701350E-1,9.760948420E-1,3.153453827E0
6.044090620E-1,-2.464509308E-1,8.154069781E-1,3.630321503E0
6.095241670E-1,-3.352347016E-2,6.954268217E-1,3.794276237E0
6.146392710E-1,-1.416571736E-1,5.284337401E-1,3.581398010E0
6.197543750E-1,-7.555515766E-1,3.088255227E-1,3.182182312E0
6.248694790E-1,-1.642373800E0,2.795529366E-1,2.999140739E0
6.299845830E-1,-1.941869259E0,5.464116931E-1,3.163484573E0
6.350996350E-1,-1.667828679E0,7.182834744E-1,3.416135788E0
6.402147390E-1,-1.421037912E0,5.336418748E-1,3.672152519E0
6.453298440E-1,-1.283949375E0,8.929282427E-2,3.707086563E0
6.504449480E-1,-1.418126345E0,-4.877735078E-1,3.458511353E0
6.555600520E-1,-1.452335358E0,-9.939312339E-1,3.272927284E0
6.606751560E-1,-1.262764812E0,-1.419908762E0,3.203088760E0
6.657902600E-1,-9.273753762E-1,-1.604394674E0,3.212272644E0
6.709053120E-1,-4.765351415E-1,-1.560806513E0,3.341255188E0
6.760204170E-1,-1.398298144E-2,-1.263485670E0,3.650704384E0
6.811355210E-1,3.686645329E-1,-8.911319971E-1,4.004925728E0
6.862506250E-1,7.158389091E-1,-5.933485031E-1,4.021132469E0
6.913657290E-1,8.308569193E-1,-4.955793619E-1,3.763769150E0
6.964808330E-1,6.400425434E-1,-7.444287539E-1,3.559333801E0
7.015959370E-1,7.303504348E-1,-9.893593788E-1,3.444421768E0
7.067110420E-1,9.806216955E-1,-1.164683104E0,3.063325882E0
7.118260940E-1,5.122665763E-1,-1.579650402E0,2.605914116E0
7.169411980E-1,3.449890763E-2,-2.040960789E0,2.346095085E0
7.220563020E-1,-6.004123688E-1,-2.695436239E0,2.260952950E0
7.271714060E-1,-9.686156511E-1,-3.137596607E0,2.313448906E0
7.322865100E-1,-6.931252480E-1,-3.231443882E0,2.384928703E0
7.374016140E-1,-1.084470600E-1,-2.720535278E0,2.329147339E0
7.425167190E-1,4.566684365E-1,-1.961526871E0,1.948645592E0
7.476318230E-1,1.340601206E0,-1.054315329E0,1.609186172E0
7.527468750E-1,2.705005169E0,-3.337768316E-1,2.418003082E0
7.578619790E-1,2.697041512E0,-3.035596609E-1,1.351525307E0
7.629770830E-1,2.009354591E0,-6.612443924E-1,-1.792449951E-1
7.680921870E-1,1.147119999E0,-1.290470123E0,-4.867534637E-1
7.732072920E-1,7.914451957E-1,-1.722686529E0,-5.782070160E-1
7.783223960E-1,5.228772759E-1,-1.951794147E0,-7.703151703E-1
7.834375000E-1,3.809358478E-1,-1.993919373E0,-1.063688278E0
7.885526040E-1,4.453778267E-1,-1.800130010E0,-1.221078873E0
7.936676560E-1,5.496524572E-1,-1.522939682E0,-1.185173035E0
7.987827600E-1,4.900751114E-1,-1.208452702E0,-1.136822701E0
8.038978640E-1,3.391734362E-1,-1.057052612E0,-1.253322601E0
8.090129690E-1,5.362720788E-2,-1.028641820E0,-1.462266922E0
8.141280730E-1,-2.999388278E-1,-1.098929286E0,-1.661958694E0
8.192431770E-1,-5.443656445E-1,-1.138112545E0,-1.833419800E0
8.243582810E-1,-7.113443613E-1,-1.105148315E0,-1.735371590E0
8.294733850E-1,-8.964518309E-1,-1.001011848E0,-1.588359833E0
8.345884890E-1,-9.662491083E-1,-9.086838365E-1,-1.435457230E0
8.397035420E-1,-1.083281994E0,-8.145811558E-1,-1.508544922E0
8.448186460E-1,-1.068133116E0,-7.563428879E-1,-1.672843933E0
8.499337500E-1,-1.083734274E0,-8.165676594E-1,-1.899106979E0
8.550488540E-1,-1.041266799E0,-8.537237644E-1,-2.158275604E0
8.601639580E-1,-1.093253613E0,-9.074874520E-1,-2.282326221E0
8.652790620E-1,-1.031336784E0,-8.911800385E-1,-2.355311394E0
8.703941670E-1,-9.665163755E-1,-8.839596510E-1,-2.454841614E0
8.755092710E-1,-8.035656214E-1,-8.535760641E-1,-2.590278149E0
8.806243750E-1,-5.965775251E-1,-7.739502192E-1,-2.730459213E0
8.857394270E-1,-4.372852743E-1,-7.440559864E-1,-2.864635468E0
8.908545310E-1,-3.170492351E-1,-7.526271343E-1,-3.044026852E0
8.959696350E-1,-1.146348715E-1,-7.945038080E-1,-3.217208862E0
9.010847390E-1,8.527284861E-2,-8.546805382E-1,-3.270042896E0
9.061998440E-1,2.172174156E-1,-9.499933720E-1,-3.218842506E0
9.113149480E-1,2.252433002E-1,-9.523155689E-1,-3.051235199E0
9.164300520E-1,2.004503310E-1,-9.125699997E-1,-2.906107426E0
9.215451560E-1,1.883485913E-2,-8.777046204E-1,-2.647838593E0
9.266602600E-1,-1.297366619E-1,-7.789832354E-1,-2.321304321E0
9.317753640E-1,-2.558365762E-1,-6.808339953E-1,-2.137661934E0
9.368904690E-1,-3.396861851E-1,-5.806319714E-1,-2.053327084E0
9.420055730E-1,-4.017070830E-1,-5.137826204E-1,-1.965426445E0
9.471206770E-1,-3.761177361E-1,-4.454104900E-1,-1.828745842E0
9.522357290E-1,-3.662331998E-1,-3.708820343E-1,-1.758963585E0
9.573508330E-1,-3.921290040E-1,-3.870459795E-1,-1.785353661E0
9.624659370E-1,-4.072558284E-1,-3.867268562E-1,-1.870359898E0
9.675810420E-1,-4.320881367E-1,-3.630484343E-1,-1.895723343E0
9.726961460E-1,-4.647330344E-1,-3.150758743E-1,-1.836707592E0
9.778112500E-1,-4.674246907E-1,-2.395203114E-1,-1.766339302E0
9.829263540E-1,-4.316028059E-1,-2.259480953E-1,-1.714414597E0
9.880414580E-1,-3.595066667E-1,-2.063083649E-1,-1.647462845E0
9.931565620E-1,-3.173183799E-1,-2.284150124E-1,-1.597678185E0
9.982716670E-1,-2.917124629E-1,-2.052434683E-1,-1.604233742E0
1.003386771E0,-3.385428190E-1,-1.717181206E-1,-1.648948669E0
1.008501875E0,-3.532780409E-1,-1.815328598E-1,-1.672088623E0
1.013616979E0,-4.007250071E-1,-1.702352762E-1,-1.578500748E0
1.018732083E0,-4.657043517E-1,-1.558538675E-1,-1.455720901E0
1.023847135E0,-4.642243385E-1,-8.959484100E-2,-1.313429832E0
1.028962239E0,-4.104779959E-1,-5.993759632E-2,-1.192210197E0
1.034077344E0,-3.840052485E-1,2.494263649E-2,-1.074079514E0
1.039192448E0,-3.469048142E-1,6.317257881E-2,-9.160833359E-1
1.044307552E0,-1.056122780E-1,5.875027180E-2,-8.135299683E-1
1.049422656E0,2.283970416E-1,-1.640510559E-2,-9.029550552E-1
1.054537760E0,4.575815797E-1,1.019258499E-1,-9.700765610E-1
1.059652864E0,5.346716046E-1,1.446938872E0,-1.613949776E0
1.064767969E0,3.301325738E-1,2.267474174E0,-1.992155552E0
1.069883073E0,-3.697288036E-2,2.394377232E0,-1.198725700E0
1.074998177E0,-3.199387789E-1,1.977025747E0,-5.937480927E-2
1.080113281E0,-3.792488575E-1,1.264210105E0,8.116731644E-1
1.085228385E0,-2.011467516E-1,3.120198250E-1,1.127413750E0
1.090343489E0,-3.164357245E-1,-4.861468077E-1,1.187379837E0
1.095458594E0,-5.681173205E-1,-7.715548277E-1,7.941999435E-1
1.100573698E0,-6.664654016E-1,-5.252903700E-1,9.475440979E-1
1.105688802E0,-9.305198789E-1,-7.531881332E-2,1.440353394E-1
1.110803906E0,-9.873647690E-1,5.445778370E-1,-4.274082184E-1
1.115919010E0,-1.052617311E0,8.671793938E-1,-2.079591751E-1
1.121034062E0,-1.035701990E0,1.003314495E0,4.101800919E-1
1.126149167E0,-9.789041281E-1,9.326001406E-1,1.166468620E0
1.131264323E0,-8.064596057E-1,6.701823473E-1,1.813548088E0
1.136379375E0,-5.462278128E-1,3.521718979E-1,2.142167091E0
1.141494479E0,-2.628955245E-1,1.338955164E-1,2.147783279E0
1.146609583E0,1.917281747E-2,7.081007957E-2,1.977143288E0
1.151724687E0,2.764195800E-1,7.636725903E-2,1.758390427E0
1.156839792E0,5.071153045E-1,9.317064285E-2,1.644069672E0
1.161954896E0,6.238734126E-1,1.092746258E-1,1.612113953E0
1.167070000E0,6.961147189E-1,1.486111879E-1,1.712103844E0
1.172185104E0,8.417588472E-1,1.644408703E-1,1.838538170E0
1.177300208E0,9.864876270E-1,1.993509531E-1,1.972249985E0
1.182415312E0,1.053670168E0,1.397080421E-1,2.057221413E0
1.187530417E0,9.106419683E-1,3.700840473E-2,2.148530960E0
1.192645521E0,7.506388426E-1,-2.410650253E-2,2.259319305E0
1.197760625E0,6.007355452E-1,-7.925772667E-2,2.462178230E0
1.202875729E0,5.137135386E-1,-8.525359631E-2,2.694749832E0
1.207990833E0,4.610298276E-1,-8.249437809E-2,2.924750328E0
1.213105937E0,3.876415491E-1,-1.504073143E-1,3.100885391E0
1.218221042E0,3.286146522E-1,-2.764570713E-1,3.099369049E0
1.223336146E0,3.032863140E-1,-4.450502396E-1,2.978189468E0
1.228451250E0,3.274019361E-1,-6.386247873E-1,2.845204353E0
1.233566354E0,4.324168563E-1,-7.794924974E-1,2.594511032E0
1.238681458E0,5.956423879E-1,-8.992051482E-1,2.293575287E0
1.243796562E0,8.124472499E-1,-8.897162080E-1,2.020367622E0
1.248911667E0,9.081646204E-1,-8.839359879E-1,1.845369339E0
1.254026771E0,8.933069706E-1,-8.507230282E-1,1.720727921E0
1.259141875E0,7.380022407E-1,-8.151214719E-1,1.666771889E0
1.264256979E0,5.995323062E-1,-8.812543154E-1,1.696484566E0
1.269372083E0,5.025722980E-1,-9.247014523E-1,1.809610367E0
1.274487187E0,4.045088887E-1,-1.023625255E0,1.972399712E0
1.279602292E0,3.475522399E-1,-1.056422949E0,2.107060432E0
1.284717396E0,3.799220026E-1,-1.043784618E0,2.202828407E0
1.289832500E0,4.386503100E-1,-1.017205238E0,2.157175064E0
1.294947604E0,5.025497675E-1,-9.521323442E-1,1.953783035E0
1.300062708E0,6.640360951E-1,-7.478287220E-1,1.678900719E0
1.305177812E0,8.494592309E-1,-5.019681454E-1,1.386288643E0
1.310292917E0,1.456256747E0,1.236762762E0,1.235780716E0
1.315408021E0,1.425329208E0,1.726601720E0,9.810667038E-1
1.320523125E0,1.212965727E0,1.230400801E0,4.435815811E-1
1.325638281E0,1.126578093E0,7.549872398E-1,-1.133337021E-1
1.330753385E0,1.123219490E0,3.014574051E-1,-6.884860992E-1
1.335868489E0,1.032898188E0,-1.208579540E-1,-1.317670822E0
1.340983594E0,8.653903604E-1,-3.904544115E-1,-1.934033394E0
1.346098698E0,6.417550445E-1,-5.916759968E-1,-2.509153366E0
1.351213802E0,1.181189418E-1,-7.275211811E-1,-3.214133739E0
1.356328906E0,-5.149279833E-1,-7.954581976E-1,-4.029500008E0
1.361444010E0,-1.580087543E-1,-7.425968647E-1,-4.351085663E0
1.366559114E0,3.172268271E-1,-6.646608114E-1,-4.379618168E0
1.371674219E0,7.358965874E-1,-6.781702042E-1,-4.279397011E0
1.376789323E0,9.080120921E-1,-7.614428997E-1,-4.062850952E0
1.381904427E0,9.138641953E-1,-8.973469734E-1,-3.756834984E0
1.387019531E0,7.857908607E-1,-1.047421694E0,-3.490746975E0
1.392134635E0,5.259006023E-1,-1.237119555E0,-3.362455845E0
1.397249739E0,1.913383007E-1,-1.337114692E0,-3.351319313E0
1.402364844E0,-3.486788273E-2,-1.311729908E0,-3.344851494E0
1.407479948E0,-1.247389317E-1,-1.207930803E0,-3.313158989E0
1.412595052E0,-1.127106249E-1,-9.627898932E-1,-3.265752792E0
1.417710156E0,-1.057253182E-1,-8.109195828E-1,-3.264492035E0
1.422825260E0,-5.303321779E-2,-5.660102367E-1,-3.292249203E0
1.427940364E0,1.160470694E-1,-2.593981028E-1,-2.407685280E0
1.433055469E0,2.994946539E-1,6.760537624E-2,-1.305484772E-2
1.438170625E0,1.979589909E-1,2.585318089E-1,2.140933990E0
1.443285729E0,-6.167095155E-3,4.109200239E-1,2.858721733E0
1.448400833E0,-5.824630708E-2,6.383215189E-1,2.125411034E0
1.453515937E0,-5.310614035E-2,9.007610083E-1,5.059680939E-1
1.458631042E0,-1.313566417E-1,1.050129652E0,-1.304311752E0
1.463746146E0,-1.360620707E-1,1.095644951E0,-2.752268791E0
1.468861250E0,-7.849086076E-2,1.099563956E0,-3.714988232E0
1.473976354E0,-2.377361059E-2,9.555470943E-1,-4.170261383E0
1.479091458E0,2.892588079E-2,7.855769396E-1,-4.272436142E0
1.484206562E0,8.354209363E-2,5.439602137E-1,-4.010780334E0
1.489321667E0,2.041529119E-2,3.533002138E-1,-3.475986481E0
1.494436771E0,-5.446726084E-2,2.805583477E-1,-2.950472355E0
1.499551927E0,-1.559867561E-1,2.767357826E-1,-2.475977898E0
1.504667031E0,-2.689415216E-1,3.620477915E-1,-1.982018471E0
1.509782135E0,-3.625698090E-1,5.324659348E-1,-1.616702080E0
1.514897239E0,-4.500198364E-1,7.871302366E-1,-1.413132668E0
1.520012344E0,-5.608024001E-1,9.793325663E-1,-1.418628693E0
1.525127448E0,-6.035285592E-1,1.117229342E0,-1.487166405E0
1.530242552E0,-5.030948520E-1,1.210000634E0,-1.405285835E0
1.535357656E0,-4.144051671E-1,1.169719458E0,-1.237053871E0
1.540472760E0,-4.469569325E-1,1.197493315E0,-1.021170616E0
1.545587864E0,-4.241845608E-1,1.207921267E0,-7.102785110E-1
1.550702969E0,-2.974606752E-1,1.350086212E0,-4.276218414E-1
1.555818125E0,-1.734655499E-1,1.468014598E0,-2.649679184E-1
1.560933229E0,-1.619619131E-2,1.625829816E0,-5.470466614E-2
1.566048333E0,-1.881831884E-2,1.698545456E0,-2.106695175E-1
1.571163437E0,-1.369835138E-1,1.682792664E0,-4.422950745E-2
1.576278542E0,-9.352630377E-2,1.653146625E0,1.192283630E-1
1.581393646E0,7.184165716E-2,1.463952303E0,1.866149902E-2
1.586508750E0,1.928141713E-1,1.250820160E0,-3.468894958E-2
1.591623854E0,1.796858907E-1,9.716371894E-1,-7.479667664E-3
1.596739010E0,1.062123775E-1,6.863404512E-1,8.454608917E-2
1.601854114E0,4.513178170E-1,5.625320077E-1,1.811790466E-2
1.606969219E0,7.332550287E-1,5.351082683E-1,-1.119575500E-1
1.612084323E0,8.802083135E-1,5.610616803E-1,-1.932744980E-1
1.617199427E0,9.390124083E-1,6.364359856E-1,-2.450685501E-1
1.622314531E0,8.925391436E-1,8.537536263E-1,-3.092069626E-1
1.627429635E0,7.731701732E-1,1.134660721E0,-2.389545441E-1
1.632544739E0,5.502536297E-1,1.383127451E0,-8.261871338E-2
1.637659896E0,3.016463518E-1,1.528598428E0,2.309274673E-1
1.642775000E0,-4.144507647E-2,1.719101429E0,5.792951584E-1
1.647890104E0,-3.367527723E-1,1.824071884E0,8.512868881E-1
1.653005208E0,-4.584416747E-1,1.873668432E0,1.017238617E0
1.658120312E0,-6.519727111E-1,1.868013382E0,1.134716988E0
1.663235417E0,-8.014246225E-1,1.779509068E0,1.153771400E0
1.668350521E0,-8.504832387E-1,1.715485811E0,1.071193695E0
1.673465208E0,-7.369716167E-1,1.538213491E0,9.554147720E-1
1.678580312E0,-5.992102027E-1,1.426756024E0,8.460378647E-1
1.683695416E0,-3.779894114E-1,1.297373056E0,7.014045715E-1
1.688810520E0,-1.751977801E-1,1.210141659E0,7.019510269E-1
1.693925625E0,-9.336304665E-2,1.104797840E0,6.671400070E-1
1.699040729E0,-1.352048516E-1,9.611788392E-1,7.308282852E-1
1.704155833E0,-3.479309678E-1,7.611593008E-1,9.666576385E-1
1.709270989E0,-5.599529743E-1,5.832668543E-1,1.327395439E0
1.714386093E0,-6.726771593E-1,4.779279232E-1,1.702630997E0
1.719501198E0,-7.310900688E-1,4.198547602E-1,2.010951996E0
1.724616302E0,-6.176482439E-1,4.229742289E-1,2.253560066E0
1.729731406E0,-5.709685087E-1,3.792997599E-1,2.473425865E0
1.734846562E0,-6.117648482E-1,2.598652840E-1,2.775460243E0
1.739961666E0,-7.417167425E-1,5.515408516E-2,3.174724579E0
1.745076770E0,-8.496409059E-1,-7.293510437E-2,3.558654785E0
1.750191875E0,-9.457428455E-1,-1.678355932E-1,3.724483490E0
1.755306979E0,-9.658391476E-1,-1.878018379E-1,3.638475418E0
1.760422083E0,-1.008397818E0,-1.640957594E-1,3.449601173E0
1.765537239E0,-9.591850638E-1,-2.330181003E-1,3.232403755E0
1.770652343E0,-8.742900491E-1,-3.409250975E-1,2.947894096E0
1.775767448E0,-8.614957333E-1,-5.024855733E-1,2.589381218E0
1.780882552E0,-7.964907885E-1,-7.514228821E-1,2.200227737E0
1.785997656E0,-7.016614079E-1,-9.943630695E-1,1.948881149E0
1.791112812E0,-5.451997519E-1,-1.183121562E0,1.830108643E0
1.796227916E0,-3.718758821E-1,-1.338415146E0,1.813558578E0
1.801343020E0,-1.002994776E-1,-1.460522652E0,1.883236885E0
1.806458125E0,7.274436951E-2,-1.575809121E0,1.984985352E0
1.811573229E0,1.652139425E-1,-1.660584211E0,2.100672722E0
1.816688385E0,2.448315620E-1,-1.678160191E0,2.103688240E0
1.821803489E0,2.032276392E-1,-1.738924384E0,1.975298882E0
1.826918593E0,1.197606325E-1,-1.800040007E0,1.819773674E0
1.832033698E0,-3.487986326E-2,-1.770106316E0,1.657579422E0
1.837148802E0,-8.088207245E-2,-1.796588898E0,1.444672585E0
1.842263958E0,-1.357839108E-1,-1.753079772E0,1.157462120E0
1.847379062E0,-1.092510223E-1,-1.655618906E0,8.667154312E-1
1.852494166E0,-8.823764324E-2,-1.635711193E0,5.820779800E-1
1.857609270E0,-1.034870744E-1,-1.598624468E0,3.537225723E-1
1.862724427E0,-2.002053261E-1,-1.589133263E0,1.886548996E-1
1.867839531E0,-2.283856869E-1,-1.587313652E0,1.452140808E-1
1.872954635E0,-2.053621411E-1,-1.594588757E0,-3.569641113E-1
1.878069739E0,-4.399874210E-1,-1.663029432E0,-3.117198944E-1
1.883184895E0,-4.827741385E-1,-1.530917406E0,8.695697784E-2
1.888300000E0,-3.472511768E-1,-1.276374578E0,1.777839661E-1
1.893415104E0,-1.753156185E-1,-1.010418177E0,5.109691620E-2
1.898530208E0,-1.062618494E-1,-7.927762270E-1,-1.994094849E-1
1.903645364E0,-6.694287062E-2,-5.927965641E-1,-2.595605850E-1
1.908760468E0,9.498015046E-2,-5.133430958E-1,-1.097803116E-1
1.913875573E0,2.534158230E-1,-4.461057186E-1,-4.445552826E-2
1.918990677E0,3.752991259E-1,-4.078375101E-1,-1.779851913E-1
1.924105833E0,4.819231629E-1,-4.003019333E-1,-5.061674118E-1
1.929220937E0,5.476641655E-1,-4.858723879E-1,-8.063850403E-1
1.934336041E0,5.842562318E-1,-5.584880114E-1,-1.112079620E0
1.939451145E0,5.305091143E-1,-6.973142624E-1,-1.376635551E0
1.944566302E0,5.027766228E-1,-8.096007705E-1,-1.680086136E0
1.949681406E0,5.260835886E-1,-8.791210651E-1,-1.948262691E0
1.954796510E0,5.905154347E-1,-8.597728014E-1,-2.175256729E0
1.959911666E0,6.024633646E-1,-7.984203100E-1,-2.340887070E0
1.965026770E0,6.223559976E-1,-7.955900431E-1,-2.501427650E0
1.970141875E0,6.232126951E-1,-7.580555677E-1,-2.643768311E0
1.975256979E0,6.474466324E-1,-7.327028513E-1,-2.760773659E0
1.980372083E0,6.898367405E-1,-7.004243731E-1,-2.876394749E0
1.985487239E0,7.060221434E-1,-5.895504951E-1,-2.951240540E0
1.990602343E0,6.840164661E-1,-5.050124526E-1,-2.943678856E0
1.995717448E0,6.149965525E-1,-4.069063663E-1,-2.830124378E0
2.000832604E0,4.765232503E-1,-3.667511940E-1,-2.615683556E0
2.005947708E0,2.370810211E-1,-3.267823458E-1,-2.352022648E0
2.011062812E0,1.258295774E-2,-2.166724205E-1,-2.156260490E0
2.016177968E0,-1.308585405E-1,-9.095942974E-2,-2.202424049E0
2.021293073E0,-2.307154238E-1,-5.312144756E-2,-2.400191784E0
2.026408177E0,-2.512227297E-1,-1.176846027E-2,-2.664229393E0
2.031523333E0,-2.224968970E-1,3.473711014E-2,-2.941667557E0
2.036638437E0,-1.838940978E-1,3.450238705E-2,-3.145213127E0
2.041753541E0,-5.819296837E-2,-2.976298332E-3,-3.202205658E0
2.046868698E0,1.286961436E-1,-2.024686337E-2,-3.178711414E0
2.051983802E0,2.374222875E-1,-1.056332588E-1,-3.171697617E0
2.057098906E0,3.306427896E-1,-9.152436256E-2,-3.115531921E0
2.062214062E0,3.765208423E-1,-1.413434744E-1,-3.046269417E0
2.067329166E0,4.195289612E-1,-1.194430590E-1,-2.862596035E0
2.072444270E0,3.893095851E-1,-1.589871645E-1,-2.622302055E0
2.077559427E0,3.052947819E-1,-1.491081715E-1,-2.299459457E0
2.082674531E0,1.951289773E-1,-1.547960043E-1,-1.905219555E0
2.087789635E0,-1.000178456E-1,-1.001023054E-1,-1.482935905E0
2.092904791E0,-4.113524556E-1,-4.582631588E-2,-1.073390961E0
2.098019895E0,-6.269475818E-1,-1.724958420E-2,-7.792167664E-1
2.103135000E0,-7.428995967E-1,4.869365692E-2,-6.418113708E-1
2.108250156E0,-8.092731833E-1,1.394537687E-1,-6.187705994E-1
2.113365260E0,-7.778995037E-1,1.825883389E-1,-6.295557022E-1
2.118480364E0,-7.367113829E-1,2.501915693E-1,-6.881523132E-1
2.123595520E0,-5.945926905E-1,2.981656790E-1,-7.727117538E-1
2.128710625E0,-4.654391408E-1,2.132853270E-1,-8.471746445E-1
2.133825729E0,-3.496297598E-1,1.992931366E-1,-9.233942032E-1
2.138940885E0,-1.472498178E-1,1.095966101E-1,-1.003664017E0
2.144055989E0,-4.103431106E-2,9.069287777E-2,-1.034200668E0
2.149171093E0,1.195821762E-1,1.133528948E-1,-9.995965958E-1
2.154286250E0,2.426730990E-1,1.520851851E-1,-9.823980331E-1
2.159401354E0,3.345090151E-1,1.852678657E-1,-9.742097855E-1
2.164516510E0,2.708896101E-1,2.119510770E-1,-9.416189194E-1
2.169631614E0,2.191267759E-1,1.884359717E-1,-8.214597702E-1
2.174746718E0,2.150593549E-1,1.728378534E-1,-6.402826309E-1
2.179861875E0,2.377428114E-1,2.150714397E-1,-3.685016632E-1
2.184976979E0,2.123113126E-1,2.060431242E-1,-1.241874695E-2
2.190092135E0,1.115134060E-1,2.125626802E-1,3.440237045E-1
2.195207239E0,2.508994937E-2,1.363637447E-1,7.209901810E-1
2.200322343E0,-1.744524539E-1,9.652948380E-2,1.065787315E0
2.205437500E0,-2.343577445E-1,7.079672813E-2,1.342592239E0
2.210552604E0,-1.393964291E-1,1.163680553E-1,1.453653336E0
2.215667760E0,-9.029033780E-2,1.601381302E-1,1.505680084E0
2.220782864E0,2.445423603E-2,1.873914003E-1,1.571726799E0
2.225898020E0,1.765613556E-1,1.918348074E-1,1.629142761E0
2.231013125E0,2.019913197E-1,1.349883080E-1,1.651741028E0
2.236128229E0,2.800284028E-1,1.480969191E-1,1.742373466E0
2.241243385E0,3.316808343E-1,1.041380167E-1,1.835251808E0
2.246358489E0,4.056002498E-1,2.815103531E-2,1.885016441E0
2.251473645E0,5.115973949E-1,1.177144051E-2,2.016006470E0
2.256588750E0,6.407436132E-1,-6.970238686E-2,2.102667809E0
2.261703906E0,7.975091934E-1,-9.116077423E-2,2.122456551E0
2.266819010E0,9.303349257E-1,-6.616532803E-2,2.088690758E0
2.271934114E0,1.026011229E0,-1.309229732E-1,2.025378227E0
2.277049270E0,1.132136345E0,-1.805317402E-2,2.092553139E0
2.282164375E0,1.133127332E0,1.038867235E-2,2.307743073E0
2.287279531E0,1.159088612E0,8.471399546E-2,2.499735832E0
2.292394635E0,1.177016854E0,1.581151485E-1,2.713893890E0
2.297509791E0,1.128762245E0,2.360895276E-1,2.897584915E0
2.302624895E0,1.097228646E0,2.318717241E-1,2.980407715E0
2.307740052E0,9.883320332E-1,1.325817108E-1,2.935150146E0
2.312855156E0,8.031151891E-1,-1.183462143E-2,2.857704163E0
2.317970312E0,5.529539585E-1,-2.569589019E-1,2.848514557E0
2.323085416E0,2.677730918E-1,-4.728166461E-1,2.936054230E0
2.328200573E0,-9.436619282E-2,-6.671128273E-1,3.152267456E0
2.333315677E0,-3.923750520E-1,-8.224415183E-1,3.360591888E0
2.338430833E0,-7.380270362E-1,-8.757524490E-1,3.566886902E0
2.343545937E0,-9.541726708E-1,-7.513204217E-1,3.751983643E0
2.348661041E0,-1.167482138E0,-6.245949864E-1,3.697384834E0
2.353776198E0,-1.123310328E0,-4.794784188E-1,3.512414932E0
2.358891302E0,-8.820701241E-1,-3.822405338E-1,3.143766403E0
2.364006458E0,-4.803341627E-1,-3.729289174E-1,2.730559349E0
2.369121614E0,1.073014736E-2,-4.714881182E-1,2.240801811E0
2.374236718E0,4.829440117E-1,-5.236374140E-1,1.611504555E0
2.379351823E0,9.609930515E-1,-5.209397674E-1,9.028100967E-1
2.384466979E0,1.386577129E0,-5.632786751E-1,2.367868423E-1
2.389582135E0,1.836519599E0,-5.015264750E-1,-3.197259903E-1
2.394697239E0,2.303470373E0,-3.859884143E-1,-8.123369217E-1
2.399812395E0,2.767863750E0,-2.237945795E-1,-1.142022133E0
2.404927500E0,3.089264393E0,-6.974750757E-2,-1.522921562E0
2.410042656E0,3.294360161E0,5.843079090E-2,-1.911891937E0
2.415157760E0,3.382060528E0,3.221470118E-2,-2.290968418E0
2.420272916E0,3.229739189E0,-2.760797739E-2,-2.446393490E0
2.425388020E0,2.857301235E0,-1.435132027E-1,-2.353674889E0
2.430503177E0,2.426416159E0,-3.437904119E-1,-2.060102463E0
2.435618281E0,1.965455055E0,-5.060178041E-1,-1.698953629E0
2.440733437E0,1.534897804E0,-6.978034973E-1,-1.279066086E0
2.445848541E0,1.010082483E0,-8.215702772E-1,-7.089815140E-1
2.450963698E0,4.762893915E-1,-9.306856990E-1,-1.112155914E-1
2.456078802E0,-5.816793442E-2,-9.379128218E-1,3.884840012E-1
2.461193958E0,-5.324652195E-1,-8.599313498E-1,6.540784836E-1
2.466309114E0,-9.030439854E-1,-7.167137265E-1,6.527099609E-1
2.471424218E0,-1.111316681E0,-4.907058477E-1,4.998645782E-1
2.476539375E0,-1.213294744E0,-3.477827311E-1,2.176790237E-1
2.481654479E0,-1.155992746E0,-2.142276764E-1,-9.412670135E-2
2.486769635E0,-9.783460498E-1,-1.048043370E-1,-3.695068359E-1
2.491884739E0,-7.285739779E-1,-5.672371387E-2,-6.285963058E-1
2.496999895E0,-4.134277701E-1,-2.801907063E-2,-8.652820587E-1
2.502115000E0,-9.720784426E-2,-5.818450451E-2,-1.152335167E0
2.507230156E0,1.974574327E-1,-1.204982400E-1,-1.526597977E0
2.512345312E0,3.904425800E-1,-1.666145325E-1,-1.873151779E0
2.517460416E0,5.412542224E-1,-2.161282301E-1,-2.298333645E0
2.522575573E0,6.909274459E-1,-2.212540805E-1,-2.701636314E0
2.527690677E0,7.853199244E-1,-2.712165415E-1,-2.969657421E0
2.532805833E0,7.713505030E-1,-3.075750768E-1,-3.108721256E0
2.537920989E0,7.954236269E-1,-2.643399835E-1,-3.120394707E0
2.543036093E0,7.402862310E-1,-1.974105835E-1,-3.042061329E0
2.548151250E0,6.817853451E-1,-2.192616463E-2,-2.961158276E0
2.553266354E0,5.415098667E-1,9.683346748E-2,-2.974486828E0
2.558381510E0,3.246096969E-1,2.195357084E-1,-2.960027218E0
2.563496666E0,1.814675331E-1,2.736493945E-1,-2.879615784E0
2.568611770E0,1.318621635E-2,2.938643694E-1,-2.868379593E0
2.573726927E0,-2.792658210E-1,2.951963544E-1,-3.000228882E0
2.578842083E0,-6.147211790E-1,1.933795214E-1,-3.159009457E0
2.583957187E0,-1.015685558E0,-1.340866089E-3,-3.244404793E0
2.589072343E0,-1.361151695E0,-1.027013063E-1,-3.235215187E0
2.594187448E0,-9.138125777E-1,1.523853540E-1,-3.149687767E0
2.599302604E0,-4.643697143E-1,4.395003319E-1,-3.234186172E0
2.604417708E0,-8.446921110E-1,5.165908337E-1,-2.961771011E0
2.609532864E0,-6.053487659E-1,5.855205059E-1,-2.451673985E0
2.614648020E0,-5.534980893E-1,8.009686470E-1,-2.030675888E0
2.619763125E0,-3.643051982E-1,1.069695354E0,-1.808479786E0
2.624878281E0,-1.761596799E-1,1.265204906E0,-1.711671829E0
2.629993437E0,4.989802837E-2,1.389072657E0,-1.616767883E0
2.635108541E0,1.645668745E-1,1.431379676E0,-1.514028549E0
2.640223698E0,2.352418900E-1,1.429009318E0,-1.437975883E0
2.645338802E0,2.857693434E-1,1.362403512E0,-1.307210922E0
2.650453958E0,3.714083731E-1,1.259303689E0,-1.275884628E0
2.655569114E0,3.407816887E-1,1.220024109E0,-1.270812035E0
2.660684218E0,2.218582630E-1,1.150653362E0,-1.293073654E0
2.665799375E0,9.914022684E-2,1.112450600E0,-1.329416275E0
2.670914531E0,4.653573036E-3,1.128864408E0,-1.357095718E0
2.676029635E0,3.376841545E-3,1.178504944E0,-1.251960754E0
2.681144791E0,1.458345652E-1,1.223608136E0,-9.654083252E-1
2.686259948E0,3.045842052E-1,1.264536500E0,-6.234779358E-1
2.691375052E0,1.174979806E0,1.548811793E0,3.815174103E-1
2.696490208E0,1.364796638E0,1.378477931E0,5.777788162E-1
2.701605364E0,1.088205934E0,1.126781821E0,1.988763809E-1
2.706720468E0,1.266900659E0,1.190276980E0,3.236179352E-1
2.711835625E0,1.365703106E0,1.274077177E0,6.356792450E-1
2.716950781E0,1.097316146E0,1.267290354E0,7.931919098E-1
2.722065885E0,5.646135807E-1,1.255274534E0,7.823085785E-1
2.727181041E0,6.819742918E-2,1.203606844E0,7.648248672E-1
2.732296198E0,-3.853484392E-1,1.140093803E0,7.659530640E-1
2.737411302E0,-6.036492586E-1,1.152461171E0,8.358526230E-1
2.742526458E0,-6.494841576E-1,1.211513996E0,9.086008072E-1
2.747641614E0,-6.181923151E-1,1.289275289E0,9.637317657E-1
2.752756718E0,-5.644676685E-1,1.410456538E0,1.015415192E0
2.757871875E0,-5.153023005E-1,1.515105009E0,1.096867561E0
2.762987031E0,-5.079463720E-1,1.653407693E0,1.188698769E0
2.768102135E0,-5.274720192E-1,1.733667850E0,1.336118698E0
2.773217291E0,-5.630913973E-1,1.698068738E0,1.467216492E0
2.778332448E0,-6.801459789E-1,1.648969889E0,1.546129227E0
2.783447604E0,-6.944125891E-1,1.595491767E0,1.649328232E0
2.788562708E0,-6.607835293E-1,1.490467787E0,1.775532722E0
2.793677864E0,-5.959064960E-1,1.305808187E0,1.884043694E0
2.798793020E0,-5.214935541E-1,1.178690553E0,2.064406395E0
2.803908125E0,-2.400268316E-1,1.151437283E0,2.429708481E0
2.809023281E0,-1.078042984E-1,1.137440324E0,2.848149300E0
2.814138437E0,-5.792890787E-1,8.011549711E-1,3.153891563E0
2.819253593E0,-7.055603266E-1,6.379933357E-1,3.330836296E0
2.824368698E0,-4.799004793E-1,5.423706770E-1,3.341277122E0
2.829483854E0,-1.432868242E-1,5.043771267E-1,3.330252647E0
2.834599010E0,-1.647925377E-2,2.810034752E-1,3.270482063E0
2.839714114E0,-6.000185013E-2,-8.033633232E-3,3.179042816E0
2.844829270E0,-1.168904305E-1,-3.503330946E-1,3.020409584E0
2.849944427E0,-1.451537609E-1,-6.022242308E-1,2.879694939E0
2.855059531E0,-1.894983053E-1,-7.938193083E-1,2.758061409E0
2.860174687E0,-2.629199028E-1,-9.240814447E-1,2.603992462E0
2.865289843E0,-2.880445719E-1,-1.003635287E0,2.417334557E0
2.870405000E0,-3.432493210E-1,-1.085999489E0,2.319734573E0
2.875520104E0,-3.310432434E-1,-1.179950476E0,2.338154793E0
2.880635260E0,-3.140101433E-1,-1.245461226E0,2.360926628E0
2.885750416E0,-2.113893032E-1,-1.170004129E0,2.372168541E0
2.890865573E0,-2.683538198E-1,-1.148852110E0,2.310931206E0
2.895980677E0,-3.168923855E-1,-1.250019789E0,2.194260597E0
2.901095833E0,-1.963849068E-1,-1.207078815E0,1.925704956E0
2.906210989E0,1.032460928E-1,-1.151430368E0,1.575027466E0
2.911326093E0,3.112391233E-1,-1.096621990E0,1.245310783E0
2.916441250E0,3.142364621E-1,-1.162049770E0,9.414768219E-1
2.921556406E0,1.968290806E-1,-1.247686148E0,6.887788773E-1
2.926671562E0,6.350791454E-2,-1.388417125E0,5.004014969E-1
2.931786666E0,1.904886961E-2,-1.377139330E0,4.503126144E-1
2.936901823E0,-9.431481361E-3,-1.396621466E0,5.142831802E-1
2.942016979E0,-7.056200504E-2,-1.313840151E0,6.119632721E-1
2.947132135E0,-7.995933294E-2,-1.233522177E0,4.302110672E-1
2.952247239E0,-1.232312322E-1,-1.107269883E0,4.258422852E-1
2.957362395E0,-8.277434111E-2,-9.681627750E-1,6.461858749E-1
2.962477552E0,2.240836620E-2,-8.554934263E-1,5.566539764E-1
2.967592708E0,1.753751636E-1,-7.113623023E-1,2.593688965E-1
2.972707812E0,3.103419542E-1,-6.879624128E-1,-3.857612610E-2
2.977822968E0,4.113535881E-1,-6.250112057E-1,-1.830844879E-1
2.982938125E0,5.401570797E-1,-6.212310791E-1,-1.900653839E-1
2.988053281E0,6.679679155E-1,-5.170696378E-1,-1.924810410E-1
2.993168385E0,8.321837187E-1,-5.158545971E-1,-3.970661163E-1
2.998283541E0,8.384231329E-1,-4.223364592E-1,-5.656909943E-1
3.003398698E0,7.432478070E-1,-4.580258131E-1,-7.306575775E-1
3.008513854E0,6.563912630E-1,-4.850028753E-1,-9.683837891E-1
3.013628958E0,5.700061321E-1,-5.160667300E-1,-1.155613899E0
3.018744114E0,4.751078486E-1,-5.446135998E-1,-1.207563400E0
3.023859270E0,4.417396784E-1,-4.934043884E-1,-1.242744446E0
3.028974427E0,4.914881587E-1,-5.042601228E-1,-1.349541664E0
3.034089531E0,5.529897213E-1,-5.204477906E-1,-1.519369125E0
3.039204687E0,5.696829557E-1,-5.175946951E-1,-1.767549515E0
3.044319843E0,5.855579972E-1,-5.373978615E-1,-2.068716526E0
3.049435000E0,5.809801817E-1,-5.351631641E-1,-2.343807220E0
3.054550104E0,5.679454803E-1,-5.305961370E-1,-2.583252430E0
3.059665260E0,5.448451638E-1,-5.299023390E-1,-2.704649448E0
3.064780416E0,4.974636734E-1,-4.996447265E-1,-2.748867512E0
3.069895573E0,4.358432889E-1,-4.573380351E-1,-2.677865028E0
3.075010729E0,3.474493623E-1,-3.939044476E-1,-2.560042381E0
3.080125833E0,2.595424056E-1,-2.741219997E-1,-2.476801872E0
3.085240989E0,1.577759385E-1,-2.276364565E-1,-2.430539608E0
3.090356145E0,5.780220032E-2,-1.664454937E-1,-2.385395050E0
3.095471302E0,1.451796293E-2,-7.195281982E-2,-2.300808907E0
3.100586458E0,-6.222087145E-2,-6.863236427E-3,-2.121973991E0
3.105701562E0,-2.000750899E-1,-1.974225044E-2,-1.900493145E0
3.110816718E0,-2.929004431E-1,1.176583767E-2,-1.746448517E0
3.115931875E0,-2.286011577E-1,1.151804924E-1,-1.620322227E0
3.121047031E0,-1.296436191E-1,1.458112001E-1,-1.542421341E0
3.126162135E0,-3.365892172E-2,1.860860586E-1,-1.485205650E0
3.131277291E0,6.609952450E-2,2.957316637E-1,-1.441507339E0
3.136392448E0,1.654816866E-1,3.441565037E-1,-1.391012192E0
3.141507604E0,2.184995413E-1,4.150781631E-1,-1.364845276E0
3.146622760E0,2.748013735E-1,4.521558285E-1,-1.300854683E0
3.151737864E0,3.078172207E-1,4.579347372E-1,-1.214666367E0
3.156853020E0,2.456614077E-1,5.004930496E-1,-1.142168045E0
3.161968177E0,1.938264966E-1,4.602192640E-1,-1.083308220E0
3.167083333E0,1.571817994E-1,4.124023914E-1,-1.033244133E0
3.172198437E0,6.622940302E-2,3.641097546E-1,-9.691534042E-1
3.177313593E0,-1.555597782E-2,3.331358433E-1,-9.829702377E-1
3.182428750E0,-9.913283587E-2,3.311051130E-1,-1.046976089E0
3.187543906E0,-2.304327488E-1,3.421648741E-1,-1.076159477E0
3.192659062E0,-2.895835638E-1,3.684469461E-1,-1.075311661E0
3.197774166E0,-2.944077253E-1,3.606702089E-1,-9.978275299E-1
3.202889323E0,-2.563363612E-1,3.436733484E-1,-9.441537857E-1
3.208004479E0,-1.389207542E-1,3.086919785E-1,-9.822969437E-1
3.213119635E0,-4.309242964E-2,2.386642694E-1,-1.023596764E0
3.218234791E0,7.043188810E-2,1.825377941E-1,-1.073973656E0
3.223349895E0,1.033802330E-1,1.211771965E-1,-1.128608704E0
3.228465052E0,8.760219812E-2,1.096497774E-1,-1.149239540E0
3.233580208E0,1.156304479E-1,1.193468571E-1,-1.145487785E0
3.238695364E0,1.299347878E-1,1.841596365E-1,-1.131792068E0
3.243810468E0,1.311547160E-1,1.814019680E-1,-1.068806648E0
3.248925625E0,1.827864051E-1,2.193702459E-1,-8.933849335E-1
3.254040781E0,2.304126322E-1,1.790924072E-1,-6.620235443E-1
3.259155937E0,2.972807884E-1,9.359908104E-2,-3.391323090E-1
3.264271093E0,3.193935752E-1,4.105854034E-2,-1.344966888E-2
3.269386198E0,3.732074499E-1,-2.605819702E-2,2.539405823E-1
3.274501354E0,4.182425141E-1,2.146160603E-2,5.012893677E-1
3.279616510E0,3.562331498E-1,5.075240135E-2,7.070894241E-1
3.284731666E0,3.636641502E-1,7.016527653E-2,7.877731323E-1
3.289846823E0,3.752425313E-1,5.470550060E-2,9.670524597E-1
3.294961927E0,3.437610865E-1,-8.290255070E-2,1.149203300E0
3.300077083E0,3.095403314E-1,-2.693960667E-1,1.376070976E0
3.305192239E0,3.299067616E-1,-4.075340033E-1,1.682264328E0
3.310307395E0,3.809657097E-1,-5.255862474E-1,2.009090424E0
3.315422552E0,4.185417891E-1,-5.983654261E-1,2.311157227E0
3.320537656E0,4.773492217E-1,-6.522638202E-1,2.509696960E0
3.325652812E0,6.870315075E-1,-7.117719054E-1,2.600209236E0
3.330767968E0,9.103280306E-1,-8.039715886E-1,2.738391876E0
3.335883125E0,1.078910947E0,-8.282919526E-1,2.892059326E0
3.340998229E0,1.238219619E0,-8.424153328E-1,3.017168045E0
3.346113385E0,1.313123226E0,-7.761204243E-1,2.968164444E0
3.351228541E0,1.362082720E0,-6.835575104E-1,2.838727951E0
3.356343698E0,1.423922300E0,-5.719102621E-1,2.774917603E0
3.361458854E0,1.374816060E0,-4.790709019E-1,2.782680511E0
3.366573958E0,1.295762897E0,-4.259324074E-1,2.711376190E0
3.371689114E0,1.240056038E0,-3.685823679E-1,2.604185104E0
3.376804270E0,1.098875523E0,-3.392695189E-1,2.541186333E0
3.381919427E0,9.652886391E-1,-3.185072541E-1,2.581952095E0
3.387034583E0,8.209043741E-1,-3.558765650E-1,2.648453712E0
3.392149687E0,7.071282864E-1,-3.678475618E-1,2.717697144E0
3.397264843E0,6.261023879E-1,-4.296919703E-1,2.845569611E0
3.402380000E0,5.433420539E-1,-5.539642572E-1,3.055553436E0
3.407495156E0,3.819856048E-1,-7.194874287E-1,3.326869965E0
3.412610312E0,3.200813532E-1,-8.863540292E-1,3.564727783E0
3.417725416E0,2.252256870E-1,-1.010014772E0,3.725923538E0
3.422840573E0,2.281396389E-1,-1.050970078E0,3.920346260E0
3.427955729E0,3.249311745E-1,-1.056266308E0,4.016400337E0
3.433070885E0,5.300381184E-1,-1.004256845E0,3.918695450E0
3.438186041E0,7.720639110E-1,-9.207180738E-1,3.611014366E0
3.443301145E0,1.002232313E0,-8.317531347E-1,3.188366890E0
3.448416302E0,1.156308532E0,-8.249955177E-1,2.672795296E0
3.453531458E0,1.272886038E0,-8.014857173E-1,2.097054482E0
3.458646614E0,1.357737780E0,-7.244845629E-1,1.479440689E0
3.463761770E0,1.432691336E0,-6.348534822E-1,9.349737167E-1
3.468876875E0,1.476031423E0,-4.822874069E-1,4.589023590E-1
3.473992031E0,1.611585617E0,-3.908735514E-1,-1.929855347E-2
3.479107187E0,1.648790717E0,-2.425540686E-1,-4.350490570E-1
3.484222343E0,1.641051054E0,-1.365592480E-1,-8.040151596E-1
3.489337500E0,1.566209078E0,-5.077111721E-2,-1.091720581E0
3.494452604E0,1.432018280E0,3.594756126E-2,-1.299639702E0
3.499567760E0,1.272258520E0,4.341042042E-2,-1.420940399E0
3.504682916E0,1.121644497E0,-1.258373260E-2,-1.442892075E0
3.509798073E0,9.052218199E-1,-3.134202957E-2,-1.383852005E0
3.514913229E0,7.111110687E-1,-7.006955147E-2,-1.324300766E0
3.520028333E0,5.572482944E-1,-8.317983150E-2,-1.302725792E0
3.525143489E0,4.279721379E-1,-1.053910255E-1,-1.226053238E0
3.530258645E0,1.799110472E-1,-8.903264999E-2,-1.112476349E0
3.535373802E0,-2.663269639E-2,-4.074168205E-2,-1.023099899E0
3.540488958E0,-2.711321115E-1,2.146363258E-3,-1.013966560E0
3.545604062E0,-5.055042505E-1,-4.520368576E-2,-1.260365486E0
3.550719218E0,-6.206037998E-1,7.320404053E-3,-1.600245476E0
3.555834375E0,-6.008704901E-1,6.279182434E-2,-1.894545078E0
3.560949531E0,-4.193539917E-1,5.669546127E-2,-2.126368999E0
3.566064687E0,-2.163584828E-1,3.349399567E-2,-2.343418121E0
3.571179791E0,2.592101693E-2,5.559360981E-2,-2.631601334E0
3.576294948E0,2.603426576E-1,5.123841763E-2,-2.976287842E0
3.581410104E0,4.995126128E-1,9.011781216E-2,-3.291199684E0
3.586525260E0,6.669627428E-1,1.822506189E-1,-3.578683853E0
3.591640364E0,8.497943878E-1,2.028347254E-1,-3.789725304E0
3.596755520E0,1.083357334E0,2.306801081E-1,-3.951914787E0
3.601870677E0,1.241502047E0,2.074487209E-1,-4.017549515E0
3.606985833E0,1.353389025E0,2.123800516E-1,-4.051368713E0
3.612100989E0,1.429047108E0,2.447646856E-1,-4.065457344E0
3.617216145E0,1.377787113E0,2.332299948E-1,-4.087416649E0
3.622331250E0,1.216875911E0,2.667281628E-1,-4.120903492E0
3.627446406E0,1.032696605E0,3.144412041E-1,-4.151642799E0
3.632561562E0,9.015145898E-1,3.908147812E-1,-4.171361446E0
3.637676718E0,7.977340221E-1,5.047675371E-1,-4.075069427E0
3.642791823E0,6.374666691E-1,6.520593166E-1,-3.898983955E0
3.647906979E0,4.006866813E-1,7.997239828E-1,-3.694787502E0
3.653022135E0,2.032991052E-1,8.968741894E-1,-3.545122147E0
3.658137291E0,-4.160273075E-2,1.119637728E0,-3.418879509E0
3.663252448E0,-2.415586710E-1,1.276974082E0,-3.192957401E0
3.668367552E0,-3.686103225E-1,1.478009343E0,-2.878265381E0
3.673482708E0,-4.806309938E-1,1.585190415E0,-2.564529419E0
3.678597864E0,-4.007140994E-1,1.683359265E0,-2.349660873E0
3.683713020E0,-1.995288134E-1,1.775751948E0,-2.205886364E0
3.688828177E0,7.145744562E-2,1.814368844E0,-2.115061283E0
3.693943281E0,2.802995443E-1,1.793253064E0,-2.018474579E0
3.699058437E0,4.584653676E-1,1.882124901E0,-1.865889072E0
3.704173593E0,5.506958961E-1,1.888000369E0,-1.785248756E0
3.709288750E0,6.072245240E-1,1.881452680E0,-1.655708313E0
3.714403854E0,7.032479048E-1,1.946148992E0,-1.546671867E0
3.719519010E0,7.618309259E-1,1.979534268E0,-1.284847260E0
3.724634166E0,8.390523195E-1,2.040432930E0,-9.649114609E-1
3.729749323E0,9.824907780E-1,2.107199430E0,-7.685632706E-1
3.734864479E0,1.116587281E0,2.126677513E0,-7.409019470E-1
3.739979583E0,1.135541677E0,2.113754034E0,-7.153854370E-1
3.745094739E0,1.009558320E0,2.004406452E0,-6.560411453E-1
3.750209895E0,7.630827427E-1,1.898732066E0,-4.385814667E-1
3.755325052E0,3.954801559E-1,1.797718287E0,-1.289892197E-1
3.760440156E0,1.036597490E-1,1.720276356E0,1.399164200E-1
3.765555312E0,-6.869220734E-2,1.662942410E0,2.546663284E-1
3.770670468E0,5.269012451E-1,1.023914099E0,4.510393143E-1
3.775785625E0,-1.379455924E-1,9.589153528E-1,4.434385300E-1
3.780900781E0,-9.415528178E-1,1.136008859E0,3.733663559E-1
3.786015885E0,-1.053463221E0,1.568633199E0,6.090002060E-1
3.791131041E0,-6.805484295E-1,2.062684774E0,7.325601578E-1
3.796246198E0,-7.217463255E-1,2.112371922E0,1.035468102E0
3.801361354E0,-1.352366567E0,1.781660795E0,1.760748863E0
3.806476458E0,-1.854442239E0,1.417528272E0,2.485366821E0
3.811591614E0,-2.026476860E0,1.143830895E0,3.029666901E0
3.816706770E0,-1.943065286E0,1.052834511E0,3.362702370E0
3.821821927E0,-1.702350736E0,1.087703109E0,3.441913605E0
3.826937083E0,-1.512426496E0,1.092021346E0,3.207074165E0
3.832052187E0,-1.399508476E0,1.089691162E0,2.794132233E0
3.837167343E0,-1.362227082E0,1.067599058E0,2.485760689E0
3.842282500E0,-1.248550057E0,1.026036382E0,2.296314240E0
3.847397656E0,-1.078003526E0,9.716905355E-1,2.246031761E0
3.852512760E0,-8.629986048E-1,8.318682909E-1,2.286890984E0
3.857627916E0,-6.991379261E-1,7.523331642E-1,2.424691200E0
3.862743073E0,-5.442604423E-1,5.812730789E-1,2.612603188E0
3.867858229E0,-3.886065483E-1,5.532276630E-1,2.747655869E0
3.872973333E0,-1.668915153E-1,4.629979134E-1,3.059224129E0
3.878088489E0,2.727180719E-2,4.848613739E-1,3.500206947E0
3.883203645E0,1.232114434E-1,5.326262712E-1,4.043849945E0
3.888318802E0,2.495746911E-1,5.723206997E-1,4.529664993E0
3.893433906E0,2.579919696E-1,5.990115404E-1,4.699507713E0
3.898549062E0,2.122892439E-1,4.918853045E-1,4.690235138E0
3.903664218E0,5.773285031E-2,2.631400824E-1,4.437808990E0
3.908779375E0,-1.476209760E-1,-8.089160919E-2,4.131917000E0
3.913894479E0,-2.222117782E-2,-8.724469543E-1,2.660742760E0
3.919009635E0,4.770553708E-1,-1.155514002E0,2.355415344E0
3.924124791E0,8.877087831E-1,-1.498220921E0,4.031817436E0
3.929239948E0,5.127798319E-1,-1.995065928E0,2.803002357E0
3.934355104E0,4.000576437E-1,-2.229405403E0,2.127895355E0
3.939470208E0,2.227560282E-1,-2.168864727E0,2.119369507E0
3.944585364E0,-1.845926344E-1,-2.172620773E0,2.038927078E0
3.949700520E0,-4.959554672E-1,-2.104105949E0,1.868699074E0
3.954815677E0,-6.384436488E-1,-2.027922153E0,1.776101112E0
3.959930781E0,-5.971866846E-1,-1.853683949E0,1.660576820E0
3.965045937E0,-7.450445890E-1,-1.754418492E0,1.573440552E0
3.970161093E0,-9.048835039E-1,-1.679581285E0,1.379502296E0
3.975276250E0,-9.698930979E-1,-1.547640562E0,1.092014313E0
3.980391354E0,-9.889549017E-1,-1.370372057E0,8.055038452E-1
3.985506510E0,-9.681690931E-1,-1.161574364E0,6.179161072E-1
3.990621666E0,-8.979067802E-1,-9.666429758E-1,6.234073639E-1
3.995736823E0,-8.241957426E-1,-8.161392212E-1,6.900339127E-1
4.000851927E0,-7.610812187E-1,-6.484647989E-1,7.410306931E-1
4.005967083E0,-6.942605376E-1,-5.433028340E-1,7.308540344E-1
4.011082239E0,-6.020725965E-1,-4.366570711E-1,6.259346008E-1
4.016197395E0,-4.698984325E-1,-4.183773994E-1,5.374813080E-1
4.021312500E0,-3.106585741E-1,-4.435856342E-1,3.351192474E-1
4.026427656E0,-1.716671884E-1,-4.951632023E-1,1.038484573E-1
4.031542812E0,-4.169499874E-2,-6.337795258E-1,-7.982921600E-2
4.036657968E0,8.278598636E-2,-6.818675995E-1,-1.623020172E-1
4.041773073E0,1.527600884E-1,-8.449018598E-1,-2.262840271E-1
4.046888229E0,1.248641536E-1,-9.492481947E-1,-2.838382721E-1
4.052003385E0,1.206915528E-1,-1.005661011E0,-3.768892288E-1
4.057118541E0,8.561801910E-2,-1.101704359E0,-4.492111206E-1
4.062233645E0,5.708217621E-3,-1.167325735E0,-5.988073349E-1
4.067348802E0,-4.372148961E-2,-1.172283173E0,-7.788362503E-1
4.072463958E0,-9.312757850E-2,-1.188352704E0,-9.687414169E-1
4.077579114E0,-1.433622986E-1,-1.127072811E0,-1.137212753E0
4.082694218E0,-8.670808375E-2,-1.022246838E0,-1.307944298E0
4.087809375E0,2.304570377E-2,-9.589958191E-1,-1.539278030E0
4.092924531E0,1.661009640E-1,-8.609349132E-1,-1.778301239E0
4.098039687E0,2.740279436E-1,-8.487501740E-1,-2.061893463E0
4.103154791E0,3.958018124E-1,-8.202681541E-1,-2.351622581E0
4.108269948E0,4.320693910E-1,-8.082013130E-1,-2.567310333E0
4.113385104E0,4.077612460E-1,-8.377889395E-1,-2.705434799E0
4.118500260E0,4.185412228E-1,-8.074018359E-1,-2.824659824E0
4.123615364E0,3.806800246E-1,-7.935506105E-1,-2.901097298E0
4.128730520E0,3.134289980E-1,-7.276985645E-1,-2.952776432E0
4.133845677E0,2.945525348E-1,-6.824698448E-1,-2.967811584E0
4.138960781E0,2.273027301E-1,-6.261864901E-1,-2.977407455E0
4.144075937E0,1.942804903E-1,-5.689029694E-1,-2.942220688E0
4.149191093E0,-1.992516220E-3,-5.898810625E-1,-2.851678371E0
4.154306250E0,-1.176485270E-1,-5.553399324E-1,-2.696454525E0
4.159421354E0,-3.135100007E-1,-5.231063366E-1,-2.501891136E0
4.164536510E0,-5.064128041E-1,-5.149627924E-1,-2.333980083E0
4.169651666E0,-6.372300982E-1,-3.762226105E-1,-2.111493587E0
4.174766823E0,-8.260337710E-1,-3.575463295E-1,-1.958969593E0
4.179881979E0,-1.051733375E0,-3.339847326E-1,-1.791557312E0
4.184997083E0,-1.082844257E0,-2.098084688E-1,-1.690612316E0
4.190112239E0,-1.030891061E0,-1.144763231E-1,-1.678742886E0
4.195227395E0,-9.783990383E-1,-4.212546349E-2,-1.700818062E0
4.200342500E0,-1.001726866E0,-2.411508560E-2,-1.720868111E0
4.205457656E0,-9.691336751E-1,-3.667807579E-2,-1.740045547E0
4.210572812E0,-8.824930191E-1,-5.358362198E-2,-1.735605240E0
4.215687968E0,-8.236307502E-1,-1.013276577E-1,-1.782848835E0
4.220803073E0,-7.560291290E-1,-1.262285709E-1,-1.799182892E0
4.225918229E0,-6.910591125E-1,-1.761741638E-1,-1.778658867E0
4.231033385E0,-6.163118482E-1,-1.926341057E-1,-1.752392769E0
4.236148541E0,-5.832270980E-1,-1.973887682E-1,-1.672524929E0
4.241263645E0,-5.572508574E-1,-1.867074966E-1,-1.545139313E0
4.246378802E0,-5.227126479E-1,-1.952426434E-1,-1.389431953E0
4.251493958E0,-5.595876575E-1,-1.298289299E-1,-1.271174431E0
4.256609062E0,-5.443900824E-1,-1.341642141E-1,-1.189098358E0
4.261724218E0,-5.701568127E-1,-1.090686321E-1,-1.096510887E0
4.266839375E0,-5.492526293E-1,-1.159145832E-1,-1.050739288E0
4.271954531E0,-5.056200027E-1,-1.418242455E-1,-1.019384384E0
4.277069687E0,-4.608289003E-1,-1.057605743E-1,-9.581336975E-1
4.282184791E0,-4.109417498E-1,-1.227054596E-1,-9.172210693E-1
4.287299948E0,-3.723072708E-1,-1.196134090E-1,-8.727321625E-1
4.292415104E0,-3.290556967E-1,-9.877514839E-2,-8.569898605E-1
4.297530208E0,-3.010783195E-1,-1.065099239E-1,-7.779865265E-1
4.302645364E0,-3.194020987E-1,-1.147623062E-1,-6.024436951E-1
4.307760520E0,-2.709799409E-1,-1.658567190E-1,-3.593206406E-1
4.312875677E0,-3.255985975E-1,-2.436044216E-1,-1.174640656E-2
4.317990781E0,-3.815172315E-1,-3.187346458E-1,3.766927719E-1
4.323105937E0,-4.459768832E-1,-3.908916712E-1,7.532939911E-1
4.328221093E0,-4.974272847E-1,-3.916759491E-1,1.122828484E0
4.333336198E0,-5.130490065E-1,-4.539818764E-1,1.414823532E0
4.338451354E0,-4.510140121E-1,-4.418023825E-1,1.721558571E0
4.343566510E0,-3.167508245E-1,-3.773834705E-1,1.972651482E0
4.348681666E0,-1.771777272E-1,-3.714903593E-1,2.070322037E0
4.353796770E0,-6.035783887E-2,-3.100599051E-1,2.077116013E0
4.358911927E0,5.821925402E-2,-2.797951698E-1,2.166639328E0
4.364027083E0,1.158011556E-1,-2.323458195E-1,2.236125946E0
4.369142239E0,2.068533599E-1,-1.886701584E-1,2.272562981E0
4.374257343E0,3.745135069E-1,-1.264091730E-1,2.255699158E0
4.379372500E0,5.854706764E-1,-1.474080086E-1,2.236984253E0
4.384487656E0,6.715692878E-1,-1.367423534E-1,2.289244652E0
4.389602760E0,8.200936913E-1,-1.851310730E-1,2.292676926E0
4.394717916E0,9.334284663E-1,-2.442729473E-1,2.342773438E0
4.399833073E0,1.001973152E0,-2.357642651E-1,2.421302795E0
4.404948229E0,1.014075637E0,-2.293876410E-1,2.611704826E0
4.410063333E0,1.154450893E0,-6.938827038E-2,2.723633766E0
4.415178489E0,1.238176346E0,4.926168919E-2,2.637575150E0
4.420293645E0,1.258590937E0,1.356428862E-1,2.371794701E0
4.425408802E0,1.245544195E0,1.927881241E-1,2.067746162E0
4.430523906E0,1.128864765E0,2.321845293E-1,1.789027214E0
4.435639062E0,1.076723814E0,2.236518860E-1,1.633844376E0
4.440754218E0,9.855577946E-1,1.995781660E-1,1.652441025E0
4.445869323E0,8.629649878E-1,2.353587151E-1,1.738343239E0
4.450984479E0,8.070910573E-1,1.351524591E-1,1.911855698E0
4.456099635E0,8.002238274E-1,-2.482831478E-2,2.182375908E0
4.461214791E0,7.463081479E-1,-1.753445864E-1,2.572349548E0
4.466329895E0,6.998367906E-1,-3.390991688E-1,3.002516747E0
4.471445052E0,6.289625168E-1,-5.123609304E-1,3.451093674E0
4.476560208E0,6.213924885E-1,-5.506362915E-1,3.866508484E0
4.481675312E0,7.090560198E-1,-5.803426504E-1,4.053863525E0
4.486790468E0,8.853261471E-1,-5.442982912E-1,4.024240494E0
4.491905625E0,1.053214550E0,-5.510107279E-1,3.785167694E0
4.497020781E0,1.179198980E0,-5.524946451E-1,3.395571709E0
4.502135885E0,1.395188808E0,-5.623638034E-1,3.026736259E0
4.507251041E0,1.655861616E0,-6.136595011E-1,2.507802010E0
4.512366198E0,1.892879248E0,-7.387386560E-1,1.791306496E0
4.517481354E0,2.104607821E0,-9.088393450E-1,8.943748474E-1
4.522596458E0,2.273766041E0,-1.004674554E0,1.341428757E-1
4.527711614E0,2.337611914E0,-1.031759262E0,-3.292856216E-1
4.532826770E0,2.336975574E0,-9.757096767E-1,-6.624259949E-1
4.537941875E0,2.227270842E0,-8.898400664E-1,-8.462753296E-1
4.543057031E0,2.085682392E0,-7.143903971E-1,-8.858203888E-1
4.548172187E0,1.906466722E0,-5.625169277E-1,-8.375101089E-1
4.553287291E0,1.645077467E0,-4.303063154E-1,-7.959957123E-1
4.558402448E0,1.343526721E0,-1.993882656E-1,-8.534231186E-1
4.563517604E0,1.106169462E0,-3.990328312E-2,-9.750843048E-1
4.568632760E0,9.394876361E-1,1.196606159E-1,-1.114385605E0
4.573747864E0,8.213893771E-1,1.618542671E-1,-1.266652107E0
4.578863020E0,6.704108715E-1,1.425820589E-1,-1.426028252E0
4.583978177E0,4.964125752E-1,1.009560823E-1,-1.540059090E0
4.589093281E0,3.595981300E-1,-6.042206287E-2,-1.722509384E0
4.594208437E0,2.256658077E-1,-1.080937386E-1,-1.883688927E0
4.599323593E0,8.277571201E-2,-1.797335148E-1,-2.043959618E0
4.604438750E0,1.467764378E-3,-2.195342779E-1,-2.188914299E0
4.609553854E0,-1.033994853E-1,-2.365245819E-1,-2.345973492E0
4.614669010E0,-1.577057093E-1,-2.550691366E-1,-2.497122288E0
4.619784166E0,-2.046035528E-1,-2.543178797E-1,-2.620743275E0
4.624899270E0,-2.318438590E-1,-2.194328308E-1,-2.813611984E0
4.630014427E0,-1.960030049E-1,-1.703273058E-1,-3.073141575E0
4.635129583E0,-1.746405512E-1,-1.291620731E-1,-3.296339989E0
4.640244739E0,-1.171694398E-1,-1.226677895E-1,-3.497537613E0
4.645359843E0,-2.719394118E-2,-9.614193439E-2,-3.649212360E0
4.650475000E0,3.772810102E-2,-3.039205074E-2,-3.725134373E0
4.655590156E0,1.061546132E-1,3.150165081E-2,-3.761266232E0
4.660705260E0,9.903856367E-2,8.588421345E-2,-3.768402576E0
4.665820416E0,7.014948875E-2,1.625934839E-1,-3.735809326E0
4.670935573E0,1.535434276E-3,2.292133570E-1,-3.736447334E0
4.676050677E0,-7.475382090E-2,2.320926189E-1,-3.677040100E0
4.681165833E0,-1.994089186E-1,2.862496376E-1,-3.576818466E0
4.686280989E0,-2.836937904E-1,3.201000690E-1,-3.541074276E0
4.691396145E0,-3.393082023E-1,3.688727617E-1,-3.461016655E0
4.696511250E0,-4.030742943E-1,4.477466345E-1,-3.334448338E0
4.701626406E0,-4.517152607E-1,5.526158810E-1,-3.185453892E0
4.706741562E0,-4.882610440E-1,6.757162809E-1,-3.069159508E0
4.711856666E0,-4.704067111E-1,7.506668568E-1,-2.982030392E0
4.716971823E0,-4.736252427E-1,7.990483046E-1,-2.869030476E0
4.722086979E0,-5.247196555E-1,8.340771198E-1,-2.742149353E0
4.727202083E0,-4.523680210E-1,8.806322813E-1,-2.584630966E0
4.732317239E0,-4.174892902E-1,9.266406298E-1,-2.376177788E0
4.737432395E0,-4.585753083E-1,9.061495066E-1,-2.116825104E0
4.742547500E0,-4.119019508E-1,9.491133690E-1,-1.883082867E0
4.747662656E0,-2.545727491E-1,1.014356017E0,-1.758529663E0
4.752777812E0,-1.174293011E-1,1.085860491E0,-1.698705673E0
4.757892968E0,8.159652352E-2,1.114318013E0,-1.610208511E0
4.763008073E0,1.538944840E-1,1.178257942E0,-1.513314247E0
4.768123229E0,3.124189079E-1,1.225676179E0,-1.478472710E0
4.773238385E0,3.415051699E-1,1.230744481E0,-1.470818520E0
4.778353489E0,4.236143231E-1,1.247061491E0,-1.304982185E0
4.783468645E0,4.791200459E-1,1.247126579E0,-1.098347664E0
4.788583802E0,5.781149864E-1,1.349603176E0,-9.048357010E-1
4.793698958E0,7.788785696E-1,1.397872448E0,-7.340230942E-1
4.798814062E0,8.732857704E-1,1.472638965E0,-5.847826004E-1
4.803929218E0,8.006445169E-1,1.396093607E0,-3.854074478E-1
4.809044375E0,7.118269205E-1,1.337352753E0,-1.838455200E-1
4.814159479E0,5.925179720E-1,1.311007261E0,-3.155422211E-2
4.819274635E0,5.049712658E-1,1.297935009E0,1.528158188E-1
4.824389791E0,4.359772801E-1,1.262064457E0,1.899194717E-1
4.829504895E0,4.102747738E-1,1.290725589E0,2.652244568E-1
4.834620052E0,3.555716574E-1,1.346767187E0,4.910345078E-1
4.839735208E0,2.980024219E-1,1.372722864E0,5.610866547E-1
4.844850312E0,2.842863798E-1,1.419760942E0,6.561508179E-1
4.849965468E0,3.149698377E-1,1.421885371E0,6.507272720E-1
4.855080625E0,3.234798014E-1,1.390992880E0,6.836690903E-1
4.860195781E0,3.461000323E-1,1.435793757E0,7.203035355E-1
4.865310885E0,3.379206657E-1,1.463985205E0,7.582931519E-1
4.870426041E0,3.205720186E-1,1.428893924E0,8.072223663E-1
4.875541198E0,2.485412061E-1,1.432446003E0,9.614830017E-1
4.880656302E0,1.420508325E-1,1.519116282E0,1.155133247E0
4.885771458E0,2.977603674E-2,1.638901114E0,1.347418785E0
4.890886614E0,-1.470704079E-1,1.771471977E0,1.480933189E0
4.896001718E0,-2.854197025E-1,1.840664983E0,1.587979317E0
4.901116875E0,-4.410917163E-1,1.951142669E0,1.707969666E0
4.906232031E0,-6.318449378E-1,1.944324732E0,1.841876984E0
4.911347135E0,-1.492205739E0,1.407622814E0,2.460116386E0
4.916462291E0,-1.161420345E0,1.779808283E0,2.882849693E0
4.921577448E0,-7.582721114E-1,1.826591849E0,2.879647255E0
4.926692552E0,-5.480741262E-1,1.835727215E0,2.644901276E0
4.931807708E0,-4.063062072E-1,1.854686856E0,2.426486015E0
4.936922864E0,-2.667269707E-1,1.735179424E0,2.439558029E0
4.942038020E0,-1.469417810E-1,1.545657396E0,2.609655380E0
4.947153125E0,-7.421892881E-2,1.303160191E0,2.842058182E0
4.952268281E0,-1.074801683E-1,1.046034694E0,3.068560600E0
4.957383437E0,-1.182829142E-1,7.887040377E-1,3.212745667E0
4.962498541E0,-1.505462527E-1,5.680276155E-1,3.332242012E0
4.967613698E0,-1.837291718E-1,3.703387976E-1,3.417690277E0
4.972728854E0,-2.126175761E-1,9.222304821E-2,3.507592201E0
4.977843958E0,-3.630141616E-1,-1.462465525E-1,3.482664108E0
4.982959114E0,-5.888703465E-1,-4.333551526E-1,3.455670357E0
4.988074270E0,-7.989599705E-1,-7.219181657E-1,3.406455994E0
4.993189375E0,-9.350949526E-1,-9.468834400E-1,3.457077026E0
4.998304531E0,-1.003181815E0,-1.129241824E0,3.565543175E0
5.003419687E0,-1.084990025E0,-1.360885859E0,3.521418571E0
5.008534791E0,-1.121502638E0,-1.537810445E0,3.303381920E0
5.013649948E0,-1.062855840E0,-1.560129166E0,3.102852821E0
5.018765104E0,-9.103212357E-1,-1.509583235E0,2.781009674E0
5.023880260E0,-6.782258749E-1,-1.397294641E0,2.470574379E0
5.028995364E0,-4.856396914E-1,-1.311988831E0,2.060235023E0
5.034110520E0,-3.029092550E-1,-1.147076130E0,1.591874123E0
5.039225677E0,-1.785160303E-1,-1.058917165E0,1.121751785E0
5.044340781E0,5.366730690E-2,-1.067149520E0,5.602807999E-1
5.049455937E0,1.742365360E-1,-1.202869415E0,-8.747768402E-2
5.054571093E0,1.658625603E-1,-1.367521405E0,-5.737981796E-1
5.059686198E0,1.527142525E-1,-1.574596882E0,-8.187322617E-1
5.064801354E0,4.292172194E-2,-1.618551135E0,-8.763895035E-1
5.069916458E0,-6.078130007E-2,-1.621788740E0,-6.717777252E-1
5.075031614E0,-2.830246091E-1,-1.615081310E0,-1.694936752E-1
5.080146770E0,-4.920952916E-1,-1.482511401E0,2.581748962E-1
5.085261927E0,-6.074226499E-1,-1.384890914E0,4.952888489E-1
5.090377031E0,-6.620900035E-1,-1.241844177E0,6.317043304E-1
5.095492187E0,-6.497139931E-1,-1.181108475E0,7.296457291E-1
5.100607343E0,-5.821284056E-1,-1.175339937E0,7.902832031E-1
5.105722448E0,-4.627935290E-1,-1.137374163E0,8.422813416E-1
5.110837604E0,-3.058224320E-1,-1.055425882E0,9.274263382E-1
5.115952760E0,-1.312499642E-1,-1.009607077E0,8.352766037E-1
5.121067864E0,1.724839211E-2,-9.721632004E-1,4.466075897E-1
5.126183020E0,1.020436287E-1,-9.024072886E-1,-1.232280731E-1
5.131298177E0,1.040456295E-1,-8.645172715E-1,-8.463830948E-1
5.136413281E0,1.642684937E-1,-8.153806925E-1,-1.081886292E0
5.141528437E0,9.807479382E-2,-7.975465655E-1,-1.175950050E0
5.146643593E0,-6.039506197E-2,-8.065236807E-1,-1.128881454E0
5.151758698E0,-2.154411077E-1,-8.643622398E-1,-1.138195038E0
5.156873854E0,-3.221787214E-1,-8.843251467E-1,-1.254045486E0
5.161989010E0,-3.246338367E-1,-8.956586719E-1,-1.398573875E0
5.167104166E0,-2.193265557E-1,-7.565559745E-1,-1.529875755E0
5.172219270E0,-1.350396872E-1,-6.650174856E-1,-1.694521904E0
5.177334427E0,2.220326662E-2,-5.390459895E-1,-1.858914375E0
5.182449583E0,1.942612231E-1,-4.139916301E-1,-2.167552948E0
5.187564687E0,1.990445554E-1,-3.836227059E-1,-2.612916946E0
5.192679843E0,1.388499737E-1,-3.797478080E-1,-3.016583443E0
5.197794948E0,1.008536220E-1,-3.588587940E-1,-3.163361073E0
5.202910104E0,5.416548252E-2,-3.108414710E-1,-3.191066742E0
5.208025260E0,1.076066494E-2,-2.481733561E-1,-3.124979973E0
5.213140416E0,-6.054311991E-2,-2.272875905E-1,-3.032210827E0
5.218255520E0,-1.982988119E-1,-1.469281614E-1,-2.911644936E0
5.223370677E0,-3.125715852E-1,-1.138638258E-1,-2.789723873E0
5.228485833E0,-4.487270117E-1,-7.935869694E-2,-2.722755909E0
5.233600937E0,-5.797889233E-1,-1.554346085E-2,-2.711924076E0
5.238716093E0,-3.212586641E-1,2.511792779E-1,-3.396733284E0
5.243831250E0,-4.867269993E-1,2.678487897E-1,-3.597515106E0
5.248946354E0,-7.695479393E-1,2.028228045E-1,-3.478781700E0
5.254061510E0,-1.020072222E0,1.923091412E-1,-3.227588177E0
5.259176666E0,-1.312607288E0,1.941434145E-1,-2.853837967E0
5.264291770E0,-1.440527439E0,1.875983477E-1,-2.403286457E0
5.269406927E0,-1.362969756E0,2.819940448E-1,-1.990897655E0
5.274522083E0,-1.258181810E0,3.445506096E-1,-1.730172157E0
5.279637187E0,-1.119328022E0,4.483720064E-1,-1.573019028E0
5.284752343E0,-9.352264404E-1,4.977347851E-1,-1.474927902E0
5.289867500E0,-7.603301406E-1,4.880669117E-1,-1.362774849E0
5.294982604E0,-6.111336350E-1,4.946414232E-1,-1.265165329E0
5.300097760E0,-4.062597156E-1,4.311256409E-1,-1.097106934E0
5.305212916E0,-1.871612668E-1,3.249695301E-1,-9.650144577E-1
5.310328020E0,-8.223018050E-2,2.798069715E-1,-9.189577103E-1
5.315443177E0,1.895794272E-2,2.208261490E-1,-8.559350967E-1
5.320558333E0,6.646895409E-2,1.208735704E-1,-9.253120422E-1
5.325673489E0,7.077065110E-2,7.965564728E-4,-1.086211205E0
5.330788593E0,7.713305950E-2,-1.973732114E-1,-1.149589539E0
5.335903750E0,9.156875312E-2,-3.230894804E-1,-1.059399605E0
5.341018854E0,2.884230018E-2,-4.696757197E-1,-8.648948669E-1
5.346134010E0,2.285823226E-2,-5.453998446E-1,-5.914478302E-1
5.351249166E0,-3.162974119E-2,-5.898157358E-1,-1.891241074E-1
5.356364323E0,-2.754449844E-3,-6.105571985E-1,3.572368622E-2
5.361479427E0,-4.445129633E-2,-6.267616749E-1,5.937290192E-2
5.366594583E0,-4.521870613E-2,-5.787615776E-1,-2.348995209E-2
5.371709739E0,-3.826087713E-2,-5.145326853E-1,-2.027606964E-2
5.376824843E0,-4.248854518E-2,-4.458622932E-1,6.765842438E-2
5.381940000E0,-1.415657401E-1,-4.311767817E-1,2.795991898E-1
5.387055156E0,-1.699739099E-1,-3.814595938E-1,5.746507645E-1
5.392170260E0,-1.018067300E-1,-3.489460945E-1,8.546161652E-1
5.397285416E0,-1.353749633E-2,-2.903920412E-1,1.090809822E0
5.402400573E0,1.145943180E-1,-2.609673738E-1,1.219981194E0
5.407515677E0,2.786759138E-1,-1.952180862E-1,1.231599808E0
5.412630833E0,3.601917624E-1,-1.760525703E-1,1.229919434E0
5.417745989E0,4.047532976E-1,-1.415199041E-1,1.276004791E0
5.422861093E0,4.568117857E-1,-1.049008369E-1,1.397327423E0
5.427976250E0,5.657119751E-1,-3.437817097E-2,1.508981705E0
5.433091406E0,6.403994560E-1,-7.793641090E-2,1.538169861E0
5.438206510E0,7.117906809E-1,-1.125053167E-1,1.658360481E0
5.443321666E0,6.870050430E-1,-2.270886898E-1,1.951793671E0
5.448436823E0,7.001274824E-1,-3.143719435E-1,2.308103561E0
5.453551927E0,8.387573957E-1,-3.939909935E-1,2.589581490E0
5.458667083E0,9.673185349E-1,-3.710182905E-1,2.720896721E0
5.463782239E0,1.151173949E0,-3.219203949E-1,2.686650276E0
5.468897343E0,1.213397145E0,-3.336862326E-1,2.653179169E0
5.474012500E0,1.201548100E0,-3.054926395E-1,2.708922386E0
5.479127656E0,1.204339147E0,-1.762311459E-1,2.802360535E0
5.484242812E0,1.136734366E0,-4.308032990E-2,2.836682320E0
5.489357916E0,1.102766037E0,1.212353706E-1,2.871807098E0
5.494473073E0,1.030790687E0,2.186180353E-1,2.898200035E0
5.499588229E0,8.860011101E-1,2.957086563E-1,2.936218262E0
5.504703333E0,7.746225595E-1,2.782618999E-1,3.036085129E0
5.509818489E0,6.721246243E-1,2.295857668E-1,3.160674095E0
5.514933645E0,5.553053617E-1,1.829152107E-1,3.321921349E0
5.520048750E0,3.279495239E-1,5.784964561E-2,3.613039970E0
5.525163906E0,1.559433043E-1,-4.287314415E-2,3.960935593E0
5.530279062E0,-7.776632905E-2,-1.647539139E-1,4.278259277E0
5.535394166E0,-2.110364437E-1,-1.860946417E-1,4.614129066E0
5.540509323E0,-3.008354902E-1,-2.426278591E-1,4.798883438E0
5.545624479E0,-1.755343229E-1,-3.148072958E-1,4.739655495E0
5.550739583E0,1.096749753E-1,-3.818515539E-1,4.453660965E0
5.555854739E0,5.315786600E-1,-4.806377888E-1,4.145789146E0
5.560969895E0,1.026653051E0,-6.915360093E-1,3.662028313E0
5.566085052E0,1.438476324E0,-9.469224811E-1,2.909517288E0
5.571200156E0,1.894191146E0,-1.252035737E0,2.015425682E0
5.576315312E0,2.229703188E0,-1.465639234E0,1.160470009E0
5.581430468E0,2.458584785E0,-1.655204177E0,4.234561920E-1
5.586545573E0,2.483354568E0,-1.793714523E0,-7.634925842E-2
5.591660729E0,2.558928728E0,-1.727678776E0,-3.273239136E-1
5.596775885E0,2.740087032E0,-1.477098942E0,-7.458467484E-1
5.601890989E0,2.550905228E0,-1.367738485E0,-1.036429405E0
5.607006145E0,2.320779324E0,-1.182049751E0,-1.315237045E0
5.612121302E0,1.909849286E0,-1.048012018E0,-1.466388702E0
5.617236406E0,1.552340984E0,-9.583247304E-1,-1.517626762E0
5.622351562E0,1.331572890E0,-8.470640182E-1,-1.534960747E0
5.627466718E0,1.122945786E0,-6.924062967E-1,-1.513837814E0
5.632581823E0,9.492391944E-1,-5.776990652E-1,-1.478460312E0
5.637696979E0,7.712665796E-1,-4.557448626E-1,-1.376531601E0
5.642812135E0,5.598149896E-1,-3.119453192E-1,-1.288517952E0
5.647927291E0,3.734017909E-1,-2.118233442E-1,-1.229042053E0
5.653042395E0,2.271532118E-1,-2.403472662E-1,-1.261670113E0
5.658157552E0,3.857272863E-2,-2.604662180E-1,-1.394809723E0
5.663272708E0,-1.587698758E-1,-3.404891491E-1,-1.627149582E0
5.668387812E0,-2.777259052E-1,-4.058098793E-1,-1.932146072E0
5.673502968E0,-4.088985324E-1,-4.434323311E-1,-2.255685329E0
5.678618125E0,-6.014707685E-1,-3.856209517E-1,-2.422916412E0
5.683733229E0,-6.811035872E-1,-3.119261265E-1,-2.535359859E0
5.688848385E0,-6.530081630E-1,-2.682876587E-1,-2.687250137E0
5.693963541E0,-4.744609892E-1,-1.533665657E-1,-2.842431068E0
5.699078645E0,-2.212831676E-1,-3.757715225E-2,-2.943364143E0
5.704193802E0,6.092820317E-2,-2.821564674E-3,-2.980469704E0
5.709308958E0,3.704943955E-1,-2.793073654E-2,-3.061376572E0
5.714424062E0,6.046493053E-1,-8.236479759E-2,-3.300732613E0
5.719539218E0,7.188405395E-1,-1.965650320E-1,-3.572735786E0
5.724654375E0,7.917554975E-1,-2.692408562E-1,-3.830672741E0
5.729769531E0,7.759076953E-1,-3.377594948E-1,-4.018332481E0
5.734884635E0,7.471610308E-1,-3.638646603E-1,-4.183616161E0
5.739999791E0,6.456071138E-1,-3.596075773E-1,-4.244027615E0
5.745114948E0,4.642536044E-1,-3.007153273E-1,-4.184183121E0
5.750230052E0,2.031795830E-1,-2.320281267E-1,-3.983977318E0
5.755345208E0,2.037184685E-2,-1.443020105E-1,-3.691518784E0
5.760460364E0,-6.597927213E-2,-3.169560432E-2,-3.433809280E0
5.765575468E0,-2.167463899E-1,1.327949762E-1,-3.181028366E0
5.770690625E0,-3.560982347E-1,2.232898474E-1,-2.927351952E0
5.775805781E0,-3.629167080E-1,4.034442902E-1,-2.627525806E0
5.780920885E0,-3.259370923E-1,5.808429718E-1,-2.294937611E0
5.786036041E0,-3.662711084E-1,8.243417740E-1,-2.030184746E0
5.791151198E0,-4.468728900E-1,1.000270367E0,-1.816498280E0
5.796266354E0,-2.139722109E-1,1.282684922E0,-1.824681282E0
5.801381458E0,-3.470078111E-2,1.526269197E0,-1.912080765E0
5.806496614E0,1.794837415E-2,1.595659375E0,-1.968531609E0
5.811611770E0,3.549496830E-2,1.648572326E0,-1.911507130E0
5.816726875E0,1.746019572E-1,1.649971604E0,-1.848666191E0
5.821842031E0,1.898412406E-1,1.642518640E0,-1.843293190E0
5.826957187E0,2.340573817E-1,1.576752067E0,-1.810338974E0
5.832072291E0,1.399071962E-1,1.586531997E0,-1.794032097E0
5.837187448E0,-5.864724517E-2,1.631168485E0,-1.684372902E0
5.842302604E0,-1.475541294E-1,1.725033879E0,-1.421742439E0
5.847417760E0,-2.679505050E-1,1.954320550E0,-1.092481613E0
5.852532864E0,-3.752529621E-1,2.084586859E0,-7.756309509E-1
5.857648020E0,-4.042217731E-1,2.295385838E0,-4.915542603E-1
5.862763177E0,-4.548019767E-1,2.388243198E0,-2.187528610E-1
5.867878281E0,-5.290139318E-1,2.518943310E0,1.478958130E-1
5.872993437E0,-5.099551082E-1,2.610931396E0,5.006332397E-1
5.878108593E0,-4.379353523E-1,2.660940409E0,7.449865341E-1
5.883223698E0,-3.267367482E-1,2.762617111E0,9.683303833E-1
5.888338854E0,-1.908057332E-1,2.830713272E0,1.045264244E0
5.893454010E0,-2.792978287E-2,2.844670057E0,9.701013565E-1
5.898569114E0,6.433564425E-2,2.860062838E0,8.125228882E-1
5.903684270E0,1.423071623E-1,2.809004784E0,5.943088531E-1
5.908799427E0,1.253096163E-1,2.692070961E0,4.387607574E-1
5.913914583E0,8.630913496E-2,2.499629021E0,4.892072678E-1
5.919029687E0,1.623654366E-2,2.465069771E0,7.094440460E-1
5.924144843E0,-3.852844238E-4,2.408982754E0,9.007425308E-1
5.929260000E0,3.648114204E-2,2.428265095E0,1.069118500E0
5.934375156E0,-1.788866520E-2,2.450759411E0,1.141802788E0
5.939490260E0,-1.847858429E-1,2.418631077E0,1.093966484E0
5.944605416E0,-4.203173518E-1,2.270865440E0,1.138636589E0
5.949720573E0,-5.019796491E-1,1.981389642E0,1.296013832E0
5.954835677E0,-5.608491898E-1,1.828987479E0,1.643628120E0
5.959950833E0,-6.265404224E-1,1.629417896E0,1.928997040E0
5.965065989E0,-7.410421968E-1,1.432642937E0,1.998102188E0
5.970181093E0,-6.543725729E-1,1.260915637E0,1.864534378E0
5.975296250E0,-4.369127750E-1,1.074138284E0,1.680537224E0
5.980411406E0,-1.032192111E-1,9.818181992E-1,1.555217743E0
5.985526562E0,7.688220739E-1,1.230696201E0,1.161091805E0
5.990641666E0,3.035661876E-1,6.771942377E-1,1.422368050E0
5.995756823E0,-9.036827087E-2,1.499607563E-1,2.092569351E0
6.000871979E0,-2.402180433E-1,-1.947559118E-1,2.846585274E0
6.005987083E0,-3.236699104E-2,-2.940098047E-1,3.362253189E0
6.011102239E0,2.790530324E-1,-2.200397253E-1,3.465212822E0
6.016217395E0,4.876542389E-1,-8.349537849E-3,3.194386482E0
6.021332500E0,3.118676245E-1,1.913356781E-2,2.886332512E0
6.026447656E0,-1.135888100E-1,-1.130850315E-1,2.827980995E0
6.031562812E0,-4.947847724E-1,-3.692306280E-1,3.061829567E0
6.036677968E0,-6.776833534E-1,-4.994468689E-1,3.494039536E0
6.041793073E0,-7.652378678E-1,-5.882254839E-1,3.750125885E0
6.046908229E0,-8.935694098E-1,-6.797562838E-1,3.730042458E0
6.052023385E0,-1.022663116E0,-7.764468193E-1,3.588536263E0
6.057138489E0,-1.145528793E0,-9.387295246E-1,3.391772270E0
6.062253645E0,-1.192507744E0,-1.184470415E0,3.100695610E0
6.067368802E0,-1.219014645E0,-1.475609064E0,2.731326103E0
6.072483958E0,-1.258222580E0,-1.764532804E0,2.403646469E0
6.077599062E0,-1.241936207E0,-1.960398555E0,2.005496979E0
6.082714218E0,-1.153129935E0,-2.076207399E0,1.702127457E0
6.087829375E0,-1.010366440E0,-2.046859503E0,1.465968132E0
6.092944479E0,-8.814913630E-1,-1.951613188E0,1.250243187E0
6.098059635E0,-8.035253882E-1,-1.859896183E0,1.159995079E0
6.103174791E0,-7.415934205E-1,-1.801644564E0,1.053844452E0
6.108289948E0,-6.666529775E-1,-1.659618855E0,9.232683182E-1
6.113405052E0,-5.769504905E-1,-1.620527148E0,7.526168823E-1
6.118520208E0,-5.777199268E-1,-1.544128180E0,5.824260712E-1
6.123635364E0,-5.492342710E-1,-1.489993334E0,4.256887436E-1
6.128750468E0,-5.292006731E-1,-1.515963912E0,3.156642914E-1
6.133865625E0,-5.289574862E-1,-1.476462841E0,3.106698990E-1
6.138980781E0,-4.026805758E-1,-1.400267005E0,3.684949875E-1
6.144095937E0,-5.620778799E-1,-1.448331833E0,5.115146637E-1
6.149211041E0,-5.695614815E-1,-1.384726048E0,7.286415100E-1
6.154326198E0,-5.028917193E-1,-1.268545270E0,8.547515869E-1
6.159441354E0,-5.228772163E-1,-1.204247475E0,8.038558960E-1
6.164556458E0,-5.605434179E-1,-1.249550104E0,8.905601501E-1
6.169671614E0,-5.053696036E-1,-1.334053397E0,9.543695450E-1
6.174786770E0,-3.821552396E-1,-1.439166069E0,9.605655670E-1
6.179901927E0,-1.748187244E-1,-1.461757421E0,9.032430649E-1
6.185017031E0,2.851441503E-2,-1.483327985E0,7.072257996E-1
6.190132187E0,2.318786085E-1,-1.510379553E0,4.170846939E-1
6.195247343E0,4.650268853E-1,-1.480285168E0,7.377529144E-2
6.200362448E0,6.830824018E-1,-1.441946745E0,-2.805519104E-1
6.205477604E0,8.309597969E-1,-1.373775959E0,-6.253080368E-1
6.210592760E0,9.642328620E-1,-1.298267365E0,-8.586854935E-1
6.215707916E0,1.045938134E0,-1.235527515E0,-1.101377487E0
6.220823020E0,1.084498048E0,-1.126721144E0,-1.302967072E0
6.225938177E0,1.135146499E0,-1.008608580E0,-1.514754295E0
6.231053333E0,1.167254448E0,-9.203170538E-1,-1.777214050E0
6.236168437E0,1.172825217E0,-8.599323034E-1,-2.030430794E0
6.241283593E0,1.166337252E0,-8.268688917E-1,-2.199015141E0
6.246398750E0,1.133332729E0,-7.748457193E-1,-2.322520733E0
6.251513906E0,1.041368961E0,-7.293518782E-1,-2.397427082E0
6.256629010E0,9.073563218E-1,-6.343812943E-1,-2.428618431E0
6.261744166E0,7.961609364E-1,-6.037288904E-1,-2.459231377E0
6.266859323E0,6.591435671E-1,-5.284352303E-1,-2.477391243E0
6.271974427E0,5.391951799E-1,-4.813474417E-1,-2.436542988E0
6.277089583E0,4.435968995E-1,-4.406669140E-1,-2.436043739E0
6.282204739E0,4.123987257E-1,-3.388159275E-1,-2.328884125E0
6.287319895E0,3.691178858E-1,-2.912925482E-1,-2.225231171E0
6.292435000E0,2.839116454E-1,-2.401189804E-1,-2.168166161E0
6.297550156E0,2.813350558E-1,-2.675085068E-1,-2.145675182E0
6.302665312E0,2.666447163E-1,-2.617343664E-1,-2.133851528E0
6.307780468E0,2.955808043E-1,-2.609400749E-1,-2.136276245E0
6.312895573E0,2.263974547E-1,-3.200414181E-1,-2.170866013E0
6.318010729E0,1.629915833E-1,-2.930351496E-1,-2.100117207E0
6.323125885E0,2.590602636E-1,-1.778733730E-1,-1.987505913E0
6.328241041E0,3.813511133E-1,-8.617866039E-2,-2.008786201E0
6.333356145E0,3.922119737E-1,-2.049911022E-2,-2.014317513E0
6.338471302E0,2.783513665E-1,8.125734329E-2,-1.980201721E0
6.343586458E0,1.971331984E-1,5.886054039E-2,-1.942378998E0
6.348701562E0,1.068184972E-1,3.924226761E-2,-1.829160213E0
6.353816718E0,1.717448235E-3,3.427386284E-3,-1.704061508E0
6.358931875E0,-8.663618565E-2,-1.502382755E-2,-1.543217659E0
6.364047031E0,-1.375650465E-1,4.264163971E-2,-1.384984016E0
6.369162135E0,-1.548809409E-1,8.190548420E-2,-1.238922119E0
6.374277291E0,-1.374123693E-1,1.719906330E-1,-1.169538498E0
6.379392448E0,-1.231254339E-1,2.398117781E-1,-1.107352257E0
6.384507604E0,-1.485564560E-1,2.493153811E-1,-1.033157349E0
6.389622708E0,-1.594278961E-1,2.327679396E-1,-1.004312515E0
6.394737864E0,-1.507994682E-1,1.421951056E-1,-8.891983032E-1
6.399853020E0,-1.561427414E-1,1.175360680E-1,-6.914863586E-1
6.404968125E0,-1.712303162E-1,7.142567635E-2,-5.116758347E-1
6.410083281E0,-1.569075882E-1,9.736180305E-3,-4.262170792E-1
6.415198437E0,-1.528202295E-1,-4.124033451E-2,-4.050846100E-1
6.420313593E0,-1.315456480E-1,-5.174756050E-2,-4.326334000E-1
6.425428750E0,-1.243820563E-1,-7.305908203E-2,-4.705905914E-1
6.430543854E0,-1.103636324E-1,-9.790444374E-2,-4.807195663E-1
6.435659010E0,-1.731173396E-1,-1.402230263E-1,-4.069557190E-1
6.440774166E0,-2.126123011E-1,-1.182138920E-1,-2.602663040E-1
6.445889270E0,-2.681342661E-1,-7.337796688E-2,-7.191181183E-2
6.451004427E0,-2.689413130E-1,-5.674433708E-2,1.400451660E-1
6.456119583E0,-2.281682044E-1,-3.085231781E-2,3.767108917E-1
6.461234739E0,-1.153772622E-1,-8.255004883E-2,6.021060944E-1
6.466349843E0,-5.661168694E-2,-1.336526871E-1,8.018302917E-1
6.471465000E0,5.556643009E-3,-1.741015911E-1,1.058314323E0
6.476580156E0,7.847730815E-2,-2.610144615E-1,1.303283691E0
6.481695312E0,1.707616448E-1,-3.069380522E-1,1.518795967E0
6.486810416E0,3.065466881E-1,-3.587468863E-1,1.718073845E0
6.491925573E0,4.324263334E-1,-4.404531717E-1,1.896369934E0
6.497040729E0,5.202356577E-1,-4.410593510E-1,2.053746223E0
6.502155885E0,5.876742601E-1,-4.516984224E-1,2.151980400E0
6.507270989E0,6.920979619E-1,-4.559217691E-1,2.197147369E0
6.512386145E0,7.757176161E-1,-4.218018055E-1,2.213253021E0
6.517501302E0,8.224134445E-1,-3.807895184E-1,2.235040665E0
6.522616406E0,8.681844473E-1,-3.129365444E-1,2.272126198E0
6.527731562E0,9.379163980E-1,-2.618283033E-1,2.301875114E0
6.532846718E0,9.832487106E-1,-2.290169001E-1,2.369808197E0
6.537961875E0,1.014491796E0,-2.985785007E-1,2.351635933E0
6.543076979E0,1.001819491E0,-2.950369120E-1,2.294164658E0
6.548192135E0,9.356566668E-1,-3.347916603E-1,2.192725182E0
6.553307291E0,8.007770777E-1,-3.583073616E-1,2.059382439E0
6.558422448E0,7.637466192E-1,-3.384281397E-1,1.910969734E0
6.563537552E0,6.800649166E-1,-2.766399384E-1,1.709300041E0
6.568652708E0,6.178834438E-1,-2.185076475E-1,1.540551186E0
6.573767864E0,5.601654053E-1,-1.651501656E-1,1.404701233E0
6.578883020E0,5.076200962E-1,-1.331827641E-1,1.308897972E0
6.583998125E0,3.949396908E-1,-7.924818993E-2,1.238729477E0
6.589113281E0,3.303293884E-1,-4.827475548E-2,1.234747887E0
6.594228437E0,2.615479827E-1,7.388544083E-2,1.268098831E0
6.599343593E0,1.950624287E-1,1.369085312E-1,1.301605225E0
6.604458698E0,1.635378599E-1,3.086813688E-1,1.355510712E0
6.609573854E0,2.043908238E-1,5.476516485E-1,1.421329498E0
6.614689010E0,2.341108173E-1,6.506375074E-1,1.475086212E0
6.619804114E0,2.733303607E-1,7.497525215E-1,1.535810471E0
6.624919270E0,3.189419508E-1,7.449926138E-1,1.650005341E0
6.630034427E0,3.608711958E-1,6.835684776E-1,1.745751381E0
6.635149583E0,3.464918435E-1,4.989857674E-1,1.815796852E0
6.640264687E0,3.596496880E-1,2.660661936E-1,1.883967400E0
6.645379843E0,4.187156856E-1,2.830314636E-2,1.976493835E0
6.650495000E0,3.830761015E-1,-1.746133566E-1,2.028749466E0
6.655610156E0,4.147179127E-1,-3.856320381E-1,2.137619019E0
6.660725260E0,4.781896770E-1,-5.366634130E-1,2.156016350E0
6.665840416E0,5.039063096E-1,-6.426695585E-1,2.139183044E0
6.670955573E0,5.539779067E-1,-7.282812595E-1,1.994064331E0
6.676070729E0,6.238869429E-1,-7.812453508E-1,1.761654854E0
6.681185833E0,6.642428041E-1,-8.243134022E-1,1.508042336E0
6.686300989E0,7.341051698E-1,-8.551609516E-1,1.234666824E0
6.691416145E0,8.278483152E-1,-8.491026163E-1,8.928012848E-1
6.696531302E0,9.531694055E-1,-8.196346164E-1,4.469051361E-1
6.701646406E0,1.086913347E0,-8.026468754E-1,-8.597183228E-2
6.706761562E0,1.174447656E0,-7.428002357E-1,-6.099395752E-1
6.711876718E0,1.221866012E0,-7.444180846E-1,-1.048451424E0
6.716991875E0,1.213247299E0,-7.523331642E-1,-1.395632744E0
6.722106979E0,1.096653223E0,-7.909671664E-1,-1.621799469E0
6.727222135E0,9.097504616E-1,-8.067382574E-1,-1.790594578E0
6.732337291E0,6.531022787E-1,-8.403036594E-1,-1.911835670E0
6.737452448E0,5.115377903E-1,-8.425720930E-1,-1.996535301E0
6.742567552E0,3.791793883E-1,-7.836744785E-1,-2.107112885E0
6.747682708E0,2.698644102E-1,-7.771687508E-1,-2.170839787E0
6.752797864E0,7.691937685E-2,-7.546638250E-1,-2.213150978E0
6.757913020E0,-1.616713554E-1,-7.472071648E-1,-2.222375393E0
6.763028125E0,-3.782908022E-1,-7.407776117E-1,-2.186801910E0
6.768143281E0,-5.124492645E-1,-6.797465086E-1,-2.186753273E0
6.773258437E0,-6.317768097E-1,-6.262922287E-1,-2.264089108E0
6.778373593E0,-6.829726696E-1,-4.850035906E-1,-2.305127144E0
6.783488698E0,-6.748012304E-1,-3.447928429E-1,-2.374439240E0
6.788603854E0,-5.725491643E-1,-1.811130047E-1,-2.467108727E0
6.793719010E0,-3.985308111E-1,-3.308272362E-2,-2.667816639E0
6.798834114E0,-2.200417519E-1,1.463770866E-2,-2.929576874E0
6.803949270E0,-6.988489628E-2,-3.168976307E-2,-3.209047794E0
6.809064427E0,1.319825649E-2,-1.379874945E-1,-3.446265221E0
6.814179583E0,3.717398643E-2,-2.483191490E-1,-3.581415176E0
6.819294739E0,1.198161542E-1,-3.005082607E-1,-3.682747364E0
6.824409843E0,1.673259139E-1,-3.114426136E-1,-3.793297768E0
6.829525000E0,2.156932950E-1,-2.440735102E-1,-3.887946606E0
6.834640156E0,2.038914412E-1,-1.819930077E-1,-3.869904995E0
6.839755312E0,1.698063910E-1,-6.227493286E-4,-3.727415085E0
6.844870416E0,1.571423709E-1,1.305853128E-1,-3.570732117E0
6.849985573E0,7.939219475E-2,2.597098351E-1,-3.354492188E0
6.855100729E0,-4.695272446E-2,3.570715189E-1,-3.146967888E0
6.860215833E0,-1.563520432E-1,4.489954710E-1,-2.974460125E0
6.865330989E0,-2.443868518E-1,5.437196493E-1,-2.853653908E0
6.870446145E0,-3.271255493E-1,6.587706804E-1,-2.691184998E0
6.875561302E0,-2.900490165E-1,8.117315769E-1,-2.542058945E0
6.880676406E0,-2.637124658E-1,9.146368504E-1,-2.449188232E0
6.885791562E0,-2.589222789E-1,1.024312258E0,-2.371746063E0
6.890906718E0,-2.363599539E-1,1.104259968E0,-2.242662430E0
6.896021875E0,-2.007973194E-1,1.162648439E0,-2.120543480E0
6.901136979E0,-2.288858294E-1,1.202934384E0,-1.955145836E0
6.906252135E0,-2.978462577E-1,1.260238647E0,-1.713134766E0
6.911367291E0,-3.659414053E-1,1.352786660E0,-1.398258209E0
6.916482448E0,-3.494760990E-1,1.535930634E0,-1.034597397E0
6.921597552E0,-3.845340610E-1,1.654376864E0,-7.609167099E-1
6.926712708E0,-3.596137166E-1,1.784931302E0,-4.384431839E-1
6.931827864E0,-2.861158252E-1,1.912156940E0,-2.477436066E-1
6.936943020E0,-2.301996946E-1,1.935944438E0,-1.193094254E-1
6.942058125E0,-2.172089219E-1,1.963255763E0,5.690860748E-2
6.947173281E0,-2.211381793E-1,1.947779655E0,1.732521057E-1
6.952288437E0,-2.248103023E-1,1.901956201E0,2.656040192E-1
6.957403541E0,-1.897488832E-1,1.869064331E0,4.045143127E-1
6.962518698E0,-2.214202285E-1,1.783448696E0,5.348978043E-1
6.967633854E0,-2.016723156E-1,1.756366968E0,6.794672012E-1
6.972749010E0,-1.847828031E-1,1.795092821E0,7.699966431E-1
6.977864114E0,-2.452285290E-1,1.806240439E0,8.974065781E-1
6.982979270E0,-3.582610488E-1,1.813687563E0,1.003054619E0
6.988094427E0,-4.238879085E-1,1.835302830E0,1.040317535E0
6.993209583E0,-5.241869688E-1,1.839613438E0,1.115703583E0
6.998324687E0,-6.265078187E-1,1.814393997E0,1.192082405E0
7.003439843E0,-7.544442415E-1,1.807083368E0,1.255108833E0
7.008555000E0,-9.108377099E-1,1.764554501E0,1.291696548E0
7.013670156E0,-1.020136356E0,1.729371786E0,1.250587463E0
7.018785260E0,-1.084730983E0,1.724874735E0,1.201337814E0
7.023900416E0,-1.108356476E0,1.676585674E0,1.191832542E0
7.029015573E0,-1.216598988E0,1.620335579E0,1.186174393E0
7.034130677E0,-1.223230600E0,1.552522421E0,1.273991585E0
7.039245833E0,-1.284016132E0,1.482899189E0,1.375008583E0
7.044360989E0,-1.306579471E0,1.446345806E0,1.474846840E0
7.049476145E0,-1.283918381E0,1.422757864E0,1.556828499E0
7.054591250E0,-1.277143836E0,1.460453033E0,1.615004539E0
7.059706406E0,-1.282805800E0,1.388802052E0,1.727133751E0
7.064821562E0,-1.309875250E0,1.339829445E0,1.827369690E0
7.069936666E0,-1.326760411E0,1.281658649E0,1.900135994E0
7.075051823E0,-1.328447342E0,1.261290312E0,1.976490974E0
7.080166979E0,-1.325591564E0,1.153361797E0,2.007376671E0
7.085282135E0,-1.359430313E0,1.104000807E0,2.051330566E0
7.090397239E0,-1.331753016E0,1.028523207E0,2.191846848E0
7.095512395E0,-1.293712616E0,1.015192509E0,2.442821503E0
7.100627552E0,-1.264957547E0,9.595875740E-1,2.712980270E0
7.105742708E0,-1.186545253E0,9.051494598E-1,2.820515633E0
7.110857812E0,-1.139052391E0,8.232526779E-1,2.794385910E0
7.115972968E0,-1.075042844E0,7.742962837E-1,2.614666939E0
7.121088125E0,-1.086164951E0,6.022417545E-1,2.443140030E0
7.126203281E0,-1.184287429E0,4.105882645E-1,2.320614815E0
7.131318385E0,-1.187926173E0,2.393796444E-1,2.237582207E0
7.136433541E0,-1.287323117E0,9.872102737E-2,2.097310066E0
7.141548698E0,-1.300662518E0,-2.053117752E-2,1.917979240E0
7.146663802E0,-1.348944545E0,-1.034364700E-1,1.698571205E0
7.151778958E0,-1.363262415E0,-1.995830536E-1,1.498983383E0
7.156894114E0,-1.385302901E0,-3.259360790E-1,1.406397820E0
7.162009218E0,-1.394740701E0,-4.717915058E-1,1.366749763E0
7.167124375E0,-1.399687648E0,-5.463120937E-1,1.394203186E0
7.172239531E0,-1.350528359E0,-6.334142685E-1,1.381020546E0
7.177354687E0,-1.302690983E0,-6.530584097E-1,1.333193779E0
7.182469791E0,-1.278805017E0,-6.748919487E-1,1.229308128E0
7.187584948E0,-1.222131371E0,-6.285941601E-1,1.113789558E0
7.192700104E0,-1.130971193E0,-6.232883930E-1,9.341850281E-1
7.197815260E0,-1.063190579E0,-5.801174641E-1,7.038640976E-1
7.202930364E0,-1.013221025E0,-5.672235489E-1,4.959182739E-1
7.208045520E0,-9.614876509E-1,-5.269747972E-1,3.019704819E-1
7.213160677E0,-1.006929755E0,-5.466468334E-1,7.900810242E-2
7.218275781E0,-1.077753067E0,-5.925321579E-1,-1.598072052E-1
7.223390937E0,-1.131591320E0,-6.116604805E-1,-2.795133591E-1
7.228506093E0,-1.110872149E0,-6.283388138E-1,-3.056812286E-1
7.233621250E0,-1.071290374E0,-6.283075809E-1,-2.519283295E-1
7.238736354E0,-1.100608587E0,-6.400649548E-1,-1.426811218E-1
7.243851510E0,-1.222040296E0,-7.684128284E-1,7.769107819E-2
7.248966666E0,-1.218580246E0,-7.749185562E-1,4.073505402E-1
7.254081770E0,-1.217592835E0,-7.863798141E-1,7.333860397E-1
7.259196927E0,-1.274501920E0,-7.935063839E-1,1.031618118E0
7.264312083E0,-1.248316765E0,-7.613174915E-1,1.341478348E0
7.269427239E0,-1.003196716E0,-6.982195377E-1,1.510080338E0
7.274542343E0,-6.858632565E-1,-6.551027298E-1,1.480646133E0
7.279657500E0,-3.880641460E-1,-5.991339684E-1,1.228822708E0
7.284772656E0,-1.214482784E-1,-6.271226406E-1,9.049043655E-1
7.289887760E0,1.639828682E-1,-7.167255878E-1,5.036106110E-1
7.295002916E0,4.279388785E-1,-7.748279572E-1,1.402616501E-1
7.300118073E0,7.317604423E-1,-8.857401609E-1,-2.910919189E-1
7.305233229E0,9.104508162E-1,-1.009024620E0,-7.732410431E-1
7.310348333E0,1.121510863E0,-1.115834951E0,-1.219799042E0
7.315463489E0,1.255013227E0,-1.216346860E0,-1.581692696E0
7.320578645E0,1.224288225E0,-1.376346827E0,-1.843550205E0
7.325693750E0,1.163194060E0,-1.430307865E0,-1.927993774E0
7.330808906E0,1.109378457E0,-1.413736701E0,-1.950249672E0
7.335924062E0,9.827666283E-1,-1.332157850E0,-1.898719788E0
7.341039218E0,8.146956563E-1,-1.189936161E0,-1.802470207E0
7.346154323E0,6.343365312E-1,-1.043003440E0,-1.731133938E0
7.351269479E0,4.900460243E-1,-9.293733835E-1,-1.658613205E0
7.356384635E0,2.581320405E-1,-7.879749537E-1,-1.575536728E0
7.361499739E0,6.402379274E-2,-6.511605978E-1,-1.517935753E0
7.366614895E0,-2.724266052E-2,-5.024504662E-1,-1.531243324E0
7.371730052E0,-3.962033987E-2,-3.865015507E-1,-1.612900734E0
7.376845156E0,-1.798206568E-2,-2.950043678E-1,-1.798615456E0
7.381960312E0,2.529489994E-2,-3.022203445E-1,-1.914784908E0
7.387075468E0,2.903103828E-2,-3.708941936E-1,-2.031947613E0
7.392190625E0,-8.186101913E-4,-3.918548822E-1,-2.080715179E0
7.397305729E0,-2.403104305E-2,-3.968554735E-1,-2.062429428E0
7.402420885E0,-7.320064306E-2,-4.212822914E-1,-1.949707031E0
7.407536041E0,-1.059387326E-1,-4.381506443E-1,-1.832438469E0
7.412651145E0,-1.003337502E-1,-4.470225573E-1,-1.747760296E0
7.417766302E0,-9.541982412E-2,-4.020595551E-1,-1.695692062E0
7.422881458E0,-7.536762953E-2,-4.201377630E-1,-1.588982582E0
7.427996562E0,-1.047116518E-1,-4.625821114E-1,-1.451689720E0
7.433111718E0,-9.834885597E-2,-4.776087999E-1,-1.336529732E0
7.438226875E0,-1.842426062E-1,-5.141097307E-1,-1.198081970E0
7.443342031E0,-2.573335767E-1,-4.967019558E-1,-1.061511993E0
7.448457135E0,-3.275837898E-1,-4.899752140E-1,-9.148950577E-1
7.453572291E0,-3.537464738E-1,-4.321558475E-1,-8.000316620E-1
7.458687448E0,-3.685188890E-1,-3.811247349E-1,-7.311506271E-1
7.463802552E0,-3.685258031E-1,-3.446611166E-1,-7.283821106E-1
7.468917708E0,-2.747582197E-1,-2.506942749E-1,-7.866477966E-1
7.474032864E0,-1.947704554E-1,-2.218112946E-1,-8.925704956E-1
7.479147968E0,-8.508074284E-2,-1.857539415E-1,-9.980707169E-1
7.484263125E0,-2.533549070E-2,-2.136667967E-1,-1.111351967E0
7.489378281E0,3.855180740E-2,-2.892477512E-1,-1.209565163E0
7.494493437E0,7.543790340E-2,-2.908082008E-1,-1.228111267E0
7.499608541E0,1.448115110E-1,-3.658146858E-1,-1.245955467E0
7.504723698E0,2.164198756E-1,-3.231568336E-1,-1.245132446E0
7.509838854E0,2.720491290E-1,-3.015482426E-1,-1.247228622E0
7.514953958E0,3.535842299E-1,-2.961299419E-1,-1.234314919E0
7.520069114E0,4.156326950E-1,-2.454707623E-1,-1.167042732E0
7.525184270E0,4.834386706E-1,-2.363941669E-1,-1.096989632E0
7.530299375E0,4.960998893E-1,-2.742528915E-1,-1.032644272E0
7.535414531E0,5.361186862E-1,-3.154435158E-1,-9.549827576E-1
7.540529687E0,5.495297313E-1,-3.066365719E-1,-8.068037033E-1
7.545644791E0,5.629106164E-1,-3.307137489E-1,-6.433773041E-1
7.550759948E0,6.482356191E-1,-2.733471394E-1,-4.732408524E-1
7.555875104E0,6.822192073E-1,-2.391469479E-1,-2.678823471E-1
7.560990208E0,6.132818460E-1,-2.798337936E-1,-2.039432526E-2
7.566105364E0,4.999810457E-1,-3.086826801E-1,2.678356171E-1
7.571220520E0,3.373747766E-1,-3.530733585E-1,5.357379913E-1
7.576335677E0,1.958913803E-1,-3.364408016E-1,7.247419357E-1
7.581450781E0,2.299332321E-1,-3.561730385E-1,8.613739014E-1
7.586565937E0,3.413074613E-1,-3.543243408E-1,8.837041855E-1
7.591681093E0,4.941852987E-1,-4.320712090E-1,9.486751556E-1
7.596796198E0,6.300624609E-1,-5.301856995E-1,9.810743332E-1
7.601911354E0,7.702558041E-1,-6.325039864E-1,1.048026085E0
7.607026510E0,8.793455362E-1,-7.465450764E-1,1.228443146E0
7.612141614E0,1.071609378E0,-7.758646011E-1,1.483999252E0
7.617256770E0,1.221434355E0,-8.104643822E-1,1.641309738E0
7.622371927E0,1.330385566E0,-9.044882059E-1,1.750800133E0
7.627487031E0,1.395355344E0,-9.146076441E-1,1.842491150E0
7.632602187E0,1.475527525E0,-1.005974889E0,1.921217918E0
7.637717343E0,1.486751676E0,-1.054135203E0,2.001357079E0
7.642832448E0,1.464797735E0,-1.018518806E0,2.086526871E0
7.647947604E0,1.407367945E0,-9.469428062E-1,2.104982376E0
7.653062760E0,1.379042864E0,-8.024138212E-1,2.087912560E0
7.658177864E0,1.204789996E0,-6.640377045E-1,2.068858147E0
7.663293020E0,1.113447666E0,-5.580518246E-1,2.046609879E0
7.668408177E0,1.019676805E0,-4.318375587E-1,2.009207726E0
7.673523281E0,8.811136484E-1,-3.330208063E-1,2.027152061E0
7.678638437E0,7.626644373E-1,-2.852807045E-1,2.095534325E0
7.683753593E0,6.790169477E-1,-2.310854197E-1,2.098289490E0
7.688868698E0,6.689853668E-1,-2.228288651E-1,2.011535645E0
7.693983854E0,5.974638462E-1,-2.936758995E-1,1.966815948E0
7.699098958E0,5.886091590E-1,-3.665044308E-1,2.051201820E0
7.704214114E0,6.072551012E-1,-4.856748581E-1,2.249899864E0
7.709329270E0,5.071508884E-1,-6.477007866E-1,2.544554710E0
7.714444427E0,3.938446939E-1,-8.190674782E-1,2.866603851E0
7.719559531E0,2.440033257E-1,-9.210566282E-1,3.196659088E0
7.724674687E0,1.919731349E-1,-9.471955299E-1,3.429415703E0
7.729789843E0,2.206583172E-1,-8.939187527E-1,3.544725418E0
7.734904948E0,3.280202150E-1,-8.028626442E-1,3.428247452E0
7.740020104E0,3.806322515E-1,-7.061370611E-1,3.228816032E0
7.745135208E0,4.001736045E-1,-6.542452574E-1,2.999500275E0
7.750250364E0,5.274834633E-1,-6.439688206E-1,2.745470047E0
7.755365520E0,6.890922189E-1,-6.793708801E-1,2.414498329E0
7.760480677E0,9.275114536E-1,-7.610927820E-1,1.983116150E0
7.765595781E0,1.102708578E0,-8.754004240E-1,1.442221642E0
7.770710937E0,1.277839184E0,-9.556149244E-1,7.563352585E-1
7.775826041E0,1.339785933E0,-9.777293801E-1,1.565523148E-1
7.780941198E0,1.338191986E0,-9.863913059E-1,-3.045969009E-1
7.786056354E0,1.244075537E0,-9.251961708E-1,-5.962657928E-1
7.791171458E0,9.837462902E-1,-8.665097952E-1,-7.200040817E-1
7.796286614E0,7.194583416E-1,-7.759848833E-1,-7.945499420E-1
7.801401770E0,4.043114781E-1,-6.023310423E-1,-8.261566162E-1
7.806516875E0,2.409719527E-1,-4.472209215E-1,-8.940038681E-1
7.811632031E0,1.563939005E-1,-2.768229246E-1,-9.636402130E-1
7.816747187E0,1.512706280E-2,-1.507464647E-1,-9.839200974E-1
7.821862291E0,-1.096516252E-1,-1.224781275E-1,-1.011376381E0
7.826977448E0,-1.843819618E-1,-1.521607637E-1,-9.829444885E-1
7.832092604E0,-2.959029675E-1,-2.096002102E-1,-9.456281662E-1
7.837207708E0,-4.375598431E-1,-2.708065510E-1,-9.236278534E-1
7.842322864E0,-5.702695847E-1,-3.370916843E-1,-9.231424332E-1
7.847438020E0,-6.548523307E-1,-3.886108398E-1,-9.885473251E-1
7.852553125E0,-7.239907980E-1,-4.144299030E-1,-1.132951736E0
7.857668281E0,-7.600655556E-1,-4.470002651E-1,-1.345462799E0
7.862783437E0,-7.456018329E-1,-4.680242538E-1,-1.650897026E0
7.867898541E0,-6.727222204E-1,-5.416915417E-1,-1.995133400E0
7.873013698E0,-5.408694744E-1,-5.913598537E-1,-2.314477444E0
7.878128802E0,-4.189891815E-1,-6.306474209E-1,-2.744863987E0
7.883243958E0,-3.092350662E-1,-6.403553486E-1,-3.141223907E0
7.888359114E0,-3.110798001E-1,-6.705367565E-1,-3.460330963E0
7.893474218E0,-2.972131073E-1,-6.993123293E-1,-3.654277802E0
7.898589375E0,-2.677469254E-1,-6.637330055E-1,-3.808048248E0
7.903704479E0,-1.675775051E-1,-5.652321577E-1,-3.913321495E0
7.908819635E0,-5.284464359E-2,-4.469997883E-1,-4.000075340E0
7.913934791E0,1.348820329E-2,-3.150005341E-1,-4.070773125E0
7.919049895E0,4.987996817E-2,-1.930017471E-1,-4.114751816E0
7.924165052E0,3.450834751E-2,-1.058335304E-1,-4.130934715E0
7.929280208E0,2.043187618E-3,-1.022791862E-2,-4.182776928E0
7.934395312E0,-7.621800900E-2,8.085286617E-2,-4.151929855E0
7.939510468E0,-2.012661099E-1,1.701625586E-1,-4.123454094E0
7.944625625E0,-2.702541947E-1,2.556626797E-1,-4.023304939E0
7.949740729E0,-3.861652017E-1,3.628866673E-1,-3.861238480E0
7.954855885E0,-4.210305214E-1,4.587899446E-1,-3.657758713E0
7.959970989E0,-4.226453304E-1,6.055027246E-1,-3.528871536E0
7.965086145E0,-3.989924788E-1,7.549566031E-1,-3.480401993E0
7.970201302E0,-3.328703642E-1,8.304699659E-1,-3.447626114E0
7.975316406E0,-3.435642123E-1,9.299879074E-1,-3.364710808E0
7.980431562E0,-3.040637374E-1,9.687364101E-1,-3.201845169E0
7.985546718E0,-2.860195637E-1,1.060574293E0,-2.998610497E0
7.990661823E0,-2.727379203E-1,1.177227616E0,-2.704944611E0
7.995776979E0,-2.261931300E-1,1.326470017E0,-2.353384018E0
8.000892135E0,-1.612282991E-1,1.453540444E0,-1.954847336E0
8.006007239E0,-1.343812943E-1,1.632981777E0,-1.564486504E0
8.011122395E0,-8.236718178E-2,1.788181901E0,-1.298258781E0
8.016237500E0,3.184998035E-2,2.004004478E0,-1.055568695E0
8.021352656E0,1.151507497E-1,2.162053823E0,-8.136510849E-1
8.026467812E0,1.999657750E-1,2.298057318E0,-5.592918396E-1
8.031582916E0,3.367251754E-1,2.430964470E0,-3.366746902E-1
8.036698073E0,3.811812401E-1,2.472997665E0,-1.539821625E-1
8.041813177E0,3.174431324E-1,2.508536816E0,-3.369426727E-2
8.046928333E0,2.550829649E-1,2.462875366E0,5.312728882E-2
8.052043489E0,1.634665728E-1,2.407190323E0,1.592912674E-1
8.057158593E0,1.769250035E-1,2.370796680E0,2.705650330E-1
8.062273750E0,1.318418384E-1,2.347210884E0,3.607473373E-1
8.067388906E0,5.722284317E-2,2.362372875E0,4.120149612E-1
8.072504010E0,-6.358844042E-2,2.375269890E0,4.902324677E-1
8.077619166E0,-1.374542713E-1,2.401331425E0,5.989589691E-1
8.082734270E0,-2.450278401E-1,2.420319080E0,7.345094681E-1
8.087849427E0,-3.309725523E-1,2.416949749E0,9.098777771E-1
8.092964583E0,-4.301393032E-1,2.365290165E0,1.163074493E0
8.098079687E0,-5.532275438E-1,2.349323750E0,1.418517113E0
8.103194843E0,-7.035130262E-1,2.283009052E0,1.650966644E0
8.108309948E0,-8.371933699E-1,2.227268696E0,1.789861679E0
8.113425104E0,-9.569607973E-1,2.236831188E0,1.891502380E0
8.118540260E0,-9.772918224E-1,2.194080353E0,1.986993790E0
8.123655364E0,-1.010515094E0,2.141679764E0,2.047729492E0
8.128770520E0,-1.038473010E0,2.124968052E0,2.065416336E0
8.133885625E0,-1.088494062E0,2.026460171E0,2.091576576E0
8.139000781E0,-1.112579823E0,2.010082245E0,2.134582520E0
8.144115937E0,-1.057803988E0,1.919045568E0,2.177736282E0
8.149231041E0,-1.060253143E0,1.867069840E0,2.230642319E0
8.154346198E0,-1.013253927E0,1.837621450E0,2.251439095E0
8.159461302E0,-9.835953712E-1,1.826181769E0,2.333414078E0
8.164576458E0,-9.770661592E-1,1.774692297E0,2.441764832E0
8.169691614E0,-9.491716623E-1,1.794814944E0,2.545341492E0
8.174806718E0,-9.184371233E-1,1.750623584E0,2.632197380E0
8.179921875E0,-8.817889690E-1,1.641420126E0,2.672479630E0
8.185036979E0,-8.326491117E-1,1.507004380E0,2.678221703E0
8.190152135E0,-7.720371485E-1,1.310715199E0,2.633876801E0
8.195267291E0,-7.944241762E-1,1.118540287E0,2.805862427E0
8.200382395E0,-7.346524000E-1,8.684823513E-1,3.080057144E0
8.205497552E0,-6.849981546E-1,7.051428556E-1,3.156144142E0
8.210612656E0,-6.831098795E-1,5.714635849E-1,3.048806190E0
8.215727812E0,-6.786385775E-1,5.317746401E-1,2.819401741E0
8.220842968E0,-7.341871262E-1,4.560717344E-1,2.542438507E0
8.225958073E0,-9.255415201E-1,2.333295345E-1,2.323347092E0
8.231073229E0,-1.164214611E0,6.369793415E-2,2.243393898E0
8.236188333E0,-1.338394761E0,-1.072299480E-1,2.246128082E0
8.241303489E0,-1.469903231E0,-2.537955046E-1,2.242948532E0
8.246418645E0,-1.575264573E0,-3.024491072E-1,2.157346725E0
8.251533750E0,-1.623964906E0,-4.103200436E-1,2.001387596E0
8.256648906E0,-1.726839781E0,-5.238958597E-1,1.887509346E0
8.261764010E0,-1.808103919E0,-6.591887474E-1,1.749889374E0
8.266879166E0,-1.844733357E0,-8.083298206E-1,1.568212509E0
8.271994270E0,-1.867666125E0,-9.408324957E-1,1.389142990E0
8.277109427E0,-1.853968859E0,-1.016497374E0,1.256866455E0
8.282224583E0,-1.747119308E0,-1.058495402E0,1.160538673E0
8.287339687E0,-1.668512106E0,-1.052538157E0,1.117999077E0
8.292454843E0,-1.474730492E0,-1.028317571E0,1.069381714E0
8.297569948E0,-1.325502872E0,-9.819743037E-1,1.050629616E0
8.302685104E0,-1.106149912E0,-8.411068916E-1,1.050992012E0
8.307800208E0,-9.661644697E-1,-7.749977112E-1,1.023899078E0
8.312915364E0,-9.041181803E-1,-7.516608238E-1,9.718112946E-1
8.318030520E0,-8.795340061E-1,-8.011355400E-1,9.436988831E-1
8.323145625E0,-9.180599451E-1,-9.435718060E-1,1.037371635E0
8.328260781E0,-1.003743410E0,-1.067312002E0,1.247589111E0
8.333375885E0,-1.124275088E0,-1.213893890E0,1.534425735E0
8.338491041E0,-1.253932476E0,-1.320980787E0,1.816226006E0
8.343606145E0,-1.326526403E0,-1.398390770E0,2.064098358E0
8.348721302E0,-1.360635996E0,-1.401748180E0,2.245803833E0
8.353836458E0,-1.316119909E0,-1.428261399E0,2.274263382E0
8.358951562E0,-1.144630671E0,-1.384250998E0,2.192933083E0
8.364066718E0,-8.668895960E-1,-1.316354752E0,2.016621590E0
8.369181823E0,-6.750954986E-1,-1.298639059E0,1.750499725E0
8.374296979E0,-3.665947318E-1,-1.257936835E0,1.546765327E0
8.379412083E0,-1.899230480E-1,-1.239778519E0,1.280088425E0
8.384527239E0,5.006009340E-2,-1.203854322E0,9.281501770E-1
8.389642395E0,3.523237407E-1,-1.147980690E0,5.582904816E-1
8.394757500E0,5.961907506E-1,-1.051889181E0,9.903526306E-2
8.399872656E0,8.125507832E-1,-9.844546318E-1,-2.079095840E-1
8.404987760E0,9.791200161E-1,-9.280517697E-1,-4.416437149E-1
8.410102916E0,1.110998869E0,-8.722138405E-1,-6.703882217E-1
8.415218020E0,1.178842187E0,-8.459463120E-1,-9.850015640E-1
8.420333177E0,1.249299288E0,-7.478432655E-1,-1.277751923E0
8.425448333E0,1.260964632E0,-6.522290707E-1,-1.598878860E0
8.430563437E0,1.352055311E0,-5.864911079E-1,-1.836009026E0
8.435678593E0,1.369843602E0,-5.526216030E-1,-2.007297039E0
8.440793698E0,1.259820819E0,-5.571126938E-1,-2.075934410E0
8.445908854E0,1.210273623E0,-5.525627136E-1,-2.111587048E0
8.451023958E0,1.174920321E0,-6.016122103E-1,-2.126458168E0
8.456139114E0,1.167743087E0,-6.089131832E-1,-2.127945900E0
8.461254218E0,1.029291630E0,-6.571784019E-1,-2.067305565E0
8.466369375E0,8.752689958E-1,-7.227973938E-1,-1.977121353E0
8.471484531E0,6.922018528E-1,-7.390542030E-1,-1.863661766E0
8.476599635E0,5.718804598E-1,-7.318027020E-1,-1.746245384E0
8.481714791E0,4.421221018E-1,-7.425396442E-1,-1.657299995E0
8.486829895E0,4.153137803E-1,-7.376739979E-1,-1.649435520E0
8.491945052E0,4.220148325E-1,-7.437312603E-1,-1.715344429E0
8.497060156E0,4.409223795E-1,-7.682003975E-1,-1.801044464E0
8.502175312E0,4.555398226E-1,-7.254793644E-1,-1.902791500E0
8.507290416E0,5.714135766E-1,-6.997702122E-1,-2.012063980E0
8.512405573E0,7.185145020E-1,-6.365406513E-1,-2.141828537E0
8.517520729E0,8.352802992E-1,-6.258454323E-1,-2.214200497E0
8.522635833E0,9.342792034E-1,-5.602406263E-1,-2.281747818E0
8.527750989E0,1.048239350E0,-5.393036604E-1,-2.333607674E0
8.532866093E0,1.089313030E0,-5.298107862E-1,-2.419881821E0
8.537981250E0,1.181114316E0,-5.246281624E-1,-2.455593586E0
8.543096354E0,1.156636000E0,-4.795250893E-1,-2.500543118E0
8.548211510E0,1.112031460E0,-4.374624491E-1,-2.487767220E0
8.553326614E0,1.096180916E0,-4.450235367E-1,-2.418559551E0
8.558441770E0,1.171030283E0,-4.456372261E-1,-2.321774483E0
8.563556875E0,1.205030322E0,-4.269108772E-1,-2.192764282E0
8.568672031E0,1.253253818E0,-4.565210342E-1,-2.041248798E0
8.573787187E0,1.264072657E0,-4.719439745E-1,-1.892453671E0
8.578902291E0,1.321031570E0,-4.884984493E-1,-1.722541809E0
8.584017448E0,1.299367666E0,-5.452644825E-1,-1.572312355E0
8.589132552E0,1.261069536E0,-5.583155155E-1,-1.393986702E0
8.594247708E0,1.154571176E0,-5.564434528E-1,-1.237822533E0
8.599362812E0,1.090062857E0,-5.171852112E-1,-1.191000938E0
8.604477968E0,9.681927562E-1,-4.459133148E-1,-1.177946091E0
8.609593073E0,9.514403343E-1,-4.053304195E-1,-1.190145493E0
8.614708229E0,8.254199028E-1,-3.279740810E-1,-1.168835640E0
8.619823333E0,7.360466719E-1,-3.279788494E-1,-1.162960052E0
8.624938489E0,7.021996975E-1,-2.612378597E-1,-1.146058083E0
8.630053645E0,7.106852531E-1,-2.441694736E-1,-1.146747589E0
8.635168750E0,6.982080936E-1,-2.146723270E-1,-1.101595879E0
8.640283906E0,7.212976217E-1,-2.814297676E-1,-1.063268661E0
8.645399010E0,7.548340559E-1,-3.364398479E-1,-1.009099960E0
8.650514166E0,7.556758523E-1,-3.924362659E-1,-8.842201233E-1
8.655629270E0,8.276281357E-1,-4.763255119E-1,-7.283258438E-1
8.660744427E0,8.615101576E-1,-5.694688559E-1,-5.165309906E-1
8.665859531E0,8.963117599E-1,-6.529821157E-1,-2.407951355E-1
8.670974687E0,8.394659758E-1,-7.451140881E-1,1.332235336E-1
8.676089791E0,7.804935575E-1,-8.357164860E-1,5.454730988E-1
8.681204948E0,7.912888527E-1,-8.707506657E-1,8.308763504E-1
8.686320052E0,8.014274240E-1,-8.563836813E-1,1.092466354E0
8.691435208E0,8.843864799E-1,-8.265142441E-1,1.258673668E0
8.696550364E0,9.643232822E-1,-8.114860058E-1,1.377598763E0
8.701665468E0,1.040573359E0,-8.307435513E-1,1.535503387E0
8.706780573E0,1.088415742E0,-8.369531631E-1,1.682273865E0
8.711895729E0,1.154962182E0,-8.423520327E-1,1.829966545E0
8.717010885E0,1.220305681E0,-7.993292809E-1,1.960719109E0
8.722125989E0,1.252437592E0,-8.517296314E-1,2.108103752E0
8.727241145E0,1.170180440E0,-8.524929285E-1,2.305603027E0
8.732356250E0,1.097001314E0,-8.501515388E-1,2.449288368E0
8.737471406E0,1.116869092E0,-8.488930464E-1,2.493935585E0
8.742586510E0,1.131036282E0,-8.687498569E-1,2.480538368E0
8.747701666E0,1.135776281E0,-8.435469866E-1,2.326889038E0
8.752816770E0,1.162092209E0,-8.504624367E-1,2.115824699E0
8.757931927E0,1.058794856E0,-8.203287125E-1,1.937154770E0
8.763047031E0,9.525613189E-1,-7.579333782E-1,1.891258240E0
8.768162187E0,8.188301325E-1,-7.372148037E-1,1.943238258E0
8.773277343E0,7.419624925E-1,-7.193379402E-1,1.992430687E0
8.778392448E0,6.601210833E-1,-6.512677670E-1,2.002871513E0
8.783507604E0,5.961462259E-1,-6.279447079E-1,2.012666702E0
8.788622708E0,4.468455315E-1,-6.412143707E-1,2.120772362E0
8.793737864E0,3.502906561E-1,-6.864316463E-1,2.278910637E0
8.798852968E0,2.461221814E-1,-8.196269274E-1,2.488986015E0
8.803968125E0,1.521265805E-1,-9.555600882E-1,2.787540436E0
8.809083229E0,-2.227604389E-3,-1.122555494E0,3.179958344E0
8.814198385E0,-5.978900194E-2,-1.262946010E0,3.556903839E0
8.819313489E0,-9.255075455E-2,-1.347122073E0,3.910974503E0
8.824428645E0,4.476106167E-2,-1.277789235E0,4.140508652E0
8.829543750E0,2.957569361E-1,-1.085323572E0,4.184875488E0
8.834658906E0,6.322405934E-1,-9.038349390E-1,3.979016304E0
8.839774010E0,8.577848077E-1,-7.433269024E-1,3.611080170E0
8.844889166E0,1.050459266E0,-6.413997412E-1,3.210910797E0
8.850004270E0,1.345207930E0,-5.930528641E-1,2.812601089E0
8.855119427E0,1.685152054E0,-6.411888599E-1,2.349735260E0
8.860234583E0,1.949368954E0,-6.973526478E-1,1.706997871E0
8.865349687E0,2.145279646E0,-8.162753582E-1,9.400806427E-1
8.870464843E0,2.297605753E0,-9.588885307E-1,1.511020660E-1
8.875579948E0,2.300964594E0,-1.027699947E0,-4.769105911E-1
8.880695104E0,2.156427145E0,-1.040837049E0,-8.963871002E-1
8.885810208E0,1.903820634E0,-9.605314732E-1,-1.125766754E0
8.890925364E0,1.603110075E0,-8.361204863E-1,-1.212204933E0
8.896040468E0,1.313221455E0,-6.233963966E-1,-1.314029694E0
8.901155625E0,1.059833527E0,-3.929190636E-1,-1.412430763E0
8.906270729E0,8.320523500E-1,-2.075815201E-1,-1.479133606E0
8.911385885E0,5.978497267E-1,-8.727622032E-2,-1.565965652E0
8.916500989E0,3.699624538E-1,7.255816460E-2,-1.619489670E0
8.921616145E0,1.085595191E-1,1.636242867E-1,-1.640158176E0
8.926731250E0,-1.884876788E-1,1.841919422E-1,-1.627216339E0
8.931846406E0,-4.202751219E-1,2.366175652E-1,-1.569161415E0
8.936961510E0,-6.075022221E-1,3.494348526E-1,-1.338630676E0
8.942076666E0,-8.325834274E-1,3.855915070E-1,-1.164543152E0
8.947191823E0,-9.726831913E-1,3.209280968E-1,-1.078026772E0
8.952306927E0,-1.096125245E0,2.068977356E-1,-1.186447144E0
8.957422083E0,-1.074775219E0,7.844829559E-2,-1.440200806E0
8.962537187E0,-1.045347452E0,-8.684635162E-3,-1.780048370E0
8.967652343E0,-8.645646572E-1,-1.101238728E-1,-2.187478065E0
8.972767448E0,-6.881528497E-1,-1.885747910E-1,-2.572218418E0
8.977882604E0,-5.196269155E-1,-2.281625271E-1,-2.840592384E0
8.982997708E0,-3.636614382E-1,-1.750388145E-1,-3.152453423E0
8.988112864E0,-2.130219340E-1,-2.200508118E-1,-3.499006748E0
8.993227968E0,-1.414673179E-1,-1.466567516E-1,-3.649254799E0
8.998343125E0,-2.928157151E-2,-8.253097534E-2,-3.675045967E0
9.003458229E0,7.557046413E-2,-6.687641144E-4,-3.657763481E0
9.008573385E0,6.673619151E-2,6.869196892E-2,-3.687091827E0
9.013688489E0,1.271021068E-1,1.626347303E-1,-3.703228474E0
9.018803645E0,1.295059472E-1,2.932810783E-1,-3.596278191E0
9.023918750E0,1.141842753E-1,3.584575653E-1,-3.467009544E0
9.029033906E0,-2.403841913E-2,4.616587162E-1,-3.267788410E0
9.034149062E0,-1.123355180E-1,5.844433308E-1,-3.114855766E0
9.039264166E0,-3.004616499E-1,6.953134537E-1,-2.978449821E0
9.044379323E0,-4.950260520E-1,8.537324667E-1,-2.800157547E0
9.049494427E0,-5.869506598E-1,1.041487813E0,-2.634033203E0
9.054609583E0,-6.811559796E-1,1.156109810E0,-2.502850533E0
9.059724687E0,-8.188959360E-1,1.231313705E0,-2.430498123E0
9.064839843E0,-8.498786092E-1,1.306748867E0,-2.321268082E0
9.069954948E0,-8.128906488E-1,1.374113560E0,-2.239756584E0
9.075070104E0,-7.247955799E-1,1.456077576E0,-2.167950630E0
9.080185208E0,-5.875773430E-1,1.548834085E0,-2.111757278E0
9.085300364E0,-5.359932780E-1,1.583234549E0,-1.987498283E0
9.090415468E0,-5.493968129E-1,1.660225868E0,-1.745129108E0
9.095530625E0,-5.403850079E-1,1.768140316E0,-1.543872833E0
9.100645781E0,-5.869765282E-1,1.827023268E0,-1.369374275E0
9.105760885E0,-6.369887590E-1,1.872788191E0,-1.147485733E0
9.110876041E0,-6.574091911E-1,2.022307873E0,-9.893989563E-1
9.115991145E0,-6.974760294E-1,2.166344881E0,-9.021415710E-1
9.121106302E0,-6.856653690E-1,2.294861078E0,-8.484687805E-1
9.126221406E0,-7.202974558E-1,2.347904921E0,-7.482023239E-1
9.131336562E0,-8.410197496E-1,2.436568975E0,-5.977840424E-1
9.136451666E0,-9.570772648E-1,2.442222118E0,-4.498414993E-1
9.141566823E0,-1.065156937E0,2.475946665E0,-3.270587921E-1
9.146681927E0,-1.103175879E0,2.538641930E0,-2.209844589E-1
9.151797083E0,-1.136876225E0,2.555704594E0,-2.020387650E-1
9.156912187E0,-1.204569340E0,2.571321011E0,-1.696672440E-1
9.162027343E0,-1.198655605E0,2.566148996E0,-1.094970703E-1
9.167142448E0,-1.258155465E0,2.548619509E0,-1.082420349E-2
9.172257604E0,-1.294784784E0,2.490371943E0,1.106777191E-1
9.177372760E0,-1.426294088E0,2.407363176E0,3.158407211E-1
9.182487864E0,-1.534680128E0,2.327477694E0,5.183668137E-1
9.187603020E0,-1.656178713E0,2.265434027E0,7.109832764E-1
9.192718125E0,-1.706045270E0,2.204656363E0,8.745164871E-1
9.197833281E0,-1.773612976E0,2.223100901E0,1.001799583E0
9.202948385E0,-1.855017424E0,2.232209921E0,1.158640862E0
9.208063541E0,-1.892151833E0,2.193614244E0,1.245847702E0
9.213178645E0,-1.995832801E0,2.093168497E0,1.353164673E0
9.218293802E0,-2.014702320E0,2.003941298E0,1.500914574E0
9.223408906E0,-2.005271196E0,1.888854504E0,1.574335098E0
9.228524062E0,-2.017634392E0,1.844681501E0,1.552102089E0
9.233639218E0,-1.975243092E0,1.832609415E0,1.441686630E0
9.238754323E0,-1.887000799E0,1.794795275E0,1.317468643E0
9.243869479E0,-1.825936437E0,1.805152416E0,1.300282478E0
9.248984583E0,-1.803606272E0,1.790912390E0,1.403057098E0
9.254099739E0,-1.784376740E0,1.706030607E0,1.596735954E0
9.259214843E0,-1.765296698E0,1.581328630E0,1.880892754E0
9.264330000E0,-1.727836132E0,1.429779053E0,2.214406967E0
9.269445104E0,-1.641025066E0,1.211560726E0,2.488131523E0
9.274560260E0,-1.535852551E0,9.418768883E-1,2.746102333E0
9.279675364E0,-1.445614815E0,6.635017395E-1,3.057395935E0
9.284790520E0,-1.336219311E0,4.752233028E-1,3.451622009E0
9.289905625E0,-1.268628359E0,2.913908958E-1,3.760004044E0
9.295020781E0,-1.233813047E0,1.279602051E-1,4.018506050E0
9.300135937E0,-1.199396372E0,3.895044327E-2,4.217721939E0
9.305251041E0,-1.220729589E0,-9.438729286E-2,4.258771896E0
9.310366198E0,-1.249931931E0,-1.523169279E-1,4.148288727E0
9.315481302E0,-1.210946321E0,-3.205783367E-1,3.901309013E0
9.320596458E0,-1.254401684E0,-5.781042576E-1,3.626080513E0
9.325711562E0,-1.287487626E0,-7.989681959E-1,3.302793503E0
9.330826718E0,-1.297384262E0,-1.107128620E0,2.942617416E0
9.335941823E0,-1.246763945E0,-1.323502541E0,2.661787987E0
9.341056979E0,-1.144150138E0,-1.558156610E0,2.465088844E0
9.346172135E0,-1.082509041E0,-1.585812688E0,2.256808281E0
9.351287239E0,-1.009834051E0,-1.620191097E0,2.029831886E0
9.356402395E0,-9.636555314E-1,-1.595790148E0,1.741126060E0
9.361517500E0,-9.399816990E-1,-1.547356963E0,1.522217751E0
9.366632656E0,-8.704493642E-1,-1.472068310E0,1.399169922E0
9.371747760E0,-7.871623635E-1,-1.456419468E0,1.334603310E0
9.376862916E0,-8.212478757E-1,-1.403496146E0,1.322219849E0
9.381978020E0,-8.547573090E-1,-1.447227597E0,1.312704086E0
9.387093177E0,-8.829032183E-1,-1.458404899E0,1.274778366E0
9.392208333E0,-9.171932936E-1,-1.437292814E0,1.201171875E0
9.397323437E0,-8.946446776E-1,-1.422174215E0,1.125229836E0
9.402438593E0,-8.324332237E-1,-1.350904822E0,1.068299294E0
9.407553698E0,-7.979933023E-1,-1.302564502E0,1.033762932E0
9.412668854E0,-6.387814283E-1,-1.174454808E0,1.028571129E0
9.417783958E0,-5.223440528E-1,-1.159517050E0,1.010702133E0
9.422899114E0,-4.487625062E-1,-1.207235217E0,7.757148743E-1
9.428014270E0,-2.033057809E-1,-1.174021006E0,6.813383102E-1
9.433129375E0,6.788066030E-2,-1.128436923E0,3.699989319E-1
9.438244531E0,2.185181826E-1,-1.240308642E0,1.408662796E-1
9.443359635E0,3.725330532E-1,-1.305986285E0,1.770114899E-2
9.448474791E0,5.123068690E-1,-1.379314661E0,-8.690547943E-2
9.453589895E0,6.488638520E-1,-1.500827312E0,-2.004871368E-1
9.458705052E0,6.574134231E-1,-1.536726952E0,-2.907094955E-1
9.463820156E0,6.102290154E-1,-1.597785950E0,-3.287630081E-1
9.468935312E0,4.201111794E-1,-1.616666913E0,-3.886623383E-1
9.474050416E0,2.653948367E-1,-1.474310517E0,-4.999542236E-1
9.479165573E0,2.029177845E-1,-1.301903963E0,-7.447175980E-1
9.484280729E0,1.806405038E-1,-1.072634816E0,-1.083010674E0
9.489395833E0,2.542142868E-1,-8.732804656E-1,-1.391277313E0
9.494510989E0,4.113453031E-1,-7.090575695E-1,-1.774499893E0
9.499626093E0,4.502206147E-1,-7.113739252E-1,-2.218056679E0
9.504741250E0,5.042372942E-1,-7.063847780E-1,-2.697799683E0
9.509856354E0,4.698789418E-1,-7.481417656E-1,-3.084498882E0
9.514971510E0,4.241037071E-1,-7.981334925E-1,-3.373482227E0
9.520086666E0,3.331563473E-1,-8.184633255E-1,-3.526722431E0
9.525201770E0,1.962893605E-1,-8.222886324E-1,-3.497954845E0
9.530316927E0,6.759825349E-2,-7.603527308E-1,-3.342652321E0
9.535432031E0,-4.744178057E-2,-6.155694723E-1,-3.161684036E0
9.540547187E0,-1.549945474E-1,-4.437857866E-1,-3.000812054E0
9.545662291E0,-3.274745941E-1,-2.734259367E-1,-2.872235775E0
9.550777448E0,-5.820454359E-1,-1.665561199E-1,-2.754634857E0
9.555892552E0,-7.364730835E-1,-3.461122513E-3,-2.615983009E0
9.561007708E0,-9.199987650E-1,6.137466431E-2,-2.451768875E0
9.566122864E0,-1.105056167E0,1.050651073E-1,-2.345850945E0
9.571237968E0,-1.256003976E0,1.985979080E-1,-2.309058666E0
9.576353125E0,-1.428058863E0,1.840796471E-1,-2.267221451E0
9.581468229E0,-1.536751509E0,1.615159512E-1,-2.406776428E0
9.586583385E0,-1.590295553E0,2.000844479E-1,-2.355720520E0
9.591698489E0,-1.632223368E0,2.159795761E-1,-2.172984123E0
9.596813645E0,-1.659174442E0,2.857100964E-1,-1.935350895E0
9.601928802E0,-1.625626564E0,3.494305611E-1,-1.703949928E0
9.607043906E0,-1.554623246E0,3.902652264E-1,-1.512241364E0
9.612159062E0,-1.390542507E0,4.225664139E-1,-1.417516708E0
9.617274166E0,-1.166648149E0,3.960208893E-1,-1.313120842E0
9.622389323E0,-1.035714865E0,3.236007690E-1,-1.289756775E0
9.627504479E0,-8.950303793E-1,3.317730427E-1,-1.176214218E0
9.632619583E0,-7.892463803E-1,2.909593582E-1,-1.035829544E0
9.637734687E0,-7.077559233E-1,2.570197582E-1,-8.864126205E-1
9.642849843E0,-6.078410745E-1,2.018871307E-1,-7.529001236E-1
9.647965000E0,-5.332682729E-1,2.215971947E-1,-5.968017578E-1
9.653080104E0,-5.002690554E-1,1.840286255E-1,-4.514875412E-1
9.658195260E0,-4.653761387E-1,1.411373615E-1,-2.940549850E-1
9.663310364E0,-4.481043816E-1,7.061147690E-2,-7.894611359E-2
9.668425520E0,-3.783281446E-1,-1.760172844E-2,4.925060272E-2
9.673540677E0,-2.369971871E-1,-1.400105953E-1,1.279029846E-1
9.678655781E0,-6.915146112E-2,-2.876813412E-1,7.712745667E-2
9.683770937E0,8.037024736E-2,-3.930248022E-1,-1.190185547E-2
9.688886041E0,2.307720184E-1,-5.651241541E-1,-6.017303467E-2
9.694001198E0,3.123367429E-1,-6.399012804E-1,-4.985618591E-2
9.699116302E0,4.161236882E-1,-8.081953526E-1,9.054660797E-2
9.704231458E0,3.975415528E-1,-8.779234886E-1,2.542762756E-1
9.709346614E0,3.403399587E-1,-9.440536499E-1,4.303083420E-1
9.714461718E0,3.153605163E-1,-9.173502922E-1,5.909118652E-1
9.719576875E0,2.621816099E-1,-9.214978218E-1,7.072019577E-1
9.724691979E0,2.209221721E-1,-8.922709227E-1,8.459653854E-1
9.729807135E0,2.031985521E-1,-8.495167494E-1,1.009413719E0
9.734922239E0,1.718241572E-1,-8.108596802E-1,1.154387474E0
9.740037395E0,2.191271782E-1,-7.941434383E-1,1.242640495E0
9.745152552E0,4.185197055E-1,-8.210309744E-1,1.218122482E0
9.750267656E0,5.817106366E-1,-9.297968149E-1,1.179084778E0
9.755382812E0,7.428717017E-1,-9.768223763E-1,1.145899773E0
9.760497916E0,9.684348106E-1,-1.011338234E0,1.147336006E0
9.765613073E0,1.212088227E0,-1.017661095E0,1.148672104E0
9.770728177E0,1.294329882E0,-9.970505238E-1,1.183375359E0
9.775843333E0,1.331903338E0,-8.803455830E-1,1.307579994E0
9.780958489E0,1.255952120E0,-7.860014439E-1,1.475673676E0
9.786073593E0,1.197740674E0,-6.519895792E-1,1.687612534E0
9.791188750E0,1.102986693E0,-5.525959730E-1,1.839315414E0
9.796303854E0,1.020766735E0,-4.638954401E-1,2.012166977E0
9.801419010E0,9.285489321E-1,-4.077008963E-1,2.108189583E0
9.806534114E0,7.729870081E-1,-3.603134155E-1,2.147899628E0
9.811649270E0,6.650233865E-1,-3.482038975E-1,2.108765602E0
9.816764375E0,5.802118182E-1,-3.273893595E-1,2.024482727E0
9.821879531E0,5.238757730E-1,-2.381584644E-1,1.950161934E0
9.826994687E0,4.767889380E-1,-2.586438656E-1,1.915654182E0
9.832109791E0,4.145113230E-1,-2.639353275E-1,1.953051567E0
9.837224948E0,3.448580801E-1,-2.712063789E-1,2.066820145E0
9.842340052E0,3.231120408E-1,-3.465032578E-1,2.207562447E0
9.847455208E0,2.036786079E-1,-4.180779457E-1,2.376104355E0
9.852570312E0,9.446144104E-2,-5.230045319E-1,2.584010124E0
9.857685468E0,-4.171884060E-2,-5.738465786E-1,2.865500450E0
9.862800625E0,-1.929215789E-1,-5.861625671E-1,3.241648674E0
9.867915729E0,-2.691974640E-1,-5.986738205E-1,3.620080948E0
9.873030885E0,-2.430757880E-1,-4.530930519E-1,3.864488602E0
9.878145989E0,-1.908887029E-1,-3.435286283E-1,3.932254791E0
9.883261145E0,-5.610173941E-2,-2.479403019E-1,3.867015839E0
9.888376250E0,1.053826809E-1,-2.246730328E-1,3.724342346E0
9.893491406E0,2.148008943E-1,-3.314714432E-1,3.452241898E0
9.898606562E0,4.594597816E-1,-4.566819668E-1,3.087282181E0
9.903721666E0,7.608867288E-1,-5.955145359E-1,2.600233078E0
9.908836823E0,1.107887030E0,-6.773386002E-1,1.996509552E0
9.913951927E0,1.451201081E0,-7.940174341E-1,1.286204338E0
9.919067083E0,1.639879227E0,-8.563400507E-1,5.199213028E-1
9.924182187E0,1.714824438E0,-9.539008141E-1,-1.407699585E-1
9.929297343E0,1.731490135E0,-9.540352821E-1,-5.263214111E-1
9.934412500E0,1.645895004E0,-9.350624084E-1,-7.018489838E-1
9.939527604E0,1.531631112E0,-8.514953852E-1,-7.216978073E-1
9.944642760E0,1.368708253E0,-7.437256575E-1,-7.130985260E-1
9.949757864E0,1.192825437E0,-5.097736120E-1,-7.254199982E-1
9.954873020E0,1.031439424E0,-3.657581806E-1,-7.565727234E-1
9.959988125E0,9.116840959E-1,-2.850897312E-1,-8.092145920E-1
9.965103281E0,8.676881194E-1,-2.208682299E-1,-7.927541733E-1
9.970218437E0,8.333969712E-1,-2.471785545E-1,-8.175268173E-1
9.975333541E0,7.300555110E-1,-2.580777407E-1,-1.003174782E0
9.980448698E0,6.535596848E-1,-2.306088209E-1,-1.316069603E0
9.985563802E0,4.931236804E-1,-2.542717457E-1,-1.610195160E0
9.990678958E0,3.715185225E-1,-3.239270449E-1,-1.825785160E0
9.995794062E0,2.573329210E-1,-3.379923105E-1,-1.931742668E0
1.000090922E1,1.080213934E-1,-3.793258667E-1,-2.047618866E0
1.000602438E1,-4.037393630E-2,-3.780249357E-1,-2.157670975E0
1.001113948E1,-1.902428865E-1,-3.311237097E-1,-2.199613094E0
1.001625464E1,-3.549269438E-1,-2.704335451E-1,-2.215286255E0
1.002136974E1,-5.035527945E-1,-2.254861593E-1,-2.197489738E0
1.002648490E1,-6.576449871E-1,-1.074814796E-1,-2.124715805E0
1.003160000E1,-6.714059711E-1,-2.496123314E-3,-2.165533066E0
1.003671516E1,-5.250694752E-1,1.541452408E-1,-2.299377441E0
1.004183031E1,-3.608535528E-1,1.732350588E-1,-2.628767014E0
1.004694542E1,-2.210437953E-1,8.954238892E-2,-3.005018234E0
1.005206057E1,-1.139242351E-1,-1.509690285E-2,-3.337065697E0
1.005717568E1,4.078716040E-2,-1.256061792E-1,-3.609304905E0
1.006229083E1,1.393894553E-1,-2.418622971E-1,-3.834921837E0
1.006740599E1,2.373601645E-1,-3.287711143E-1,-3.960176468E0
1.007252109E1,2.284877002E-1,-4.357134104E-1,-4.021141052E0
1.007763625E1,2.648370862E-1,-4.062989950E-1,-3.986912251E0
1.008275135E1,2.901024222E-1,-2.994537354E-1,-3.928272247E0
1.008786651E1,2.180998176E-1,-2.122204304E-1,-3.839421272E0
1.009298161E1,4.963536561E-2,-1.111720800E-1,-3.689483643E0
1.009809677E1,-1.219417453E-1,-2.910399437E-2,-3.518115044E0
1.010321193E1,-3.234158754E-1,6.797707081E-2,-3.335007668E0
1.010832703E1,-4.630593956E-1,1.350452900E-1,-3.182106972E0
1.011344219E1,-5.735801458E-1,2.096623182E-1,-3.042732239E0
1.011855729E1,-5.441495776E-1,2.995069027E-1,-2.928923130E0
1.012367245E1,-5.037144423E-1,3.903840780E-1,-2.778541088E0
1.012878760E1,-4.735556245E-1,4.826120138E-1,-2.643130302E0
1.013390271E1,-4.143066108E-1,6.169556379E-1,-2.398407936E0
1.013901786E1,-3.605715036E-1,7.654992342E-1,-2.156876564E0
1.014413297E1,-3.227459788E-1,9.341523647E-1,-1.950842381E0
1.014924813E1,-3.001643419E-1,1.050802469E0,-1.719250679E0
1.015436323E1,-2.689359188E-1,1.119786501E0,-1.579208374E0
1.015947838E1,-2.382511497E-1,1.184004188E0,-1.452838898E0
1.016459354E1,-2.841123343E-1,1.216865301E0,-1.397435188E0
1.016970864E1,-2.298999727E-1,1.270589828E0,-1.314764977E0
1.017482380E1,-1.990550458E-1,1.341194153E0,-1.294417381E0
1.017993891E1,-1.902687252E-1,1.375670791E0,-1.330219269E0
1.018505406E1,-1.294325590E-1,1.398890734E0,-1.316803932E0
1.019016917E1,-1.435666382E-1,1.463290095E0,-1.294816971E0
1.019528432E1,-2.394838035E-1,1.533060193E0,-1.174612999E0
1.020039948E1,-3.432879448E-1,1.606950521E0,-9.850130081E-1
1.020551458E1,-4.459326565E-1,1.663803339E0,-7.441148758E-1
1.021062974E1,-6.055579185E-1,1.744480729E0,-4.950838089E-1
1.021574484E1,-7.594238520E-1,1.818131685E0,-2.344112396E-1
1.022086000E1,-9.345564842E-1,1.914813399E0,-7.597923279E-3
1.022597510E1,-1.161370635E0,1.950673342E0,1.925716400E-1
1.023109026E1,-1.317320824E0,1.907503605E0,3.446455002E-1
1.023620542E1,-1.506461620E0,1.837830186E0,5.993013382E-1
1.024132052E1,-1.629024506E0,1.812978148E0,8.703718185E-1
1.024643568E1,-1.692418575E0,1.888846636E0,1.098091125E0
1.025155078E1,-1.655871034E0,1.914194584E0,1.190544128E0
1.025666594E1,-1.620672822E0,1.956916690E0,1.316550255E0
1.026178109E1,-1.558555961E0,1.952255845E0,1.424727440E0
1.026689620E1,-1.523818731E0,1.869408369E0,1.555742264E0
1.027201135E1,-1.421518445E0,1.774451017E0,1.744220734E0
1.027712646E1,-1.380393624E0,1.716504216E0,1.937496185E0
1.028224161E1,-1.328269362E0,1.660700321E0,2.073436737E0
1.028735677E1,-1.228573084E0,1.672773957E0,2.183230400E0
1.029247188E1,-1.119909048E0,1.698711634E0,2.249041557E0
1.029758703E1,-1.099193096E0,1.728863358E0,2.260220528E0
1.030270214E1,-1.054152608E0,1.783575535E0,2.236001968E0
1.030781729E1,-1.094299078E0,1.849911332E0,2.280426979E0
1.031293245E1,-1.065480232E0,1.883985758E0,2.384983063E0
1.031804755E1,-1.084522009E0,1.900702953E0,2.516009331E0
1.032316271E1,-1.140539765E0,1.850613594E0,2.767752647E0
