"Time (s)","Acceleration x (m/s^2)","Acceleration y (m/s^2)","Acceleration z (m/s^2)"
0.000000000E0,-9.645089507E-1,1.766853809E0,1.902398300E1
2.199687500E-2,1.222421885E0,-7.645643950E-1,2.057937813E1
4.200000000E-2,-1.064940915E-2,-5.102235675E-1,9.546563148E0
6.399687500E-2,1.792261124E0,5.978704453E0,1.068630886E1
8.400937500E-2,-1.479424983E-1,1.828448105E1,1.435661030E1
1.059968750E-1,-2.713176489E0,6.633528233E0,2.909443617E0
1.259968750E-1,1.013906121E0,8.692273140E0,3.881872654E0
1.459968750E-1,3.710668087E0,3.020343065E0,1.353128147E1
1.660046880E-1,4.857844830E0,-1.240004972E-1,9.241657257E0
1.879968750E-1,5.127623558E0,-4.648965001E-1,2.546951771E0
2.080000000E-1,3.780434847E0,1.833690286E0,8.347144723E-1
2.299953130E-1,8.057829738E-1,3.370738983E0,3.520041466E0
2.500000000E-1,-2.186758518E0,5.036222458E0,1.036993885E1
2.719953130E-1,-2.323189735E0,4.630539417E0,9.156346321E0
2.919953130E-1,-1.936315417E0,4.552747250E0,5.877439499E0
3.119968750E-1,-1.951073289E0,3.313584805E0,9.836711884E0
3.320015630E-1,2.862699032E-1,-3.152684867E-2,1.072502708E1
3.539968750E-1,-8.675054908E-1,3.416717291E0,7.619221210E0
3.740062500E-1,-2.600620031E0,4.920668602E0,4.763532162E0
3.959953130E-1,-2.803169727E0,2.082016945E0,6.795587540E0
4.159953130E-1,-3.946898937E0,-1.144428402E-1,6.569344521E0
4.359968750E-1,-5.732150078E0,-1.497209191E0,5.212110043E0
4.579968750E-1,-8.596390724E0,-4.472540855E0,1.968809605E0
4.799953130E-1,-1.571345234E1,-7.678205013E0,1.834284067E0
4.999968750E-1,-1.820093155E1,-1.186382484E1,1.056157970E1
5.220078130E-1,-1.504539394E1,-1.453198051E1,1.107642937E1
5.439968750E-1,-1.406760120E1,-1.819471741E1,1.690890670E0
5.659968750E-1,-1.422107887E1,-1.839003563E1,-3.541828871E0
5.859968750E-1,-1.590727711E1,-1.840700531E1,-5.521124601E-1
6.079968750E-1,-1.204136944E1,-2.320085716E1,4.753859997E0
6.299968750E-1,-9.069599152E0,-2.598705864E1,-1.869335175E0
6.519953130E-1,-1.554777336E1,-2.122882271E1,-4.211467743E0
6.719953130E-1,-1.797241020E1,-2.217645454E1,-6.824528217E0
6.919953130E-1,-7.349231720E0,-2.975445938E1,7.101882458E0
7.119968750E-1,4.041087151E0,-3.635360718E1,7.506971836E0
7.319968750E-1,1.089240170E1,-3.972463226E1,-8.384436607E0
7.519968750E-1,2.574427843E0,-4.083263397E1,-1.277372646E1
7.719968750E-1,-5.964866161E0,-5.410622025E1,1.286151791E1
7.919968750E-1,-4.313173294E0,-5.251036835E1,3.280990982E1
8.119968750E-1,-7.618924141E0,-4.717730331E1,1.252787113E1
8.319968750E-1,-1.798092461E1,-4.340586472E1,6.011170149E-1
8.539953130E-1,-2.127510452E1,-4.428385544E1,3.223950577E1
8.739968750E-1,-1.363912487E1,-4.231161880E1,3.193690872E1
8.959953130E-1,-1.566621017E1,-3.420919418E1,1.442135906E1
9.159953130E-1,-1.663609123E1,-2.250832939E1,3.507658720E0
9.359968750E-1,-9.270473480E0,-2.648610497E1,7.849782944E0
9.559968750E-1,-1.327140522E1,-2.403195381E1,1.488208961E1
9.759968750E-1,-1.490697002E1,-1.688866997E1,1.800113106E1
9.959968750E-1,-9.808824539E0,-1.317470837E1,1.622281265E1
1.015996875E0,-8.448448181E0,-1.497282982E1,1.165881443E1
1.035996875E0,-1.532894325E1,-1.196373081E1,9.635311127E0
1.055996875E0,-2.042141914E1,-6.917624474E0,6.034394264E0
1.075996875E0,-1.973591232E1,-5.692674160E0,8.738367081E0
1.095996875E0,-1.461979008E1,-1.000746536E1,1.447701931E1
1.115996875E0,-1.616776657E1,-1.151970100E1,1.728117561E1
1.135996875E0,-1.836031914E1,-9.058883667E0,1.724159431E1
1.155998438E0,-1.702413559E1,-1.299926090E1,1.179984188E1
1.177996875E0,-2.334971046E1,-1.249806881E1,3.482519627E0
1.197996875E0,-2.765937805E1,-7.795434475E0,-1.251765251E0
1.217996875E0,-1.924545479E1,-6.807759285E0,2.532701492E0
1.238015625E0,-1.454373169E1,-9.056959152E0,2.688755512E0
1.259995313E0,-2.378181648E1,-1.284967136E1,-3.258221149E-1
1.279995313E0,-3.170222855E1,-9.470092773E0,1.905439854E0
1.299995313E0,-3.101043701E1,-1.547542095E1,-1.394411802E0
1.319995313E0,-2.659212112E1,-2.717725372E1,5.186798424E-2
1.339996875E0,-2.325429726E1,-2.748687172E1,3.062164783E0
1.361995313E0,-1.586681557E1,-2.676653290E1,-6.031090021E-1
1.381996875E0,-1.124234772E1,-2.855234909E1,-5.090226173E0
1.404003125E0,-1.173308182E1,-3.167081642E1,-6.467419147E0
1.425998438E0,-1.275588608E1,-2.704483604E1,-3.825666189E0
1.445998438E0,-1.317562675E1,-2.355446243E1,3.197600245E-1
1.467996875E0,-1.219019318E1,-2.532422829E1,1.440073967E0
1.487996875E0,-1.299811172E1,-2.746568680E1,5.565657020E-1
1.507996875E0,-1.448542786E1,-2.369983101E1,1.557763368E-1
1.527996875E0,-1.285103989E1,-1.840250397E1,1.901197314E0
1.549995313E0,-1.183823490E1,-1.708189964E1,1.488111377E0
1.569996875E0,-1.294667435E1,-1.681514931E1,-6.800777316E-1
1.589996875E0,-1.266932964E1,-1.410895443E1,-1.553358078E0
1.609996875E0,-1.088515091E1,-1.315237522E1,-1.640392065E0
1.629996875E0,-8.053022385E0,-1.190057087E1,-1.539500356E0
1.649996875E0,-4.961906433E0,-8.873294830E0,7.587704062E-2
1.671995313E0,-7.304383755E0,-6.875572681E0,1.828059196E0
1.691995313E0,-8.148272514E0,-2.347658396E0,-8.225519210E-2
1.711995313E0,-1.317017746E1,-8.911123276E-1,1.451116085E0
1.731996875E0,-1.217705345E1,5.553820133E0,-6.148808002E0
1.753998438E0,-5.956055641E0,1.493962646E0,1.769257545E0
1.775995313E0,1.598368958E-2,2.543619156E0,2.640890598E0
1.795996875E0,3.305683851E0,4.140685558E0,2.885970592E0
1.817996875E0,3.713014126E0,4.320183754E0,7.800271034E0
1.838015625E0,5.331609249E0,1.007355571E0,8.766005516E0
1.859996875E0,2.691532612E0,4.977124214E0,5.738729000E0
1.881996875E0,1.053582788E0,3.681085110E0,5.319265366E0
1.903996875E0,1.869124532E0,1.634061813E0,3.895136118E0
1.923996875E0,1.476523280E0,2.885195017E0,3.660294056E0
1.943996875E0,-1.100145221E0,4.930082321E0,9.839162827E0
1.964004688E0,-8.173038363E-1,4.005461216E0,5.259840965E0
1.985996875E0,-1.698245645E0,2.483696938E0,3.693228483E0
2.005996875E0,-6.827305257E-2,-2.937876880E-1,3.658656359E0
2.025996875E0,2.068542480E0,-5.297889113E-1,4.329473019E0
2.047996875E0,3.385075569E0,1.528841406E-1,6.382022381E0
2.069996875E0,2.433284760E0,1.519235849E0,2.710245848E0
2.091996875E0,2.751703858E-1,5.304775238E0,1.137001610E1
2.114003125E0,4.820178986E0,2.473057032E0,7.380998135E0
2.135995313E0,7.258357525E0,2.510722637E0,-7.082815170E-1
2.155996875E0,4.863437653E0,1.222201705E0,6.248167515E0
2.177996875E0,1.167997003E0,1.076816171E-1,8.228010178E0
2.199996875E0,7.499961376E0,-2.580566406E0,3.678508997E0
2.219996875E0,1.607256293E0,-4.300340652E0,1.033785629E1
2.241996875E0,-6.053356171E0,-9.212917328E0,9.850186348E0
2.263996875E0,2.857144475E-1,-9.598095894E0,-1.639166236E0
2.284010938E0,7.725150585E0,-1.384574509E1,4.397075653E0
2.305996875E0,2.705821514E0,-2.268167877E1,1.100195026E1
2.325996875E0,8.550096512E0,-2.873051643E1,-2.192246199E0
2.345996875E0,2.355093002E1,-2.661552620E1,-3.109004974E0
2.365996875E0,2.669791603E1,-2.541989136E1,1.730624735E-1
2.385996875E0,2.680849075E1,-2.160626221E1,-1.382220554E1
2.406001563E0,2.266566849E1,-1.730408478E1,-7.228094935E-1
2.427996875E0,1.877788734E1,-1.529675579E1,2.752374299E-2
2.447996875E0,1.246868610E1,-1.048852825E1,-3.589818001E0
2.467996875E0,7.487415314E0,-1.158890343E1,1.235015392E0
2.487996875E0,4.589694500E0,-7.929978848E0,-1.113150477E0
2.507996875E0,2.862153292E0,-4.773166656E0,-2.034765005E0
2.527996875E0,1.080503225E0,-5.423440933E-1,-3.787033558E0
2.549995313E0,-1.912986279E0,7.925669551E-1,-9.618561268E-1
2.569996875E0,-5.172002316E0,-4.171944261E-1,2.143672466E0
2.591996875E0,-6.568176270E0,-1.593389153E0,2.797375679E0
2.614004688E0,-6.893471718E0,-3.156965494E0,2.616996527E0
2.635995313E0,-6.353857040E0,-4.939247608E0,4.035235405E0
2.655996875E0,-2.834217787E0,-6.128121853E0,5.558129787E0
2.677996875E0,3.809126854E0,-9.149795532E0,6.275489807E0
2.699996875E0,1.217262936E1,-1.169759083E1,7.779269218E0
2.719996875E0,1.690383911E1,-1.198426247E1,8.929922104E0
2.741995313E0,2.055197144E1,-1.042243862E1,1.052377129E1
2.761995313E0,1.993397141E1,-7.756150246E0,7.382961273E0
2.781995313E0,1.444507122E1,-6.960183620E0,7.496877670E0
2.801996875E0,7.997150898E0,-7.645394325E0,9.436783791E0
2.823996875E0,2.129613876E0,-7.553983688E0,1.143780041E1
2.843996875E0,1.816873550E0,-4.905930042E0,8.095179558E0
2.863996875E0,5.226216793E0,-1.823845387E0,3.017948627E0
2.883996875E0,6.949984550E0,-1.530182242E0,6.687963009E-1
2.903996875E0,5.606818199E0,-7.112473965E0,-1.323993504E-1
2.924000000E0,6.435001373E0,-1.192181206E1,-5.387337208E-1
2.945996875E0,3.749568939E0,-1.542023945E1,6.777180672E0
2.967996875E0,7.206595421E0,-9.468368530E0,-3.438677073E0
2.989995313E0,8.854897499E0,-6.510973930E0,8.590730667E0
3.009996875E0,5.963640690E0,-9.147938728E0,1.516295820E-1
3.031996875E0,3.065756083E0,-8.879164696E0,-2.277115822E0
3.053996875E0,-6.350284815E-1,-1.300186539E1,-7.689409852E-1
3.074001563E0,1.777733088E0,-1.081351757E1,1.822207808E0
3.094007813E0,5.665083408E0,-9.332483292E0,6.040389061E0
3.115996875E0,3.879296303E0,-7.977077484E0,1.004419327E1
3.138015625E0,6.099228859E0,-8.135267258E0,3.677359581E0
3.159995313E0,5.637588501E0,-5.310990810E0,4.164388180E0
3.179995313E0,6.221611023E0,-2.723251104E0,1.691522717E0
3.199996875E0,8.912511826E0,-3.833222151E0,2.917564631E0
3.221995313E0,6.628960609E0,-4.359937191E0,2.095366955E0
3.241996875E0,4.672303677E0,-2.771757841E0,-9.194213152E-1
3.263996875E0,5.870649338E0,-2.634694576E0,-1.732683659E0
3.284003125E0,8.129099846E0,-2.615972042E0,-1.823079228E0
3.304003125E0,7.353943825E0,-4.662363052E0,2.370259725E-2
3.325995313E0,7.568885803E0,-1.481153679E1,-9.184349179E-1
3.345996875E0,5.344155312E0,-1.704481125E1,-2.747987986E0
3.366000000E0,4.361890793E0,-1.677186203E1,-2.272518873E0
3.387996875E0,2.943948746E0,-1.607871246E1,1.965993881E0
3.407996875E0,2.308038950E0,-2.126008987E1,1.010171175E0
3.427996875E0,-6.905356646E-1,-1.370130730E1,2.420777321E0
3.449995313E0,-1.437258482E0,-9.710518837E0,2.107970238E0
3.469995313E0,-3.321428299E-1,-6.396454811E0,1.842070103E0
3.489996875E0,8.963029385E-1,-5.608656883E0,2.197245121E0
3.511996875E0,2.123819828E0,-1.052375221E1,1.330534577E0
3.531996875E0,-7.121983767E-1,-1.519727135E1,-1.360931277E0
3.554003125E0,-2.311850786E0,-1.829267693E1,-3.513816595E0
3.575996875E0,-4.156104565E0,-9.476183891E0,-1.599183083E0
3.595996875E0,-3.082888842E0,-5.167109013E0,-1.593034744E0
3.616000000E0,-2.161303282E0,-4.119224072E0,-6.755479574E-1
3.638015625E0,-1.906416655E0,-4.519984722E0,-3.781593740E-1
3.659995313E0,-7.031770349E-1,-6.326160431E0,-6.764673591E-1
3.679995313E0,-1.290953457E-1,-8.139107704E0,-8.133103251E-1
3.699996875E0,-5.370481610E-1,-9.722939491E0,-5.376994014E-1
3.719996875E0,-1.381291628E0,-1.068840599E1,1.556326896E-1
3.741996875E0,-2.070285320E0,-1.191818237E1,2.246067524E0
3.763996875E0,-3.101774454E0,-1.318820095E1,1.214176297E0
3.784006250E0,-2.159330606E0,-1.234948444E1,1.133635402E0
3.804009375E0,-1.022324085E0,-1.072666550E1,6.560304165E-1
3.825995313E0,-6.214773059E-1,-9.616684914E0,-6.302496791E-2
3.845995313E0,-1.505799651E0,-1.063783073E1,-1.117632389E0
3.865996875E0,-4.005480289E0,-1.169060898E1,-4.742444515E0
3.885996875E0,-5.590662003E0,-1.291216850E1,-8.032748222E0
3.905998438E0,-6.515887260E0,-1.494921398E1,-9.269123077E0
3.927995313E0,-6.132259369E0,-1.328153706E1,-5.393542290E0
3.947995313E0,-5.948020458E0,-1.054303074E1,-3.196450710E0
3.967995313E0,-6.133829594E0,-1.028525066E1,-3.042541981E0
3.987995313E0,-6.043702602E0,-9.250869751E0,-3.219454288E0
4.007996875E0,-5.395802498E0,-8.615084648E0,-2.630078316E0
4.027996875E0,-2.875397921E0,-8.193264961E0,-1.726209879E0
4.047996875E0,3.345877647E0,-1.238040733E1,-1.055488706E0
4.069996875E0,2.548991680E0,-9.447069168E0,-1.228225470E0
4.091996875E0,-1.626620591E-1,-5.356920719E0,-1.569370508E0
4.113996875E0,-1.845038772E0,-2.958112717E0,-1.170544267E0
4.135995313E0,-2.277278662E0,-1.454573274E0,-1.295042872E0
4.155996875E0,-1.741331697E0,-2.932217121E0,-1.017229199E0
4.177996875E0,-1.456402421E0,-4.922421455E0,-4.059608579E-1
4.199996875E0,-1.441232800E0,-7.452383995E0,-1.928203821E0
4.219996875E0,-8.632054925E-1,-9.742763519E0,-9.305591583E-1
4.241996875E0,-6.704722047E-1,-1.143607712E1,-3.598006368E-1
4.263996875E0,-1.474071622E0,-1.256653214E1,3.756310940E-1
4.285996875E0,-1.247580171E0,-1.292719555E1,-2.336453497E-1
4.305996875E0,1.254360557E0,-1.395275593E1,-3.089085102E0
4.325996875E0,-7.907474041E-1,-1.354434395E1,-5.975754738E0
4.345996875E0,-5.542356491E0,-1.124075794E1,-6.906151295E0
4.365996875E0,-7.993272305E0,-9.267169952E0,-9.616043091E0
4.385996875E0,-5.507727146E0,-1.145600605E1,-4.722179890E0
4.405996875E0,-5.674707890E0,-1.400407791E1,-2.182286024E0
4.425996875E0,-6.383353710E0,-1.397913074E1,-4.146000862E0
4.445996875E0,-6.931415081E0,-1.227519608E1,-3.864854574E0
4.465996875E0,-5.245379925E0,-1.066217518E1,-3.484712601E0
4.485996875E0,-3.589406252E0,-9.332272530E0,-3.115421295E0
4.505998438E0,-2.419771671E0,-8.734382629E0,-3.873904467E0
4.527996875E0,-1.774802566E0,-8.509567261E0,-4.111993790E0
4.549995313E0,-1.513911247E0,-7.387270927E0,-2.727876663E0
4.569996875E0,-1.222996593E0,-6.359200478E0,-1.253297567E0
4.591996875E0,-1.303978086E0,-5.861781120E0,-3.988261223E-1
4.613996875E0,-9.726108909E-1,-6.379599571E0,-5.848651528E-1
4.633996875E0,-7.657710314E-1,-5.949543476E0,-3.476668000E-1
4.653996875E0,-6.320979595E-1,-5.437299252E0,-2.590430677E-1
4.673996875E0,-1.900517344E-1,-5.490258694E0,-9.929807782E-1
4.693996875E0,2.761951089E-1,-5.693162441E0,-1.066884995E0
4.713996875E0,5.670139790E-1,-6.458225250E0,-1.260384440E0
4.733996875E0,3.433859944E-1,-8.499156952E0,-1.401814699E0
4.753996875E0,-1.502409577E-1,-1.103690624E1,-1.568575621E0
4.774004688E0,2.169242501E-1,-1.335411072E1,-1.139879346E0
4.795996875E0,8.107341528E-1,-1.394699097E1,-1.953189671E-1
4.815996875E0,4.569573402E-1,-1.271125793E1,-1.668519139E0
4.835996875E0,3.438743949E-1,-1.202815342E1,-3.188798904E0
4.855996875E0,-2.086307406E-1,-1.262022114E1,-4.958142757E0
4.875996875E0,-1.113552690E0,-1.233871937E1,-5.779095173E0
4.897995313E0,-3.251163006E0,-1.068742847E1,-5.960537434E0
4.917995313E0,-5.058967113E0,-1.147080231E1,-8.179589272E0
4.938015625E0,-5.952071667E0,-1.248608780E1,-8.902091980E0
4.959995313E0,-7.103356838E0,-1.129570961E1,-9.527591705E0
4.979995313E0,-4.935972691E0,-9.325740814E0,-9.159343719E0
4.999995313E0,-2.829936743E0,-8.892840385E0,-6.526000023E0
5.019995313E0,-1.094858885E0,-8.362257004E0,-3.840998650E0
5.039995313E0,3.594175726E-2,-7.205551147E0,-1.961320400E0
5.059995313E0,9.753690362E-1,-6.040532589E0,-9.832124710E-1
5.079995313E0,1.332823396E0,-5.246127129E0,-9.625265598E-1
5.099995313E0,1.407714009E0,-4.879517078E0,-1.350540400E0
5.119995313E0,1.538935423E0,-5.067682266E0,-1.446318150E0
5.139996875E0,1.241949081E0,-5.488458633E0,-1.700323701E0
5.161996875E0,5.403042436E-1,-4.386157990E0,-1.242197990E0
5.183996875E0,-9.220262170E-1,-4.061600208E0,-1.482106566E0
5.204003125E0,-2.139094830E0,-4.861350060E0,-2.957356215E0
5.225996875E0,-1.632864714E0,-6.506453514E0,-3.537883043E0
5.245996875E0,-5.360617638E-1,-8.589773178E0,-2.950834513E0
5.265996875E0,1.269405782E-1,-9.655518532E0,-2.011071920E0
5.285996875E0,4.332547188E-1,-1.073327351E1,-1.835615277E0
5.305996875E0,6.476124525E-1,-1.239865112E1,-3.083884954E0
5.327996875E0,2.007394433E-1,-1.437749672E1,-5.152705193E0
5.349995313E0,-2.784935236E-1,-1.450834465E1,-4.437767506E0
5.369995313E0,-5.160366893E-1,-1.374408722E1,-3.772524357E0
5.389995313E0,-1.210604072E0,-1.142354107E1,-4.386196613E0
5.409995313E0,-1.997290850E0,-1.192693520E1,-6.388476849E0
5.429996875E0,-2.009817362E0,-1.258621311E1,-6.633451462E0
5.451995313E0,-2.283733130E0,-1.370188141E1,-4.387498856E0
5.471995313E0,-3.070180655E0,-1.440761662E1,-3.284959793E0
5.491995313E0,-3.821605682E0,-1.280628777E1,-2.447333813E0
5.511996875E0,-4.281809807E0,-1.124794006E1,-3.833672285E0
5.534007813E0,-4.320193291E0,-9.702713013E0,-4.432337761E0
5.555995313E0,-3.065641165E0,-8.334379196E0,-3.558932781E0
5.575996875E0,-1.718059897E0,-7.046461582E0,-2.084593058E0
5.595996875E0,-1.105594516E0,-6.586286068E0,-7.165750265E-1
5.615996875E0,-5.868954659E-1,-6.005825996E0,-2.107855305E-2
5.635996875E0,-3.563529551E-1,-5.279626369E0,3.009798825E-1
5.655996875E0,-4.647624195E-1,-4.613071442E0,1.482872814E-1
5.677996875E0,-4.355435967E-1,-4.072795868E0,-7.775887847E-1
5.699996875E0,-2.332048118E-1,-3.927343130E0,-1.934170127E0
5.719996875E0,-2.536417246E-1,-4.286042690E0,-2.609699011E0
5.741996875E0,-5.518634915E-1,-5.433899403E0,-3.013160467E0
5.764000000E0,-1.165506959E0,-6.092304707E0,-2.909050703E0
5.785996875E0,-1.910515547E0,-7.383517265E0,-2.995481491E0
5.805996875E0,-1.749002695E0,-9.644879341E0,-3.074126244E0
5.825996875E0,-1.502859592E0,-1.222856712E1,-3.345303297E0
5.847995313E0,-1.235800743E0,-1.422777367E1,-2.841955900E0
5.867995313E0,-6.845405698E-1,-1.365159512E1,-1.908082962E0
5.887996875E0,2.595985234E-1,-1.472966480E1,-3.517091751E0
5.907996875E0,5.842331052E-1,-1.566265678E1,-4.085532665E0
5.929995313E0,-7.239395976E-1,-1.168509293E1,-3.525998354E0
5.949995313E0,-1.575873137E0,-1.136974812E1,-3.334251404E0
5.969995313E0,-3.337076664E0,-1.367008686E1,-4.191040516E0
5.989996875E0,-4.610629082E0,-1.369670105E1,-4.623998642E0
6.009996875E0,-5.885091305E0,-1.202936935E1,-5.714270115E0
6.031995313E0,-5.055797577E0,-1.064237022E1,-6.275499344E0
6.051995313E0,-2.525193453E0,-1.030239391E1,-5.010930061E0
6.071995313E0,-1.630959034E0,-8.832372665E0,-3.677168131E0
6.091996875E0,-1.027955294E0,-7.036003590E0,-2.193787813E0
6.113996875E0,-1.473870635E0,-5.408683777E0,-1.492985845E0
6.133996875E0,-9.863728285E-1,-4.570598125E0,-7.388985157E-1
6.153996875E0,-3.456940055E-1,-4.503244400E0,-1.362990379E0
6.175995313E0,1.104780436E-1,-4.239451408E0,-1.415883064E0
6.196000000E0,3.885023296E-1,-4.081261635E0,-1.413316369E0
6.217996875E0,6.381026506E-1,-4.575482368E0,-1.517818451E0
6.238015625E0,2.545898259E-1,-5.134652615E0,-1.597871065E0
6.259995313E0,-4.293282330E-2,-6.091529369E0,-2.002519846E0
6.279996875E0,-5.477933586E-2,-7.217023849E0,-2.028693199E0
6.301996875E0,-2.183320522E-1,-8.523865700E0,-2.334720135E0
6.324003125E0,-3.478679061E-1,-1.038658333E1,-3.089640617E0
6.345995313E0,-3.785615861E-1,-1.188268185E1,-3.480393648E0
6.365996875E0,-1.909040660E-1,-1.259714985E1,-3.747356653E0
6.387996875E0,7.652251720E-1,-1.314757729E1,-4.852175236E0
6.407996875E0,2.497343868E-1,-1.311902809E1,-6.144278526E0
6.429995313E0,-7.920881510E-1,-1.239300060E1,-5.528795719E0
6.449995313E0,-4.616059303E0,-1.307508945E1,-6.777870178E0
6.469995313E0,-5.298560143E0,-1.225766087E1,-6.470311165E0
6.489996875E0,-5.363270283E0,-1.305648232E1,-5.317656040E0
6.509996875E0,-5.322703362E0,-1.539265823E1,-2.218199253E0
6.531995313E0,-4.531668663E0,-1.620028877E1,1.332995743E-1
6.551995313E0,-2.711605787E0,-1.361248207E1,-1.682807684E0
6.571995313E0,-1.297618985E0,-1.101781940E1,-2.017086267E0
6.591996875E0,-1.244314432E0,-8.918124199E0,-1.319272161E0
6.613996875E0,-6.811120510E-1,-6.460523605E0,-8.845905066E-1
6.634003125E0,-2.650859952E-1,-4.873100758E0,-6.910049319E-1
6.655996875E0,-9.123823792E-2,-3.494030952E0,-7.803277969E-1
6.677996875E0,4.580107629E-1,-3.192620039E0,-6.447872519E-1
6.699996875E0,3.298252076E-2,-2.613682747E0,-1.250999093E0
6.719996875E0,-5.206431150E-1,-2.552400827E0,-2.165354252E0
6.741996875E0,-1.320287347E0,-3.277049303E0,-3.548369646E0
6.764000000E0,-1.706855059E0,-4.384175777E0,-4.424983025E0
6.785996875E0,-1.961483240E0,-5.572858810E0,-4.053115368E0
6.805996875E0,-2.583209515E0,-7.461654186E0,-3.762918949E0
6.827996875E0,-2.818377733E0,-1.098223114E1,-3.893412590E0
6.847996875E0,-2.596482992E0,-1.359602070E1,-3.986010790E0
6.869995313E0,-2.572560072E0,-1.489416599E1,-3.378841162E0
6.889995313E0,-2.234249830E0,-1.388974953E1,-1.863665819E0
6.909995313E0,-8.542703390E-1,-1.340782642E1,-1.335476041E0
6.929995313E0,2.932418324E-2,-1.455855656E1,-2.416295528E0
6.949995313E0,-1.380975544E-1,-1.310472107E1,-2.845604420E0
6.969995313E0,-9.382684827E-1,-1.062933636E1,-3.205577374E0
6.989996875E0,-1.687414169E0,-1.176573944E1,-4.084977150E0
7.011995313E0,-2.828002214E0,-1.319540310E1,-4.349441051E0
7.031996875E0,-4.446483135E0,-1.235561371E1,-4.840328693E0
7.053996875E0,-5.129452705E0,-1.003047943E1,-5.194277763E0
7.073996875E0,-3.452563286E0,-9.253905296E0,-4.858543873E0
7.093996875E0,-2.079048157E0,-8.844708443E0,-3.968255043E0
7.113996875E0,-1.498751044E0,-7.337893009E0,-3.265384674E0
7.133996875E0,-8.727726936E-1,-5.892245293E0,-3.028550386E0
7.154007813E0,-3.929555416E-1,-4.808945656E0,-2.509851217E0
7.175996875E0,3.211390674E-1,-4.081663609E0,-1.742614865E0
7.195996875E0,3.375345469E-1,-3.790662766E0,-1.381128788E0
7.215996875E0,5.926128104E-2,-4.101650238E0,-1.106820345E0
7.235996875E0,-5.813504457E-1,-4.827965260E0,-1.154666066E0
7.257995313E0,-9.212888479E-1,-5.768513203E0,-1.418593287E0
7.277995313E0,-1.052902818E0,-6.571700573E0,-1.507159591E0
7.297995313E0,-6.625713706E-1,-7.927767277E0,-1.813559890E0
7.317996875E0,1.926853508E-1,-9.210350990E0,-1.982169151E0
7.338015625E0,5.268009901E-1,-1.025401211E1,-2.266332388E0
7.359995313E0,2.339230776E-1,-1.129607296E1,-2.672771931E0
7.379995313E0,-1.275534928E-1,-1.240596771E1,-3.260385513E0
7.399995313E0,-7.823867798E-1,-1.351000118E1,-3.781239271E0
7.419996875E0,1.701137781E0,-1.408660126E1,-5.121321678E0
7.441996875E0,2.078492641E0,-1.395331192E1,-7.474486828E0
7.463995313E0,-3.836229563E0,-1.252232647E1,-8.390881538E0
7.484003125E0,-4.277777672E0,-1.135917473E1,-6.347746849E0
7.505996875E0,-3.332929850E0,-1.232326317E1,-3.137323380E0
7.527996875E0,-3.531476259E0,-1.347173214E1,-1.016980290E0
7.547996875E0,-5.491254807E0,-1.343316746E1,-1.477988601E0
7.569995313E0,-5.812728882E0,-1.223625660E1,-2.136643171E0
7.589995313E0,-4.110461235E0,-1.150622654E1,-1.741925359E0
7.609995313E0,-1.814546227E0,-1.035742188E1,-1.133750200E0
7.629996875E0,-9.463321567E-1,-8.664290428E0,-1.400033355E0
7.651995313E0,-4.791563749E-1,-6.522925854E0,-1.314608335E0
7.671995313E0,-4.488362074E-1,-5.022240162E0,-1.515213609E0
7.691995313E0,-1.361343116E-1,-3.770398378E0,-1.607400060E0
7.711995313E0,4.922478460E-3,-4.107568741E0,-1.960515976E0
7.731996875E0,-8.772354573E-2,-4.136385918E0,-2.123130083E0
7.753996875E0,-5.891172290E-1,-4.517734051E0,-2.342247486E0
7.773996875E0,-9.706859589E-1,-4.075572968E0,-2.593198299E0
7.793996875E0,-1.265584588E0,-5.098845005E0,-3.274875164E0
7.815995313E0,-1.475268841E0,-7.142420769E0,-2.945481062E0
7.835996875E0,-1.197713733E0,-8.810585976E0,-2.986297369E0
7.855996875E0,-6.798575521E-1,-1.030135918E1,-3.164866447E0
7.875996875E0,-7.171400189E-1,-1.113675404E1,-2.659029007E0
7.897996875E0,-1.210862637E0,-1.209143639E1,-2.492028713E0
7.919996875E0,-1.160680294E0,-1.364792633E1,-3.203777075E0
7.941996875E0,-9.127367735E-1,-1.334224415E1,-3.288694620E0
7.961996875E0,-3.152205944E-1,-1.354121208E1,-3.215221405E0
7.983996875E0,-8.928552866E-1,-1.427417278E1,-3.047320843E0
8.003998438E0,-1.607256293E0,-1.170546246E1,-3.076223612E0
8.025995313E0,-2.644338369E0,-1.109251881E1,-3.337019205E0
8.045996875E0,-3.213171959E0,-1.121498680E1,-3.335965872E0
8.067995313E0,-4.023656845E0,-1.199392605E1,-4.529207230E0
8.087995313E0,-4.775991917E0,-1.097669601E1,-4.962921619E0
8.107996875E0,-4.552172184E0,-9.878006935E0,-6.149075985E0
8.129996875E0,-2.671431065E0,-8.691727638E0,-5.541475773E0
8.151995313E0,-3.449469805E-1,-7.456386566E0,-3.373573780E0
8.171996875E0,7.171112895E-1,-6.794523716E0,-2.540602207E0
8.193996875E0,8.646420240E-1,-5.070497990E0,-2.147196770E0
8.215996875E0,1.041334152E0,-3.933127403E0,-1.863253951E0
8.235996875E0,8.207802176E-1,-3.545707226E0,-1.596147180E0
8.257996875E0,5.267243460E-2,-3.649970055E0,-1.476781845E0
8.279996875E0,-1.719132513E-1,-5.162674904E0,-1.789953113E0
8.301996875E0,-1.101936102E0,-6.313289642E0,-2.732847214E0
8.323996875E0,-1.827676177E0,-7.085937023E0,-2.900048494E0
8.343996875E0,-1.602640271E0,-8.634507179E0,-3.692845345E0
8.364003125E0,-4.530787095E-2,-1.029894638E1,-4.455197811E0
8.385996875E0,1.033117175E0,-1.085577011E1,-4.081060410E0
8.405996875E0,2.146066576E-1,-1.053668022E1,-3.245398045E0
8.425996875E0,1.079593450E-1,-1.118535614E1,-2.787683964E0
8.445996875E0,-1.304361038E-2,-1.318943691E1,-2.778902054E0
8.465996875E0,4.799512625E-1,-1.390403938E1,-3.591781378E0
8.487995313E0,1.129383326E0,-1.410112953E1,-3.894484997E0
8.507996875E0,-1.861798286E0,-1.489063168E1,-4.549854279E0
8.527996875E0,-4.594903946E0,-1.082386971E1,-8.579889297E0
8.547996875E0,-4.417924881E0,-9.003970146E0,-6.991863728E0
8.570000000E0,-2.219798565E0,-6.804694653E0,-3.836018801E0
8.591996875E0,-2.256036997E0,-1.275451565E1,-5.608839035E0
8.613998438E0,-4.539999962E0,-1.562746239E1,-4.869969368E0
8.634003125E0,-5.985762596E0,-1.254181480E1,-7.752137780E-1
8.655996875E0,-4.799656391E0,-9.684470177E0,-1.649461269E0
8.677996875E0,-2.632501364E0,-9.217390060E0,-1.955315828E0
8.699996875E0,-1.382795215E0,-5.617142200E0,-1.456603646E0
8.719996875E0,-4.371333420E-1,-4.176828384E0,-8.603611588E-1
8.741995313E0,3.566019833E-1,-3.901246309E0,-5.872594118E-1
8.761995313E0,5.096106529E-1,-3.493829727E0,-8.094508648E-1
8.781995313E0,1.996285468E-1,-3.042120695E0,-1.533409595E0
8.801996875E0,-3.798927665E-1,-3.940003633E0,-1.788190961E0
8.823996875E0,-4.945846200E-1,-4.726777077E0,-2.023694277E0
8.844009375E0,-8.591927886E-1,-4.919126987E0,-2.585163355E0
8.865996875E0,-1.216618419E0,-6.182575703E0,-2.482634068E0
8.887996875E0,-1.940720677E0,-8.358981133E0,-3.692156076E0
8.907996875E0,-2.378888369E0,-1.060422516E1,-4.370117188E0
8.929995313E0,-2.353739738E0,-1.256143761E1,-4.138741493E0
8.949995313E0,-2.109981298E0,-1.458447075E1,-4.158766747E0
8.969995313E0,-1.458624244E0,-1.544577980E1,-4.459928513E0
8.989996875E0,-4.178265035E-1,-1.506115723E1,-3.737435102E0
9.009996875E0,-5.872402191E-1,-1.469719982E1,-3.002386570E0
9.031995313E0,-1.097358346E0,-1.323037815E1,-2.809624434E0
9.051995313E0,-1.363268018E0,-1.116111755E1,-3.119453430E0
9.071995313E0,-8.184147477E-1,-9.758488655E0,-2.894867659E0
9.091996875E0,-1.594739556E0,-1.124976921E1,-3.613060951E0
9.111996875E0,-2.867267370E0,-1.272891712E1,-4.341731548E0
9.131996875E0,-4.575424671E0,-1.200407696E1,-5.793556213E0
9.153996875E0,-5.311430931E0,-1.032930470E1,-5.917163849E0
9.173996875E0,-4.771069527E0,-8.837305069E0,-4.610399246E0
9.193996875E0,-2.790691137E0,-7.672573566E0,-2.943527460E0
9.215996875E0,-3.834553659E-1,-6.478929996E0,-1.897979498E0
9.235996875E0,5.002828240E-1,-5.543199062E0,-1.272747993E0
9.257996875E0,5.476497412E-1,-4.983109474E0,-2.292927027E0
9.279996875E0,1.264808923E-1,-4.910383224E0,-3.507917166E0
9.301996875E0,-1.374846399E-1,-4.649348259E0,-3.328227758E0
9.323996875E0,-6.658753753E-2,-5.327932358E0,-3.085024595E0
9.343996875E0,3.217424154E-1,-5.654807568E0,-2.144113064E0
9.364004688E0,5.069290996E-1,-6.119225025E0,-2.700400829E0
9.385996875E0,1.533055305E-1,-6.648430347E0,-2.142724276E0
9.405996875E0,-1.274864525E-1,-8.038445473E0,-1.676171064E0
9.427995313E0,5.884852409E-1,-1.151867676E1,2.407609113E-2
9.447995313E0,-2.120400816E-1,-1.145170593E1,-1.038480282E0
9.467996875E0,2.805621326E-1,-1.172759438E1,-1.420106292E0
9.489996875E0,8.481220007E-1,-1.158214283E1,-2.661327600E0
9.511996875E0,1.209713459E0,-1.149031067E1,-5.033703804E0
9.531996875E0,6.971149445E-1,-1.274647141E1,-4.396357536E0
9.553996875E0,-2.824861050E0,-1.397723484E1,-2.482653141E0
9.573996875E0,-6.225824833E0,-1.411325359E1,-5.921770573E0
9.594003125E0,-5.462313652E0,-1.415744114E1,-7.460073948E0
9.615996875E0,-3.409735918E0,-1.582457256E1,-3.489865065E0
9.638015625E0,-3.645535946E0,-1.660230446E1,-1.336261511E0
9.659995313E0,-3.000586033E0,-1.500375271E1,-2.116732836E0
9.679995313E0,-1.812592626E0,-1.114586163E1,-1.426972866E0
9.699996875E0,-9.708296657E-1,-8.033533096E0,-1.090396166E0
9.719996875E0,-9.433537722E-1,-6.229933262E0,-1.006091475E0
9.741996875E0,-7.132805586E-1,-4.337805271E0,-5.651082397E-1
9.763996875E0,-2.906177640E-1,-2.514381170E0,-2.963064052E-2
9.783996875E0,-1.002021357E-1,-1.761500359E0,9.432196617E-2
9.804004688E0,4.455130547E-2,-1.472951174E0,7.469909266E-3
9.825996875E0,-2.036795169E-1,-2.342669010E0,-8.112992048E-1
9.845996875E0,-9.176017642E-1,-3.831661224E0,-1.660790682E0
9.865996875E0,-1.566506982E0,-5.423000813E0,-2.476217508E0
9.885996875E0,-2.218093634E0,-6.739860058E0,-2.807402611E0
9.905996875E0,-2.123905897E0,-8.082077980E0,-2.455301762E0
9.925996875E0,-1.452562094E0,-9.450373650E0,-1.981958508E0
9.945996875E0,-1.016453505E0,-1.128628635E1,-2.811511040E0
9.965996875E0,-6.652720571E-1,-1.294741249E1,-2.653474569E0
9.987996875E0,-1.453471929E-1,-1.462211704E1,-2.150874376E0
1.000799688E1,-3.692337871E-1,-1.562189770E1,-2.028051615E0
1.002999531E1,-7.555334568E-1,-1.521990204E1,-1.576735139E0
1.004999531E1,-5.128762722E-1,-1.589132214E1,-2.601175547E0
1.006999688E1,-8.739315271E-1,-1.216844463E1,-2.290752888E0
1.009199688E1,-5.170422196E-1,-8.905396461E0,-2.251440287E0
1.011399688E1,-5.319437385E-1,-1.273614788E1,-2.693840742E0
1.013399688E1,-1.999100924E0,-1.401217079E1,-2.609430790E0
1.015399688E1,-4.566193104E0,-1.306738949E1,-3.907624483E0
1.017599688E1,-5.982305527E0,-1.113868809E1,-5.008325100E0
1.019799531E1,-4.656817913E0,-9.403293610E0,-4.958698273E0
1.021799688E1,-1.994638205E0,-8.299481392E0,-3.530480146E0
1.023801563E1,-5.204515457E-1,-7.309478283E0,-2.668720961E0
1.025999531E1,-1.707927734E-1,-6.138379097E0,-1.956129909E0
1.027999688E1,3.367875814E-1,-5.222280979E0,-1.436281562E0
1.030199688E1,6.125900149E-1,-4.462380409E0,-1.061502814E0
1.032199688E1,7.584065199E-1,-4.540526867E0,-1.774448276E0
1.034399688E1,6.020938754E-1,-5.026262760E0,-1.770665407E0
1.036599688E1,2.336932421E-1,-5.351730347E0,-9.900886416E-1
1.038599688E1,2.489586622E-1,-6.157398224E0,-7.877210975E-1
1.040599688E1,3.672322333E-1,-7.807788372E0,-7.536851168E-1
1.042799531E1,3.801417649E-1,-8.960701942E0,-6.225211620E-1
1.044799688E1,5.761886239E-1,-1.017778015E1,-1.660340548E0
1.046799688E1,1.004070759E0,-1.043213081E1,-2.879601955E0
1.048999688E1,2.185398579E0,-1.156662750E1,-5.058765888E0
1.051199531E1,2.064002991E0,-1.328134537E1,-5.818264484E0
1.053199688E1,1.705428243E0,-1.332197094E1,-5.795596123E0
1.055399688E1,7.700998187E-1,-1.443457508E1,-7.287250996E0
1.057599688E1,-4.448388577E0,-1.264312840E1,-3.737473488E0
1.059799531E1,-6.192286491E0,-1.149661160E1,-4.118170261E0
1.061799688E1,-5.235008240E0,-1.272495174E1,-4.092753887E0
1.063801563E1,-3.853965521E0,-1.366972351E1,-1.164300323E0
1.065999531E1,-3.757757187E0,-1.522369480E1,1.303585291E0
1.067999531E1,-5.035810471E0,-1.427461338E1,6.304699183E-1
1.069999688E1,-3.982936621E0,-1.146034431E1,-2.499546669E-2
1.071999688E1,-2.443608284E0,-9.370741844E0,-4.106055796E-1
1.074199688E1,-1.141766071E0,-7.439589500E0,-1.590008497E0
1.076399688E1,-2.576256692E-1,-5.739590645E0,-2.171454906E0
1.078399688E1,1.888929456E-1,-4.567725182E0,-1.895144820E0
1.080399688E1,2.488820553E-1,-4.038826466E0,-1.435122848E0
1.082399844E1,3.539204597E-1,-3.941976547E0,-1.195444107E0
1.084400938E1,3.655850291E-1,-4.156784058E0,-1.319367886E0
1.086599688E1,1.411812901E-1,-5.076971531E0,-2.000815153E0
1.088599688E1,-4.097915590E-1,-5.882342815E0,-2.428333521E0
1.090599688E1,-7.278085947E-1,-6.147955418E0,-2.530469894E0
1.092799531E1,-9.684833288E-1,-7.085812569E0,-3.135206938E0
1.094799531E1,-7.614327669E-1,-8.343601227E0,-3.775493145E0
1.096799688E1,-1.058170199E0,-1.006283855E1,-3.471563816E0
1.098799688E1,-1.314531565E0,-1.160755920E1,-3.186462164E0
1.100799688E1,-1.369559884E0,-1.267945290E1,-1.132323384E0
1.102999531E1,-2.514917135E0,-1.363880920E1,-1.256476998E0
1.104999688E1,-2.398520708E0,-1.296096325E1,-3.586092710E0
1.106999688E1,-2.085397482E0,-1.327733326E1,-4.237708569E0
1.109199688E1,-2.085809231E0,-1.276114273E1,-2.989649057E0
1.111399688E1,-1.944292903E0,-1.187974167E1,-1.613950610E0
1.113399688E1,-1.647095799E0,-1.284822464E1,-1.279566765E0
1.115399688E1,-2.118772745E0,-1.268598461E1,-2.213458776E0
1.117399688E1,-3.695201397E0,-1.127119350E1,-4.351241112E0
1.119399688E1,-3.405225039E0,-1.030319786E1,-5.595507622E0
1.121401406E1,-1.821182966E0,-1.008422470E1,-4.795624733E0
1.123599688E1,-6.326055527E-1,-9.739707947E0,-2.796705246E0
1.125799688E1,-1.092043296E-1,-8.508744240E0,-1.687797189E0
1.127999688E1,1.846504062E-1,-6.838252068E0,-1.334202409E0
1.130199688E1,4.293186665E-1,-5.568022251E0,-1.583687901E0
1.132199688E1,5.350657701E-1,-4.879249096E0,-1.999139309E0
1.134399688E1,5.905920863E-1,-4.824967861E0,-2.031892061E0
1.136400000E1,4.337335825E-1,-5.597576618E0,-2.089515686E0
1.138599688E1,1.915169805E-1,-6.257341862E0,-2.217251062E0
1.140603906E1,-1.296699606E-2,-6.435767651E0,-2.327068329E0
1.142799688E1,-3.170593679E-1,-6.789075375E0,-2.336166143E0
1.144999531E1,-4.841075838E-1,-7.575857639E0,-2.252359629E0
1.146999688E1,-3.745585084E-1,-8.687178612E0,-2.150385857E0
1.148999688E1,6.912539154E-2,-9.678799629E0,-2.373467922E0
1.151199531E1,1.079976559E0,-1.099164581E1,-2.854290724E0
1.153199688E1,1.645802975E0,-1.177382183E1,-3.529129982E0
1.155199688E1,2.294880629E0,-1.191711998E1,-4.178782463E0
1.157399531E1,1.337870359E0,-1.388310432E1,-5.547470570E0
1.159399688E1,-3.298472404E0,-1.361143875E1,-4.951467991E0
1.161599531E1,-5.372234344E0,-1.247951794E1,-6.709232807E0
1.163599531E1,-3.472425461E0,-1.409741402E1,-5.656579018E0
1.165599688E1,-2.296977997E0,-1.555491829E1,-2.027869701E0
1.167799688E1,-2.637969732E0,-1.561518478E1,-1.313822985E0
1.169999531E1,-2.920676947E0,-1.272081566E1,-1.240301847E0
1.171999688E1,-2.344814301E0,-1.075782776E1,-3.554623425E-1
1.174199688E1,-1.793802977E0,-8.833952904E0,4.323449433E-1
1.176400000E1,-1.073243976E0,-6.971905708E0,-1.516870409E-1
1.178400156E1,-3.383964598E-1,-5.760966301E0,-7.533978224E-1
1.180400313E1,1.965160817E-1,-4.970563889E0,-8.067501783E-1
1.182599688E1,4.655669034E-1,-4.689637661E0,-9.080919623E-1
1.184799531E1,3.805152476E-1,-4.386876583E0,-1.064050317E0
1.186799531E1,-1.534012854E-1,-4.416354179E0,-1.548694253E0
1.188799688E1,-7.786135077E-1,-4.409296036E0,-2.289938927E0
1.190799688E1,-1.389068007E0,-4.832466125E0,-3.135810614E0
1.192999531E1,-1.553089976E0,-5.573012352E0,-3.601846695E0
1.194999531E1,-1.371283770E0,-6.636851788E0,-3.849474192E0
1.196999531E1,-1.159291625E0,-8.784344673E0,-4.375010967E0
1.198999531E1,-1.482604623E0,-1.129094982E1,-3.998115778E0
1.200999688E1,-2.049647570E0,-1.309591007E1,-3.395744085E0
1.202999688E1,-2.461440325E0,-1.411454678E1,-3.398780107E0
1.205199531E1,-2.222930193E0,-1.352383041E1,-3.336971283E0
1.207199531E1,-1.741810441E0,-1.406472874E1,-3.011886358E0
1.209199688E1,-1.515472174E0,-1.448541832E1,-2.517282724E0
1.211399688E1,-1.094159842E0,-1.196806812E1,-1.826249123E0
1.213399688E1,-8.924626708E-1,-1.096529961E1,-2.076902866E0
1.215399688E1,-8.875497580E-1,-1.213978958E1,-2.357761860E0
1.217399688E1,-1.662275195E0,-1.284847355E1,-3.168103456E0
1.219400312E1,-3.104073048E0,-1.127535820E1,-3.996152639E0
1.221599688E1,-3.483257055E0,-9.991492271E0,-5.703438282E0
1.223599688E1,-2.297313213E0,-9.103157043E0,-5.898364544E0
1.225799688E1,-9.490902424E-1,-8.607221603E0,-4.408328533E0
1.227999688E1,1.049713790E-1,-7.502297878E0,-3.214340448E0
1.230199688E1,3.972172141E-1,-5.763121128E0,-2.425537109E0
1.232199688E1,2.077305168E-1,-4.303625584E0,-2.679149866E0
1.234399688E1,-9.576806915E-4,-3.776087046E0,-2.929813147E0
1.236599688E1,-3.408385441E-2,-4.052818298E0,-2.398913622E0
1.238799688E1,-5.720993280E-1,-4.839198589E0,-1.687260985E0
1.240799688E1,-1.270085692E0,-6.044430256E0,-1.527232528E0
1.242999688E1,-2.087686539E0,-6.864626408E0,-2.042081594E0
1.245199688E1,-2.029296637E0,-8.286590576E0,-2.701646090E0
1.247400625E1,-1.128435135E0,-8.883713722E0,-3.029383183E0
1.249599531E1,-5.422579050E-1,-9.410533905E0,-3.408577204E0
1.251599688E1,5.755661055E-2,-1.024103546E1,-3.430555820E0
1.253801563E1,6.691506505E-1,-1.143904591E1,-3.307034254E0
1.255999688E1,1.600322723E0,-1.210188484E1,-3.712889671E0
1.257999688E1,2.209991693E0,-1.257694244E1,-7.394989967E0
1.260199688E1,1.013963580E0,-1.287423515E1,-7.655306816E0
1.262399688E1,-9.683971405E-1,-1.299317932E1,-5.489004612E0
1.264400000E1,-3.450274467E0,-1.096182442E1,-5.693698883E0
1.266599688E1,-2.722255230E0,-1.144394875E1,-5.130927086E0
1.268799688E1,-3.616068125E0,-1.348091698E1,-3.545908451E0
1.270799688E1,-4.680884838E0,-1.373005772E1,-8.031493425E-1
1.272799688E1,-5.060557365E0,-1.317524433E1,-7.992132306E-1
1.274799688E1,-4.140589714E0,-1.277443600E1,-1.612111807E0
1.276999531E1,-2.866443634E0,-1.105187416E1,-5.449202657E-1
1.278999531E1,-2.232928276E0,-9.017483711E0,-4.185351729E-1
1.280999531E1,-1.662753940E0,-6.971714497E0,-7.741124034E-1
1.282999531E1,-1.137006402E0,-5.544023037E0,-1.025149345E0
1.284999688E1,-5.856217742E-1,-4.748516083E0,-1.002346873E0
1.287199531E1,-2.324291021E-1,-4.381571293E0,-1.312769532E0
1.289199531E1,-2.786850790E-3,-4.236376762E0,-1.595792890E0
1.291199531E1,-2.541109920E-1,-4.442824364E0,-2.050662518E0
1.293199531E1,-4.252485335E-1,-4.770399094E0,-2.320010185E0
1.295199688E1,-4.161314070E-1,-5.552737713E0,-2.528525829E0
1.297399688E1,-5.920286179E-1,-6.672199726E0,-2.794071674E0
1.299399688E1,-9.711456895E-1,-7.481602669E0,-2.975915909E0
1.301599688E1,-1.205930710E0,-9.071027756E0,-3.319656610E0
1.303801563E1,-1.885558367E0,-1.134372711E1,-3.793775320E0
1.305999688E1,-2.189564466E0,-1.344011879E1,-3.552229166E0
1.308199531E1,-2.032677174E0,-1.348166370E1,-2.730175257E0
1.310199688E1,-1.808742762E0,-1.239799976E1,-2.357484102E0
1.312399844E1,-1.381464005E0,-1.297986698E1,-2.325603008E0
1.314599688E1,-1.313995361E0,-1.340883160E1,-2.143069029E0
1.316599688E1,-1.460290670E0,-1.135725975E1,-2.348549128E0
1.318799531E1,-1.301957250E0,-1.125947094E1,-4.212329388E0
1.320799688E1,-1.806310296E0,-1.198527813E1,-5.214446545E0
1.322999531E1,-3.946908474E0,-1.214106369E1,-6.042294979E0
1.324999531E1,-5.009914875E0,-1.064401722E1,-5.836268902E0
1.326999531E1,-4.408884048E0,-8.631077766E0,-5.008956909E0
1.328999688E1,-3.184814930E0,-8.140324593E0,-3.956868410E0
1.331199688E1,-1.703340411E0,-7.547347069E0,-2.560464621E0
1.333399688E1,-1.013063312E0,-6.323460102E0,-1.811816931E0
1.335399688E1,-9.304059744E-1,-5.391512394E0,-1.766671896E0
1.337601562E1,-3.966330290E-1,-4.609728813E0,-1.936976194E0
1.339799688E1,-4.730942659E-3,-4.679668427E0,-2.129460335E0
1.341999688E1,2.582673430E-1,-5.404929638E0,-2.115880728E0
1.344199531E1,-3.855622560E-2,-6.317627907E0,-1.862257957E0
1.346199688E1,-6.303741336E-1,-7.098750591E0,-1.597449660E0
1.348400156E1,-1.210968018E0,-7.804857731E0,-1.794751048E0
1.350599688E1,-1.342879057E0,-8.582226753E0,-2.222393751E0
1.352599688E1,-6.934182644E-1,-9.291274071E0,-2.432212114E0
1.354799688E1,1.002691686E-1,-9.972089767E0,-2.562552452E0
1.356999688E1,4.463462234E-1,-1.063995743E1,-2.977793217E0
1.359199688E1,9.331544638E-1,-1.223412228E1,-4.179040432E0
1.361400156E1,6.229521632E-1,-1.284954643E1,-5.170479298E0
1.363599688E1,1.273044944E0,-1.219514465E1,-8.927020073E0
1.365599688E1,1.198968410E0,-1.295255470E1,-8.080756187E0
1.367799688E1,-1.567081690E0,-1.368744087E1,-5.362724781E0
1.369999531E1,-3.742098808E0,-1.037254429E1,-5.547489643E0
1.371999688E1,-3.317875147E0,-1.050626469E1,-4.092207909E0
1.374199531E1,-3.846888542E0,-1.252262306E1,-1.981680751E0
1.376199688E1,-4.700411797E0,-1.329086494E1,2.707841992E-1
1.378199688E1,-4.880541801E0,-1.371635246E1,-4.177115858E-1
1.380199688E1,-3.823501825E0,-1.255646801E1,-7.297239304E-1
1.382199688E1,-2.279538631E0,-1.081588268E1,-2.254763395E-1
1.384399688E1,-1.516927838E0,-8.425579071E0,-2.241355926E-1
1.386399688E1,-9.826665521E-1,-6.727496147E0,-3.452630341E-1
1.388401094E1,-4.852376282E-1,-5.637799263E0,-6.963200569E-1
1.390599688E1,3.050213121E-2,-4.984478951E0,-9.484869242E-1
1.392799531E1,2.156984210E-1,-4.287268162E0,-1.249715805E0
1.394799531E1,-2.195004001E-2,-4.255138397E0,-1.695257545E0
1.396799688E1,-2.930407226E-1,-4.413298607E0,-1.764852285E0
1.398799688E1,-2.536034286E-1,-4.822659492E0,-2.003305197E0
1.400799688E1,-3.899675608E-1,-5.617352486E0,-2.498608112E0
1.402999531E1,-7.875007987E-1,-6.715744972E0,-2.712007999E0
1.404999688E1,-8.986396194E-1,-7.951469421E0,-2.773539066E0
1.406999688E1,-1.139017463E0,-9.376862526E0,-3.295714378E0
1.409199688E1,-1.622684598E0,-1.150935841E1,-3.737588406E0
1.411399688E1,-1.917544961E0,-1.343180656E1,-3.393024445E0
1.413399688E1,-1.843468308E0,-1.365584660E1,-3.299861193E0
1.415599688E1,-1.933222055E0,-1.314799786E1,-3.695756912E0
1.417599688E1,-1.994762659E0,-1.354481316E1,-3.646560907E0
1.419599688E1,-1.968752027E0,-1.423372078E1,-3.050500154E0
1.421599688E1,-1.017641068E0,-1.235060406E1,-2.434912682E0
1.423599688E1,5.099841356E-1,-1.143043613E1,-2.620223761E0
1.425799688E1,1.279653013E-1,-1.133693790E1,-2.077458382E0
1.427999688E1,-2.247350931E0,-1.140971184E1,-3.349986076E0
1.430199688E1,-4.288695335E0,-1.072971058E1,-5.056735992E0
1.432199688E1,-4.689695358E0,-9.135880470E0,-5.480241776E0
1.434399688E1,-3.159043789E0,-8.464048386E0,-4.783634186E0
1.436599688E1,-1.055766344E0,-8.393525124E0,-3.242735624E0
1.438799688E1,-5.079442263E-1,-7.421039104E0,-1.994628549E0
1.440799688E1,-5.064215660E-1,-6.481305122E0,-1.580651999E0
1.442999688E1,3.042551689E-2,-5.757356167E0,-1.921251059E0
1.445199688E1,5.230085254E-1,-5.364505768E0,-2.431369305E0
1.447399688E1,5.106161833E-1,-5.313327312E0,-2.339690447E0
1.449399688E1,-1.573277861E-1,-5.775465965E0,-2.012565851E0
1.451399688E1,-9.279159307E-1,-6.413348198E0,-1.868387103E0
1.453599531E1,-1.299122572E0,-7.001095772E0,-1.924909472E0
1.455599531E1,-1.078769803E0,-7.904102325E0,-2.042953014E0
1.457599688E1,-4.492671490E-1,-8.866208076E0,-2.064970255E0
1.459799531E1,3.975811601E-1,-9.507030487E0,-1.748207808E0
1.461799688E1,8.717671633E-1,-9.915778160E0,-1.559439301E0
1.463801563E1,7.198598385E-1,-1.068600178E1,-1.736466527E0
1.465999531E1,3.797874153E-1,-1.171882248E1,-2.370872498E0
1.467999531E1,1.065161109E0,-1.241374397E1,-3.520979881E0
1.469999531E1,2.440869331E0,-1.284034252E1,-6.515676498E0
1.471999688E1,1.942779779E0,-1.402716827E1,-8.663389206E0
1.474199688E1,-1.505761385E0,-1.354041672E1,-7.056095600E0
1.476400000E1,-3.824641466E0,-1.005477524E1,-6.374361038E0
1.478599531E1,-3.000528574E0,-1.159907436E1,-4.277882576E0
1.480599688E1,-4.091451168E0,-1.371742535E1,-1.262529492E0
1.482799688E1,-4.508502007E0,-1.357434750E1,1.706845522E0
1.484999688E1,-3.342152357E0,-1.291696644E1,-1.456546187E0
1.487199531E1,-1.943258524E0,-1.098251915E1,-1.093297839E0
1.489199531E1,-1.017325044E0,-9.348811150E0,-1.441941500E0
1.491199531E1,-4.965095520E-1,-7.587713242E0,-1.509189844E0
1.493199531E1,-1.290091723E-1,-6.168095589E0,-1.149973392E0
1.495199688E1,3.252858222E-1,-5.357667923E0,-9.449435472E-1
1.497399688E1,4.760535061E-1,-4.749396801E0,-7.621318102E-1
1.499401250E1,2.231778949E-1,-4.434023380E0,-8.154554963E-1
1.501599531E1,-1.643763185E-1,-4.282719135E0,-1.188539147E0
1.503599531E1,-6.455150843E-1,-4.141346455E0,-1.632874250E0
1.505599531E1,-4.475337565E-1,-4.833940983E0,-2.158679247E0
1.507599688E1,-8.938896060E-1,-6.500947475E0,-2.778241158E0
1.509799531E1,-1.236404061E0,-7.516960144E0,-2.667303562E0
1.511799688E1,-1.233578801E0,-8.364756584E0,-2.666996956E0
1.513801563E1,-1.321896195E0,-9.782986641E0,-3.100433826E0
1.515999531E1,-1.696320653E0,-1.200740051E1,-3.151114225E0
1.517999531E1,-1.448693156E0,-1.413598919E1,-2.844819069E0
1.519999531E1,-1.067373395E0,-1.449997425E1,-2.701770544E0
1.521999688E1,-1.424128652E0,-1.330875397E1,-2.572761297E0
1.524199688E1,-1.423161387E0,-1.282000160E1,-2.989974737E0
1.526399688E1,-1.512436390E0,-1.299996948E1,-2.941295862E0
1.528400000E1,-1.682826877E0,-1.162812042E1,-2.879630804E0
1.530599688E1,-1.718644142E0,-1.060190773E1,-3.038950682E0
1.532599688E1,-1.970935583E0,-1.009226894E1,-3.234892130E0
1.534599688E1,-3.251728058E0,-1.037810707E1,-4.649913311E0
1.536599688E1,-5.119483471E0,-1.099246979E1,-5.997063637E0
1.538799688E1,-4.887102127E0,-9.663725853E0,-5.981625557E0
1.540799688E1,-3.327471256E0,-8.917347908E0,-5.016599655E0
1.542999531E1,-1.430621743E0,-8.857483864E0,-3.398492575E0
1.544999531E1,-7.080132961E-1,-7.997390270E0,-2.012163639E0
1.546999688E1,-3.572053313E-1,-6.777851105E0,-1.489097714E0
1.548999688E1,9.770258516E-2,-5.746304035E0,-1.612581015E0
1.551199531E1,6.729334593E-1,-5.158997059E0,-1.789234877E0
1.553199688E1,8.645271063E-1,-5.069080353E0,-1.613337636E0
1.555199688E1,5.478699207E-1,-5.663733006E0,-1.458758473E0
1.557400625E1,9.248322248E-2,-6.551426411E0,-1.279758334E0
1.559599531E1,-2.224213481E-1,-7.210770607E0,-1.046936512E0
1.561599531E1,-1.761557758E-1,-7.858344555E0,-1.176290393E0
1.563599531E1,1.107174605E-1,-8.463215828E0,-1.192609429E0
1.565599688E1,2.951093018E-1,-9.300975800E0,-1.284221053E0
1.567799688E1,8.299356699E-1,-1.019073772E1,-1.627645373E0
1.569999531E1,1.156169534E0,-1.126511097E1,-2.504852057E0
1.571999688E1,8.375492096E-1,-1.216940117E1,-3.226924419E0
1.574199688E1,3.602699041E-1,-1.237347317E1,-3.117403746E0
1.576399688E1,1.107787609E0,-1.266310501E1,-8.192690849E0
1.578399844E1,-4.417685270E-1,-1.369086933E1,-7.794208527E0
1.580400313E1,-4.745355606E0,-1.233453465E1,-6.203797817E0
1.582599531E1,-3.893211365E0,-9.803901672E0,-7.956305504E0
1.584599531E1,-2.445475817E0,-1.083679867E1,-4.131051064E0
1.586599688E1,-4.300044060E0,-1.339996433E1,-3.086394072E0
1.588799531E1,-6.919022560E0,-1.377531719E1,-2.504239082E-1
1.590799531E1,-6.373183250E0,-1.307544422E1,-1.362453938E0
1.592799531E1,-3.938040495E0,-1.211440277E1,-7.913219333E-1
1.594799531E1,-2.498196363E0,-1.093117809E1,5.736985803E-1
1.596799531E1,-1.852240562E0,-9.033935547E0,4.590354860E-1
1.598799531E1,-1.496787786E0,-7.145772457E0,-3.656328917E-1
1.600799531E1,-1.056848526E0,-6.055290699E0,-9.822452068E-1
1.602799531E1,-5.193502307E-1,-5.305263519E0,-1.337295771E0
1.604799531E1,-2.334825397E-1,-4.791467667E0,-1.527922153E0
1.606799531E1,-2.027027011E-1,-4.440487862E0,-1.792088747E0
1.608799531E1,-4.063343406E-1,-4.624026775E0,-2.068628550E0
1.610799688E1,-5.799139142E-1,-5.661415577E0,-2.320699692E0
1.612999688E1,-1.282889843E0,-6.255742550E0,-2.546329260E0
1.615199531E1,-1.762783647E0,-6.783692837E0,-2.972727060E0
1.617199531E1,-1.891381025E0,-7.479428768E0,-3.181740761E0
1.619199531E1,-2.055154085E0,-8.818563461E0,-3.277566433E0
1.621199531E1,-2.433638811E0,-1.023664856E1,-2.902873755E0
1.623199531E1,-2.851341009E0,-1.130824471E1,-2.498263121E0
1.625199531E1,-3.019557714E0,-1.226161766E1,-2.506978273E0
1.627199531E1,-2.690862656E0,-1.238652706E1,-2.321149826E0
1.629199531E1,-1.742538333E0,-1.258414459E1,-2.136518478E0
1.631199531E1,-6.899897456E-1,-1.352578449E1,-1.773787498E0
1.633199531E1,-3.498407453E-2,-1.301851940E1,-1.439872980E0
1.635199531E1,9.762597084E-1,-1.163109875E1,-1.875981569E0
1.637199531E1,1.050039411E0,-1.206535912E1,-1.658884883E0
1.639199531E1,-3.365002871E-1,-1.233716774E1,-2.504641294E0
1.641199531E1,-2.646014214E0,-1.216894245E1,-4.548915863E0
1.643199531E1,-3.802873373E0,-1.157767963E1,-5.957051754E0
1.645199531E1,-3.332508564E0,-1.050723171E1,-6.673731804E0
1.647199531E1,-2.055814743E0,-9.238305092E0,-6.363175392E0
1.649199531E1,-1.402121067E0,-8.417381287E0,-5.024405003E0
1.651199688E1,-1.555848002E0,-7.562766075E0,-3.595516443E0
1.653199688E1,-1.588016510E0,-6.433057308E0,-2.679676771E0
1.655399688E1,-1.535851717E0,-5.107148647E0,-2.132457972E0
1.657399688E1,-1.415078521E0,-4.460847855E0,-1.792768717E0
1.659399688E1,-1.502313733E0,-4.705564022E0,-1.653406978E0
1.661399844E1,-1.721565008E0,-5.071369171E0,-1.756558657E0
1.663599531E1,-2.286031723E0,-5.292593956E0,-2.374751329E0
1.665599688E1,-2.363287926E0,-6.178495884E0,-2.816500425E0
1.667599688E1,-1.929822445E0,-7.278344154E0,-2.279644012E0
1.669599688E1,-1.420891762E0,-8.045408249E0,-1.631849647E0
1.671599688E1,-7.829422355E-1,-8.628232956E0,-1.574474931E0
1.673599688E1,-4.031739831E-1,-9.480005264E0,-1.873338342E0
1.675799688E1,-1.451652348E-1,-1.043391228E1,-2.628163099E0
1.677999688E1,4.199908674E-1,-1.186058807E1,-3.135676384E0
1.680199531E1,1.095902681E0,-1.314951038E1,-3.699654579E0
1.682199688E1,1.639683366E0,-1.370900822E1,-5.240495682E0
1.684399688E1,1.086421728E0,-1.400698090E1,-5.540374279E0
1.686599688E1,-5.779315829E-1,-1.349018669E1,-3.206496716E0
1.688599688E1,-1.675922036E0,-1.185617256E1,-4.437394142E0
1.690600156E1,-2.001993179E0,-1.001401615E1,-5.358788490E0
1.692799531E1,-2.457140446E0,-1.036263180E1,-2.821058989E0
1.694799531E1,-3.240312576E0,-1.134032822E1,-2.094380617E0
1.696799688E1,-3.963371038E0,-1.213008881E1,-1.291346192E0
1.698799688E1,-3.468010664E0,-1.235620689E1,-1.219635129E0
1.700799688E1,-1.755093455E0,-1.157268047E1,-3.757747412E-1
1.702999531E1,-6.999688148E-1,-9.934212685E0,-7.551216483E-1
1.704999531E1,-7.724269629E-1,-8.243686676E0,-9.007944465E-1
1.706999688E1,-6.818016171E-1,-6.787743568E0,-7.368299365E-1
1.709199688E1,-7.106852531E-1,-5.712737560E0,-8.765172362E-1
1.711399688E1,-7.538862228E-1,-5.006361961E0,-1.038729191E0
1.713400312E1,-6.837169528E-1,-4.833643913E0,-1.351967454E0
1.715599688E1,-6.318776608E-1,-4.916770935E0,-1.926173568E0
1.717599688E1,-7.416471243E-1,-5.279952049E0,-2.406287670E0
1.719599688E1,-6.160184741E-1,-6.066217899E0,-2.383121252E0
1.721599688E1,-7.236522436E-1,-7.058767796E0,-2.204398870E0
1.723599688E1,-7.668245435E-1,-7.767719269E0,-2.272930622E0
1.725799688E1,-5.247228146E-1,-8.842189789E0,-2.551586866E0
1.727999688E1,-6.164973974E-1,-1.055494308E1,-2.878797531E0
1.730199531E1,-6.979672909E-1,-1.270473576E1,-2.815370560E0
1.732199688E1,-3.669066131E-1,-1.402864265E1,-2.551500797E0
1.734399688E1,-3.497928679E-1,-1.359407616E1,-2.918100834E0
1.736399844E1,-8.477005959E-1,-1.239898586E1,-3.358538389E0
1.738599688E1,-1.718414307E0,-1.221841621E1,-3.559450150E0
1.740599688E1,-2.329529524E0,-1.131488228E1,-3.331799746E0
1.742799531E1,-2.294938087E0,-1.029112244E1,-3.474599600E0
1.744799531E1,-3.254629850E0,-1.013537407E1,-4.367914677E0
1.746799688E1,-4.726786137E0,-9.918651581E0,-5.040886402E0
1.748799688E1,-5.615657806E0,-1.110470963E1,-5.935130596E0
1.750799688E1,-6.359765530E0,-1.081159306E1,-5.301815987E0
1.752999688E1,-5.294432163E0,-9.789756775E0,-4.109867573E0
1.755199531E1,-3.048019886E0,-9.522286415E0,-3.302829981E0
1.757199531E1,-1.364292741E0,-8.480597496E0,-2.298184633E0
1.759199688E1,8.647856861E-2,-7.216928005E0,-1.608903527E0
1.761399531E1,1.464820385E0,-6.303444862E0,-1.471658349E0
1.763399688E1,2.212931871E0,-5.918983936E0,-1.378945351E0
1.765400469E1,2.160747766E0,-5.608082294E0,-1.037714124E0
1.767600000E1,1.353978515E0,-5.764040470E0,-7.371938229E-1
1.769799531E1,1.003457785E0,-6.327683449E0,-7.818025947E-1
1.771799688E1,8.849831820E-1,-6.761857986E0,-9.269008040E-1
1.773801563E1,4.709490538E-1,-7.300917149E0,-1.263324499E0
1.775999531E1,2.051639259E-1,-8.292862892E0,-1.682913065E0
1.777999688E1,1.028932109E-1,-9.216852188E0,-1.866490960E0
1.780199531E1,2.908284664E-1,-1.009035397E1,-2.150539160E0
1.782199688E1,6.595355272E-1,-1.076926231E1,-2.575825930E0
1.784399688E1,6.117280722E-1,-1.146242332E1,-3.029986858E0
1.786599688E1,4.319139756E-3,-1.208603477E1,-3.373075962E0
1.788599688E1,1.602391303E-1,-1.220930862E1,-3.818885803E0
1.790599688E1,1.160364270E0,-1.256397533E1,-6.521594524E0
1.792799531E1,1.166675329E0,-1.312697697E1,-6.865842819E0
1.794799531E1,-9.385079145E-1,-1.312453556E1,-6.977699757E0
1.796799688E1,-2.229097605E0,-9.741969109E0,-7.691009045E0
1.798799688E1,-1.659382939E0,-1.004066849E1,-4.864883900E0
1.800799688E1,-2.488178968E0,-1.175155544E1,-2.671498060E0
1.802999531E1,-4.031385422E0,-1.247825432E1,1.939494908E-1
1.804999531E1,-5.011035442E0,-1.296742821E1,2.065717243E-2
1.806999688E1,-4.475299358E0,-1.242381001E1,-5.666884184E-1
1.809199688E1,-2.361678839E0,-1.089655781E1,-1.093355298E0
1.811399688E1,-7.757500410E-1,-9.085287094E0,-1.188050747E0
1.813399688E1,-4.838873148E-1,-7.327626228E0,-9.440624118E-1
1.815399688E1,-1.695765257E-1,-6.051000118E0,-7.201949954E-1
1.817399688E1,6.189490110E-2,-5.428880692E0,-7.985619903E-1
1.819399688E1,6.828263402E-2,-5.025314331E0,-8.944929242E-1
1.821400156E1,-1.391318440E-1,-4.832725048E0,-1.256285548E0
1.823599688E1,-3.171167970E-1,-5.065020084E0,-1.645917892E0
1.825799688E1,-3.802949786E-1,-5.912911892E0,-2.014921904E0
1.827999688E1,-3.393637538E-1,-6.591515064E0,-2.191814899E0
1.830199531E1,-6.239768863E-1,-7.112665653E0,-2.105777025E0
1.832199688E1,-9.378375411E-1,-7.918975353E0,-2.163726330E0
1.834399688E1,-1.193806410E0,-9.257333755E0,-2.664219618E0
1.836399688E1,-1.325975895E0,-1.072377300E1,-3.144994736E0
1.838399688E1,-1.217413187E0,-1.243306065E1,-3.465128183E0
1.840400938E1,-1.038872838E0,-1.357455826E1,-3.662448645E0
1.842599531E1,-1.232056141E0,-1.312174797E1,-3.884946585E0
1.844599688E1,-1.445743561E0,-1.263269901E1,-3.749990225E0
1.846599688E1,-1.918971777E0,-1.334530830E1,-3.783930302E0
1.848599688E1,-1.736236811E0,-1.277763367E1,-3.230352879E0
1.850599688E1,-6.573233008E-1,-1.144714737E1,-3.396500826E0
1.852599688E1,7.313807309E-2,-1.115861702E1,-2.956925392E0
1.854799688E1,-1.262520075E0,-1.152367592E1,-3.431245327E0
1.856999688E1,-3.684379578E0,-1.084564781E1,-4.585624218E0
1.859199688E1,-4.306144238E0,-9.534218788E0,-5.175334930E0
1.861399688E1,-2.507275105E0,-8.812136650E0,-4.951735973E0
1.863399688E1,-5.741870403E-1,-8.416165352E0,-3.321993113E0
1.865399688E1,2.842396200E-1,-7.632830143E0,-1.966070533E0
1.867599688E1,7.719193697E-1,-6.723119736E0,-1.021356821E0
1.869799531E1,1.049177527E0,-6.420578480E0,-9.472323656E-1
1.871799688E1,1.323543429E0,-6.359574318E0,-1.404927135E0
1.873801406E1,1.261524081E0,-6.374629021E0,-1.831315279E0
1.875999688E1,6.912347674E-1,-6.253980637E0,-1.881861687E0
1.877999688E1,1.393425371E-2,-6.494329453E0,-1.883719563E0
1.880199531E1,-4.392498136E-1,-7.218757153E0,-1.771881580E0
1.882199688E1,-6.266487837E-1,-8.203282356E0,-1.844186544E0
1.884399688E1,-1.031029463E0,-8.539658546E0,-2.059157133E0
1.886599688E1,-5.874700546E-1,-8.700960159E0,-1.745353937E0
1.888599688E1,5.909847468E-2,-8.879988670E0,-1.608079910E0
1.890599688E1,3.339624107E-1,-9.561628342E0,-1.965515137E0
1.892799531E1,4.263977408E-1,-1.054189110E1,-2.761855125E0
1.894799531E1,4.450725019E-1,-1.132413387E1,-3.775608063E0
1.896799688E1,1.044858456E0,-1.195048523E1,-4.090953350E0
1.898999688E1,3.086528301E0,-1.321853161E1,-6.219896317E0
1.900999688E1,1.208937764E0,-1.338623047E1,-8.162015915E0
1.903199531E1,-2.019384623E0,-1.147708511E1,-8.894689560E0
1.905199531E1,-1.867496490E0,-1.089331150E1,-5.816770554E0
1.907199531E1,-2.543542385E0,-1.293529701E1,-2.451566696E0
1.909199688E1,-3.747366190E0,-1.409749031E1,-3.127785027E-1
1.911399688E1,-4.205146790E0,-1.394284439E1,-1.267624497E0
1.913399688E1,-2.969614506E0,-1.311134720E1,-1.336472154E0
1.915399688E1,-1.301507235E0,-1.135731697E1,-8.154554963E-1
1.917399688E1,-8.727918863E-1,-9.175730705E0,-4.697519541E-1
1.919399688E1,-5.909273028E-1,-7.214294910E0,-3.127210438E-1
1.921399688E1,-2.451087981E-1,-5.844562531E0,-2.927725613E-1
1.923399688E1,1.569734365E-1,-5.121101379E0,-4.841459095E-1
1.925399688E1,3.317597210E-1,-4.817871094E0,-6.914741993E-1
1.927399688E1,2.459898591E-1,-4.859118462E0,-1.044599771E0
1.929399688E1,-4.295197502E-2,-4.840175629E0,-1.299429059E0
1.931599688E1,-4.373153150E-1,-5.304410934E0,-1.733564854E0
1.933599688E1,-6.457737088E-1,-5.809702873E0,-2.013868332E0
1.935799531E1,-1.069719672E0,-6.257389545E0,-2.341261148E0
1.937799531E1,-1.398079753E0,-6.886538029E0,-2.714124441E0
1.939799688E1,-1.116387606E0,-7.841948986E0,-2.810151100E0
1.941999688E1,-9.534094334E-1,-9.659435272E0,-2.901801348E0
1.944199531E1,-9.976159930E-1,-1.176052952E1,-3.059311152E0
1.946199688E1,-5.925266147E-1,-1.306617355E1,-2.933653593E0
1.948400469E1,-1.209550630E-2,-1.357192516E1,-3.291807175E0
1.950599688E1,6.182786450E-2,-1.308575916E1,-3.608004332E0
1.952599688E1,-2.355798632E-1,-1.311771584E1,-4.006476402E0
1.954799688E1,-3.932906985E-1,-1.293644619E1,-3.940233469E0
1.956799844E1,6.196864843E-1,-1.275189114E1,-3.369791031E0
1.958999531E1,6.096978188E-1,-1.274042892E1,-2.470318079E0
1.960999688E1,-1.187706113E0,-1.302823067E1,1.108802706E-1
1.963199531E1,-3.575012445E0,-1.216908550E1,1.839398026E0
1.965199531E1,-5.278409958E0,-1.003764248E1,-6.459460258E-1
1.967199688E1,-5.536562443E0,-8.240535736E0,-4.005154610E0
1.969199688E1,-3.698993683E0,-8.215492249E0,-6.476583958E0
1.971400781E1,3.870562017E-1,-8.749217987E0,-7.339358330E0
1.973599688E1,3.087792158E0,-9.346886635E0,-1.073278522E1
1.975799688E1,5.271170139E-1,-6.765927792E0,-8.950024605E0
1.977999688E1,-4.987218082E-1,-5.807107449E0,-3.586045027E0
1.980199531E1,-9.302909970E-1,-5.616127014E0,-1.058936238E0
1.982199688E1,-1.366897583E0,-5.173256874E0,-2.557007363E-3
1.984400000E1,-1.361620903E0,-5.644244194E0,1.234258860E-1
1.986400312E1,-1.478275895E0,-6.214868546E0,-4.371716678E-1
1.988400625E1,-1.426005721E0,-6.980544090E0,-8.001230359E-1
1.990599531E1,-1.089103103E0,-8.023238182E0,-1.267739415E0
1.992599531E1,-4.178073406E-1,-8.582150459E0,-1.539615393E0
1.994599688E1,3.006255627E-1,-9.071314812E0,-1.573546052E0
1.996799688E1,7.792168856E-1,-9.368674278E0,-1.734244704E0
1.998999531E1,8.805012107E-1,-9.835102081E0,-1.908954501E0
2.000999688E1,8.637992740E-1,-1.043633461E1,-2.198509216E0
2.003199688E1,7.634726167E-1,-1.126187515E1,-2.883298874E0
2.005399688E1,9.162609577E-1,-1.191517544E1,-3.510598898E0
2.007400312E1,1.139477134E0,-1.286012936E1,-4.542576313E0
2.009599688E1,7.328842878E-1,-1.347032452E1,-4.169502258E0
2.011799688E1,-9.181858897E-1,-1.349056053E1,-6.221639633E0
2.013801562E1,-1.572693586E0,-1.170528126E1,-8.387338638E0
2.015999531E1,-1.651558638E0,-1.193428135E1,-4.401730537E0
2.017999531E1,-3.484367847E0,-1.366324902E1,-1.344736934E0
2.019999531E1,-4.707824230E0,-1.338693905E1,-2.923894823E-1
2.021999688E1,-3.263718367E0,-1.316720867E1,-1.401757240E0
2.024199531E1,-9.373395443E-1,-1.185669041E1,-5.142458081E-1
2.026199531E1,-7.386591434E-1,-9.758737564E0,-7.234702706E-1
2.028199531E1,-7.159237862E-1,-7.402344704E0,-1.044389009E0
2.030199531E1,-6.733452678E-1,-5.710697651E0,-1.076959848E0
2.032199531E1,-4.602709115E-1,-4.875916481E0,-1.136211514E0
2.034199531E1,-3.015353382E-1,-4.395859718E0,-1.505569816E0
2.036199531E1,-4.705372751E-1,-4.184059143E0,-2.119883537E0
2.038199688E1,-7.457076311E-1,-4.326581001E0,-2.539434195E0
2.040399531E1,-1.095471859E0,-4.778567791E0,-2.691858292E0
2.042399688E1,-1.253623128E0,-5.565283775E0,-2.814623594E0
2.044400469E1,-1.713252425E0,-6.121159554E0,-2.554756880E0
2.046599531E1,-1.653751731E0,-7.071217060E0,-2.350445271E0
2.048599531E1,-1.496098399E0,-8.379150391E0,-2.559803963E0
2.050599688E1,-1.577635288E0,-9.865528107E0,-2.816960096E0
2.052799531E1,-1.408537626E0,-1.186812496E1,-2.733431339E0
2.054799531E1,-9.954707623E-1,-1.381872845E1,-2.705026627E0
2.056799531E1,-2.668098509E-1,-1.486885452E1,-2.811252356E0
2.058799531E1,2.882618606E-1,-1.397669792E1,-2.960066319E0
2.060799531E1,6.800873280E-1,-1.361765385E1,-3.478114367E0
2.062799531E1,5.802491307E-1,-1.355197620E1,-3.418517828E0
2.064799531E1,2.749692798E-1,-1.180978298E1,-3.035340071E0
2.066799531E1,4.642835855E-1,-1.111284065E1,-2.915428877E0
2.068799531E1,2.702574991E-2,-1.101045513E1,-2.848190069E0
2.070799531E1,-1.412425756E0,-1.123979092E1,-3.468250275E0
2.072799531E1,-3.165412426E0,-1.128339386E1,-4.290476799E0
2.074799531E1,-3.852088690E0,-1.027776146E1,-4.964300632E0
2.076799531E1,-3.137773752E0,-8.986415863E0,-4.944955349E0
2.078799531E1,-1.641445518E0,-8.363348961E0,-4.203030586E0
2.080799531E1,-1.065007925E0,-8.061756134E0,-3.474704742E0
2.082799531E1,-1.163802266E0,-7.388410568E0,-2.853907585E0
2.084799531E1,-1.190291762E0,-6.399825573E0,-1.997923017E0
2.086799531E1,-8.330098391E-1,-5.716673851E0,-1.328303099E0
2.088799531E1,-3.721355498E-1,-5.433755875E0,-1.424674511E0
2.090799531E1,-2.085828595E-2,-5.722850800E0,-1.837109208E0
2.092799531E1,-1.276875734E-1,-6.246500969E0,-1.966788769E0
2.094799688E1,-4.007510543E-1,-6.863985062E0,-2.110019445E0
2.096999531E1,-5.252974033E-1,-7.306461811E0,-2.037724257E0
2.098999531E1,-3.280439377E-1,-7.783808231E0,-1.961004376E0
2.100999688E1,-1.117900610E-1,-8.128726959E0,-1.763482809E0
2.103199531E1,1.767782718E-1,-8.677371979E0,-1.560511947E0
2.105199531E1,3.522732556E-1,-9.207927704E0,-1.573220372E0
2.107199531E1,5.669277906E-1,-9.827613831E0,-2.047147751E0
2.109199688E1,1.027428627E0,-1.075179482E1,-3.082304955E0
2.111199688E1,1.211236238E0,-1.154529953E1,-4.274090290E0
2.113399688E1,2.136029959E0,-1.260041523E1,-5.012816906E0
2.115399688E1,2.839235783E0,-1.390198898E1,-6.834411621E0
2.117399688E1,-3.807067871E-1,-1.383855247E1,-8.551963806E0
2.119399688E1,-2.068877697E0,-1.214742279E1,-6.374178886E0
2.121399688E1,-1.597612381E0,-1.110808945E1,-4.469074249E0
2.123599688E1,-1.262759447E0,-1.139880371E1,-2.593303442E0
2.125799688E1,-3.023781061E0,-1.179477596E1,-4.012298882E-1
2.127999531E1,-4.725483894E0,-1.214441586E1,-5.514134169E-1
2.129999531E1,-4.557516098E0,-1.220461559E1,-7.916380167E-1
2.131999531E1,-2.097512245E0,-1.133096218E1,-1.363449931E0
2.133999531E1,-4.097628295E-1,-1.000095367E1,-2.131423473E0
2.135999531E1,8.667968214E-2,-8.324151039E0,-1.894493580E0
2.137999531E1,-1.341423392E-1,-6.865555286E0,-1.553444266E0
2.139999531E1,-2.336453497E-1,-6.031798363E0,-1.092522144E0
2.141999531E1,-1.095203608E-1,-5.659308434E0,-7.705498934E-1
2.143999531E1,-1.633803174E-2,-5.320116997E0,-8.747168183E-1
2.145999531E1,-7.872135192E-2,-5.391742229E0,-1.343606830E0
2.147999531E1,-1.361534595E-1,-5.708399296E0,-1.581944823E0
2.149999531E1,-1.830414981E-1,-6.168995857E0,-1.657496214E0
2.152001406E1,-2.604508400E-1,-6.869721413E0,-1.972333789E0
2.154199688E1,-4.094946980E-1,-7.226984024E0,-2.200070381E0
2.156399688E1,-4.178743958E-1,-7.655948162E0,-2.681333542E0
2.158599688E1,-2.771911025E-1,-8.567574501E0,-2.894340754E0
2.160599688E1,-5.000529885E-1,-1.020401096E1,-3.111370325E0
2.162599688E1,-8.286619186E-1,-1.174048519E1,-2.998277903E0
2.164799531E1,-7.237192988E-1,-1.288284492E1,-3.070659399E0
2.166799531E1,-7.423940301E-1,-1.311394310E1,-3.502611876E0
2.168799688E1,-9.683300853E-1,-1.284551430E1,-4.097925186E0
2.170799688E1,-1.386415124E0,-1.346817970E1,-4.207072258E0
2.172999531E1,-1.379127145E0,-1.307273483E1,-3.008410215E0
2.174999531E1,-3.866444230E-1,-1.171223354E1,-2.534961700E0
2.176999531E1,1.335964501E-1,-1.145746231E1,-2.095951080E0
2.178999688E1,-8.948951364E-1,-1.142351151E1,-2.406402588E0
2.181199688E1,-3.061283588E0,-1.060081673E1,-4.171216488E0
2.183399688E1,-4.482548714E0,-9.023277283E0,-5.278448582E0
2.185599531E1,-2.745747089E0,-8.847024918E0,-5.291444302E0
2.187599531E1,-2.107663602E-1,-9.587216377E0,-4.252944946E0
2.189599531E1,4.895567894E-1,-9.811370850E0,-3.425949574E0
2.191599531E1,-3.392105177E-2,-8.378931046E0,-2.320785999E0
2.193599531E1,-3.827371001E-1,-6.950137615E0,-1.973866105E0
2.195599531E1,-1.008533537E-1,-6.025554657E0,-2.102281570E0
2.197600313E1,1.345158219E-1,-5.904331207E0,-2.002979517E0
2.199799531E1,2.755247243E-2,-6.247985363E0,-1.808733106E0
2.201799531E1,-2.908763289E-1,-6.320347786E0,-1.692700505E0
2.203801562E1,-6.755096316E-1,-6.475291252E0,-1.904922605E0
2.205999531E1,-6.979289651E-1,-6.707451820E0,-1.873156428E0
2.208000000E1,-4.856781960E-1,-7.139930725E0,-1.591310859E0
2.210199688E1,4.166868702E-2,-7.846268177E0,-1.130273938E0
2.212401094E1,5.410320759E-1,-8.645174980E0,-9.662136436E-1
2.214599531E1,8.614146113E-1,-9.500575066E0,-1.219539285E0
2.216599688E1,1.228522301E0,-1.045030785E1,-1.770502567E0
2.218799688E1,1.318592191E0,-1.166560459E1,-2.946668386E0
2.220999688E1,1.263774514E0,-1.236319828E1,-4.233532906E0
2.223199531E1,2.706731319E0,-1.279706573E1,-5.448350430E0
2.225199688E1,3.382068396E0,-1.343104935E1,-7.461912632E0
2.227400469E1,-3.731124103E-2,-1.319357395E1,-9.023937225E0
2.229599688E1,-1.987896085E0,-1.023437881E1,-7.307352543E0
2.231599688E1,-1.982695937E0,-1.081888008E1,-4.161429405E0
2.233801562E1,-3.465348482E0,-1.264431572E1,-1.365748405E0
2.235999688E1,-4.851648331E0,-1.308442688E1,-1.047999501E0
2.238199531E1,-4.690854073E0,-1.326308346E1,-1.160948396E0
2.240199531E1,-2.894340754E0,-1.270739746E1,-6.637014151E-1
2.242199531E1,-1.463259578E0,-1.099318790E1,-1.807909608E-1
2.244199531E1,-9.795253873E-1,-9.199787140E0,-3.509899601E-2
2.246199688E1,-6.603591442E-1,-7.367993355E0,-2.379262000E-1
2.248400781E1,-2.710427940E-1,-5.997522831E0,-6.398168802E-1
2.250599688E1,2.650859952E-1,-5.330440998E0,-6.724737883E-1
2.252599688E1,3.650966287E-1,-4.802404881E0,-9.163663387E-1
2.254599688E1,2.479914129E-1,-4.570961952E0,-1.205193281E0
2.256799531E1,5.975927226E-3,-4.616222382E0,-1.626620650E0
2.258799531E1,-2.525882721E-1,-5.225957870E0,-2.050815582E0
2.260799688E1,-2.316246480E-1,-5.927593231E0,-2.072114468E0
2.262799688E1,-4.930810630E-1,-6.710832596E0,-2.187783241E0
2.264999531E1,-3.546483219E-1,-7.908957958E0,-2.248327971E0
2.266999531E1,-2.681410313E-1,-9.143896103E0,-2.562906742E0
2.268999531E1,-3.991325796E-1,-1.083489227E1,-3.054369450E0
2.270999531E1,-3.139756024E-1,-1.264532089E1,-3.484157324E0
2.272999531E1,2.958754599E-1,-1.367625523E1,-3.602315903E0
2.274999531E1,5.923734307E-1,-1.361256981E1,-3.524628878E0
2.276999531E1,3.527808189E-1,-1.324169731E1,-3.228638411E0
2.278999688E1,-1.621927917E-1,-1.336771870E1,-3.463308573E0
2.281199531E1,-4.382442534E-1,-1.356760502E1,-2.890960217E0
2.283199531E1,1.431349516E-1,-1.321265125E1,-2.451921225E0
2.285199531E1,7.975468636E-1,-1.203816128E1,-2.698198318E0
2.287199531E1,7.066055536E-1,-1.089661503E1,-2.662610769E0
2.289199688E1,-6.013468504E-1,-9.845771790E0,-3.439835787E0
2.291399688E1,-3.156065464E0,-9.726214409E0,-5.141864300E0
2.293399688E1,-4.979978085E0,-9.079397202E0,-5.666289806E0
2.295399688E1,-4.392335415E0,-8.330413818E0,-5.304334641E0
2.297399688E1,-2.505704403E0,-8.644112587E0,-4.377194405E0
2.299400469E1,-1.419225335E0,-8.384360313E0,-3.122115612E0
2.301599688E1,-8.848873973E-1,-7.705891609E0,-2.364877462E0
2.303801562E1,-5.265424252E-1,-6.918371677E0,-1.677617192E0
2.305999531E1,-1.558529437E-1,-6.482138157E0,-1.355625749E0
2.307999531E1,1.566382498E-1,-6.592577934E0,-1.164788723E0
2.309999531E1,1.055172607E-1,-6.904944897E0,-1.135138869E0
2.311999688E1,-1.986900121E-1,-7.137603283E0,-1.233875751E0
2.313999688E1,-3.792702854E-1,-7.309469223E0,-1.408815265E0
2.316199531E1,-2.273533940E-1,-7.662747860E0,-1.388656139E0
2.318199531E1,-2.572904825E-1,-7.984816074E0,-1.202914000E0
2.320199531E1,-2.521285713E-1,-8.213098526E0,-8.382578492E-1
2.322199531E1,-1.760217100E-1,-8.476728439E0,-6.632705331E-1
2.324199688E1,-4.231033474E-2,-8.865355492E0,-9.235585332E-1
2.326399688E1,1.084477603E-1,-9.517813683E0,-1.638850212E0
2.328399688E1,4.366353452E-1,-1.037257195E1,-2.283656836E0
2.330399688E1,6.980438828E-1,-1.142485237E1,-3.083693504E0
2.332599531E1,9.754743576E-1,-1.247246933E1,-4.102110386E0
2.334599688E1,3.034526110E0,-1.344924641E1,-5.037936687E0
2.336599688E1,3.164215326E0,-1.411742020E1,-8.142871857E0
2.338599688E1,3.197887242E-1,-1.381164169E1,-1.016226578E1
2.340599688E1,-1.939906716E0,-1.049599838E1,-9.218710899E0
2.342799531E1,-4.309658706E-1,-1.003923225E1,-5.283275604E0
2.344799531E1,-1.657256842E0,-1.190169144E1,-2.428735495E0
2.346799688E1,-3.205663681E0,-1.202235985E1,4.319714308E-1
2.348999688E1,-4.452841759E0,-1.278713512E1,-2.727953494E-1
2.350999688E1,-4.051678658E0,-1.228029060E1,4.470453411E-2
2.353199688E1,-1.941831708E0,-1.103301716E1,-1.916989386E-1
2.355399688E1,-8.843318820E-1,-9.127452850E0,-4.252868295E-1
2.357399688E1,-4.729889333E-1,-7.546006680E0,-6.172538996E-1
2.359399688E1,-1.653052717E-1,-6.482435226E0,-7.089901567E-1
2.361399688E1,4.843948781E-2,-5.842895985E0,-7.674661279E-1
2.363399688E1,1.884524077E-1,-5.441340446E0,-8.607825041E-1
2.365399688E1,9.635225683E-2,-5.102494240E0,-1.142139554E0
2.367399844E1,-1.831468493E-1,-5.087017536E0,-1.618442059E0
2.369599688E1,-2.760322988E-1,-5.601014614E0,-1.908274531E0
2.371799688E1,-4.055969119E-1,-6.188609600E0,-1.886477709E0
2.373801406E1,-4.403224289E-1,-6.920564651E0,-2.067393064E0
2.375999531E1,-4.385890067E-1,-7.767978191E0,-2.249687672E0
2.377999531E1,-7.149852514E-1,-8.485022545E0,-2.507121801E0
2.379999531E1,-7.223881483E-1,-9.319295883E0,-2.776795149E0
2.381999531E1,-7.150809765E-1,-1.071906185E1,-2.978061199E0
2.383999531E1,-6.810258627E-1,-1.228153610E1,-3.128225565E0
2.385999531E1,-6.335344911E-1,-1.348986149E1,-3.330928326E0
2.387999531E1,-5.945760608E-1,-1.372039413E1,-3.369628191E0
2.389999531E1,-5.851141214E-1,-1.356864071E1,-3.840931654E0
2.391999531E1,-8.623627424E-1,-1.370111656E1,-4.150262833E0
2.393999531E1,-4.794723988E-1,-1.303745270E1,-3.281109810E0
2.395999531E1,1.449353993E-1,-1.164758110E1,-2.746484518E0
2.397999531E1,3.344508410E-1,-1.101972580E1,-2.358853817E0
2.399999531E1,-6.596408486E-1,-1.096480179E1,-2.782953024E0
2.401999531E1,-2.481580496E0,-1.092568111E1,-4.190743446E0
2.403999531E1,-4.106946945E0,-1.004697037E1,-5.377281189E0
2.405999531E1,-4.305416584E0,-8.954141617E0,-5.630137920E0
2.407999531E1,-2.864595175E0,-8.803814888E0,-4.933376789E0
2.409999531E1,-1.872974396E0,-8.550001144E0,-3.582041740E0
2.411999688E1,-1.771498561E0,-7.484121323E0,-2.292486429E0
2.413999688E1,-1.437574506E0,-6.715534687E0,-1.508749247E0
2.416199531E1,-5.150694251E-1,-6.360321522E0,-1.213898540E0
2.418200000E1,5.264370441E-1,-6.283639431E0,-1.722551465E0
2.420400312E1,9.230126143E-1,-6.142497063E0,-2.347773552E0
2.422599688E1,5.724057555E-1,-5.827650070E0,-2.363670826E0
2.424599688E1,1.001638249E-1,-6.032344341E0,-1.900881171E0
2.426599688E1,-7.226658612E-2,-6.699215889E0,-1.522434592E0
2.428799531E1,1.136767026E-2,-7.614576817E0,-1.344152689E0
2.430799531E1,2.674036026E-1,-8.590385437E0,-1.301258206E0
2.432799531E1,5.020832419E-1,-9.366653442E0,-1.346451163E0
2.434799531E1,4.370663166E-1,-9.150437355E0,-1.626888752E0
2.436799688E1,-6.093722209E-2,-9.437789917E0,-2.414092779E0
2.438999531E1,-1.405683756E-1,-9.894077301E0,-3.116991997E0
2.440999531E1,1.262031645E-1,-1.072679043E1,-3.464093685E0
2.442999688E1,1.172430992E0,-1.236602306E1,-3.005192280E0
2.445199688E1,2.928884506E0,-1.391241932E1,-5.623299599E0
2.447399531E1,3.778126955E0,-1.518971539E1,-8.643566132E0
2.449399688E1,4.379377961E-1,-1.396189213E1,-9.523760796E0
2.451599688E1,-5.967308283E-1,-9.467056274E0,-6.761407852E0
2.453599688E1,-7.543842196E-1,-1.066576672E1,-3.682167292E0
2.455599688E1,-3.166542530E0,-1.264523411E1,-3.775177300E-1
2.457601875E1,-4.426237106E0,-1.236772728E1,1.998392344E0
2.459799531E1,-4.509469032E0,-1.270809650E1,-3.026462495E-1
2.461799688E1,-3.769775867E0,-1.265009975E1,3.335601687E-1
2.463801562E1,-1.746158361E0,-1.204552555E1,3.145118952E-1
2.465999531E1,-1.055785537E0,-1.007061481E1,-5.696763396E-1
2.467999531E1,-1.006570220E0,-8.080152512E0,-5.351902246E-1
2.469999531E1,-5.972000957E-1,-6.560935974E0,-5.348742008E-1
2.471999688E1,-2.415462136E-1,-5.529734612E0,-7.747924328E-1
2.473999688E1,-2.084008902E-1,-4.912604809E0,-1.177516222E0
2.476199531E1,-2.892578840E-1,-4.398924351E0,-1.440256000E0
2.478199531E1,-6.111534834E-1,-4.332968712E0,-1.720798969E0
2.480199531E1,-6.887352467E-1,-4.703083515E0,-1.736725211E0
2.482199688E1,-7.383526564E-1,-5.490843296E0,-1.772034883E0
2.484399688E1,-8.031302094E-1,-6.666510582E0,-2.108247757E0
2.486399688E1,-6.546226144E-1,-7.686374187E0,-2.430315971E0
2.488399688E1,-5.809099674E-1,-8.835322380E0,-2.912699699E0
2.490599531E1,-7.643632889E-1,-1.081379509E1,-3.371792555E0
2.492599531E1,-9.768726230E-1,-1.257056427E1,-3.268698215E0
2.494599688E1,-8.129464388E-1,-1.366471481E1,-3.126415491E0
2.496599688E1,-5.421239138E-1,-1.363931751E1,-2.848764896E0
2.498599688E1,-7.443476915E-1,-1.324876595E1,-2.902778149E0
2.500799688E1,-1.071098804E0,-1.350980949E1,-3.348645449E0
2.502999531E1,-1.057289004E0,-1.284725761E1,-2.717275381E0
2.504999531E1,-5.914157033E-1,-1.191280079E1,-3.064022779E0
2.506999531E1,-3.537480831E-1,-1.155868816E1,-3.074719906E0
2.508999531E1,-1.306736112E0,-1.165347099E1,-3.663703203E0
2.510999531E1,-3.012518644E0,-1.154064560E1,-4.550142288E0
2.512999531E1,-4.136558056E0,-1.034173489E1,-5.082459450E0
2.514999531E1,-3.721786737E0,-9.146512032E0,-5.232901573E0
2.516999531E1,-2.162088633E0,-8.818619728E0,-4.134833813E0
2.518999531E1,-1.003620625E0,-8.466750145E0,-2.612619877E0
2.520999531E1,-6.593631506E-1,-7.543229580E0,-1.457934856E0
2.522999531E1,-5.673683286E-1,-6.568204880E0,-7.900577784E-1
2.524999531E1,-4.366066158E-1,-5.853238583E0,-8.291120529E-1
2.526999531E1,1.267011557E-2,-5.739974022E0,-1.559113741E0
2.528999531E1,3.114281893E-1,-5.853784561E0,-2.257827997E0
2.530999531E1,1.985176206E-1,-5.837388992E0,-2.450283527E0
2.532999531E1,6.730580330E-2,-5.969147205E0,-2.255270958E0
2.534999531E1,-2.817879617E-1,-6.637752056E0,-2.053190708E0
2.536999531E1,-3.376877606E-1,-7.305006504E0,-1.785720110E0
2.538999531E1,-3.420069218E-1,-8.091195107E0,-1.647756577E0
2.540999531E1,-1.460463107E-1,-8.802847862E0,-1.735020518E0
2.542999531E1,4.417876899E-1,-9.478510857E0,-2.021204233E0
2.544999531E1,9.401360154E-1,-1.016353893E1,-2.417684078E0
2.546999531E1,1.079440236E0,-1.097423553E1,-3.084105253E0
2.548999531E1,7.919348478E-1,-1.169864464E1,-3.725186348E0
2.550999531E1,5.854110718E-1,-1.180632591E1,-4.413615227E0
2.552999531E1,9.638769031E-1,-1.250890923E1,-5.388419151E0
2.554999531E1,4.140053689E-2,-1.314125633E1,-5.747673988E0
2.557000156E1,-1.115669370E0,-1.267740345E1,-5.536495686E0
2.559199531E1,-1.179163456E0,-1.198765373E1,-6.132096291E0
2.561199688E1,-1.739550352E0,-1.191273308E1,-3.797922134E0
2.563400313E1,-3.382987738E0,-1.273134995E1,-2.412665844E0
2.565599688E1,-4.642529488E0,-1.282590103E1,-1.506853104E0
2.567799531E1,-3.725330114E0,-1.246624374E1,-2.267711163E0
2.569799688E1,-1.690574527E0,-1.144448566E1,-1.419254065E0
2.571799688E1,-9.495882392E-1,-9.727852821E0,-4.832552373E-1
2.573801563E1,-1.094236374E0,-7.625005722E0,-5.852386355E-2
2.575999531E1,-9.037249684E-1,-6.066409111E0,1.939590573E-1
2.577999688E1,-7.079271078E-1,-5.373230457E0,-1.728613675E-2
2.580199531E1,-5.088827610E-1,-4.822094917E0,-6.423834562E-1
2.582199688E1,-5.655200481E-1,-4.633805275E0,-1.211552262E0
2.584401094E1,-5.812451243E-1,-5.065853119E0,-1.729925632E0
2.586599688E1,-4.899111390E-1,-5.633020401E0,-2.060210466E0
2.588599688E1,-7.797819376E-1,-6.240755081E0,-2.481791258E0
2.590799688E1,-1.237160683E0,-7.149632454E0,-2.838575125E0
2.592999688E1,-1.313621879E0,-8.240803719E0,-3.099753857E0
2.595199688E1,-1.282372713E0,-9.339895248E0,-3.524964094E0
2.597199688E1,-1.643887520E0,-1.048527241E1,-3.652986765E0
2.599399688E1,-1.965495944E0,-1.209763241E1,-3.375987291E0
2.601599688E1,-1.887943029E0,-1.268367577E1,-3.183828592E0
2.603801562E1,-1.732252836E0,-1.176516533E1,-3.459496975E0
2.605999531E1,-1.475077271E0,-1.143165207E1,-3.292285919E0
2.607999688E1,-1.633487225E0,-1.212480259E1,-3.183761358E0
2.609999688E1,-1.495638728E0,-1.269349194E1,-2.952548504E0
2.611999688E1,-9.645376801E-1,-1.236653042E1,-3.373506784E0
2.613999688E1,-1.156188726E0,-1.238488960E1,-4.082085133E0
2.615999688E1,-2.325267792E0,-1.201524448E1,-4.361201286E0
2.618199688E1,-3.823884726E0,-1.122065639E1,-4.471612453E0
2.620399688E1,-3.867890358E0,-1.003042221E1,-4.127833366E0
2.622400469E1,-2.736400127E0,-9.466797829E0,-3.705448389E0
2.624599688E1,-1.594404340E0,-8.624632835E0,-3.107060909E0
2.626799688E1,-8.006210327E-1,-7.497490883E0,-2.564649582E0
2.628999688E1,-5.397488549E-2,-6.574449062E0,-2.155921221E0
2.631199688E1,5.947197080E-1,-5.913218975E0,-1.867601752E0
2.633400156E1,9.622200727E-1,-5.557344437E0,-2.027534485E0
2.635599531E1,4.849216044E-1,-5.299048424E0,-2.021472454E0
2.637599688E1,-3.469676897E-2,-5.328688622E0,-1.615061402E0
2.639599688E1,-3.991517425E-1,-5.792464256E0,-1.399276853E0
2.641599688E1,-5.555888414E-1,-6.568674088E0,-1.477509737E0
2.643599688E1,-7.839478254E-1,-7.477072716E0,-1.631332397E0
2.645599688E1,-6.202993989E-1,-8.363512039E0,-1.632376313E0
2.647599688E1,-1.533725560E-1,-9.146195412E0,-1.708406568E0
2.649799531E1,2.734082639E-1,-9.866725922E0,-2.095759869E0
2.651799688E1,5.478603840E-1,-1.061393642E1,-2.503635883E0
2.653801719E1,6.146203279E-1,-1.147243977E1,-3.091096401E0
2.655999688E1,4.357830286E-1,-1.237087917E1,-4.476592064E0
2.657999688E1,2.362789869E0,-1.319078732E1,-7.400237560E0
2.660199688E1,1.156724930E0,-1.445692730E1,-9.880123138E0
2.662399531E1,-2.264225245E0,-1.316524601E1,-9.313627243E0
2.664400000E1,-2.069796801E0,-1.081713772E1,-6.619124889E0
2.666599531E1,-1.126500607E0,-1.119450188E1,-4.326217175E0
2.668599531E1,-2.475930214E0,-1.214080524E1,-1.446040392E0
2.670599844E1,-4.183915615E0,-1.198520088E1,3.704212904E-1
2.672799531E1,-5.436332226E0,-1.174334908E1,-7.347230315E-1
2.674799531E1,-4.144401550E0,-1.143631649E1,-6.361585855E-1
2.676799531E1,-1.513384581E0,-1.101078033E1,-4.354095161E-1
2.678799531E1,-4.662755728E-1,-9.283613205E0,-4.205367565E-1
2.680799531E1,-2.966415882E-1,-7.621452808E0,-6.603016853E-1
2.682799688E1,-1.870254725E-1,-6.364535332E0,-6.264668107E-1
2.684799688E1,-1.167508513E-1,-5.621690750E0,-4.549653530E-1
2.686999688E1,-2.308010496E-2,-5.326715946E0,-5.426697135E-1
2.689199531E1,6.033388199E-4,-5.356011391E0,-8.792753816E-1
2.691199531E1,-1.826392859E-1,-5.690806866E0,-1.221732378E0
2.693199531E1,-3.430603743E-1,-6.125201225E0,-1.582940817E0
2.695199688E1,-3.423995674E-1,-6.549098969E0,-2.124327421E0
2.697199688E1,-5.861005783E-1,-7.006219387E0,-2.686064482E0
2.699399844E1,-7.402296662E-1,-7.699187279E0,-3.256152630E0
2.701599688E1,-7.855376005E-1,-8.836816788E0,-3.585824728E0
2.703599688E1,-1.282056808E0,-1.057007504E1,-3.843344927E0
2.705799531E1,-1.615482807E0,-1.260014725E1,-3.856398106E0
2.707799531E1,-1.535200477E0,-1.334743500E1,-3.689120054E0
2.709799531E1,-1.477327704E0,-1.242569637E1,-3.718204737E0
2.711799688E1,-1.356928229E0,-1.244733047E1,-3.853688002E0
2.713802500E1,-1.915744424E0,-1.307607651E1,-3.399632215E0
2.715999688E1,-1.736188889E0,-1.207705307E1,-2.154541969E0
2.718199688E1,-1.983548254E-1,-1.188827419E1,-1.862344146E0
2.720400000E1,4.248175621E-1,-1.273586082E1,-1.872802019E0
2.722599688E1,-1.413268566E0,-1.219138050E1,-3.131386042E0
2.724799531E1,-3.188061476E0,-1.014060211E1,-4.777313709E0
2.726799531E1,-3.349737167E0,-8.782171249E0,-5.686056614E0
2.728799531E1,-1.805908084E0,-8.387912750E0,-5.286991119E0
2.730799531E1,-5.000817180E-1,-8.022510529E0,-3.690652370E0
2.732799688E1,-1.846791357E-1,-7.467955589E0,-2.332871914E0
2.734999531E1,-2.630365789E-1,-6.674009800E0,-1.728852987E0
2.736999688E1,-4.812345654E-2,-6.028178692E0,-1.643590689E0
2.739199688E1,3.254294693E-1,-5.656665325E0,-2.178235054E0
2.741399688E1,2.647316456E-1,-5.338782787E0,-2.387833118E0
2.743599531E1,-3.014395833E-1,-5.600296497E0,-2.296365023E0
2.745599688E1,-9.012157917E-1,-6.211565018E0,-2.111609459E0
2.747799688E1,-1.195932508E0,-7.302774906E0,-1.968014598E0
2.749999688E1,-9.685503244E-1,-8.468511581E0,-1.876297593E0
2.752199531E1,-6.515101790E-1,-8.916735649E0,-1.876584888E0
2.754199688E1,-1.752364039E-1,-9.052974701E0,-1.937761426E0
2.756399688E1,2.972640693E-1,-9.506934166E0,-1.897117496E0
2.758599688E1,5.602336526E-1,-1.014871502E1,-2.241671801E0
2.760800469E1,7.806438804E-1,-1.112513638E1,-3.112385511E0
2.762999531E1,1.112154484E0,-1.222671890E1,-4.488955498E0
2.764999688E1,2.921759367E0,-1.311929607E1,-5.768647194E0
2.767199688E1,2.630997896E0,-1.340069103E1,-8.556714058E0
2.769399688E1,4.935407341E-1,-1.318462849E1,-8.990447044E0
2.771399688E1,-9.275712371E-1,-1.138732147E1,-6.803028107E0
2.773399688E1,-1.478898406E0,-1.105500603E1,-3.630107641E0
2.775599688E1,-2.934094191E0,-1.162748814E1,-3.962595165E-1
2.777599688E1,-4.105893135E0,-1.221664333E1,8.361989260E-1
2.779600469E1,-4.813159466E0,-1.248456478E1,-3.784849942E-1
2.781799531E1,-3.708312035E0,-1.205328274E1,-8.723130226E-1
2.783801562E1,-1.502744675E0,-1.061875343E1,-1.794368029E0
2.785999688E1,-7.369353175E-1,-8.522917747E0,-1.905305624E0
2.788199688E1,-6.618914008E-1,-6.793681622E0,-1.342840672E0
2.790199688E1,-5.928235054E-1,-5.864051342E0,-8.975191712E-1
2.792199688E1,-4.387230873E-1,-5.256604195E0,-5.678567290E-1
2.794399688E1,-1.143279225E-1,-5.238982201E0,-4.399393499E-1
2.796400312E1,-5.623500794E-2,-5.685865402E0,-8.579095006E-1
2.798599688E1,-1.448587775E-1,-6.223603249E0,-1.267930865E0
2.800799688E1,4.165910650E-3,-6.760746479E0,-1.580651999E0
2.802999531E1,4.827668518E-2,-7.187814713E0,-2.031259775E0
2.804999531E1,-3.675099611E-1,-7.860116005E0,-2.487824440E0
2.806999688E1,-7.592971325E-1,-8.377655983E0,-2.627837420E0
2.809199531E1,-8.216612935E-1,-8.917568207E0,-3.022219896E0
2.811199688E1,-7.569891214E-1,-9.880228043E0,-3.288704157E0
2.813399688E1,-5.898067951E-1,-1.132676792E1,-3.265978575E0
2.815400938E1,-3.663511574E-1,-1.254960060E1,-3.572340488E0
2.817599531E1,-4.818091393E-1,-1.259861565E1,-4.506050110E0
2.819599531E1,-7.962061167E-1,-1.309717369E1,-5.372023582E0
2.821599531E1,-1.012804866E0,-1.418438053E1,-5.049036026E0
2.823599688E1,-1.184363738E-1,-1.339646912E1,-3.531782627E0
2.825799531E1,1.044906259E0,-1.205019951E1,-2.908504963E0
2.827799531E1,8.036760092E-1,-1.194022846E1,-1.810361147E0
2.829799531E1,-1.694749951E0,-1.223007965E1,-2.313670397E0
2.831799531E1,-4.252504349E0,-1.052258396E1,-3.420356512E0
2.833801562E1,-4.918743610E0,-9.162457466E0,-3.301355124E0
2.835999531E1,-3.170976639E0,-9.179465294E0,-2.764029264E0
2.837999531E1,-8.110597730E-1,-9.653038025E0,-2.004224539E0
2.839999531E1,1.153430641E-1,-9.032710075E0,-1.927887797E0
2.841999531E1,-1.284058243E-1,-8.234798431E0,-2.370585203E0
2.843999688E1,-2.988059521E-1,-6.964914322E0,-2.650476933E0
2.845999688E1,-3.953306079E-1,-5.879201889E0,-2.754011869E0
2.848199531E1,-4.993251264E-1,-5.096661568E0,-3.035483837E0
2.850199688E1,-6.391273737E-1,-4.746438026E0,-3.175851107E0
2.852400938E1,-8.395699263E-1,-4.857643604E0,-2.818080902E0
2.854599531E1,-9.324649572E-1,-5.608877182E0,-2.446663380E0
2.856599688E1,-1.014068961E0,-6.548036098E0,-2.144390583E0
2.858599688E1,-5.962328315E-1,-7.418491364E0,-1.973032832E0
2.860599688E1,-2.497439682E-1,-8.332866669E0,-1.825770378E0
2.862599688E1,3.012480438E-1,-9.073123932E0,-1.522511125E0
2.864799531E1,9.362669587E-1,-9.882508278E0,-1.482623816E0
2.866799531E1,1.393157244E0,-1.071135139E1,-1.823194265E0
2.868799688E1,1.655810833E0,-1.167435741E1,-2.490506172E0
2.870799688E1,1.677052140E0,-1.260529995E1,-3.475653172E0
2.872799688E1,2.006494284E0,-1.302584553E1,-4.342325211E0
2.874999531E1,2.089228153E0,-1.399046040E1,-5.573012352E0
2.876999531E1,1.063964128E0,-1.394627285E1,-7.369793415E0
2.878999688E1,-3.789350986E-1,-1.287105560E1,-7.644455910E0
2.881199688E1,-5.399690866E-1,-1.119366932E1,-4.791094303E0
2.883399531E1,-8.133677840E-1,-1.146903038E1,-2.999704838E0
2.885399688E1,-2.378811836E0,-1.164261055E1,-1.769056559E0
2.887399688E1,-4.095722675E0,-1.163286972E1,-1.674399257E0
2.889399688E1,-4.306355000E0,-1.123121929E1,-1.557160020E0
2.891399688E1,-2.559114218E0,-1.065815258E1,-1.309398413E0
2.893399688E1,-9.490519762E-1,-9.903519630E0,-8.404414058E-1
2.895599688E1,-4.797596931E-1,-8.495202065E0,-3.476955593E-1
2.897799688E1,-4.389529526E-1,-7.071925640E0,-4.158920050E-1
2.899799688E1,-3.027707636E-1,-6.154640198E0,-4.842033386E-1
2.901999531E1,-1.405492127E-1,-5.606779575E0,-5.783624649E-1
2.903999531E1,9.983821213E-2,-5.306594849E0,-6.901429892E-1
2.905999531E1,2.098469883E-1,-5.369141102E0,-7.759703398E-1
2.907999688E1,3.117250651E-2,-5.614269257E0,-9.336620569E-1
2.910199688E1,-4.040837884E-1,-6.266545296E0,-1.255864143E0
2.912400781E1,-6.458790302E-1,-6.907913685E0,-1.699710846E0
2.914599531E1,-5.569966435E-1,-7.340066910E0,-2.359811306E0
2.916599688E1,-2.460377514E-1,-8.036080360E0,-2.928817272E0
2.918799688E1,-8.159439079E-3,-9.396762848E0,-3.043154716E0
2.920999688E1,-2.048574686E-1,-1.127931404E1,-2.950489759E0
2.922999688E1,-4.530020952E-1,-1.272591972E1,-2.965218782E0
2.925199688E1,-4.370758832E-1,-1.357747936E1,-3.256037712E0
2.927400312E1,-2.652009130E-1,-1.313376617E1,-3.755573511E0
2.929599688E1,-5.786880851E-1,-1.366189957E1,-3.952970743E0
2.931599688E1,-1.114634991E0,-1.399758530E1,-3.365213394E0
2.933801562E1,-1.756003201E-1,-1.261637974E1,-2.665943623E0
2.935999688E1,7.471441627E-1,-1.164020634E1,-2.417367935E0
2.938199688E1,1.596357822E-1,-1.128775120E1,-2.587078571E0
2.940399688E1,-2.447353125E0,-1.078600311E1,-4.166351795E0
2.942399688E1,-4.615436554E0,-9.413034439E0,-5.541082859E0
2.944399844E1,-4.760649681E0,-8.512372971E0,-6.061601639E0
2.946599531E1,-2.631486416E0,-8.842064857E0,-5.307839870E0
2.948599688E1,-1.348893166E0,-8.921389580E0,-3.827466488E0
2.950599688E1,-1.537058353E0,-8.229982376E0,-2.594376326E0
2.952599688E1,-1.756960988E0,-7.084797382E0,-1.732214451E0
2.954799688E1,-1.452839851E0,-6.018486977E0,-1.305318713E0
2.956999688E1,-9.005550742E-1,-5.601043224E0,-1.360117316E0
2.959199531E1,-4.421132803E-1,-5.743306637E0,-1.627051592E0
2.961199688E1,-3.421314061E-1,-5.944764614E0,-1.561708927E0
2.963399688E1,-2.843258083E-1,-6.722794056E0,-1.433408618E0
2.965399688E1,-5.151364580E-2,-7.509145737E0,-1.212050319E0
2.967399688E1,8.322244883E-2,-8.197957039E0,-9.878667593E-1
2.969599531E1,4.986355901E-1,-8.646430016E0,-8.339579105E-1
2.971599531E1,8.136263490E-1,-8.806429863E0,-8.139902949E-1
2.973599688E1,1.060449362E0,-8.913095474E0,-1.165842175E0
2.975599688E1,1.345100880E0,-9.285078049E0,-1.642364860E0
2.977599688E1,1.413258910E0,-9.979406357E0,-2.190790176E0
2.979599688E1,9.480368495E-1,-1.111732197E1,-2.984046936E0
2.981599688E1,2.919872701E-1,-1.211302376E1,-4.103594780E0
2.983801562E1,1.353183627E0,-1.252266121E1,-6.067376614E0
2.985999688E1,2.967708826E0,-1.344660282E1,-8.051805496E0
2.988199688E1,-6.297420859E-1,-1.325141811E1,-9.990381241E0
2.990199688E1,-8.116918206E-1,-1.062670231E1,-7.986137867E0
2.992399688E1,-2.912785709E-1,-1.045438671E1,-4.036518574E0
2.994599688E1,-2.885693073E0,-1.251390839E1,-2.835433722E0
2.996799688E1,-4.286042690E0,-1.267317963E1,-9.255313277E-1
2.998799688E1,-4.344346046E0,-1.345537472E1,-1.655025363E0
3.000799688E1,-3.693477631E0,-1.312977314E1,-1.970849395E0
3.002999531E1,-2.057624817E0,-1.133365345E1,-1.342572451E0
3.004999531E1,-1.308862209E0,-9.456789970E0,-6.601197124E-1
3.006999688E1,-1.094111800E0,-7.803258896E0,-4.871147275E-1
3.009199531E1,-1.087733746E0,-6.634246349E0,-4.619947374E-1
3.011199688E1,-1.064385533E0,-5.817536831E0,-6.764002442E-1
3.013399688E1,-9.307315946E-1,-5.334195137E0,-1.207022429E0
3.015599688E1,-7.514632940E-1,-5.148893356E0,-1.331549644E0
3.017799531E1,-7.688260674E-1,-5.038894653E0,-1.464849234E0
3.019799531E1,-8.160301447E-1,-5.526478291E0,-1.651778936E0
3.021799688E1,-7.867251039E-1,-5.880102158E0,-1.648934603E0
3.023801563E1,-1.000824213E0,-6.160587311E0,-1.918713212E0
3.025999531E1,-1.056216478E0,-6.941709995E0,-2.454066515E0
3.027999531E1,-8.684535623E-1,-7.939776421E0,-2.751828432E0
3.029999688E1,-7.583490014E-1,-9.312649727E0,-2.914318085E0
3.032199688E1,-6.315999627E-1,-1.140757656E1,-3.050768375E0
3.034399688E1,-4.394796789E-1,-1.311927700E1,-3.109627485E0
3.036400625E1,-3.585556522E-2,-1.386686230E1,-3.768531084E0
3.038599688E1,4.669076502E-1,-1.260790443E1,-4.180687904E0
3.040799688E1,7.482358813E-1,-1.295967960E1,-4.513261795E0
3.042999688E1,6.041049585E-2,-1.321349430E1,-3.803936243E0
3.045199531E1,-4.865017533E-2,-1.146807289E1,-3.402831078E0
3.047199688E1,4.460493326E-1,-1.124330521E1,-3.480316877E0
3.049399688E1,-3.837618232E-1,-1.207580757E1,-3.702747822E0
3.051400156E1,-2.433667660E0,-1.273310280E1,-4.354487896E0
3.053599688E1,-4.208432198E0,-1.170479202E1,-4.767276764E0
3.055599688E1,-3.980197430E0,-1.012672615E1,-4.868695259E0
3.057600938E1,-2.561633110E0,-9.146539688E0,-4.124682426E0
3.059799531E1,-1.751846910E0,-8.226266861E0,-2.536292791E0
3.061799688E1,-1.480631828E0,-7.146548271E0,-1.278101444E0
3.063801562E1,-1.416926861E0,-6.017241478E0,-6.111439466E-1
3.065999688E1,-1.036957502E0,-5.280977249E0,-5.018725395E-1
3.068199688E1,-4.969596565E-1,-4.982592106E0,-1.312194943E0
3.070399688E1,-2.718951106E-1,-5.138885975E0,-2.435238361E0
3.072399688E1,-1.483447403E-1,-5.553264618E0,-2.739033699E0
3.074399844E1,2.839714587E-1,-6.027421951E0,-2.998967648E0
3.076400000E1,5.413672924E-1,-6.432846546E0,-3.405531645E0
3.078599531E1,1.020945072E0,-7.166132927E0,-3.125773907E0
3.080599688E1,1.264119387E0,-8.198052406E0,-2.381196260E0
3.082799688E1,1.694682956E0,-9.088035583E0,-1.507303238E0
3.084799688E1,1.916749954E0,-9.864829063E0,-1.502466917E0
3.086799688E1,1.825138330E0,-1.094588757E1,-1.847864032E0
3.088799688E1,1.396097302E0,-1.165811539E1,-2.625548601E0
3.090799688E1,9.689717293E-1,-1.214788246E1,-3.489223480E0
3.092999688E1,8.702731729E-1,-1.321634769E1,-3.900384426E0
3.095199531E1,1.599326730E-3,-1.424277020E1,-4.715332508E0
3.097199531E1,-9.658592343E-1,-1.382207108E1,-5.215356350E0
3.099199531E1,-1.736945510E-1,-1.286607647E1,-4.669966698E0
3.101199688E1,-4.559517652E-2,-1.205904770E1,-3.651243925E0
3.103199688E1,-8.430750370E-1,-1.152170277E1,-3.045884371E0
3.105399844E1,-2.825962305E0,-1.128594112E1,-2.684120417E0
3.107599531E1,-3.935454607E0,-1.158985138E1,-2.580843925E0
3.109599688E1,-3.023464918E0,-1.172980690E1,-2.471362114E0
3.111799688E1,-1.148805022E0,-1.133333683E1,-2.589836597E0
3.113801562E1,-7.726472020E-1,-9.819119453E0,-1.953869700E0
3.115999531E1,-8.317744136E-1,-8.336197853E0,-1.067938447E0
3.117999688E1,-7.285172939E-1,-7.374649048E0,-5.228170156E-1
3.119999688E1,-4.266946316E-1,-6.707212448E0,-2.692136168E-1
3.121999688E1,-9.850703180E-2,-6.130046844E0,-3.790787458E-1
3.124199688E1,-1.484405063E-2,-5.478163719E0,-7.221295238E-1
3.126399531E1,5.375461653E-2,-5.253548622E0,-1.048756123E0
3.128399688E1,-5.918466486E-3,-5.397699356E0,-1.174212337E0
3.130599688E1,-3.047435582E-1,-5.754914284E0,-1.300597429E0
3.132599688E1,-3.633153141E-1,-6.021321297E0,-1.593264699E0
3.134599688E1,-4.793095887E-1,-6.549070835E0,-1.916568041E0
3.136799531E1,-4.747127295E-1,-7.381486893E0,-2.118504524E0
3.138799531E1,-4.734198749E-1,-8.714482307E0,-2.244870663E0
3.140799688E1,-4.195694923E-1,-1.068336773E1,-2.341768742E0
3.142999688E1,-2.878884077E-1,-1.263264179E1,-2.392209768E0
3.145199531E1,1.277067214E-1,-1.417657661E1,-2.759461164E0
3.147199688E1,5.075803399E-1,-1.408132553E1,-3.337679863E0
3.149399688E1,4.559613466E-1,-1.381303978E1,-3.551146984E0
3.151400625E1,-5.993165448E-2,-1.399775791E1,-3.700133324E0
3.153599688E1,-2.201707847E-2,-1.257811165E1,-3.297160387E0
3.155599688E1,1.050068140E0,-1.137856865E1,-3.160039902E0
3.157600313E1,1.276827812E0,-1.086531830E1,-2.938844204E0
3.159799531E1,-4.665149748E-1,-1.140435886E1,-3.589741468E0
3.161799688E1,-2.946362019E0,-1.119039345E1,-4.580538750E0
3.163801562E1,-4.452190399E0,-1.007787514E1,-5.166333199E0
3.165999688E1,-3.835338593E0,-9.268855095E0,-5.209495544E0
3.168199688E1,-2.185159206E0,-9.798021317E0,-4.297026634E0
3.170399688E1,-1.524780869E0,-8.977682114E0,-2.631285191E0
3.172399688E1,-1.351009727E0,-7.699752331E0,-1.546539426E0
3.174399688E1,-1.388579488E0,-6.307371140E0,-8.308454752E-1
3.176599531E1,-1.044848800E0,-5.216045856E0,-6.142851114E-1
3.178599531E1,-7.910059094E-1,-4.750268459E0,-1.009682775E0
3.180599688E1,-6.004849076E-1,-5.069990158E0,-1.716412663E0
3.182799688E1,-3.813101649E-1,-6.111324310E0,-2.015831709E0
3.184999531E1,-5.385708809E-1,-7.027278900E0,-2.165220261E0
3.186999531E1,-5.775484443E-1,-7.617257595E0,-2.295531750E0
3.188999531E1,-2.877160013E-1,-8.189893723E0,-1.867515683E0
3.190999531E1,1.428476572E-1,-8.562374115E0,-1.519063473E0
3.192999688E1,5.084997416E-1,-8.872145653E0,-1.326263189E0
3.195199531E1,9.394751787E-1,-9.472400665E0,-1.357311249E0
3.197199688E1,1.485219121E0,-1.014228821E1,-1.710149527E0
3.199399688E1,2.079948187E0,-1.070865154E1,-2.272930622E0
3.201399688E1,2.147924662E0,-1.132661438E1,-3.003123760E0
3.203399688E1,2.174251318E0,-1.191025257E1,-3.716653347E0
3.205399688E1,1.542363882E0,-1.299925137E1,-4.726154327E0
3.207400156E1,4.274224639E-1,-1.374771690E1,-5.529696465E0
3.209599688E1,1.534683257E-1,-1.401005459E1,-5.662814140E0
3.211799688E1,2.513816059E-1,-1.239162254E1,-7.107790947E0
3.213801562E1,-9.101797640E-2,-1.268198109E1,-4.691735268E0
3.215999688E1,-2.531744003E0,-1.268439484E1,-1.422989011E0
3.217999688E1,-4.459555149E0,-1.221727657E1,-2.335189342E0
3.220199531E1,-4.067480564E0,-1.179537010E1,-2.157185316E0
3.222199531E1,-2.649232149E0,-1.132332897E1,-1.718136549E0
3.224199688E1,-1.890825510E0,-9.922760010E0,-1.194639683E0
3.226399688E1,-1.595860004E0,-8.226276398E0,-5.355637670E-1
3.228399688E1,-1.546462774E0,-6.896411419E0,-3.791362047E-1
3.230599688E1,-1.446873546E0,-5.955423355E0,-8.257984519E-1
3.232599688E1,-1.210278511E0,-5.349202156E0,-1.110009432E0
3.234599688E1,-9.881827831E-1,-4.721940517E0,-1.270238876E0
3.236599688E1,-1.077275872E0,-4.490268230E0,-1.379634738E0
3.238599688E1,-1.111551285E0,-4.647853851E0,-1.356593013E0
3.240600313E1,-1.438704610E0,-4.703724861E0,-1.440294266E0
3.242799531E1,-1.720894814E0,-4.949581146E0,-1.607945800E0
3.244799688E1,-1.731199384E0,-5.763743877E0,-1.693131566E0
3.246799688E1,-1.523995638E0,-6.758439064E0,-1.554919124E0
3.248799688E1,-1.453309178E0,-8.031206131E0,-1.587365389E0
3.250799688E1,-1.306697845E0,-1.035256672E1,-1.957882285E0
3.252999531E1,-2.642145157E-1,-1.337339783E1,-2.661930799E0
3.254999531E1,1.156744123E0,-1.519395828E1,-2.726153135E0
3.256999688E1,1.918473840E0,-1.662789536E1,-2.882685900E0
3.258999688E1,1.645726323E0,-1.639078140E1,-2.040616512E0
3.261199688E1,2.783211768E-1,-1.617014122E1,-3.848104715E0
3.263400312E1,-1.897261143E-1,-1.338440132E1,-3.951112747E0
3.265599688E1,1.513690948E0,-1.184586811E1,-3.644664526E0
3.267799531E1,1.549182653E0,-1.241388798E1,-2.725137949E0
3.269799531E1,-8.347048759E-1,-1.289317894E1,-2.590296268E0
3.271800000E1,-3.944322824E0,-1.121200752E1,-4.016177654E0
3.273801562E1,-4.883156300E0,-9.368185997E0,-5.367991924E0
3.275999531E1,-3.572675705E0,-7.808372974E0,-6.266622066E0
3.277999531E1,-1.829083920E0,-7.457172394E0,-5.277711391E0
3.279999688E1,-1.518795371E0,-6.855739117E0,-2.995117664E0
3.282199531E1,-1.471016765E0,-6.042783260E0,-1.399037361E0
3.284199531E1,-1.068838596E0,-5.606808662E0,-6.927862167E-1
3.286199531E1,-4.826136231E-1,-5.688900948E0,-6.640079021E-1
3.288199531E1,-2.262807935E-1,-5.777036190E0,-1.216273546E0
3.290199531E1,-4.254209101E-1,-5.852042198E0,-1.860198975E0
3.292199531E1,-9.031695127E-1,-5.976377487E0,-2.089802980E0
3.294199531E1,-1.197522163E0,-6.403914928E0,-1.860974789E0
3.296199531E1,-1.112202525E0,-6.984460831E0,-1.130417585E0
3.298199531E1,-8.126016259E-1,-8.117732048E0,-6.277405620E-1
3.300199531E1,-2.387689501E-1,-8.648612976E0,-1.847653389E-1
3.302199531E1,4.110939801E-1,-9.185853004E0,-1.159464046E-1
3.304199531E1,9.053338766E-1,-9.495460510E0,-3.244813681E-1
3.306199531E1,1.392946482E0,-1.000374126E1,-1.097262740E0
3.308199531E1,1.308890820E0,-1.068299484E1,-2.106006861E0
3.310199531E1,1.388129354E0,-1.181899643E1,-2.695162296E0
3.312199531E1,1.951877713E0,-1.295965099E1,-2.740240574E0
3.314199531E1,2.523488522E0,-1.421760273E1,-4.087639809E0
3.316199531E1,2.241940022E0,-1.447493172E1,-5.388169765E0
3.318199531E1,9.228402972E-1,-1.463539028E1,-7.141597271E0
3.320199531E1,-1.780740261E0,-1.124020195E1,-8.074962616E0
3.322199531E1,-3.978588581E-1,-9.417956352E0,-3.665187597E0
3.324199531E1,-4.083454609E-1,-1.101294422E1,-3.714862585E0
3.326199531E1,-2.187380791E0,-1.102986717E1,-1.582682252E0
3.328199531E1,-4.126119137E0,-1.120472050E1,-7.044507265E-1
3.330199531E1,-4.211889267E0,-1.185230350E1,-9.001815319E-1
3.332199688E1,-2.678786039E0,-1.144166946E1,-1.794712782E0
3.334399688E1,-8.025172949E-1,-1.056176281E1,-2.490860462E0
3.336399844E1,-6.764098257E-2,-9.255284309E0,-1.391826034E0
3.338599531E1,-2.926959395E-1,-7.774021149E0,-5.165058970E-1
3.340599844E1,-3.321332335E-1,-6.730876446E0,8.426631987E-2
3.342799531E1,-1.253603995E-1,-5.727236748E0,-4.750096239E-3
3.344799531E1,8.363425732E-2,-5.040617943E0,-4.605007768E-1
3.346799531E1,4.702212289E-3,-4.594253063E0,-1.063054323E0
3.348799531E1,1.331176162E-1,-4.804961681E0,-1.360845089E0
3.350799531E1,5.319916084E-2,-5.700785637E0,-1.447457790E0
3.352799531E1,1.765580177E-1,-6.542989254E0,-1.616114855E0
3.354799531E1,1.069346219E-1,-7.025267601E0,-1.983299136E0
3.356799531E1,-1.057087928E-1,-7.662805080E0,-2.349171638E0
3.358799531E1,-1.596549600E-1,-8.630139351E0,-2.386185884E0
3.360799531E1,-1.941410154E-1,-1.028596020E1,-2.505723715E0
3.362799531E1,-2.044552416E-1,-1.190054226E1,-2.771518230E0
3.364799531E1,1.014088094E-1,-1.351693439E1,-3.094400406E0
3.366799531E1,7.539245486E-1,-1.423733139E1,-3.399680138E0
3.368799531E1,9.381535649E-1,-1.463479710E1,-3.781708717E0
3.370799531E1,4.225957692E-1,-1.560746574E1,-3.765676975E0
3.372799531E1,5.266477466E-1,-1.422587681E1,-2.345934629E0
3.374799531E1,1.753273964E0,-1.253143406E1,-1.549843431E0
3.376799531E1,1.716278672E0,-1.287605476E1,-8.162312508E-1
3.378799531E1,-6.517112851E-1,-1.238626862E1,-7.681556940E-1
3.380799531E1,-3.534703732E0,-1.089649963E1,-3.245694876E0
3.382799531E1,-4.713771343E0,-9.275357246E0,-5.545698643E0
3.384799531E1,-3.990492582E0,-8.292346954E0,-6.479159832E0
3.386799531E1,-1.888536692E0,-8.837639809E0,-4.821280956E0
3.388799531E1,-1.663884044E0,-8.587676048E0,-2.498541117E0
3.390799688E1,-2.148441553E0,-7.640586853E0,-1.129574776E0
3.392999531E1,-2.155863762E0,-6.780254841E0,-4.001668692E-1
3.394999531E1,-1.432843447E0,-6.414353371E0,-2.973885834E-1
3.396999531E1,-5.172145963E-1,-6.711091042E0,-9.036196470E-1
3.398999531E1,1.516774595E-1,-6.814654827E0,-1.572760582E0
3.400999531E1,2.534310520E-1,-6.955002785E0,-1.917458773E0
3.402999531E1,1.201506183E-1,-7.363165855E0,-2.139841795E0
3.404999531E1,1.446193606E-1,-7.652529240E0,-2.102645397E0
3.406999531E1,2.497631162E-1,-7.806658745E0,-1.826890826E0
3.408999531E1,5.490957499E-1,-7.877192020E0,-1.469608903E0
3.410999531E1,9.729077816E-1,-7.915470123E0,-1.247426987E0
3.412999531E1,1.444575071E0,-8.101605415E0,-1.156370759E0
3.414999531E1,1.594049931E0,-8.506369591E0,-1.390475750E0
3.416999531E1,1.614295244E0,-9.179570198E0,-1.745928526E0
3.418999531E1,1.691589713E0,-1.002714634E1,-2.352858543E0
3.420999531E1,1.741532683E0,-1.068550396E1,-3.244430780E0
3.422999531E1,2.464964867E0,-1.164875889E1,-4.493265152E0
3.424999688E1,1.190665245E0,-1.329077816E1,-5.848182678E0
3.427199531E1,-1.623958230E0,-1.348010254E1,-6.298598766E0
3.429199531E1,-1.125830173E0,-1.233289623E1,-3.640900850E0
3.431199688E1,-1.167594671E0,-1.374807167E1,-9.560813308E-1
3.433399688E1,-1.629014850E0,-1.462138939E1,-3.866922855E-1
3.435399688E1,-2.590746641E0,-1.492954254E1,-1.430315256E0
3.437399688E1,-2.600486040E0,-1.483076763E1,-6.318298578E-1
3.439399688E1,-1.225716352E0,-1.332530308E1,3.398329914E-1
3.441399688E1,-8.048731685E-1,-1.120045853E1,5.786880851E-1
3.443399688E1,-6.966073513E-1,-8.764119148E0,6.936864257E-1
3.445400312E1,-5.496129394E-1,-7.051393032E0,6.097553372E-1
3.447599531E1,-7.073621154E-1,-5.456759453E0,1.433264911E-1
3.449599688E1,-6.820314527E-1,-4.503340244E0,-4.463270903E-1
3.451599688E1,-7.300974727E-1,-3.876825333E0,-9.346771836E-1
3.453599688E1,-6.191788912E-1,-4.027986050E0,-1.474004626E0
3.455799688E1,-4.736688435E-1,-4.830799580E0,-1.867793322E0
3.457999688E1,-9.568283558E-1,-5.785052299E0,-1.530402422E0
3.460199688E1,-1.254082918E0,-7.231628895E0,-1.766528249E0
3.462399688E1,-1.409849644E0,-8.446379662E0,-2.535449982E0
3.464399844E1,-1.345474362E0,-9.629124641E0,-3.033338547E0
3.466400156E1,-1.062489271E0,-1.105880737E1,-3.052272081E0
3.468400469E1,-1.125293970E0,-1.282732773E1,-2.725875139E0
3.470599688E1,-1.284901023E0,-1.488986588E1,-2.278149843E0
3.472599688E1,-1.427911520E0,-1.599971294E1,-1.751186132E0
3.474599688E1,-1.687136531E0,-1.519402504E1,-1.885989308E0
3.476799531E1,-1.932321906E0,-1.432662487E1,-2.047799110E0
3.478799531E1,-2.224012136E0,-1.183747005E1,-1.600418448E0
3.480799844E1,-1.139879346E0,-9.958988190E0,-2.093097448E0
3.482999531E1,-1.808388382E-1,-9.709426880E0,-2.215249538E0
3.484999531E1,-1.301832795E0,-1.001331711E1,-2.610407829E0
3.486999531E1,-3.020448208E0,-9.391094208E0,-3.322376251E0
3.488999531E1,-4.362580299E0,-9.637255669E0,-4.327998638E0
3.490999531E1,-4.200885296E0,-8.512028694E0,-4.384808064E0
3.492999688E1,-2.027419567E0,-8.732218742E0,-3.816740513E0
3.495199531E1,5.320969820E-1,-8.924252510E0,-2.878213644E0
3.497199688E1,1.742835164E0,-8.844803810E0,-2.699385643E0
3.499399688E1,1.524493575E0,-7.573635578E0,-2.302245140E0
3.501599688E1,7.279713750E-1,-6.718944073E0,-2.107567787E0
3.503801562E1,-1.278408021E-1,-6.332740307E0,-2.082093477E0
3.505999531E1,-6.496331096E-1,-6.042830944E0,-2.151420116E0
3.507999688E1,-8.825315237E-1,-6.361815453E0,-2.166445971E0
3.510199688E1,-1.060286641E0,-7.272626877E0,-1.979123831E0
3.512399688E1,-1.485736251E0,-8.215128899E0,-2.030081987E0
3.514399688E1,-1.537039161E0,-8.593786240E0,-1.897586823E0
3.516401094E1,-1.119461656E0,-9.098713875E0,-1.723834872E0
3.518599531E1,-5.628480911E-1,-9.066391945E0,-1.552534461E0
3.520599688E1,-3.955508471E-1,-9.460592270E0,-1.506288052E0
3.522799531E1,-2.920446992E-1,-1.031577206E1,-1.746914864E0
3.524799531E1,7.651868742E-3,-1.161092091E1,-2.206524849E0
3.526799688E1,8.964178562E-1,-1.210441303E1,-2.971194744E0
3.528999531E1,2.125581741E0,-1.234622765E1,-5.492729664E0
3.530999531E1,1.356238604E0,-1.209952927E1,-5.341712952E0
3.532999531E1,-8.071237206E-1,-1.162152290E1,-4.294173241E0
3.534999531E1,-3.163659811E0,-1.175022507E1,-4.441694260E0
3.536999531E1,-4.282029629E0,-1.257064056E1,-4.789246082E0
3.538999531E1,-4.114358902E0,-1.463585091E1,-3.535431385E0
3.540999531E1,-4.505533218E0,-1.577237797E1,-6.029940844E-1
3.542999688E1,-3.839763165E0,-1.531770039E1,-1.013283610E0
3.545199531E1,-2.391280651E0,-1.324663925E1,-3.145118952E-1
3.547199531E1,-1.727675080E0,-1.083519936E1,8.927690983E-1
3.549199531E1,-1.539854765E0,-8.165453911E0,1.199226975E0
3.551199531E1,-1.211264849E0,-6.130688667E0,9.032365084E-1
3.553199688E1,-7.478528619E-1,-4.771203518E0,3.359543681E-1
3.555399531E1,-2.272767723E-1,-3.870715618E0,-4.254879355E-1
3.557399688E1,-2.046084702E-1,-3.419552088E0,-1.403902411E0
3.559400312E1,-6.363021731E-1,-3.039276361E0,-2.029765844E0
3.561400312E1,-1.053669095E0,-3.511585236E0,-2.712439060E0
3.563599688E1,-1.808905482E0,-4.781172752E0,-2.861099958E0
3.565599688E1,-3.011340857E0,-6.168947697E0,-2.579503536E0
3.567599688E1,-3.486015081E0,-7.456099510E0,-2.586341143E0
3.569799688E1,-3.346433163E0,-8.942256927E0,-2.821758270E0
3.571999688E1,-3.065708160E0,-1.040638733E1,-2.893095970E0
3.574199688E1,-2.970093489E0,-1.202347088E1,-2.512561560E0
3.576399688E1,-2.830750942E0,-1.375845242E1,-2.120908499E0
3.578400156E1,-2.610072613E0,-1.402059841E1,-2.403280497E0
3.580599688E1,-1.867563486E0,-1.316394329E1,-2.923013926E0
3.582599688E1,-9.130718708E-1,-1.305762196E1,-3.194458723E0
3.584599688E1,-4.348061681E-1,-1.273546791E1,-3.200051785E0
3.586799531E1,3.959243596E-1,-1.129566193E1,-3.329951525E0
3.588799531E1,8.441668153E-1,-1.090238953E1,-3.460971594E0
3.590799688E1,2.358767539E-1,-1.066073799E1,-3.598408461E0
3.592999688E1,-1.862277150E0,-1.062624359E1,-4.339193821E0
3.595199531E1,-3.703858614E0,-9.606686592E0,-4.676517487E0
3.597199688E1,-4.425576687E0,-9.047295570E0,-4.931911469E0
3.599399688E1,-3.337296963E0,-9.457154274E0,-4.673290253E0
3.601399688E1,-1.494968295E0,-1.000987053E1,-3.198155403E0
3.603399688E1,-5.146288276E-1,-1.007930183E1,-2.081231594E0
3.605399688E1,-7.651677132E-1,-8.947256088E0,-1.414322019E0
3.607399688E1,-1.247790933E0,-7.506904125E0,-1.165593147E0
3.609399688E1,-1.077093840E0,-6.262207031E0,-1.141181827E0
3.611399688E1,-6.773962975E-1,-5.389012814E0,-1.517933488E0
3.613400781E1,-4.208336174E-1,-4.845031261E0,-1.835557818E0
3.615599688E1,-4.243961871E-1,-4.960786343E0,-1.921461821E0
3.617599688E1,-6.848757267E-1,-5.718033791E0,-1.991334200E0
3.619799688E1,-5.557421446E-1,-6.274781227E0,-1.921490431E0
3.621799688E1,-5.248377919E-1,-7.064350605E0,-1.994810581E0
3.623801562E1,-6.914741993E-1,-7.887707233E0,-2.163534641E0
3.625999688E1,-3.225755990E-1,-8.684353828E0,-2.172709227E0
3.628199531E1,5.811206251E-2,-9.245285988E0,-2.384462118E0
3.630199531E1,4.519965649E-1,-1.027366352E1,-2.610838652E0
3.632199688E1,6.446340084E-1,-1.156543064E1,-3.216609955E0
3.634399688E1,1.146362901E0,-1.274445057E1,-4.600793839E0
3.636400781E1,3.355895042E0,-1.345495415E1,-8.150638580E0
3.638599688E1,2.259465694E0,-1.383254814E1,-8.497519493E0
3.640799688E1,-7.777228951E-1,-1.300969887E1,-8.984107018E0
3.642999531E1,-1.773883224E0,-1.095903683E1,-5.629735470E0
3.644999531E1,-1.836371779E0,-1.159662247E1,-2.398587942E0
3.646999531E1,-2.260442495E0,-1.246350479E1,-7.854418159E-1
3.648999531E1,-3.658081532E0,-1.285511971E1,1.720090359E-1
3.650999688E1,-5.329665661E0,-1.279413509E1,7.752425224E-2
3.652999688E1,-4.539453983E0,-1.202705193E1,-1.210795641E-1
3.654999688E1,-2.211380482E0,-1.135907936E1,-1.030732512E0
3.657000469E1,-6.558867693E-1,-1.013401413E1,-1.192207098E0
3.659199531E1,-6.212378740E-1,-8.127462387E0,-1.012747288E0
3.661199688E1,-7.245141864E-1,-6.765075684E0,-1.014327526E0
3.663400000E1,-5.267435312E-1,-5.979662418E0,-8.165089488E-1
3.665599531E1,-3.935205638E-1,-5.302208424E0,-8.631001711E-1
3.667599531E1,-5.599558949E-1,-4.721652985E0,-1.144916892E0
3.669599531E1,-6.467121840E-1,-4.555533886E0,-1.521275759E0
3.671599531E1,-5.837543011E-1,-4.775331020E0,-1.792854905E0
3.673599531E1,-4.119175971E-1,-5.284118176E0,-1.906799674E0
3.675599531E1,-4.687942863E-1,-6.031166553E0,-2.119538784E0
3.677599531E1,-5.948824883E-1,-7.192804337E0,-2.191776752E0
3.679600313E1,-7.107427120E-1,-8.270233154E0,-2.434290171E0
3.681799531E1,-6.812844872E-1,-9.696334839E0,-2.938585758E0
3.683801406E1,-5.186319351E-1,-1.165907192E1,-3.214426517E0
3.685999531E1,-3.205548823E-1,-1.385442162E1,-3.414131641E0
3.687999531E1,-3.374196589E-1,-1.451003075E1,-3.804779053E0
3.689999531E1,-4.652604461E-1,-1.324862099E1,-4.083263397E0
3.691999531E1,-2.655169666E-1,-1.292906284E1,-3.588544369E0
3.693999531E1,-2.739445567E-1,-1.262735462E1,-2.654528141E0
3.695999531E1,-5.592471957E-1,-1.115565777E1,-2.160996914E0
3.697999531E1,-7.525454760E-1,-9.785964012E0,-2.315853834E0
3.699999531E1,-1.329232097E0,-9.577122688E0,-2.776239634E0
3.701999531E1,-3.035053015E0,-1.091992474E1,-3.716825724E0
3.703999531E1,-3.740720034E0,-1.212769413E1,-3.807250023E0
3.705999531E1,-3.751991749E0,-1.211396217E1,-3.438360929E0
3.707999531E1,-2.403778553E0,-1.124183941E1,-3.581553459E0
3.709999531E1,-9.335854650E-1,-1.053365421E1,-2.911722660E0
3.711999531E1,-1.332229674E-1,-8.952427864E0,-1.882656574E0
3.713999531E1,2.221148908E-1,-7.616520405E0,-1.291614413E0
3.715999531E1,2.507303655E-1,-6.390670300E0,-1.085770488E0
3.717999531E1,2.834734917E-1,-5.264926434E0,-1.283684850E0
3.719999531E1,3.435009122E-1,-4.695796013E0,-1.563586116E0
3.721999688E1,2.452524453E-1,-4.682627678E0,-1.984573007E0
3.724199531E1,2.140416391E-2,-5.291300774E0,-2.515654802E0
3.726199531E1,-5.176072121E-1,-5.936135769E0,-2.807000399E0
3.728199531E1,-1.060209990E0,-6.796602726E0,-2.997732162E0
3.730199531E1,-1.163764000E0,-7.691535473E0,-3.035694599E0
3.732199531E1,-6.918572187E-1,-8.647320747E0,-2.909912825E0
3.734199531E1,-1.227363572E-1,-9.523435593E0,-2.855880260E0
3.736199531E1,2.211380452E-1,-1.040348625E1,-2.686093330E0
3.738199531E1,7.565581799E-1,-1.154281044E1,-2.879104137E0
3.740199531E1,1.582931280E0,-1.268796635E1,-3.723184824E0
3.742199531E1,2.094208241E0,-1.242868423E1,-5.302131653E0
3.744199531E1,2.803226948E0,-1.224435902E1,-8.477198601E0
3.746199531E1,1.248748541E0,-1.255143929E1,-7.637733459E0
3.748199531E1,-1.224222422E0,-1.236635876E1,-4.866339207E0
3.750199531E1,-2.942109823E0,-1.065527058E1,-5.060135841E0
3.752199531E1,-2.858102322E0,-1.149135494E1,-2.891132593E0
3.754199531E1,-3.514984846E0,-1.248875046E1,-6.138541698E-1
3.756199531E1,-4.838872910E0,-1.285256386E1,-4.607497454E-1
3.758199531E1,-6.198042393E0,-1.257518101E1,-1.521553516E0
3.760199531E1,-5.127987385E0,-1.195146179E1,-1.329959869E0
3.762199531E1,-2.804673195E0,-1.149483013E1,-8.167292476E-1
3.764199531E1,-1.603463888E0,-1.000419998E1,-1.233109683E-1
3.766199531E1,-1.345349908E0,-8.196223259E0,1.927140802E-1
3.768199531E1,-1.008294106E0,-6.881184578E0,7.019799203E-2
3.770199531E1,-3.462781608E-1,-6.078561783E0,-2.657563984E-2
3.772199531E1,-3.170880675E-2,-5.427071095E0,-3.776517808E-1
3.774199531E1,8.820239455E-3,-4.965353966E0,-8.748508692E-1
3.776199688E1,-6.765056401E-2,-4.754922867E0,-1.394766092E0
3.778199688E1,-3.431944549E-1,-4.758964539E0,-1.972860456E0
3.780399844E1,-7.139605284E-1,-5.320405006E0,-2.591033697E0
3.782599688E1,-9.188755155E-1,-5.857903004E0,-2.866041422E0
3.784599688E1,-1.010180712E0,-6.728664398E0,-3.160710096E0
3.786599688E1,-8.893597126E-1,-8.282635689E0,-3.258087158E0
3.788599688E1,-1.123886108E0,-1.033732986E1,-3.246202469E0
3.790599688E1,-1.311160684E0,-1.245416832E1,-3.034133434E0
3.792599688E1,-1.287017465E0,-1.384931755E1,-2.958581924E0
3.794599688E1,-1.182400346E0,-1.371530819E1,-3.094208717E0
3.796599688E1,-1.352111101E0,-1.287068272E1,-3.150721550E0
3.798799688E1,-2.291950226E0,-1.390837669E1,-3.224127769E0
3.800999531E1,-2.200903416E0,-1.136301517E1,-1.973272324E0
3.802999531E1,-1.688017607E0,-9.633616447E0,-1.928625226E0
3.804999531E1,-2.131040573E0,-1.091186142E1,-1.758838058E0
3.806999531E1,-2.910506487E0,-1.301112556E1,-1.350684047E0
3.808999531E1,-4.941756725E0,-1.257935619E1,-2.719506502E0
3.810999531E1,-6.607421875E0,-1.110894203E1,-6.351683140E0
3.812999531E1,-5.418423176E0,-9.333661079E0,-8.274035454E0
3.814999531E1,-3.177278042E0,-8.727630615E0,-8.048961639E0
3.816999531E1,-2.606088638E0,-8.109372139E0,-4.788183212E0
3.818999531E1,-2.243606329E0,-7.294701576E0,-2.637883663E0
3.820999531E1,-7.115280032E-1,-6.692100048E0,-1.750630736E0
3.822999531E1,3.015832305E-1,-6.370070457E0,-2.220938206E0
3.824999531E1,1.866998374E-1,-5.536189079E0,-2.675798178E0
3.826999531E1,8.867165446E-2,-5.397124290E0,-2.256994963E0
3.828999531E1,-3.676536307E-2,-5.542212963E0,-1.947041392E0
3.830999531E1,-5.468261242E-1,-5.645048618E0,-2.000231028E0
3.832999531E1,-1.070074081E0,-5.969271660E0,-2.137380362E0
3.834999531E1,-9.585138559E-1,-6.640959740E0,-2.155643463E0
3.836999688E1,-7.373088002E-1,-7.676107407E0,-2.098709345E0
3.839199531E1,-3.286089897E-1,-8.590692520E0,-1.715531707E0
3.841199531E1,2.922554016E-1,-9.184521675E0,-1.413910151E0
3.843199531E1,5.701072812E-1,-9.827949524E0,-1.220889688E0
3.845199531E1,2.850057781E-1,-1.041117668E1,-9.914772511E-1
3.847199531E1,4.846822098E-2,-1.102181244E1,-1.355836391E0
3.849199531E1,6.712766886E-1,-1.141075611E1,-2.650592089E0
3.851199531E1,1.314263582E0,-1.326427937E1,-6.528039932E0
3.853199531E1,-4.069683075E0,-1.436502838E1,-9.575600624E0
3.855199531E1,-5.103557110E0,-1.014439583E1,-1.231301594E1
3.857200000E1,-2.381129503E0,-1.210011292E1,-3.773070335E0
3.859399531E1,-4.713551044E0,-1.678728867E1,-2.769784927E0
3.861399531E1,-5.542040348E0,-1.618008232E1,-5.808333308E-2
3.863399688E1,-4.229548931E0,-1.452885818E1,-2.112423420E0
3.865400000E1,-3.340284824E0,-1.319596863E1,-1.063073516E0
3.867599688E1,-2.250319719E0,-1.095704460E1,5.743785501E-1
3.869799531E1,-1.602745652E0,-7.868266106E0,9.314689040E-1
3.871799531E1,-1.008140922E0,-5.938309669E0,8.977490067E-1
3.873801406E1,-5.245408416E-1,-4.600171566E0,3.001179695E-1
3.875999531E1,-2.029038072E-1,-3.644348383E0,-6.510888338E-1
3.877999531E1,-5.167644843E-2,-3.089477777E0,-1.343999505E0
3.879999531E1,4.259763658E-2,-3.016866446E0,-1.856454492E0
3.881999531E1,-1.310777515E-1,-3.637683153E0,-2.057528973E0
3.883999531E1,-6.765152216E-1,-4.789409161E0,-2.293041945E0
3.885999531E1,-1.465318441E0,-5.677811146E0,-2.622359514E0
3.887999531E1,-1.738267064E0,-6.532349586E0,-2.885712147E0
3.889999531E1,-1.453998685E0,-7.589973450E0,-3.154475689E0
3.891999531E1,-1.494882107E0,-9.453667641E0,-3.265528202E0
3.893999531E1,-1.627578378E0,-1.179915237E1,-2.955641985E0
3.895999531E1,-1.336098671E0,-1.404789257E1,-2.241480350E0
3.897999531E1,-4.875169396E-1,-1.574725914E1,-1.906129241E0
3.899999531E1,3.794235289E-1,-1.640039635E1,-2.477711439E0
3.901999531E1,3.550888300E-1,-1.617181778E1,-3.411947966E0
3.903999531E1,-1.539950520E-1,-1.434823990E1,-3.371390343E0
3.905999531E1,-9.530837834E-2,-1.203081512E1,-3.180792809E0
3.907999531E1,5.055883527E-1,-1.057001781E1,-2.493896246E0
3.909999531E1,5.893566608E-1,-1.027621078E1,-1.973770261E0
3.911999688E1,-1.220880032E0,-1.059132576E1,-2.428544283E0
3.914199531E1,-4.088578224E0,-9.505536079E0,-3.785855532E0
3.916199531E1,-5.620829105E0,-8.422878265E0,-4.926587105E0
3.918199688E1,-4.643832207E0,-8.726357460E0,-5.057732105E0
3.920399844E1,-1.509189844E0,-9.373846054E0,-3.709872961E0
3.922599531E1,-4.044285715E-1,-9.305534363E0,-2.424579382E0
3.924599688E1,-3.947080970E-1,-8.117895126E0,-1.801445246E0
3.926799688E1,-2.210326865E-2,-6.983283043E0,-1.975082278E0
3.928999531E1,3.345848918E-1,-6.062559128E0,-2.870379686E0
3.930999531E1,1.391031146E-1,-5.177537441E0,-3.088051081E0
3.932999531E1,-4.204792678E-1,-4.771826267E0,-2.519916534E0
3.934999531E1,-8.521538973E-1,-5.386101723E0,-2.135446072E0
3.936999531E1,-1.131873131E0,-6.453560829E0,-1.904750228E0
3.938999531E1,-1.068426847E0,-7.568330288E0,-1.648647308E0
3.940999531E1,-8.024885058E-1,-8.516682625E0,-1.390542746E0
3.942999531E1,-2.820273638E-1,-9.303408623E0,-9.469068050E-1
3.944999531E1,-8.954314515E-3,-9.633960724E0,-7.277415991E-1
3.946999531E1,1.181777939E-2,-9.622171402E0,-7.238820791E-1
3.948999531E1,2.668673098E-1,-1.003678131E1,-1.005076289E0
3.950999531E1,6.457257867E-1,-1.116640377E1,-1.752708912E0
3.952999531E1,1.210288048E0,-1.234540462E1,-2.977649450E0
3.954999531E1,3.253576517E0,-1.382139206E1,-6.936941147E0
3.956999531E1,2.802278996E0,-1.375508118E1,-1.008811188E1
3.958999531E1,1.449928526E-2,-1.246437740E1,-1.128846931E1
3.960999531E1,-2.677177191E0,-1.031330204E1,-8.107418060E0
3.962999531E1,-2.558032274E0,-9.762606621E0,-4.572810650E0
3.964999531E1,-2.968494177E0,-1.134498215E1,-2.770522118E0
3.966999531E1,-4.614354610E0,-1.267007732E1,-1.023473367E-1
3.968999531E1,-5.496761799E0,-1.290222836E1,-1.250539422E-1
3.970999531E1,-5.349144459E0,-1.284090805E1,3.748649657E-1
3.972999688E1,-2.947051525E0,-1.254352951E1,4.365012944E-1
3.975199688E1,-9.373299479E-1,-1.073420238E1,-1.178138778E-1
3.977400312E1,-5.646006465E-1,-8.469373703E0,-4.147331715E-1
3.979599531E1,-3.566498756E-1,-6.726883411E0,-5.090360045E-1
3.981599688E1,-2.116186917E-1,-5.696715832E0,-4.710065126E-1
3.983801563E1,1.857900433E-2,-5.041594982E0,-5.612200499E-1
3.985999688E1,-2.958275564E-2,-4.553771496E0,-9.918698668E-1
3.988199531E1,-6.645346433E-2,-4.510762215E0,-1.481522441E0
3.990199531E1,-1.570692211E-1,-4.468097687E0,-1.869038343E0
3.992199531E1,-5.720418096E-1,-5.007424831E0,-2.304620266E0
3.994199531E1,-1.300405860E0,-5.894247055E0,-2.816759109E0
3.996199688E1,-1.247848392E0,-7.007847786E0,-3.033769608E0
3.998399531E1,-1.089888573E0,-8.624355316E0,-3.319129705E0
4.000399844E1,-8.554291129E-1,-1.055667686E1,-3.275105238E0
4.002599531E1,-8.894842267E-1,-1.265687084E1,-3.065688848E0
4.004599688E1,-1.067086220E0,-1.410800552E1,-2.947769880E0
4.006599688E1,-1.055517316E0,-1.428987885E1,-2.913858414E0
4.008599688E1,-9.653134346E-1,-1.364323425E1,-2.922180653E0
4.010599688E1,-1.309283614E0,-1.380760098E1,-2.994447231E0
4.012799688E1,-1.309197426E0,-1.353183651E1,-2.632032156E0
4.014999688E1,-3.007308841E-1,-1.159662247E1,-2.319129229E0
4.017199688E1,9.359126091E-1,-1.061339092E1,-2.049484730E0
4.019199688E1,9.041271806E-1,-1.068451786E1,-1.793190122E0
4.021399688E1,-1.310241222E0,-1.054256058E1,-2.848783970E0
4.023399688E1,-3.336338997E0,-9.708506584E0,-4.663646698E0
4.025399688E1,-4.210960388E0,-8.717738152E0,-5.678031445E0
4.027399688E1,-2.281722069E0,-8.966897964E0,-5.310703278E0
4.029599531E1,-6.742933989E-1,-9.504941940E0,-3.856522799E0
4.031599688E1,-7.095551491E-1,-8.859254837E0,-2.457504511E0
4.033801563E1,-1.029803634E0,-7.989326477E0,-1.453989148E0
4.035999688E1,-9.558323622E-1,-6.933330536E0,-1.352810144E0
4.038199531E1,-3.765313029E-1,-6.091347218E0,-2.197723866E0
4.040199688E1,-1.260882467E-1,-5.652087688E0,-2.701406479E0
4.042399688E1,-4.641207755E-1,-6.024510860E0,-2.685413361E0
4.044400312E1,-1.015017033E0,-6.495076656E0,-2.524360180E0
4.046401094E1,-1.313717604E0,-7.155589104E0,-2.441290855E0
4.048599531E1,-1.511382937E0,-7.355256081E0,-2.325114489E0
4.050599688E1,-1.420422316E0,-7.526498318E0,-2.072420835E0
4.052599688E1,-9.674202800E-1,-7.994603634E0,-1.555464983E0
4.054799688E1,-2.972353399E-1,-8.795377731E0,-1.437804341E0
4.056999531E1,-1.881076396E-1,-1.003172493E1,-1.788775206E0
4.058999688E1,1.078539938E-1,-1.130525780E1,-2.892999887E0
4.061199531E1,9.285480380E-1,-1.230262470E1,-3.947693825E0
4.063199531E1,3.647815228E0,-1.338789749E1,-6.362390041E0
4.065199531E1,2.474752188E0,-1.322616386E1,-8.685417175E0
4.067199531E1,2.768654749E-2,-1.272438717E1,-7.151652813E0
4.069199531E1,-2.077104092E0,-1.144052982E1,-6.854388714E0
4.071199531E1,-2.104005337E0,-1.126431656E1,-4.683661461E0
4.073199531E1,-2.814470291E0,-1.261955929E1,-2.570912838E0
4.075199688E1,-4.186203957E0,-1.372195530E1,-3.381570429E-2
4.077399688E1,-4.900998116E0,-1.362030697E1,-9.998856783E-1
4.079399688E1,-3.682080984E0,-1.313666916E1,-5.750967860E-1
4.081599688E1,-1.453653932E0,-1.203129482E1,3.209379613E-1
4.083801563E1,-1.214214563E0,-9.694055557E0,4.787349999E-1
4.085999688E1,-1.345962763E0,-7.459566593E0,3.234758079E-1
4.088199531E1,-8.703019023E-1,-6.093319893E0,-1.524627656E-1
4.090199531E1,-3.466804326E-1,-5.433947086E0,-6.773579717E-1
4.092199531E1,-7.054275274E-2,-5.070756435E0,-1.046381116E0
4.094199531E1,8.074206114E-2,-4.847923279E0,-1.492449641E0
4.096199688E1,1.000489071E-1,-4.881212234E0,-1.736112356E0
4.098399688E1,4.832456633E-2,-5.260444164E0,-1.752182126E0
4.100400938E1,-4.246356338E-2,-5.864798546E0,-1.790135026E0
4.102599688E1,-4.893844128E-1,-6.590164661E0,-2.163898706E0
4.104599688E1,-7.992802858E-1,-7.206068516E0,-2.586877346E0
4.106599688E1,-8.934969306E-1,-8.219313622E0,-3.120085478E0
4.108799531E1,-8.250036240E-1,-9.543891907E0,-3.211974859E0
4.110799688E1,-9.326086044E-1,-1.101197720E1,-2.957404137E0
4.112799688E1,-1.345234871E0,-1.238873959E1,-2.487173319E0
4.114999688E1,-1.648350477E0,-1.335487556E1,-2.459764481E0
4.117199688E1,-1.485056281E0,-1.337130928E1,-3.288991451E0
4.119199688E1,-1.393636107E0,-1.315312195E1,-4.125946999E0
4.121399688E1,-1.185714006E0,-1.259394169E1,-4.071196079E0
4.123399688E1,-2.550590932E-1,-1.107700348E1,-3.507534266E0
4.125599531E1,7.139413357E-1,-9.659482956E0,-2.852873325E0
4.127599688E1,5.284290314E-1,-9.219669342E0,-2.668941259E0
4.129799531E1,-1.702334881E0,-1.034714508E1,-3.683948517E0
4.131799531E1,-3.597661734E0,-1.097884178E1,-4.504087448E0
4.133801563E1,-4.006964684E0,-1.097829628E1,-4.761559486E0
4.135999688E1,-2.320259333E0,-1.077266312E1,-4.437566757E0
4.137999688E1,-6.278171539E-1,-1.097060585E1,-3.793047667E0
4.140199688E1,-6.414641142E-1,-9.788224220E0,-2.591187000E0
4.142400625E1,-7.246865034E-1,-8.295449257E0,-1.276952267E0
4.144599688E1,-4.533660412E-1,-7.107101440E0,-5.678663254E-1
4.146799531E1,-2.223447263E-1,-6.014148235E0,-7.904121876E-1
4.148799531E1,-1.525489539E-1,-5.399039745E0,-1.452964306E0
4.150799531E1,-2.474263757E-1,-5.063382149E0,-1.925129771E0
4.152799688E1,-7.389272451E-1,-5.007789135E0,-2.392669439E0
4.154799688E1,-1.053803086E0,-5.470655441E0,-2.542258978E0
4.156799844E1,-1.067124367E0,-6.343513966E0,-2.365452051E0
4.158999688E1,-6.537798643E-1,-7.473194122E0,-2.133597612E0
4.160999688E1,-3.401777744E-1,-8.041453362E0,-2.053210020E0
4.163199531E1,6.942227483E-2,-8.826214790E0,-2.383217096E0
4.165199531E1,1.620395631E-1,-9.579105377E0,-2.927974701E0
4.167199531E1,3.374675214E-1,-1.067891502E1,-3.464323759E0
4.169199531E1,6.471239328E-1,-1.187527847E1,-4.231856823E0
4.171199531E1,1.855008245E0,-1.315925121E1,-5.611405373E0
4.173199531E1,1.623364449E0,-1.348233414E1,-7.384436607E0
4.175199688E1,1.065410137E0,-1.385307121E1,-6.967586517E0
4.177399688E1,-1.023157239E0,-1.296998405E1,-9.400794983E0
4.179399688E1,-1.786227703E0,-1.064027214E1,-6.380097866E0
4.181599688E1,-1.508203387E0,-9.624662399E0,-2.495945692E0
4.183801563E1,-1.832885861E0,-1.109058380E1,-1.803609610E0
4.185999688E1,-3.662247658E0,-1.139849663E1,-4.106534719E-1
