"Time (s)","Gyroscope x (rad/s)","Gyroscope y (rad/s)","Gyroscope z (rad/s)"
1.548478750E-1,1.575334221E-1,-7.210653424E-1,-1.155757010E-1
1.748541250E-1,-5.940228105E-1,-1.657801032E0,-1.096101642E0
1.968478750E-1,-1.421972156E0,-4.820948541E-1,-2.539279461E0
2.168494380E-1,-1.718730450E0,1.615703702E0,-3.345761299E0
2.388666250E-1,-1.569277883E0,3.521271467E0,-3.071796894E0
2.608478750E-1,-6.057513952E-1,3.318987846E0,-2.131134272E0
2.808478750E-1,1.882337630E-1,3.348728418E0,-1.881237984E0
3.028478750E-1,1.057669520E-1,3.936048985E0,-1.978068948E0
3.248525630E-1,-5.962917209E-1,2.110486984E0,-2.647193193E0
3.468463130E-1,-4.530874789E-1,4.794768393E-1,-3.903830290E0
3.668478750E-1,-4.564734101E-1,8.541292548E-1,-3.538777113E0
3.888478750E-1,1.660855263E-1,2.616615057E0,-2.912273884E0
4.088478750E-1,6.707649231E-1,3.062633991E0,-2.935207367E0
4.308463130E-1,4.388630390E-1,3.045424938E0,-3.142727137E0
4.508463130E-1,3.282789886E-1,3.670706749E0,-3.409657717E0
4.708463130E-1,-1.202531811E-2,4.846587181E0,-3.641402483E0
4.908541250E-1,-9.866870046E-1,5.191482067E0,-2.563888550E0
5.128478750E-1,-7.037167549E-1,2.813191414E0,-1.173192859E0
5.328494380E-1,-4.863359928E-1,1.033060431E0,-6.323328018E-1
5.548494380E-1,-1.210316062E0,1.586574078E0,-4.094891548E-1
5.768478750E-1,-2.482608795E0,3.200340509E0,4.865977913E-2
5.988478750E-1,-3.627195597E0,3.498739481E0,3.166027367E-1
6.208463130E-1,-2.910825253E0,4.286301613E0,-5.938308239E-1
6.408478750E-1,-1.335805178E0,7.297413349E0,-1.925220370E0
6.628478750E-1,-2.582406521E0,5.409944534E0,-2.299698114E0
6.848697500E-1,-7.037237167E0,1.648795128E0,-7.527779341E-1
7.068478750E-1,-7.332721710E0,-2.468768120E0,-2.438225038E-2
7.268494380E-1,-5.927051067E0,-3.957883120E-1,-1.353886843E0
7.488478750E-1,-8.282372475E0,4.523439407E0,-3.187005997E0
7.688478750E-1,-1.032882404E1,7.083802700E0,-5.100445271E0
7.888478750E-1,-8.157581329E0,4.246630192E0,-6.885184288E0
8.088478750E-1,-5.947401524E0,5.301437378E-1,-8.682926178E0
8.288478750E-1,-7.257916927E0,4.037103653E0,-8.904774666E0
8.508478750E-1,-7.941422462E0,4.444062233E0,-8.676345825E0
8.728478750E-1,-5.256512642E0,-2.225294709E-2,-8.316738129E0
8.948463130E-1,-3.092095137E0,-2.732941151E0,-9.395020485E0
9.148478750E-1,-4.696907997E0,-2.576804161E0,-7.930305004E0
9.348541250E-1,-6.604029179E0,-1.724402785E0,-6.933372974E0
9.568478750E-1,-6.080116272E0,3.976558149E-1,-6.740548611E0
9.768478750E-1,-4.233331203E0,4.683765471E-1,-5.943020821E0
9.968478750E-1,-3.583963871E0,-1.625844002E0,-5.588945866E0
1.016847875E0,-3.643374681E0,-2.197875738E0,-6.166126251E0
1.036847875E0,-2.503063917E0,-1.565228701E0,-6.470843315E0
1.056847875E0,-2.153544188E0,-9.406626225E-1,-5.620204449E0
1.076847875E0,-3.055460691E0,-4.366290271E-1,-3.913726330E0
1.096847875E0,-2.579823494E0,-9.288467765E-1,-3.189519405E0
1.116847875E0,-8.338484764E-1,-1.595649838E0,-3.909223318E0
1.136847875E0,9.570164084E-1,-2.601081610E0,-3.598223209E0
1.156849438E0,3.211056709E0,-2.282489300E0,-3.170652390E0
1.178847875E0,5.139122009E0,-9.404357672E-1,-3.322792768E0
1.198847875E0,4.310858727E0,-1.148391724E0,-2.072229385E0
1.218847875E0,2.945557356E0,-1.748313785E0,-1.474489093E0
1.238866625E0,3.734271526E0,-6.943094134E-1,-1.697594523E0
1.260846313E0,5.530354977E0,2.226621151E0,-2.166320086E0
1.280846313E0,5.889595985E0,1.478363633E0,-9.495638013E-1
1.300846313E0,5.122035027E0,-8.574104309E-1,9.899856448E-1
1.320846313E0,5.000787258E0,-1.161603928E0,1.671466947E0
1.340847875E0,6.608409882E0,-1.494036794E0,2.165848970E0
1.362846313E0,9.027051926E0,2.549926005E-2,2.953289032E0
1.382847875E0,9.815469742E0,1.160905719E0,3.180251598E0
1.404854125E0,8.625347137E0,9.837722778E-1,2.747828960E0
1.426849438E0,7.169865131E0,-3.266209066E-1,2.270446539E0
1.446849438E0,6.200491428E0,-2.076854467E0,2.315144300E0
1.468847875E0,5.980388165E0,-3.803246975E0,2.050255775E0
1.488847875E0,5.908288479E0,-4.751187801E0,1.105072618E0
1.508847875E0,5.532833099E0,-5.326692581E0,3.520678282E-1
1.528847875E0,4.908040524E0,-5.823238850E0,1.215272769E-1
1.550846313E0,4.537314892E0,-6.444977283E0,-1.806066632E-1
1.570847875E0,4.384878159E0,-6.465834141E0,-4.470660985E-1
1.590847875E0,3.952839136E0,-6.206896782E0,-3.519456387E-1
1.610847875E0,3.290678740E0,-6.123714447E0,-1.972047538E-1
1.630847875E0,2.736501694E0,-5.797198296E0,-3.690324128E-1
1.650847875E0,2.383805513E0,-4.547368050E0,-9.057735205E-1
1.672846313E0,2.812196732E0,-3.018320084E0,-1.320795417E0
1.692846313E0,3.278059959E0,-1.681362987E0,-5.919982195E-1
1.712846313E0,2.905641556E0,-2.827747583E0,3.716154993E-1
1.732847875E0,1.683073401E0,6.691592187E-2,1.565857053E0
1.754849438E0,5.836380720E-1,-3.864682615E-1,1.816887736E0
1.776846313E0,-4.570842683E-1,-1.529903293E0,1.436475754E0
1.796847875E0,-8.224166036E-1,-2.537080288E0,7.407875657E-1
1.818847875E0,-3.256609738E-1,-2.439603806E0,6.795613766E-1
1.838866625E0,4.307647049E-1,-1.298699498E0,7.819249630E-1
1.860847875E0,1.754404902E-1,3.276855648E-1,9.065065384E-1
1.882847875E0,-2.792352140E-1,-1.012290940E-1,8.198160529E-1
1.904847875E0,-7.973885536E-1,-8.147022128E-1,6.972939372E-1
1.924847875E0,-1.322959542E0,-4.689699709E-1,8.720362782E-1
1.944847875E0,-4.969301522E-1,7.138396613E-3,1.524073839E0
1.964855688E0,-5.163905621E-1,-2.780309506E-2,1.688780546E0
1.986847875E0,-1.609053969E0,-1.224173903E0,1.817498565E0
2.006847875E0,-2.009449959E0,-1.376384139E0,1.900070190E0
2.026847875E0,-1.826940894E0,2.035402954E-1,1.621585369E0
2.048847875E0,-9.207135439E-1,8.130441904E-1,1.849019289E0
2.070847875E0,5.167396069E-1,1.879632354E0,2.509504318E0
2.092847875E0,6.930702329E-1,2.485924721E0,3.863111734E0
2.114854125E0,-1.971873045E-1,-2.121726990E0,2.870246410E0
2.136846313E0,-1.705081940E0,-1.971872926E0,9.748885632E-1
2.156847875E0,-2.537010670E0,-2.678260088E0,3.933099508E-1
2.178847875E0,-1.526604533E0,-5.114442825E0,1.270023704E0
2.200847875E0,6.778160930E-1,-4.510768414E0,1.531700969E0
2.220847875E0,2.790484667E0,-5.625126362E0,1.951662064E0
2.242847875E0,5.167012215E0,-9.359519958E0,3.541273117E0
2.264847875E0,6.989223480E0,-1.003314781E1,6.313938141E0
2.284861938E0,7.235890865E0,-8.882207870E0,8.435194016E0
2.306847875E0,7.452782631E0,-1.234371853E1,9.305973053E0
2.326847875E0,1.000021267E1,-1.187408543E1,1.026798153E1
2.346847875E0,1.158772945E1,-8.310577393E0,9.733805656E0
2.366847875E0,1.025862598E1,-6.269868374E0,8.074957848E0
2.386847875E0,7.480690479E0,-2.178886414E0,6.978472233E0
2.406852563E0,5.802538872E0,2.118131518E-1,6.697247028E0
2.428847875E0,6.195726871E0,-7.717846036E-1,4.452247620E0
2.448847875E0,5.174429893E0,-1.133486629E0,3.508705139E0
2.468847875E0,4.669628620E0,-2.220914125E0,3.478406191E0
2.488847875E0,4.230136871E0,-2.442012310E0,3.656010866E0
2.508847875E0,3.702454090E0,-2.679499388E0,3.320209742E0
2.528847875E0,2.319978952E0,-2.454840422E0,2.420422554E0
2.550846313E0,7.884001136E-1,-1.724175811E0,1.808056355E0
2.570847875E0,1.591216624E-1,-1.386507034E0,1.751350641E0
2.592847875E0,-2.748893574E-2,-1.287267566E0,1.905323625E0
2.614855688E0,-2.049714625E-1,-8.811818361E-1,2.361797094E0
2.636846313E0,-2.073800266E-1,-4.246560633E-1,3.060504675E0
2.656847875E0,1.494001877E-2,-8.344070315E-1,3.373983145E0
2.678847875E0,-2.122320421E-2,-1.642686486E0,3.138084412E0
2.700847875E0,-1.684417278E-1,-1.773952603E0,2.280621767E0
2.720847875E0,-2.259852290E-1,-7.712784410E-1,1.206528664E0
2.742846313E0,8.717919886E-2,4.935092926E-1,-6.860016584E-1
2.762846313E0,-3.281218931E-2,1.173088193E0,-2.893075228E0
2.782846313E0,-5.700420141E-1,1.554111004E0,-4.426434040E0
2.802847875E0,-6.355616450E-1,1.110587955E0,-5.147115707E0
2.824847875E0,2.497566119E-2,4.759163857E-1,-5.008850574E0
2.844847875E0,7.792022228E-1,3.324852139E-2,-4.705599785E0
2.864847875E0,7.202275395E-1,-8.931722641E-1,-5.096448898E0
2.884847875E0,-7.824834585E-1,-1.745992422E0,-6.269938469E0
2.904847875E0,-2.598062277E0,-1.269063830E0,-6.784025192E0
2.924851000E0,-3.925961018E0,-3.983364999E-1,-7.380892754E0
2.946847875E0,-3.369131327E0,2.557081878E-1,-6.196390152E0
2.968847875E0,-2.110172987E0,4.867897928E-1,-5.005185604E0
2.990846313E0,-3.681649923E0,-3.765024245E-1,-6.180053711E0
3.010847875E0,-3.507553339E0,2.499835044E-1,-6.563170910E0
3.032847875E0,-3.673708677E0,2.101306677E0,-4.389293671E0
3.054847875E0,-4.487625599E0,1.844341755E0,-7.570191026E-1
3.074852563E0,-4.805153370E0,3.569198251E-1,1.379857302E0
3.094858813E0,-2.034111500E0,-1.694365591E-1,1.855826020E0
3.116847875E0,3.650181592E-1,-1.703476310E0,1.819401026E0
3.138866625E0,1.620555639E0,-2.936446667E0,1.662181735E0
3.160846313E0,2.375812054E0,-4.408789158E0,1.174449444E0
3.180846313E0,2.612112045E0,-4.631353378E0,9.144129157E-1
3.200847875E0,2.595304489E0,-4.233697414E0,9.646260142E-1
3.222846313E0,2.400804996E0,-3.662538528E0,1.897172928E0
3.242847875E0,2.044967413E0,-2.523885727E0,3.332165241E0
3.264847875E0,1.481191158E0,-1.540253043E0,4.787246227E0
3.284854125E0,8.543561101E-1,-7.595323920E-1,5.257001400E0
3.304854125E0,2.745053768E-1,-4.396484494E-1,5.290564060E0
3.326846313E0,-7.556228638E-1,-1.052468419E0,3.368817091E0
3.346847875E0,-1.496008992E0,-9.321280122E-1,3.132586718E0
3.366851000E0,-1.438570142E0,1.150765419E0,3.961670399E0
3.388847875E0,-1.305139780E0,1.941259861E0,5.518294811E0
3.408847875E0,-1.386768818E0,2.401922226E0,4.970976830E0
3.428847875E0,-5.992587805E-1,2.653493881E0,4.658981800E0
3.450846313E0,4.949055612E-1,2.607259989E0,5.046968460E0
3.470846313E0,1.048628688E0,2.333173513E0,5.221641064E0
3.490847875E0,1.275504112E0,1.521054387E0,5.029515266E0
3.512847875E0,1.333920240E0,5.716825724E-1,4.107248306E0
3.532847875E0,1.403785825E0,5.942322612E-1,2.459046841E0
3.554854125E0,1.424118876E0,2.765421867E0,-8.915141821E-1
3.576847875E0,8.173376918E-1,2.892848253E0,-1.508924365E0
3.596847875E0,9.826203436E-2,2.936830521E0,-5.146277547E-1
3.616851000E0,-1.097637564E-1,3.760119915E0,-1.170766875E-1
3.638866625E0,-2.501231432E-1,3.460272312E0,1.485973299E-1
3.660846313E0,-4.411668777E-1,3.241477728E0,3.548254371E-1
3.680846313E0,-6.409547329E-1,4.005391121E0,4.653920531E-1
3.700847875E0,-9.394758344E-1,4.523003101E0,3.241076469E-1
3.720847875E0,-1.228729248E0,4.380462170E0,-1.844114810E-1
3.742847875E0,-1.472080469E0,2.420492411E0,-7.713657022E-1
3.764847875E0,-1.182478070E0,-1.088038236E-1,-8.764519691E-1
3.784857250E0,-6.829124093E-1,-1.703982353E0,-7.522194386E-1
3.804860375E0,-1.259604096E-1,-2.400368690E0,-9.685704708E-1
3.826846313E0,2.189690024E-1,-2.286573410E0,-1.332122564E0
3.846846313E0,9.567545652E-1,-2.287149191E0,-1.462865114E0
3.866847875E0,1.506411076E0,-2.222537279E0,-1.100063562E0
3.886847875E0,1.129315257E0,-1.537355781E0,-4.956386089E-1
3.906849438E0,4.892157763E-2,1.115439907E-1,-1.748296320E-1
3.928846313E0,-6.518281102E-1,1.603468895E0,-3.038792610E-1
3.948846313E0,-5.026548505E-1,1.910088301E0,-2.668957412E-1
3.968846313E0,-1.530828327E-1,2.124955893E0,-1.117185280E-1
3.988846313E0,1.822123677E-2,2.403004169E0,2.523746155E-2
4.008847875E0,-4.963716492E-2,2.525526285E0,1.972745657E-1
4.028847875E0,-2.877873480E-1,2.183110237E0,2.235766798E-1
4.048847875E0,-5.124635696E-1,1.613975763E0,-5.478413701E-1
4.070847875E0,-7.513293624E-1,1.447349191E0,-9.827250838E-1
4.092847875E0,-8.302705884E-1,1.489987612E0,-5.991715193E-1
4.114847875E0,-4.632278383E-1,1.676790118E0,1.741838641E-2
4.136846313E0,-2.309070528E-2,1.881080985E0,6.412514448E-1
4.156847875E0,2.907020450E-1,2.571288824E0,9.640500546E-1
4.178847875E0,4.449367821E-1,3.185801744E0,1.038540721E0
4.200847875E0,5.969025940E-2,3.469644785E0,1.194573164E0
4.220847875E0,-7.020238042E-1,2.846195698E0,1.213579774E0
4.242847875E0,-1.092558622E0,1.865826726E0,9.653416276E-1
4.264847875E0,-5.992413163E-1,7.387280464E-1,2.749766111E-1
4.286847875E0,-1.099731922E-1,-9.670345783E-1,1.532399096E-2
4.306847875E0,-2.522000670E-1,-1.627746463E0,-2.591639459E-1
4.326847875E0,-7.638258934E-1,-1.893560052E0,-4.711167216E-1
4.346847875E0,-6.782523990E-1,-9.276599288E-1,1.336573064E-1
4.366847875E0,-9.217956662E-1,-2.169444263E-1,8.508828878E-1
4.386847875E0,-1.530479193E-1,2.385934830E0,3.529753983E-1
4.406847875E0,5.347514153E-1,3.110054493E0,7.691491246E-1
4.426847875E0,7.710864544E-1,3.636498213E0,1.072626948E0
4.446847875E0,1.213056207E0,4.088957310E0,1.175199986E0
4.466847875E0,1.318090081E0,3.649972200E0,1.150625706E0
4.486847875E0,1.212166071E0,2.858360529E0,9.619731307E-1
4.506849438E0,7.622376680E-1,2.057341814E0,7.611380816E-1
4.528847875E0,-9.103637189E-2,1.818615675E0,4.813792706E-1
4.550846313E0,-7.299315929E-1,1.749640226E0,1.728399545E-1
4.570847875E0,-9.229999185E-1,1.576974750E0,7.606144994E-2
4.592847875E0,-7.635291815E-1,1.334740520E0,1.116138026E-1
4.614847875E0,-7.351501584E-1,1.025398374E0,1.693841964E-1
4.634847875E0,-6.519677639E-1,8.660672903E-1,1.633104533E-1
4.654847875E0,-4.844859540E-1,6.463652253E-1,2.167349905E-1
4.674847875E0,-4.859345555E-1,3.958581388E-1,3.017848730E-1
4.694847875E0,-7.386407852E-1,1.033234894E-1,4.256334305E-1
4.714847875E0,-1.018137813E0,-3.370230645E-2,4.710643589E-1
4.734847875E0,-1.120990038E0,-3.567453101E-2,4.358785152E-1
4.754847875E0,-9.049357772E-1,9.656906873E-2,3.427128494E-1
4.774855688E0,-5.644744039E-1,2.083399594E-1,1.459444314E-1
4.796847875E0,-6.660176069E-2,-4.956734926E-2,-1.099557430E-2
4.816847875E0,6.276029348E-1,-2.118655145E-1,-1.636944264E-1
4.836847875E0,9.156171679E-1,1.469741762E-1,-1.345474273E-1
4.856847875E0,1.203456879E0,9.706125259E-1,-2.967059845E-4
4.876847875E0,1.430803418E0,1.825178027E0,6.319837272E-2
4.898846313E0,1.641063333E0,2.158640623E0,1.293987036E-1
4.918846313E0,1.546693325E0,1.964891672E0,1.098510250E-1
4.938866625E0,1.347778201E0,1.464366198E0,-8.440412581E-2
4.960846313E0,9.064890742E-1,4.958131313E-1,-1.623854339E-1
4.980846313E0,1.467472762E-1,4.952022731E-1,-2.000845522E-1
5.000846313E0,-3.800803423E-1,9.469109178E-1,-1.240929067E-1
5.020846313E0,-2.855707705E-1,1.216930866E0,-2.377138473E-2
5.040846313E0,8.342673630E-2,1.367500424E0,7.497934252E-2
5.060846313E0,3.229382634E-1,1.145843506E0,9.131562710E-2
5.080846313E0,5.134060383E-1,8.981813192E-1,-8.553858846E-2
5.100846313E0,5.045921206E-1,5.667433143E-1,-2.908242047E-1
5.120846313E0,2.814168930E-1,2.367888242E-1,-4.646066427E-1
5.140847875E0,5.958554149E-2,5.864306353E-3,-5.773199797E-1
5.162847875E0,-4.190535471E-2,1.999623775E-1,-4.261744916E-1
5.184847875E0,5.191133022E-1,7.746469378E-1,-6.723008305E-2
5.204854125E0,1.046883345E0,1.043916345E0,3.578972220E-1
5.226847875E0,7.868118882E-1,1.161185026E0,8.602727652E-1
5.246847875E0,2.460739762E-1,1.309485674E0,9.966004491E-1
5.266847875E0,1.565560400E-1,7.915068269E-1,7.544010878E-1
5.286847875E0,2.169269770E-1,-2.389006615E-1,5.553463101E-1
5.306847875E0,6.756169349E-2,-1.248032570E0,2.504547536E-1
5.328847875E0,-3.851592541E-1,-1.884519219E0,-2.349736691E-1
5.350846313E0,-5.415756702E-1,-1.660523653E0,-4.094193280E-1
5.370846313E0,-2.105739713E-1,-1.193124533E0,-3.024480939E-1
5.390846313E0,1.090481728E-1,-7.784342766E-1,5.407030135E-2
5.410846313E0,-1.317374557E-1,-6.688450575E-1,1.702219546E-1
5.430847875E0,-4.732285738E-1,-1.060811132E-1,-1.593136489E-1
5.452846313E0,-6.741857529E-1,6.799278855E-1,-3.581590056E-1
5.472846313E0,-4.109028578E-1,1.104095340E0,-3.287502229E-1
5.492846313E0,1.289798319E-2,1.049553752E0,-1.574461460E-1
5.512847875E0,2.058441341E-1,8.958949447E-1,-2.356194425E-3
5.534858813E0,-3.652974218E-2,8.779180646E-1,1.467647403E-1
5.556846313E0,-4.922526479E-1,9.425650835E-1,3.629935682E-1
5.576847875E0,-6.758438349E-1,1.040059209E0,4.386535883E-1
5.596847875E0,-6.235886812E-1,1.061561584E0,4.407305419E-1
5.616847875E0,-4.649557173E-1,8.369377255E-1,3.942873180E-1
5.636847875E0,-2.080083340E-1,5.676508546E-1,2.955715060E-1
5.656847875E0,6.412339956E-2,3.226939142E-1,2.355147302E-1
5.678847875E0,2.463008612E-1,9.152506292E-2,2.415361106E-1
5.700847875E0,2.222153246E-1,2.586578019E-2,2.911383808E-1
5.720847875E0,1.197295822E-2,8.983209729E-2,3.327470124E-1
5.742847875E0,-3.103893399E-1,3.164282069E-2,3.620510995E-1
5.764851000E0,-6.029414535E-1,-1.356469840E-1,3.667984009E-1
5.786847875E0,-6.492973566E-1,-1.978156120E-1,4.142364562E-1
5.806847875E0,-5.082747936E-1,-1.532748193E-1,4.753055274E-1
5.826847875E0,-2.491981089E-1,3.944443911E-2,5.179613829E-1
5.848846313E0,-5.923647434E-2,1.306378990E-1,5.547180176E-1
5.868846313E0,1.503077596E-1,-3.895051181E-1,7.361798882E-1
5.888847875E0,2.240828276E-1,-4.792324901E-1,7.055842280E-1
5.908847875E0,8.025024086E-2,-2.749068141E-1,3.918438554E-1
5.930846313E0,-8.325220644E-2,-8.419468254E-2,2.203303576E-1
5.950846313E0,-9.442231059E-2,5.923647434E-2,-2.335250564E-2
5.970846313E0,2.257757932E-1,3.641629517E-1,-4.730540514E-1
5.990847875E0,3.161838353E-1,5.307546258E-2,-6.133959889E-1
6.010847875E0,3.234618604E-1,-1.559975296E-1,-6.339908242E-1
6.032846313E0,4.277103841E-1,2.586752474E-1,-4.179190993E-1
6.052846313E0,3.422067165E-1,8.149116635E-1,-1.674294323E-1
6.072846313E0,2.588497698E-1,1.407555699E0,-7.684684545E-2
6.092847875E0,3.051882684E-1,1.661361456E0,-4.537856206E-2
6.114847875E0,3.725405335E-1,1.599768758E0,7.086036727E-3
6.134847875E0,4.488812387E-1,1.034142494E0,6.234316155E-2
6.154847875E0,4.120024145E-1,4.767541289E-1,3.345796093E-2
6.176846313E0,2.078687102E-1,1.087165624E-1,-1.663124263E-1
6.196851000E0,1.274090377E-3,-1.556659192E-1,-2.389530241E-1
6.218847875E0,-9.831439704E-2,-2.663896084E-1,-2.211157680E-1
6.238866625E0,-1.197819486E-1,-3.331659138E-1,-2.308547050E-1
6.260846313E0,-1.926843524E-1,-4.014082849E-1,-1.798038185E-1
6.280847875E0,-2.392671853E-1,-4.169766009E-1,-1.515469402E-1
6.302847875E0,-1.413367689E-1,-4.571366310E-1,-1.322959512E-1
6.324854125E0,-6.340780854E-2,-4.303981960E-1,-1.049990058E-1
6.346846313E0,5.708971992E-2,-2.144835144E-1,-1.884781122E-1
6.366847875E0,3.203028142E-1,3.190461919E-2,-1.456128210E-1
6.388847875E0,7.538600564E-1,4.671024680E-1,6.963863503E-3
6.408847875E0,9.685530066E-1,1.225570202E0,2.469989955E-1
6.430846313E0,1.360745907E0,1.020476580E0,5.887169838E-1
6.450846313E0,7.724128962E-1,8.346164227E-1,4.438372329E-2
6.470846313E0,-6.309714317E-1,3.125884533E-1,-3.693814874E-1
6.490847875E0,-1.715100169E0,6.278821826E-1,-5.968328118E-1
6.510847875E0,-1.972710729E0,5.151688457E-1,-5.449965000E-1
6.532846313E0,-8.847771883E-1,-6.536257863E-1,-3.593807518E-1
6.552846313E0,-2.567728460E-1,-9.384635091E-1,-1.577428579E-1
6.572846313E0,-1.379333735E-1,-5.165650845E-1,3.061307408E-2
6.592847875E0,-2.195624262E-2,-3.741113245E-1,8.185594529E-2
6.614847875E0,-1.666789502E-2,-6.344271898E-1,6.496115774E-2
6.634854125E0,-8.765043318E-2,-9.716597199E-1,3.455751808E-3
6.656847875E0,-9.595820308E-2,-1.233616114E0,-6.544984877E-2
6.678847875E0,-6.646213681E-2,-1.396961570E0,-1.054876968E-1
6.700847875E0,-4.084070213E-3,-1.546222091E0,-1.735206395E-1
6.720847875E0,7.103490178E-3,-1.692620277E0,-2.390751988E-1
6.742847875E0,-1.556310058E-1,-1.669477224E0,-1.513898522E-1
6.764851000E0,-4.600687921E-1,-1.363904953E0,8.012806624E-2
6.786847875E0,-6.198886037E-1,-9.288293123E-1,3.030764163E-1
6.806847875E0,-6.156648993E-1,-6.002885699E-1,5.549448729E-1
6.828847875E0,-4.437325001E-1,-2.641730309E-1,6.131865382E-1
6.848847875E0,-2.279225439E-1,-1.996656694E-2,3.913028240E-1
6.870846313E0,-1.776570678E-1,1.976759881E-1,2.471037209E-1
6.890846313E0,-1.661378890E-1,-5.886995420E-2,4.250051379E-1
6.910846313E0,3.839724511E-2,-4.762479961E-1,4.738917947E-1
6.930846313E0,2.553591132E-1,-6.166073680E-1,2.011142820E-1
6.950846313E0,3.938510120E-1,-3.075968325E-1,1.275835652E-2
6.970846313E0,3.794694841E-1,1.042485163E-1,1.946042106E-2
6.990847875E0,2.340660989E-1,5.751208663E-1,3.117158078E-2
7.012846313E0,3.381575346E-1,6.879564524E-1,-3.674441576E-1
7.032847875E0,5.115734339E-1,3.213500082E-1,-7.779805064E-1
7.054847875E0,5.017297864E-1,1.548979729E-1,-7.589215040E-1
7.074847875E0,4.615348577E-1,4.376762211E-1,-4.734729230E-1
7.094847875E0,4.749913514E-1,7.477514148E-1,-3.612133265E-1
7.114847875E0,5.316272974E-1,8.033925295E-1,-3.223797679E-1
7.134847875E0,4.258777797E-1,7.694109678E-1,-2.693566680E-1
7.154858813E0,2.472607940E-1,7.967602611E-1,-2.726553380E-1
7.176847875E0,1.257509738E-1,6.757915020E-1,-3.039490879E-1
7.196847875E0,5.368632823E-2,5.487140417E-1,-3.169867098E-1
7.216847875E0,-4.038691893E-2,3.350159526E-1,-2.863387167E-1
7.236847875E0,-1.214051023E-1,1.108284108E-2,-2.466150224E-1
7.258846313E0,-1.871691048E-1,-2.831971347E-1,-1.365720183E-1
7.278846313E0,-1.246514171E-1,-4.665265083E-1,-6.126105785E-3
7.298846313E0,-3.385938704E-2,-5.801474452E-1,1.248434037E-1
7.318847875E0,1.097812131E-2,-6.064320803E-1,1.639038622E-1
7.338866625E0,7.464773208E-2,-5.482079387E-1,7.566002011E-2
7.360846313E0,1.830675900E-1,-4.232772589E-1,-6.206390634E-2
7.380846313E0,2.180614322E-1,-4.857774973E-1,-2.414662987E-1
7.400846313E0,2.752035260E-1,-7.636164427E-1,-3.881612122E-1
7.420847875E0,1.651954204E-1,-1.604271770E0,-6.598217487E-1
7.442847875E0,1.441816539E-1,-1.501454353E0,-8.521395326E-1
7.464846313E0,-8.536405116E-2,-8.393986225E-1,-5.112941861E-1
7.484854125E0,-8.805709481E-1,1.382475346E-1,-3.158696890E-1
7.506847875E0,-1.010406017E0,7.974060178E-1,-4.477642179E-1
7.528847875E0,-5.163033009E-1,1.171430111E0,-6.333625317E-1
7.548847875E0,-1.441816539E-1,6.209532619E-1,-4.269249737E-1
7.570846313E0,2.234021435E-3,1.504997462E-1,-9.972811490E-2
7.590846313E0,-1.517738253E-1,-3.205646276E-1,1.219985113E-1
7.610846313E0,-2.462484986E-1,-8.032179475E-1,1.085420251E-1
7.630847875E0,-2.286381274E-1,-9.627061486E-1,-1.930334233E-2
7.652846313E0,-1.663996875E-1,-1.167625308E0,-6.136577576E-2
7.672846313E0,-9.550441802E-2,-1.076257229E0,-2.239257470E-2
7.692846313E0,-4.773475602E-2,-9.733526707E-1,1.108458638E-1
7.712846313E0,-7.588691264E-2,-7.525859475E-1,1.378286481E-1
7.732847875E0,-1.002866179E-1,-6.362248659E-1,8.045967668E-2
7.754847875E0,-1.619490981E-1,-6.125756502E-1,5.635667965E-2
7.774847875E0,-1.730668545E-1,-5.940228105E-1,1.162040234E-1
7.794847875E0,-1.588947773E-1,-1.800307184E-1,2.115862668E-1
7.816846313E0,-1.969953179E-1,1.602561325E-1,4.066966176E-1
7.836847875E0,-2.161241174E-1,2.131046951E-1,6.045820713E-1
7.856847875E0,-2.766346931E-1,2.966710627E-1,6.681643724E-1
7.876847875E0,-2.299994826E-1,4.243244529E-1,5.502848625E-1
7.898847875E0,-5.448918045E-2,3.035127521E-1,4.523544312E-1
7.920847875E0,-6.365215778E-2,-5.412266031E-2,4.365940988E-1
7.942847875E0,-1.506219208E-1,-2.352180183E-1,4.576951265E-1
7.962847875E0,-1.262920201E-1,-1.874658167E-1,3.638487756E-1
7.984847875E0,1.498539746E-1,-6.997025013E-2,1.326973885E-1
8.004849438E0,4.131194353E-1,2.408554405E-1,1.848478168E-1
8.026846313E0,4.214271903E-1,7.304377556E-1,1.614429504E-1
8.046847875E0,5.662022829E-1,7.134382129E-1,6.263986975E-2
8.068846313E0,7.137873173E-1,7.834957242E-1,-1.487893164E-1
8.088846313E0,7.695330977E-1,6.263637543E-1,-2.557256520E-1
8.108847875E0,5.855928659E-1,4.547804296E-1,-1.254891753E-1
8.130847875E0,1.574810594E-1,5.346118212E-1,5.386086181E-2
8.152846313E0,-1.977458037E-2,6.609212756E-1,1.832595766E-1
8.172847875E0,7.620107383E-2,6.834011078E-1,1.440245658E-1
8.194847875E0,2.073451132E-2,3.239854574E-1,-2.434734255E-2
8.216847875E0,-1.822472811E-1,1.376541108E-1,-1.576206833E-1
8.236847875E0,-3.056944311E-1,-1.848303713E-2,-2.785196304E-1
8.258847875E0,-4.725827873E-1,-3.785270154E-1,-3.629412055E-1
8.280847875E0,-5.504593849E-1,-7.268772721E-1,-3.739193380E-1
8.302847875E0,-4.732809365E-1,-7.570365667E-1,-3.298672140E-1
8.324847875E0,-2.941228747E-1,-5.204920769E-1,-1.372526884E-1
8.344847875E0,-1.935570128E-2,-1.097462997E-1,2.129650712E-1
8.364854125E0,-1.825614460E-2,2.959031165E-1,4.306774437E-1
8.386847875E0,-1.590693146E-1,3.599567115E-1,2.426880300E-1
8.406847875E0,-4.138175771E-2,4.632627368E-1,7.871434838E-2
8.426847875E0,1.811302751E-1,4.557229280E-1,6.045820564E-2
8.446847875E0,5.406506658E-1,2.643650174E-1,-5.253441166E-3
8.466847875E0,8.370075226E-1,-1.398183256E-1,-4.567526653E-2
8.488846313E0,1.071091056E0,-8.582656384E-1,-1.871691048E-1
8.508847875E0,9.134005904E-1,-2.671889544E0,-7.997447848E-1
8.528847875E0,-1.343729049E-1,-3.032806158E0,-1.195864677E0
8.548847875E0,-9.788330197E-1,-1.530863166E0,-1.117447019E0
8.570851000E0,-1.075559139E0,-1.456826329E-1,-6.534861922E-1
8.592847875E0,-1.061229944E0,1.635024428E0,-1.893682182E-1
8.614849438E0,-7.265282273E-1,3.274551868E0,-2.172760367E-1
8.634854125E0,-1.424014121E-1,2.873457670E0,1.057669520E-1
8.656847875E0,2.658136487E-1,1.474593759E0,3.639011383E-1
8.678847875E0,-2.701769769E-1,2.412917614E-1,3.412991464E-1
8.700847875E0,-6.741857529E-1,-3.721390963E-1,2.544864714E-1
8.720847875E0,-5.780355930E-1,-7.131764293E-1,2.292490005E-1
8.742846313E0,-4.006577730E-1,-6.817430854E-1,1.752834171E-1
8.762846313E0,-1.635373533E-1,-5.529202819E-1,1.193456128E-1
8.782846313E0,9.023352526E-3,-2.878571451E-1,1.133591309E-1
8.802847875E0,-2.672099136E-2,-2.678382397E-1,1.983915716E-1
8.824847875E0,-5.867796764E-2,-3.280346394E-1,1.930159628E-1
8.844860375E0,-5.489060655E-2,-4.062253833E-1,2.583785355E-1
8.866847875E0,1.365022063E-1,-1.496968865E-1,3.359584212E-1
8.888847875E0,2.544166446E-1,9.232792072E-3,5.525189042E-1
8.908847875E0,3.023084700E-1,1.680403054E-1,7.622376680E-1
8.930846313E0,4.251272976E-1,1.572018117E-1,9.497383833E-1
8.950846313E0,4.361926913E-1,-6.113888323E-2,9.763022661E-1
8.970846313E0,3.477917612E-1,2.933374941E-1,9.483072162E-1
8.990847875E0,2.752209604E-1,5.447870493E-1,8.662941456E-1
9.010847875E0,4.738045335E-1,7.164402008E-1,7.018143535E-1
9.032846313E0,8.277747631E-1,6.028541923E-1,5.555732250E-1
9.052846313E0,8.628907800E-1,6.170262694E-1,5.131965876E-1
9.072846313E0,7.867594957E-1,6.161535978E-1,2.901086211E-1
9.092847875E0,8.618261218E-1,6.301511526E-1,-5.443681777E-2
9.112847875E0,1.154221177E0,3.521027267E-1,-3.332182467E-1
9.132847875E0,1.250842571E0,2.897246480E-1,-3.348763287E-1
9.154847875E0,9.206611514E-1,7.547327280E-1,-1.685464382E-1
9.174847875E0,5.680522919E-1,1.091790676E0,-9.791296907E-3
9.194847875E0,1.371479779E-1,7.202101350E-1,9.433504939E-2
9.216847875E0,-2.359859645E-1,2.726204321E-2,-1.446877979E-2
9.236847875E0,-3.180164397E-1,-4.153010845E-1,-1.423141509E-1
9.258847875E0,-3.591364026E-1,-5.047143102E-1,-2.774026394E-1
9.280847875E0,-5.606521368E-1,-3.501653969E-1,-4.354247451E-1
9.302847875E0,-1.045207858E0,-4.484274387E-1,-3.944793046E-1
9.324847875E0,-1.694121242E0,-5.452582836E-1,-2.981022298E-1
9.344847875E0,-1.864657402E0,-8.405680060E-1,-3.100751936E-1
9.364855688E0,-1.649091840E0,-7.652221322E-1,-3.632379174E-1
9.386847875E0,-1.036725521E0,-6.742206961E-2,-4.008323252E-1
9.406847875E0,-1.993864179E-1,6.067462564E-1,-2.546086311E-1
9.428846313E0,7.317118049E-1,7.059682012E-1,5.567600206E-2
9.448846313E0,1.241557360E0,1.196859479E0,2.137330174E-1
9.468847875E0,1.759867787E0,1.171447515E0,8.234463632E-2
9.490847875E0,2.000409126E0,5.053426027E-1,1.659808122E-2
9.512847875E0,1.811599374E0,5.004731417E-1,4.138175771E-2
9.532847875E0,1.159265161E0,5.397605300E-1,-2.086541057E-1
9.554847875E0,1.139891982E0,-1.267772317E0,-4.796164632E-1
9.574847875E0,6.548649669E-1,-1.706356049E0,-5.388005972E-1
9.594854125E0,-8.431860209E-1,-1.283864141E0,-5.733581185E-1
9.616847875E0,-2.006936550E0,-7.506137490E-1,-8.160287142E-1
9.638866625E0,-1.385145664E0,-8.819847107E-1,-7.996575236E-1
9.660846313E0,-4.501378536E-1,-2.420248091E-1,-5.646489263E-1
9.680846313E0,-4.857251421E-2,1.572541595E-1,-2.942276001E-1
9.700847875E0,3.871140257E-2,1.782155633E-1,-2.468942702E-1
9.720847875E0,-5.504768342E-2,-1.848303713E-2,-2.629862130E-1
9.742847875E0,-1.399055868E-1,-1.978330761E-1,-2.583611012E-1
9.764847875E0,-4.630358517E-2,-3.521725237E-1,-2.569648325E-1
9.784847875E0,1.285085976E-1,-3.857701123E-1,-2.313608378E-1
9.804855688E0,3.004060686E-1,-4.931078851E-1,-2.035926580E-1
9.826847875E0,4.250749350E-1,-6.419146657E-1,-1.476548612E-1
9.846847875E0,4.319864511E-1,-5.892929435E-1,-9.110618383E-2
9.866847875E0,3.252072036E-1,-6.104289293E-1,9.276425093E-2
9.886847875E0,1.952150762E-1,-4.171685874E-1,2.834240198E-1
9.906847875E0,-3.857177496E-2,-2.830400467E-1,4.704186022E-1
9.926847875E0,-1.443910897E-1,-3.996454775E-1,5.953143239E-1
9.946847875E0,-1.255240738E-1,-2.817310393E-1,5.559571981E-1
9.966847875E0,-7.876671106E-2,-2.369808108E-1,4.339237511E-1
9.988847875E0,-1.144586951E-1,-4.519355595E-1,3.767293096E-1
1.000884788E1,-1.586504281E-1,-3.715631366E-1,2.665117681E-1
1.003084631E1,9.850638360E-2,-4.076565504E-1,1.313360184E-1
1.005084631E1,2.456201911E-1,-3.481931984E-1,5.300565064E-2
1.007084788E1,3.561518788E-1,-2.584483624E-1,1.350012124E-1
1.009284788E1,3.376514018E-1,-1.627694070E-1,2.965663373E-1
1.011484788E1,5.405284837E-2,-1.758244634E-1,-9.450957924E-2
1.013484788E1,3.354173601E-1,-3.554362953E-1,-6.772924662E-1
1.015484788E1,5.995729566E-1,-5.150466561E-1,-8.825606108E-1
1.017684788E1,6.170611382E-1,-1.641656756E-1,-6.073047519E-1
1.019884631E1,3.370579779E-1,3.758915663E-1,-1.632580906E-1
1.021884788E1,8.754571527E-2,5.264959931E-1,-1.132718660E-2
1.023886662E1,-4.756022245E-2,5.705481172E-1,1.172861271E-2
1.026084631E1,-2.019345947E-2,5.790304542E-1,-7.784168422E-2
1.028084788E1,-1.808161102E-2,6.607118249E-1,-1.748645306E-1
1.030284788E1,3.323106840E-2,3.761882782E-1,-1.670629084E-1
1.032284788E1,-1.211258490E-2,3.009122014E-1,-1.435533315E-1
1.034484788E1,-1.555611938E-1,1.923876405E-1,-1.147553995E-1
1.036684788E1,-1.389631182E-1,1.315978263E-2,-1.178097259E-2
1.038684788E1,-7.297221571E-2,-2.925520837E-1,7.812093943E-2
1.040684788E1,5.710717291E-2,-3.818605840E-1,1.465378404E-1
1.042884631E1,2.934247553E-1,-6.151412725E-1,1.981995851E-1
1.044884788E1,3.753330410E-1,-9.066112638E-1,1.689304113E-1
1.046884788E1,2.437526882E-1,-1.158200502E0,1.891936921E-2
1.049084788E1,-4.719370231E-2,-1.309276223E0,-2.135933936E-1
1.051284631E1,-3.057467639E-1,-1.200280428E0,-4.439419508E-1
1.053284788E1,-6.291911751E-2,-6.643246412E-1,-4.564385116E-1
1.055484788E1,-2.631083727E-1,4.527384043E-1,-5.287824273E-1
1.057684788E1,-4.331732690E-1,1.473755985E-1,-3.653846681E-1
1.059884631E1,-6.725975275E-1,2.031912357E-1,6.335545331E-3
1.061884788E1,-1.134900331E0,1.545471549E0,1.015781611E-2
1.063886662E1,-1.381637573E0,2.732312918E0,4.373795167E-2
1.066084631E1,-8.071449399E-1,1.710422635E0,-8.689994365E-2
1.068084631E1,-1.558753550E-1,5.773898363E-1,-2.712241560E-2
1.070084788E1,3.008947708E-2,-2.045700401E-1,1.871342063E-1
1.072084788E1,1.010022014E-1,-8.057836294E-1,3.777590692E-1
1.074284788E1,1.165007278E-1,-1.140398145E0,4.828976989E-1
1.076484788E1,-2.504547499E-2,-9.979268909E-1,5.437398553E-1
1.078484788E1,-1.442689151E-1,-6.872757673E-1,5.388355255E-1
1.080484788E1,-1.584933549E-1,-4.282165170E-1,4.754102230E-1
1.082484944E1,-1.014559865E-1,-4.268202782E-1,4.029616117E-1
1.084486038E1,-4.298745841E-2,-4.445702732E-1,3.525739610E-1
1.086684788E1,1.048942842E-2,-3.255562782E-1,3.149795830E-1
1.088684788E1,-5.532693584E-3,-1.638340503E-1,3.233048022E-1
1.090684788E1,2.094395168E-4,3.492403775E-2,4.212526679E-1
1.092884631E1,4.134684801E-2,2.538581491E-1,5.791700482E-1
1.094884631E1,-1.865756884E-2,6.836978197E-1,6.272538900E-1
1.096884788E1,-1.636071652E-1,1.115754128E0,5.206665993E-1
1.098884788E1,-3.390302062E-1,1.494490504E0,3.180513382E-1
1.100884788E1,-4.657410979E-1,1.411918998E0,9.100146592E-2
1.103084631E1,-1.246165112E-2,2.396860719E-1,1.488765888E-2
1.105084788E1,-3.057816811E-2,-2.595653534E-1,3.132167757E-1
1.107084788E1,-1.508313566E-1,2.695835531E-1,2.835636437E-1
1.109284788E1,-8.611454815E-2,5.362000465E-1,3.387160599E-1
1.111484788E1,1.485275198E-2,5.783497691E-1,2.891486883E-1
1.113484788E1,2.947860956E-1,3.647214472E-1,-2.530727303E-3
1.115484788E1,5.631653666E-1,-4.352851212E-2,-4.725304544E-1
1.117484788E1,6.108477712E-1,-2.290221006E-1,-5.604950190E-1
1.119484788E1,4.429820180E-1,-1.068141498E-2,-3.790680468E-1
1.121486506E1,2.016204298E-1,3.470761776E-1,-2.367888242E-1
1.123684788E1,1.336224079E-1,5.588020682E-1,-2.214124650E-1
1.125884788E1,1.988977194E-1,3.586302400E-1,-2.324254960E-1
1.128084788E1,2.292838991E-1,3.590142354E-2,-2.639985085E-1
1.130284788E1,2.294584364E-1,-2.980149686E-1,-3.201980889E-1
1.132284788E1,1.667487621E-1,-4.050385654E-1,-3.112969100E-1
1.134484788E1,8.286823332E-2,-3.337244093E-1,-2.921681106E-1
1.136485100E1,2.174680308E-2,-3.345970809E-1,-2.688854337E-1
1.138684788E1,-6.946410239E-2,-4.422315359E-1,-3.133563995E-1
1.140689006E1,-1.246688664E-1,-5.365840197E-1,-3.173357546E-1
1.142884788E1,-7.829546928E-2,-3.456101120E-1,-2.489013970E-1
1.145084631E1,1.350884791E-2,-9.234537184E-2,-1.366767287E-1
1.147084788E1,7.997098565E-2,-5.867796764E-2,-8.827875555E-2
1.149084788E1,1.474454105E-1,-2.063328177E-1,-1.017177850E-1
1.151284631E1,2.206968814E-1,-4.073598385E-1,-2.068738788E-1
1.153284788E1,2.430021912E-1,-6.015102863E-1,-3.847927451E-1
1.155284788E1,2.703689635E-1,-6.861063838E-1,-5.392718315E-1
1.157484631E1,1.817934960E-1,-2.093696892E-1,-7.300013900E-1
1.159484788E1,-1.210560352E-1,-1.027684808E0,-8.197811246E-1
1.161684631E1,-7.634768486E-1,-9.334893227E-1,-6.419495344E-1
1.163684631E1,-1.053515673E0,6.094515324E-1,-3.631681204E-1
1.165684788E1,-9.206437469E-1,1.497859001E0,-1.895776689E-1
1.167884788E1,-3.774623573E-1,1.310375690E0,-1.526290476E-1
1.170084631E1,-2.210459560E-1,1.100238085E0,3.122393973E-2
1.172084788E1,-2.294584364E-1,7.105933428E-1,1.103746220E-1
1.174284788E1,-1.063429117E-1,2.834414691E-2,1.381602585E-1
1.176485100E1,3.556980938E-2,-5.362873077E-1,2.154783458E-1
1.178485256E1,6.333799660E-2,-6.839421988E-1,2.635447085E-1
1.180485412E1,2.378883772E-2,-7.064045668E-1,2.570346296E-1
1.182684788E1,2.775073517E-3,-7.483971715E-1,1.679181308E-1
1.184884631E1,1.621410809E-2,-8.472002745E-1,3.094468825E-2
1.186884631E1,6.328564137E-2,-9.151459336E-1,-4.307472706E-2
1.188884788E1,6.663667411E-2,-8.597666621E-1,5.270894151E-3
1.190884788E1,-1.377064735E-2,-6.677803993E-1,1.655270308E-1
1.193084631E1,-1.502030343E-1,-3.375990391E-1,4.110948443E-1
1.195084631E1,-2.738246918E-1,-9.135053307E-2,6.096260548E-1
1.197084631E1,-3.484026194E-1,3.194825053E-1,6.787760258E-1
1.199084631E1,-4.327892959E-1,6.445151567E-1,6.011786461E-1
1.201084788E1,-4.142189920E-1,5.197765231E-1,5.465847850E-1
1.203084788E1,-3.426081240E-1,3.192730844E-1,5.915095210E-1
1.205284631E1,-3.774798214E-1,3.618416488E-1,6.853035092E-1
1.207284631E1,-3.388033211E-1,5.247507095E-1,7.203671932E-1
1.209284788E1,-1.326101124E-1,4.449367821E-1,6.429443955E-1
1.211484788E1,1.195725054E-1,5.108229518E-1,6.517583132E-1
1.213484788E1,2.553765774E-1,5.858721137E-1,5.460960865E-1
1.215484788E1,3.553664982E-1,3.706381321E-1,2.576629519E-1
1.217484788E1,3.858399391E-1,-1.461538672E-1,-1.565036774E-1
1.219485412E1,5.121145248E-1,-5.638460517E-1,-3.666413128E-1
1.221684788E1,4.998099506E-1,-5.089205503E-1,-2.673844397E-1
1.223684788E1,3.311238587E-1,-6.707300246E-2,-1.554041207E-1
1.225884788E1,2.373822331E-1,2.563539743E-1,-1.254891697E-2
1.228084788E1,2.912081778E-1,4.254240096E-1,-4.263839498E-2
1.230284788E1,3.844960332E-1,3.817384243E-1,-1.289100200E-1
1.232284788E1,3.891909719E-1,2.830575109E-1,-1.822123677E-1
1.234484788E1,1.959306598E-1,2.816961408E-1,-1.532399058E-1
1.236684788E1,-2.481858246E-2,2.665292323E-1,-1.448099613E-1
1.238884788E1,-5.513495207E-2,1.441118419E-1,-1.140223593E-1
1.240884788E1,-1.855284907E-2,-5.574581772E-2,-1.160469428E-1
1.243084788E1,2.979277074E-2,-3.129375279E-1,-4.363323096E-4
1.245284788E1,6.834709644E-2,-4.332256317E-1,1.855808645E-1
1.247485725E1,1.013163626E-1,-5.069308877E-1,2.880491316E-1
1.249684631E1,1.321737766E-1,-4.063999057E-1,3.460464180E-1
1.251684788E1,1.838355362E-1,-2.885901928E-1,3.207740486E-1
1.253886662E1,2.886425555E-1,-3.592585623E-1,2.178694457E-1
1.256084788E1,6.020862460E-1,-1.041333199E0,7.093018293E-2
1.258084788E1,9.660223126E-1,-8.103214502E-1,1.571145356E-1
1.260284788E1,5.838999152E-1,9.039059877E-1,-1.595405489E-1
1.262484788E1,4.839274287E-1,7.498807311E-1,-3.064274490E-1
1.264485100E1,-2.840697765E-1,8.628907800E-2,-5.470734239E-1
1.266684788E1,-1.464366198E0,2.246238738E-1,-6.712186933E-1
1.268884788E1,-1.837377906E0,9.828821421E-1,-8.666781187E-1
1.270884788E1,-1.159230232E0,9.343794584E-1,-6.970321536E-1
1.272884788E1,-4.697030187E-1,5.999394655E-1,-3.559424579E-1
1.274884788E1,-1.935919225E-1,6.498384476E-1,-5.527457595E-2
1.277084631E1,-7.318165898E-2,2.583785355E-1,1.057669520E-2
1.279084631E1,-6.370452046E-2,-4.053876102E-1,-1.565560326E-2
1.281084631E1,-7.646287233E-2,-8.328536749E-1,-1.656317525E-2
1.283084631E1,-3.618067503E-2,-9.601055980E-1,-1.589994878E-2
1.285084788E1,-7.958701812E-3,-1.062853098E0,1.240929123E-2
1.287284631E1,-1.282817032E-2,-1.118703723E0,1.483529899E-2
1.289284631E1,-6.028367206E-2,-1.101966023E0,-3.021164984E-2
1.291284631E1,-7.122688740E-2,-1.066448569E0,-7.204718888E-2
1.293284631E1,-7.271041721E-2,-9.719913006E-1,-3.947934881E-2
1.295284788E1,-7.244861871E-2,-8.497484326E-1,4.459316283E-2
1.297484788E1,-5.717698485E-2,-6.286152601E-1,1.460491568E-1
1.299484788E1,4.537856148E-4,-3.229557276E-1,2.704736590E-1
1.301684788E1,3.637266159E-2,-2.296853252E-2,3.284011483E-1
1.303886662E1,4.408701509E-2,3.168994188E-1,3.121172190E-1
1.306084788E1,2.460914291E-2,4.998448491E-1,2.856580317E-1
1.308284631E1,-3.181735054E-2,3.629761338E-1,2.888694406E-1
1.310284788E1,-1.416858286E-1,6.970845163E-2,3.656813800E-1
1.312484944E1,-1.422268748E-1,-1.072155759E-1,2.278352827E-1
1.314684788E1,1.809731871E-1,-3.154508173E-1,7.487462368E-3
1.316684788E1,4.653396904E-1,-3.911980987E-1,-1.057669520E-2
1.318884631E1,5.808629990E-1,-9.180431813E-2,-4.726351425E-2
1.320884788E1,6.982189417E-1,3.304082751E-1,-3.144908845E-1
1.323084631E1,6.595773697E-1,6.568720937E-1,-4.447447956E-1
1.325084631E1,5.858546495E-1,9.736668468E-1,-3.673394322E-1
1.327084631E1,4.102745354E-1,1.180610538E0,-2.283763289E-1
1.329084788E1,2.640159428E-1,1.214173198E0,-1.231504306E-1
1.331284788E1,1.777792424E-1,1.026148915E0,-2.666863054E-2
1.333484788E1,1.777268797E-1,7.664439082E-1,-6.918485463E-2
1.335484788E1,2.466324717E-1,5.982115865E-1,-7.737044245E-2
1.337686663E1,2.534567118E-1,4.360530674E-1,-4.419173673E-2
1.339884788E1,1.339889318E-1,3.036872745E-1,-5.028293654E-2
1.342084788E1,-1.722639985E-2,1.042659655E-1,-6.422811747E-2
1.344284631E1,-1.045277715E-1,-4.871213809E-2,-6.674139202E-2
1.346284788E1,-7.145377994E-2,-1.579173952E-1,-3.349286690E-2
1.348485256E1,1.951278187E-2,-3.872711062E-1,5.850343779E-2
1.350684788E1,8.274605870E-2,-5.685409904E-1,1.823869050E-1
1.352684788E1,1.332384348E-1,-6.296798587E-1,2.448696941E-1
1.354884788E1,1.775174439E-1,-6.020687819E-1,1.862615347E-1
1.357084788E1,2.878920734E-1,-6.787934303E-1,1.342681795E-1
1.359284788E1,3.472855985E-1,-8.222944140E-1,-4.056145251E-2
1.361485256E1,4.531398416E-1,-1.944488764E0,-2.197893113E-1
1.363684788E1,5.382246375E-1,-5.446997881E-1,-2.354100049E-1
1.365684788E1,4.842067063E-1,1.377326608E0,-1.927890629E-1
1.367884788E1,3.439171314E-1,1.057791710E0,-2.209237814E-1
1.370084631E1,-5.176821351E-1,5.737246275E-1,-4.917988777E-1
1.372084788E1,-1.331511736E0,1.032292485E0,-4.909087718E-1
1.374284631E1,-1.518453956E0,1.698013425E0,-5.893976688E-1
1.376284788E1,-9.583951831E-1,1.323238850E0,-3.785444498E-1
1.378284788E1,-3.277379274E-1,8.923344612E-1,-1.445830762E-1
1.380284788E1,-1.223301291E-1,6.679200530E-1,8.096582443E-2
1.382284788E1,-5.862560868E-2,2.783800066E-1,1.108807698E-1
1.384484788E1,-1.682497375E-2,-1.895602047E-1,7.627088577E-2
1.386484788E1,1.106538717E-2,-4.853062630E-1,6.937684119E-2
1.388486194E1,5.644394830E-2,-6.250373125E-1,8.738863468E-2
1.390684788E1,9.646435082E-2,-6.775891781E-1,1.005658731E-1
1.392884631E1,9.777334332E-2,-6.663143635E-1,1.462760419E-1
1.394884631E1,2.345722541E-2,-5.695358515E-1,1.559451669E-1
1.396884788E1,-3.890338913E-2,-5.474573970E-1,1.134289503E-1
1.398884788E1,-5.773549154E-2,-6.445675492E-1,1.156804189E-1
1.400884788E1,-3.003711626E-2,-5.591511130E-1,9.588839114E-2
1.403084631E1,-1.443387289E-2,-3.279124498E-1,1.963320822E-1
1.405084788E1,4.424409568E-2,-1.601514071E-1,3.046646714E-1
1.407084788E1,1.090656221E-1,3.344050795E-2,3.875852525E-1
1.409284788E1,8.503244072E-2,2.695835531E-1,4.103268981E-1
1.411484788E1,3.485422581E-2,2.073974758E-1,4.044102430E-1
1.413484788E1,7.801621687E-3,-3.155555204E-2,4.080405235E-1
1.415684788E1,-4.710643739E-2,4.494222626E-2,4.934743941E-1
1.417684788E1,-3.639011458E-2,2.263168395E-1,5.294281840E-1
1.419684788E1,1.030965969E-1,2.775247991E-1,4.759687483E-1
1.421684788E1,2.700896859E-1,2.397209704E-1,5.467941761E-1
1.423684788E1,2.626720369E-1,6.683040261E-1,4.430343807E-1
1.425884788E1,3.887721002E-1,7.880336046E-1,-4.206243530E-2
1.428084788E1,5.456073880E-1,4.237135947E-1,-5.015203357E-1
1.430284788E1,4.889190793E-1,4.244466126E-1,-5.588718653E-1
1.432284788E1,3.179291785E-1,6.631901860E-1,-4.007101357E-1
1.434484788E1,1.268854290E-1,1.094583273E0,-3.218387067E-2
1.436684788E1,5.024803057E-2,1.362857819E0,6.276203692E-2
1.438884788E1,6.410594285E-2,1.210682511E0,-4.935790971E-2
1.440884788E1,8.087855577E-2,8.442681432E-1,-1.337445825E-1
1.443084788E1,7.438593358E-2,4.710643589E-1,-2.018124163E-1
1.445284788E1,1.487020496E-2,3.164107502E-1,-2.736850679E-1
1.447484788E1,-6.949900836E-2,3.279473782E-1,-3.170390427E-1
1.449484788E1,-8.663814515E-2,3.469365537E-1,-2.731963992E-1
1.451484788E1,-5.445427075E-2,2.989923656E-1,-1.485798806E-1
1.453684631E1,-5.201081280E-3,2.242399007E-1,4.749041051E-2
1.455684631E1,4.003785178E-2,1.759291887E-1,2.255663574E-1
1.457684788E1,6.639232486E-2,1.949532777E-1,3.350334167E-1
1.459884631E1,9.169960022E-2,1.311265826E-1,3.408977091E-1
1.461884788E1,1.490336657E-1,1.408480667E-2,2.466324717E-1
1.463886662E1,2.397035211E-1,-1.616872996E-1,9.210102260E-2
1.466084631E1,3.024830222E-1,-6.511823535E-1,-8.977973461E-2
1.468084631E1,3.722961843E-1,-1.427417517E0,-1.909564734E-1
1.470084631E1,5.465149283E-1,-1.455377698E0,-2.304707319E-1
1.472084788E1,6.171135306E-1,8.651597053E-2,-2.405063659E-1
1.474284788E1,8.894197643E-2,-3.795043826E-1,-2.711194456E-1
1.476485100E1,-7.822914720E-1,-6.820746511E-2,-4.231899679E-1
1.478684631E1,-1.304843068E0,1.158968449E0,-4.653745890E-1
1.480684788E1,-1.267300963E0,1.858653426E0,-4.872086644E-1
1.482884788E1,-3.159569502E-1,5.089380145E-1,-1.635024399E-1
1.485084788E1,-2.502802201E-2,7.539822254E-3,-1.034107581E-1
1.487284631E1,-5.918411538E-2,-3.408453465E-1,-5.487314984E-2
1.489284631E1,-4.434881732E-2,-4.769461155E-1,-3.824016452E-2
1.491284631E1,-6.487388909E-2,-3.680375814E-1,4.572762642E-3
1.493284631E1,-4.302236438E-2,-2.085144818E-1,7.693411410E-2
1.495284788E1,2.926917188E-2,-7.939502597E-2,1.373050511E-1
1.497484788E1,6.339035928E-2,-5.286602303E-2,7.915068418E-2
1.499486350E1,5.530948564E-2,-1.969255060E-1,1.652826741E-2
1.501684631E1,4.134684801E-2,-3.691371381E-1,8.813912980E-3
1.503684631E1,2.078687213E-2,-4.206068814E-1,9.976302087E-2
1.505684631E1,-2.740166895E-2,-3.530800939E-1,2.252521962E-1
1.507684788E1,-5.305800959E-2,-1.399055868E-1,2.986258268E-1
1.509884631E1,-2.143264376E-2,2.432988957E-2,3.873060048E-1
1.511884788E1,6.618288159E-2,7.766715437E-2,4.486194253E-1
1.513886662E1,9.608037770E-2,2.188293785E-1,5.127079487E-1
1.516084631E1,4.558800161E-2,2.940356135E-1,5.174726844E-1
1.518084631E1,-2.460914198E-3,3.316125646E-2,4.316024780E-1
1.520084631E1,-1.287703961E-1,-3.184004128E-1,3.193778098E-1
1.522084788E1,-1.513375044E-1,-4.632627368E-1,3.030415177E-1
1.524284788E1,-3.864159063E-2,-3.696083724E-1,3.265685439E-1
1.526484788E1,8.698721230E-2,-2.416757345E-1,2.324953079E-1
1.528485100E1,2.220582366E-1,-6.445501000E-2,2.408030778E-1
1.530684788E1,3.219434321E-1,2.674542665E-1,1.556310058E-1
1.532684788E1,4.612905085E-1,4.087212086E-1,-3.059562109E-2
1.534684788E1,5.862037539E-1,5.045048594E-1,-2.127381861E-1
1.536684788E1,5.710542798E-1,8.711287379E-1,-2.328443676E-1
1.538884788E1,3.856130540E-1,1.217681289E0,-8.283332735E-2
1.540884788E1,1.107236892E-1,1.592892170E0,2.850122750E-1
1.543084631E1,1.743583940E-2,1.905410886E0,4.111995697E-1
1.545084631E1,2.799508162E-2,1.743688583E0,3.661875427E-1
1.547084788E1,7.358308136E-2,1.380555391E0,2.594606578E-1
1.549084788E1,4.356341809E-2,9.840340614E-1,1.989326328E-1
1.551284631E1,-6.131341681E-2,6.725800633E-1,1.544267386E-1
1.553284788E1,-1.580221057E-1,5.205793381E-1,8.016297221E-2
1.555284788E1,-1.770985574E-1,4.354421794E-1,7.204718888E-2
1.557485725E1,-1.844638437E-1,3.316823840E-1,1.231155246E-1
1.559684631E1,-1.659808159E-1,6.284930557E-2,1.948660165E-1
1.561684631E1,-1.075995490E-1,-1.241627261E-1,2.763030827E-1
1.563684631E1,-1.741838641E-2,-2.472957075E-1,3.137054741E-1
1.565684788E1,1.078788042E-1,-3.745825589E-1,3.314205706E-1
1.567884788E1,2.485348880E-1,-5.748940110E-1,2.725855112E-1
1.570084631E1,3.303908408E-1,-6.839945316E-1,1.241801754E-1
1.572084788E1,3.912678957E-1,-7.391992807E-1,-7.496189326E-2
1.574284788E1,7.180110216E-1,-1.508104086E0,-1.201310083E-1
1.576484788E1,8.061152101E-1,-5.524665117E-1,-1.159073189E-1
1.578484944E1,3.502003253E-1,4.874879122E-1,-3.756646812E-1
1.580485412E1,2.617993858E-3,-1.310201168E0,-3.943746090E-1
1.582684631E1,-1.142213225E0,-6.626316905E-1,-3.270747066E-1
1.584684631E1,-1.482343078E0,8.108974099E-1,-5.369679928E-1
1.586684788E1,-1.256357789E0,2.198556423E0,-6.833138466E-1
1.588884631E1,-6.534512639E-1,1.787426591E0,-2.957285941E-1
1.590884631E1,-2.205572575E-1,1.162965178E0,1.644274741E-1
1.592884631E1,-3.693989217E-1,8.746892214E-1,2.770186663E-1
1.594884631E1,-3.389429450E-1,1.646369100E-1,2.236813903E-1
1.596884631E1,-1.707804650E-1,-5.296899676E-1,1.199564785E-1
1.598884631E1,-5.468116701E-2,-8.256105185E-1,1.349314004E-1
1.600884631E1,1.537635084E-2,-8.802393675E-1,2.181487083E-1
1.602884631E1,6.983062625E-2,-7.900058031E-1,2.639112473E-1
1.604884631E1,5.899212882E-2,-6.718121171E-1,2.614503205E-1
1.606884631E1,2.366666496E-2,-5.221850276E-1,2.589195967E-1
1.608884631E1,-3.820525855E-2,-4.215842783E-1,2.248856723E-1
1.610884788E1,-1.040390730E-1,-3.516838551E-1,1.877101660E-1
1.613084788E1,-1.351583004E-1,-2.906671464E-1,2.201383710E-1
1.615284631E1,-1.090830788E-1,-1.446528882E-1,3.286803961E-1
1.617284631E1,-1.597674340E-1,7.375761122E-2,4.494571984E-1
1.619284631E1,-2.399129570E-1,2.766521275E-1,4.785343707E-1
1.621284631E1,-2.765823305E-1,4.063650072E-1,4.127529263E-1
1.623284631E1,-2.467895597E-1,3.570070863E-1,3.865031600E-1
1.625284631E1,-2.043256909E-1,2.953795195E-1,4.481132925E-1
1.627284631E1,-1.084547564E-1,3.243868947E-1,5.690122247E-1
1.629284631E1,-1.923352852E-2,3.515093029E-1,6.575702429E-1
1.631284631E1,1.317374557E-1,2.612583339E-1,5.215392709E-1
1.633284631E1,4.002389014E-1,2.057219595E-1,4.461585283E-1
1.635284631E1,5.203350186E-1,3.900461793E-1,3.875154555E-1
1.637284631E1,6.216164827E-1,2.981545925E-1,3.174753860E-2
1.639284631E1,7.378728390E-1,-3.463605940E-1,-5.121668577E-1
1.641284631E1,7.752578259E-1,-7.689571381E-1,-8.434303403E-1
1.643284631E1,7.582582831E-1,-7.539124489E-1,-8.078430891E-1
1.645284631E1,6.665063500E-1,-3.939906359E-1,-5.929232240E-1
1.647284631E1,4.607145488E-1,2.060884833E-1,-4.628962278E-1
1.649284631E1,2.530029416E-1,7.368431091E-1,-4.314104915E-1
1.651284788E1,7.632324845E-2,8.295375109E-1,-5.121843219E-1
1.653284788E1,-9.908234328E-2,6.373244524E-1,-5.986304879E-1
1.655484788E1,-2.434734255E-1,3.376165032E-1,-6.434156299E-1
1.657484788E1,-3.097784817E-1,2.103819847E-1,-6.011263132E-1
1.659484788E1,-2.956238687E-1,1.172163114E-1,-5.288522243E-1
1.661484944E1,-2.151641846E-1,4.007275775E-2,-4.192979038E-1
1.663684631E1,-1.991071552E-1,-4.218460619E-2,-2.033308595E-1
1.665684788E1,-2.878571451E-1,4.188789986E-3,3.658210114E-2
1.667684788E1,-3.463954926E-1,1.148775741E-1,1.930683255E-1
1.669684788E1,-2.647838891E-1,8.197811246E-2,3.046821356E-1
1.671684788E1,-1.090481728E-1,-3.216641769E-2,3.855955899E-1
1.673684788E1,4.452335089E-2,-1.788787991E-1,3.366914690E-1
1.675884788E1,1.786518991E-1,-2.878222466E-1,2.636145353E-1
1.678084788E1,2.576455176E-1,-3.577750325E-1,1.864535213E-1
1.680284631E1,3.935543001E-1,-5.653994083E-1,6.396631896E-2
1.682284788E1,5.492202044E-1,-2.534741759E-1,-2.773328125E-2
1.684484788E1,4.279023707E-1,5.607568622E-1,-1.128006279E-1
1.686684788E1,7.735124826E-1,3.720343709E-1,-1.537635084E-2
1.688684788E1,5.218359828E-1,-4.362624884E-1,-2.442239225E-1
1.690685256E1,-6.362248659E-1,-4.800527990E-1,-5.652248859E-1
1.692884631E1,-1.163977504E0,-3.709173799E-1,-7.643320560E-1
1.694884631E1,-8.599760532E-1,1.536762416E-1,-6.962816715E-1
1.696884788E1,-4.572413564E-1,5.283635259E-1,-4.546931684E-1
1.698884788E1,-2.001718134E-1,4.994608760E-1,-1.280198991E-1
1.700884788E1,-1.905899495E-2,6.412339956E-2,-1.453859266E-2
1.703084631E1,-1.495747175E-2,-3.371976018E-1,-1.010720134E-1
1.705084631E1,-7.590436935E-2,-5.638984442E-1,-1.831548512E-1
1.707084788E1,-7.089527696E-2,-6.475171447E-1,-2.054077983E-1
1.709284788E1,-2.665117756E-2,-7.173826694E-1,-1.626995951E-1
1.711484788E1,7.347836159E-3,-7.837401032E-1,-1.433089823E-1
1.713485412E1,3.696607426E-2,-8.902400732E-1,-1.401499361E-1
1.715684788E1,2.844886668E-2,-8.985478282E-1,-1.055924222E-1
1.717684788E1,-2.392846346E-2,-7.411540747E-1,-2.864085324E-2
1.719684788E1,-5.824163556E-2,-4.969650507E-1,1.039169058E-1
1.721684788E1,-4.050909355E-2,-3.650879860E-1,1.717403978E-1
1.723684788E1,-1.459095255E-2,-3.275284767E-1,2.584308982E-1
1.725884788E1,-1.394518092E-2,-2.598097026E-1,3.184178770E-1
1.728084788E1,-5.220279843E-2,-1.613906026E-1,3.009820282E-1
1.730284631E1,-1.174606606E-1,-2.210808545E-1,2.409427017E-1
1.732284788E1,-1.302190125E-1,-4.048814774E-1,1.560498923E-1
1.734484788E1,-7.162830979E-2,-4.693364799E-1,8.614945412E-2
1.736484944E1,-8.250171691E-2,-3.164107502E-1,7.087782025E-2
1.738684788E1,-1.119628698E-1,-2.459867001E-1,-5.445427075E-2
1.740684788E1,-5.712462589E-2,-2.391799241E-1,-7.840018719E-2
1.742884631E1,1.014036313E-1,-6.339035928E-2,-8.993681520E-2
1.744884631E1,2.550100684E-1,3.265685439E-1,-1.624726951E-1
1.746884788E1,3.051882684E-1,7.228280902E-1,-7.175048441E-2
1.748884788E1,2.311514020E-1,1.082086682E0,-1.240929123E-2
1.750884788E1,9.225810319E-2,1.356417537E0,3.403392062E-2
1.753084788E1,-1.003564335E-2,1.247718453E0,2.369109988E-1
1.755284631E1,-5.667084083E-2,1.151795149E0,3.751585186E-1
1.757284631E1,-3.558726236E-2,1.063551307E0,3.833615780E-1
1.759284788E1,3.403392062E-2,8.895768523E-1,3.645120263E-1
1.761484631E1,5.808455870E-2,7.272437811E-1,3.059213161E-1
1.763484788E1,-1.127482671E-2,6.116681099E-1,1.459444314E-1
1.765485569E1,-1.122421250E-1,4.506440163E-1,-3.604104742E-2
1.767685100E1,-1.408655196E-1,1.881115884E-1,-1.376715750E-1
1.769884631E1,-1.402546614E-1,-7.702138275E-2,-1.594532728E-1
1.771884788E1,-1.181587875E-1,-2.968805134E-1,-1.648987085E-1
1.773886662E1,-5.469861999E-2,-3.733608425E-1,-1.325577497E-1
1.776084631E1,7.346090674E-2,-3.132517040E-1,-4.614650458E-2
1.778084788E1,1.802401543E-1,-3.000220954E-1,1.761037298E-2
1.780284631E1,2.884505689E-1,-3.711791635E-1,4.281292483E-2
1.782284788E1,3.549999595E-1,-4.551818669E-1,-3.441789374E-2
1.784484788E1,4.097335041E-1,-4.745201170E-1,-1.672025472E-1
1.786684788E1,4.966159761E-1,-5.700245500E-1,-2.794970274E-1
1.788684788E1,7.746469378E-1,-1.030826330E0,-3.173357546E-1
1.790684788E1,8.940100074E-1,-5.011363626E-1,-2.640683055E-1
1.792884631E1,1.060444593E0,1.532050073E-1,-1.362054944E-1
1.794884631E1,8.402189612E-1,-2.510830760E-1,-2.521477044E-1
1.796884788E1,-3.664667904E-1,-1.057145894E-1,-5.015552640E-1
1.798884788E1,-1.445010424E0,3.395538032E-1,-6.635218263E-1
1.800884788E1,-1.530566454E0,1.207191825E0,-8.141611814E-1
1.803084631E1,-7.953814268E-1,1.522555470E0,-6.041980982E-1
1.805084631E1,-1.118232459E-1,1.098161221E0,-3.210533261E-1
1.807084788E1,1.359262466E-1,4.898091853E-1,-8.648106456E-2
1.809284788E1,8.569566905E-2,-1.390852928E-1,5.642649531E-2
1.811484788E1,-7.454301417E-2,-4.829849601E-1,-8.552113548E-3
1.813484788E1,-1.021890268E-1,-5.567425489E-1,-4.202752933E-2
1.815484788E1,9.773843922E-4,-4.738743305E-1,1.317723561E-2
1.817484788E1,1.073901057E-1,-3.646341860E-1,5.052728206E-2
1.819484788E1,1.312836707E-1,-3.956137896E-1,1.603957638E-2
1.821485256E1,7.009242475E-2,-5.302135944E-1,-1.080358773E-2
1.823684788E1,-2.586578019E-2,-6.309016347E-1,5.375613924E-3
1.825884788E1,-7.791149616E-2,-5.608266592E-1,8.028514683E-2
1.828084788E1,-7.141887397E-2,-3.975685537E-1,1.725083441E-1
1.830284631E1,-3.644247353E-2,-2.169793248E-1,2.716255784E-1
1.832284788E1,1.490511186E-2,-1.777268797E-1,3.613878787E-1
1.834484788E1,2.844886668E-2,-2.098583877E-1,3.885451853E-1
1.836484788E1,6.475171540E-3,-2.579596639E-1,3.893654943E-1
1.838484788E1,-2.555162087E-2,-3.025877178E-1,3.743556738E-1
1.840486038E1,-8.915141970E-2,-3.464827538E-1,3.144036233E-1
1.842684631E1,-1.365545541E-1,-2.326000333E-1,3.304955363E-1
1.844684788E1,-1.204102635E-1,-5.166174378E-3,3.801676035E-1
1.846684788E1,-6.366961449E-2,1.063254550E-1,3.257482648E-1
1.848684788E1,6.356488913E-2,6.953391433E-2,3.585779071E-1
1.850684788E1,1.091528907E-1,2.533869147E-1,4.444131851E-1
1.852684788E1,1.589122266E-1,5.058487654E-1,1.737649739E-1
1.854884788E1,2.838952541E-1,4.360007048E-1,-3.082425892E-1
1.857084788E1,3.343876302E-1,3.692592978E-1,-4.746946394E-1
1.859284788E1,2.709623575E-1,6.030461788E-1,-2.251474708E-1
1.861484788E1,7.265805453E-2,1.040181279E0,6.864380091E-2
1.863484788E1,-3.490658492E-5,1.347097516E0,1.192408949E-1
1.865484788E1,4.108504951E-2,1.392598152E0,4.792674258E-2
1.867684788E1,1.028871611E-1,1.140921712E0,-6.307619810E-2
1.869884631E1,1.057494953E-1,6.417400837E-1,-1.910786480E-1
1.871884788E1,4.480260238E-2,2.640334070E-1,-3.003013432E-1
1.873886506E1,-2.467895485E-2,1.046324894E-1,-3.804468811E-1
1.876084788E1,-4.761258140E-2,1.165705398E-1,-3.942698836E-1
1.878084788E1,-2.483603545E-2,1.708851904E-1,-2.967757881E-1
1.880284631E1,4.586725309E-2,2.415710241E-1,-1.250353903E-1
1.882284788E1,1.472883373E-1,2.252521962E-1,1.610938832E-2
1.884484788E1,1.692620367E-1,1.737300754E-1,1.379333735E-1
1.886684788E1,1.694191098E-1,8.377580671E-4,1.613906026E-1
1.888684788E1,2.131745070E-1,-2.525142431E-1,1.628915817E-1
1.890684788E1,2.689203322E-1,-4.986405671E-1,9.622000158E-2
1.892884631E1,2.984513044E-1,-8.158192635E-1,-1.541125681E-2
1.894884631E1,2.499835044E-1,-1.029831529E0,-7.766715437E-2
1.896884788E1,2.432465404E-1,-1.122944832E0,-1.633453667E-1
1.899084788E1,3.252770007E-1,-1.249498606E0,-3.213151097E-1
1.901084788E1,3.406358957E-1,-6.842214465E-1,-3.392745554E-1
1.903284631E1,-3.806563020E-1,-8.075115085E-1,-3.409151733E-1
1.905284631E1,-9.898983836E-1,6.016498804E-1,-3.996280432E-1
1.907284631E1,-1.063970208E0,1.385093331E0,-4.113217294E-1
1.909284788E1,-5.711590052E-1,1.071370363E0,-3.442487419E-1
1.911484788E1,-1.864709705E-1,5.814913511E-1,-2.150943726E-1
1.913484788E1,-1.787566245E-1,3.249453902E-1,-3.476695716E-2
1.915484788E1,-1.984090358E-1,9.948376566E-2,-1.808161102E-2
1.917484788E1,-1.210734919E-1,-5.862560868E-2,-4.520402849E-2
1.919484788E1,1.497492474E-2,-7.059856504E-2,-1.047197497E-3
1.921484788E1,1.572716236E-1,-1.064999923E-1,5.166174471E-2
1.923484788E1,1.799085438E-1,-2.450965792E-1,5.792747810E-2
1.925484788E1,1.259778589E-1,-4.412716031E-1,4.276056774E-3
1.927484788E1,4.811872914E-2,-6.140242815E-1,-7.054620981E-2
1.929484788E1,1.012290921E-2,-7.116056681E-1,-9.944885969E-2
1.931684788E1,6.283185212E-4,-6.577622294E-1,-2.766346931E-2
1.933684788E1,2.680825815E-2,-5.491504073E-1,4.331907257E-2
1.935884631E1,6.984807551E-2,-4.163133800E-1,1.723687202E-1
1.937884631E1,8.290313929E-2,-2.581865489E-1,3.474252522E-1
1.939884788E1,8.646360785E-2,-7.724827528E-2,4.922875762E-1
1.942084788E1,9.485864639E-2,3.431317210E-2,5.120621324E-1
1.944284631E1,3.136356547E-2,-5.794493109E-2,4.907167852E-1
1.946284788E1,-2.289872058E-2,-3.302337527E-1,4.254414439E-1
1.948485569E1,-1.145459563E-1,-5.921204090E-1,3.765373230E-1
1.950684788E1,-1.454208344E-1,-4.927588105E-1,3.963119090E-1
1.952684788E1,-7.370525599E-2,-2.937912643E-1,4.051432908E-1
1.954884788E1,-2.176425606E-2,-3.858922794E-2,4.202578366E-1
1.956884944E1,-5.427974090E-2,2.931280434E-1,4.500331581E-1
1.959084631E1,-2.964965403E-1,1.176858068E0,2.560921609E-1
1.961084788E1,-2.317797244E-1,1.582298040E0,-1.058891267E-1
1.963284631E1,3.024830222E-1,4.267329872E-1,-5.992064476E-1
1.965284631E1,7.592531443E-1,-1.169440389E0,-7.791324258E-1
1.967284788E1,8.776737452E-1,-1.770671368E0,-5.415756702E-1
1.969284788E1,8.057487011E-1,-1.377483606E0,-1.571494490E-1
1.971485881E1,6.270793676E-1,-6.814637780E-1,1.516865641E-1
1.973684788E1,-3.419100121E-2,-3.191683590E-1,-8.417722583E-2
1.975884788E1,-7.766889930E-1,1.297425389E0,-2.840174139E-1
1.978084788E1,-6.427873373E-1,2.352756262E0,-4.663519561E-2
1.980284631E1,-3.301290274E-1,2.436706543E0,4.056145251E-2
1.982284788E1,-1.383173466E-1,1.997930765E0,7.271041721E-2
1.984485100E1,-1.323832273E-1,1.258068204E0,8.265879005E-2
1.986485412E1,-2.649060786E-1,5.758364797E-1,6.998769939E-2
1.988485725E1,-3.499385118E-1,4.937536269E-2,1.415811032E-1
1.990684631E1,-2.985909283E-1,-2.313084900E-1,2.804569602E-1
1.992684631E1,-1.844463944E-1,-2.208888680E-1,3.880914152E-1
1.994684788E1,-5.675810575E-2,-1.765575111E-1,4.135732055E-1
1.996884788E1,8.463101834E-2,-9.014625847E-2,3.684913516E-1
1.999084631E1,1.952499896E-1,-9.962339699E-2,2.843839526E-1
2.001084788E1,2.580294609E-1,-2.221978605E-1,1.370956153E-1
2.003284788E1,2.966012657E-1,-3.791378736E-1,-1.195550524E-2
2.005484788E1,3.460289836E-1,-3.619114757E-1,-1.066919789E-1
2.007485412E1,4.873831868E-1,-8.415977657E-2,-1.382998824E-1
2.009684788E1,7.850316167E-1,1.298524998E-2,-4.551818594E-2
2.011884788E1,8.913047314E-1,-9.645212889E-1,-1.963495463E-2
2.013886663E1,-3.240378201E-1,-4.318118989E-1,-3.752108812E-1
2.016084631E1,-1.341564775E0,7.031931281E-1,-7.198784947E-1
2.018084631E1,-1.124707580E0,1.108528376E0,-7.637037039E-1
2.020084631E1,-3.620685637E-1,6.710616350E-1,-3.674092591E-1
2.022084788E1,-1.004436985E-1,3.958406746E-1,3.040363453E-2
2.024284631E1,-7.724827528E-2,-1.679355800E-1,1.876228862E-2
2.026284631E1,-1.043183282E-1,-6.553362012E-1,-1.304109991E-1
2.028284631E1,-1.024159193E-1,-7.752578259E-1,-1.792453080E-1
2.030284631E1,-6.986553222E-2,-7.682939172E-1,-1.470265388E-1
2.032284631E1,-1.274090377E-3,-7.534935474E-1,-1.286831200E-1
2.034284631E1,5.796238407E-2,-7.597418427E-1,-1.239358261E-1
2.036284631E1,5.415756628E-2,-6.944316030E-1,-1.229409948E-1
2.038284788E1,-4.098033160E-2,-5.678777695E-1,-6.633996218E-2
2.040484631E1,-1.781632155E-1,-4.019667804E-1,5.750859901E-2
2.042484788E1,-2.239955515E-1,-1.719672978E-1,1.862091720E-1
2.044485569E1,-1.828232408E-1,4.118977115E-2,3.197617829E-1
2.046684631E1,-1.489638537E-1,1.557008177E-1,5.150291920E-1
2.048684631E1,-1.090830788E-1,1.913753450E-1,5.402492285E-1
2.050684788E1,-8.855800331E-2,1.958084852E-1,5.365142226E-1
2.052884631E1,-6.230825558E-2,1.064127237E-1,4.902280867E-1
2.054884631E1,-4.129448906E-2,-1.067966968E-1,4.318293631E-1
2.056884631E1,-5.667084083E-2,-3.762929738E-1,3.797836304E-1
2.058884631E1,-2.822197415E-2,-3.711442649E-1,3.876725435E-1
2.060884631E1,6.937684119E-2,-1.549852341E-1,3.501130342E-1
2.062884631E1,1.416683793E-1,9.026842564E-2,2.278527319E-1
2.064884631E1,2.127032727E-1,2.469640821E-1,2.331061810E-1
2.066884631E1,2.199289352E-1,4.942947030E-1,1.395216137E-1
2.068884631E1,3.558551669E-1,5.480159521E-1,-1.491907388E-1
2.070884631E1,4.661250710E-1,5.527457595E-1,-4.646764696E-1
2.072884631E1,4.962145686E-1,4.325624108E-1,-6.302732825E-1
2.074884631E1,4.462632239E-1,4.158246815E-1,-6.048089266E-1
2.076884631E1,2.865830660E-1,5.858721137E-1,-4.041135311E-1
2.078884631E1,1.917767823E-1,8.339008689E-1,-2.699849904E-1
2.080884631E1,1.966113448E-1,1.094391227E0,-2.282367051E-1
2.082884631E1,1.530130208E-1,1.217698812E0,-2.228436321E-1
2.084884631E1,6.606071442E-2,1.023530841E0,-2.020742148E-1
2.086884631E1,5.209807679E-2,6.692290306E-1,-1.988104582E-1
2.088884631E1,7.380997390E-2,3.132517040E-1,-1.977283508E-1
2.090884631E1,4.295255244E-2,1.033409461E-1,-2.045351416E-1
2.092884631E1,-3.263765713E-3,-7.068583276E-3,-1.596976221E-1
2.094884788E1,-2.532472648E-2,-5.866051465E-2,-5.365142226E-2
2.097084631E1,-2.083923109E-2,-4.525638744E-2,7.466518879E-2
2.099084631E1,-9.494591504E-3,-4.052654654E-2,1.559800804E-1
2.101084788E1,1.972221956E-2,-6.103416532E-2,1.952150762E-1
2.103284631E1,7.367035002E-2,-1.931381375E-1,1.852317899E-1
2.105284631E1,1.246688664E-1,-4.349709451E-1,1.596278101E-1
2.107284631E1,1.912008226E-1,-7.264235020E-1,1.048070192E-1
2.109284788E1,2.352703810E-1,-9.883624911E-1,3.555235639E-2
2.111284788E1,2.406809032E-1,-9.457066655E-1,-3.071779385E-2
2.113484788E1,2.809980214E-1,-7.334746122E-1,-1.549852341E-1
2.115484788E1,2.997603118E-1,-7.380124927E-1,-3.542145789E-1
2.117484788E1,3.291167319E-1,3.656639159E-1,-2.281319797E-1
2.119484788E1,-9.937904775E-2,7.763748169E-1,-4.307472706E-2
2.121484788E1,-6.491228342E-1,8.286648989E-1,-7.106980681E-2
2.123684788E1,-9.374163151E-1,8.912872672E-1,-3.494498134E-1
2.125884788E1,-6.795439124E-1,8.743227124E-1,-4.212526679E-1
2.128084631E1,-2.420597076E-1,5.353971720E-1,-2.768441141E-1
2.130084631E1,-5.532693863E-2,4.080579802E-2,-4.618141055E-2
2.132084631E1,-3.337069601E-2,-5.589765906E-1,1.030267850E-1
2.134084631E1,-1.928414255E-1,-6.974684596E-1,5.846852809E-2
2.136084631E1,-2.321985960E-1,-5.001415610E-1,1.691224054E-2
2.138084631E1,-1.098859310E-1,-9.194394201E-2,4.953244328E-2
2.140084631E1,2.429498360E-2,1.826836169E-1,1.397659630E-1
2.142084631E1,8.602727950E-2,1.372526884E-1,1.566083878E-1
2.144084631E1,8.927359432E-2,-1.138827354E-1,1.071981192E-1
2.146084631E1,2.590068616E-2,-3.327819407E-1,5.052728206E-2
2.148084631E1,-2.549926005E-2,-4.062253833E-1,5.042256042E-2
2.150084631E1,8.168140426E-3,-3.845658600E-1,1.130449772E-1
2.152086506E1,6.112143025E-2,-2.990446985E-1,1.915498823E-1
2.154284788E1,1.209164113E-1,-2.063153684E-1,2.959205806E-1
2.156484788E1,1.794896573E-1,-5.497787148E-2,3.766420484E-1
2.158684788E1,1.650557816E-1,1.121723130E-1,4.254763722E-1
2.160684788E1,9.979792684E-2,2.080257982E-1,4.040611684E-1
2.162684788E1,7.620107383E-2,1.587900519E-1,3.595378101E-1
2.164884631E1,5.515240505E-2,-1.483529899E-2,3.317870796E-1
2.166884631E1,6.108652335E-3,-9.683086723E-2,2.978578806E-1
2.168884788E1,-2.717477642E-2,4.625122622E-2,3.413165808E-1
2.170884788E1,-2.132792398E-2,3.917740583E-1,3.447548747E-1
2.173084631E1,1.309695095E-1,5.899561644E-1,4.198912978E-1
2.175084631E1,2.126334608E-1,7.804414034E-1,4.705232978E-1
2.177084631E1,3.131644130E-1,9.320232868E-1,2.083050460E-1
2.179084788E1,4.703662395E-1,6.740636230E-1,-2.560048997E-1
2.181284788E1,5.139645338E-1,3.789284229E-1,-5.737420917E-1
2.183484788E1,3.900810778E-1,4.870515764E-1,-4.010417461E-1
2.185684631E1,1.255938858E-1,7.514340281E-1,-1.135685742E-1
2.187684631E1,-2.696533687E-2,9.407499433E-1,-2.085668407E-2
2.189684631E1,-5.558873713E-2,1.259726286E0,-8.316493779E-2
2.191684631E1,-3.249803185E-2,1.256794095E0,-1.591216624E-1
2.193684631E1,4.782202188E-3,9.503143430E-1,-1.905725002E-1
2.195684631E1,-4.632103816E-2,6.679025888E-1,-1.993689537E-1
2.197685413E1,-8.274605870E-2,5.494471192E-1,-2.140995413E-1
2.199884631E1,-6.044075266E-2,4.923923016E-1,-1.861393601E-1
2.201884631E1,-2.804744057E-2,4.251796603E-1,-1.144761443E-1
2.203886662E1,-1.258382387E-2,3.908141255E-1,1.466076588E-3
2.206084631E1,-1.907644793E-2,3.853163421E-1,1.645321846E-1
2.208085100E1,-2.776818909E-2,3.367438316E-1,2.779960334E-1
2.210284788E1,4.694935866E-3,1.985835582E-1,3.218910694E-1
2.212486194E1,7.295475900E-2,-4.424409568E-2,2.761808932E-1
2.214684631E1,1.545314491E-1,-3.355046511E-1,2.161241174E-1
2.216684788E1,2.450616807E-1,-5.770233274E-1,1.033234894E-1
2.218884788E1,3.460289836E-1,-7.095636129E-1,-4.342379048E-2
2.221084788E1,3.740589619E-1,-6.294530034E-1,-1.312487572E-1
2.223284631E1,3.878470659E-1,-5.744751096E-1,-2.334726900E-1
2.225284788E1,4.885351062E-1,-3.204424381E-1,-2.904576957E-1
2.227485569E1,1.506044567E-1,-3.278600872E-1,-2.952224314E-1
2.229684788E1,-6.363819242E-1,5.844758749E-1,-4.288797677E-1
2.231684788E1,-9.434900880E-1,1.576346517E0,-3.620685637E-1
2.233886662E1,-7.487986088E-1,1.814636230E0,-2.866528630E-1
2.236084788E1,-3.071953952E-1,1.373015642E0,-1.269028932E-1
2.238284631E1,-2.531076372E-1,9.430537224E-1,8.281587064E-2
2.240284631E1,-2.702467740E-1,4.674166143E-1,1.562418789E-1
2.242284631E1,-2.573662400E-1,5.900958180E-2,1.561720669E-1
2.244284631E1,-1.373225003E-1,-2.434385270E-1,1.245990545E-1
2.246284788E1,1.345648803E-2,-3.852465153E-1,1.470265388E-1
2.248485881E1,7.351326942E-2,-4.403640330E-1,1.941504180E-1
2.250684788E1,5.230751634E-2,-5.417327285E-1,1.443038285E-1
2.252684788E1,2.485348843E-2,-6.357012987E-1,6.717772037E-2
2.254684788E1,1.000073645E-2,-7.074692249E-1,1.478293911E-2
2.256884631E1,3.909537569E-3,-6.832265854E-1,3.085742146E-2
2.258884631E1,5.131267942E-3,-5.499532223E-1,1.071632132E-1
2.260884788E1,1.495747175E-2,-4.073424041E-1,2.017251551E-1
2.262884788E1,4.637339711E-2,-2.741039693E-1,3.557504714E-1
2.265084631E1,9.702285379E-2,-1.956164986E-1,4.486717880E-1
2.267084631E1,1.709724516E-1,-1.349139512E-1,4.875926375E-1
2.269084631E1,2.268404365E-1,-5.829399824E-2,4.842590392E-1
2.271084631E1,2.335599661E-1,-1.598721556E-2,4.719719291E-1
2.273084631E1,1.661378890E-1,-1.281071641E-2,4.216715395E-1
2.275084631E1,3.867649660E-2,8.337438107E-2,3.823492825E-1
2.277084631E1,3.961897269E-2,2.230356187E-1,4.466297626E-1
2.279084788E1,5.529202893E-2,3.238458335E-1,4.464028478E-1
2.281284631E1,5.113814771E-2,2.351831198E-1,3.853512406E-1
2.283284631E1,1.167799830E-1,6.510077976E-3,3.329041004E-1
2.285284631E1,9.929177910E-2,-7.449065149E-2,1.759117395E-1
2.287284631E1,1.320167035E-1,-1.093623340E-1,-1.818109453E-1
2.289284788E1,2.121796757E-1,-6.089453772E-2,-5.072275996E-1
2.291484788E1,2.499660552E-1,2.813121676E-1,-6.439741254E-1
2.293484788E1,2.689901292E-1,8.093091846E-1,-4.819028676E-1
2.295484788E1,1.679879427E-1,1.236461043E0,-1.503426582E-1
2.297484788E1,-3.954916075E-2,1.390730739E0,-3.049090132E-2
2.299485569E1,-1.311265826E-1,1.435027122E0,-4.136430100E-3
2.301684788E1,-1.050164625E-1,1.470614433E0,3.298672382E-3
2.303886662E1,-9.039060026E-2,1.308787465E0,-6.702064537E-3
2.306084631E1,-1.007404029E-1,1.025939465E0,-4.077089205E-2
2.308084631E1,-1.169545129E-1,7.669151425E-1,-7.824310660E-2
2.310084631E1,-1.161865667E-1,5.247332454E-1,-9.494590759E-2
2.312084788E1,-7.744026184E-2,3.451388478E-1,-6.665412337E-2
2.314084788E1,-8.248426020E-2,2.285508662E-1,4.511675984E-2
2.316284631E1,-9.000662714E-2,1.857903004E-1,1.452637464E-1
2.318284631E1,-8.073893189E-2,1.492605507E-1,2.016902417E-1
2.320284631E1,-2.907718532E-2,4.796164855E-2,2.355496287E-1
2.322284631E1,5.305800959E-2,-2.059313953E-1,2.415535748E-1
2.324284788E1,1.339365691E-1,-5.027769804E-1,2.381327152E-1
2.326484788E1,1.922654659E-1,-7.275754213E-1,2.062979192E-1
2.328484788E1,2.474004179E-1,-8.760331273E-1,1.579872072E-1
2.330484788E1,3.024655581E-1,-9.087231159E-1,6.126105785E-2
2.332684631E1,3.057991266E-1,-7.988197207E-1,-2.434734255E-2
2.334684788E1,3.094119728E-1,-9.636137486E-1,-1.951627135E-1
2.336684788E1,4.527907670E-1,-1.040530443E0,-2.958682179E-1
2.338684788E1,4.128925502E-1,-6.778858900E-1,-7.941248268E-2
2.340684788E1,-2.542421222E-1,1.924923658E-1,-1.447750628E-1
2.342884631E1,-9.441533089E-1,1.578196526E0,-2.520255446E-1
2.344884631E1,-1.127116203E0,2.190562725E0,-3.569547236E-1
2.346884788E1,-6.705904007E-1,1.856489301E0,-3.248406649E-1
2.349084788E1,-2.574535310E-1,1.213056207E0,-1.971698403E-1
2.351084788E1,-2.336995900E-1,4.578347802E-1,-4.050909355E-2
2.353284788E1,-2.509783506E-1,-3.277204633E-1,-1.719149388E-2
2.355484788E1,-2.591115832E-1,-7.149915695E-1,-8.155923337E-2
2.357484788E1,-1.396787018E-1,-7.075913548E-1,-8.463101834E-2
2.359484788E1,-1.656317525E-2,-5.772327185E-1,-5.834635720E-2
2.361484788E1,5.262167752E-2,-5.416105986E-1,-5.885250121E-2
2.363484788E1,5.663593486E-2,-6.333625317E-1,-1.022937447E-1
2.365484788E1,1.579522900E-2,-7.548897862E-1,-1.401150376E-1
2.367484944E1,-1.155408006E-2,-7.794466019E-1,-1.226617396E-1
2.369684788E1,-3.303908184E-2,-6.706427336E-1,-5.054473504E-2
2.371884788E1,-1.134464052E-3,-5.469338298E-1,6.010913849E-2
2.373886506E1,5.625196174E-2,-4.101872742E-1,1.891064197E-1
2.376084631E1,8.810421824E-2,-2.916270494E-1,2.730567753E-1
2.378084631E1,1.041088924E-1,-2.564237714E-1,3.342480063E-1
2.380084631E1,9.566149861E-2,-2.049190998E-1,3.781255782E-1
2.382084631E1,1.333431602E-1,-1.459444314E-1,3.856654167E-1
2.384084631E1,1.579173952E-1,-8.962265402E-2,3.628190458E-1
2.386084631E1,1.528035700E-1,-8.346164227E-2,3.297101557E-1
2.388084631E1,1.150171980E-1,-1.611811519E-1,3.253642917E-1
2.390084631E1,7.665485889E-2,-1.926319897E-1,3.454704583E-1
2.392084631E1,1.549852360E-2,-4.162610322E-2,3.228684664E-1
2.394084631E1,-5.009094719E-3,1.252448261E-1,3.434982598E-1
2.396084631E1,2.926917188E-2,2.708576322E-1,3.317521811E-1
2.398084631E1,1.696460098E-1,4.215493798E-1,8.412487060E-2
2.400084631E1,3.533942699E-1,3.612307906E-1,-2.475924045E-1
2.402084631E1,4.673119187E-1,4.230503440E-1,-4.847303033E-1
2.404084631E1,4.239579141E-1,6.005852222E-1,-4.490557611E-1
2.406084631E1,2.345198840E-1,9.258971810E-1,-1.712342501E-1
2.408084631E1,1.249655709E-2,1.273095489E0,5.017821491E-2
2.410084631E1,-7.290240377E-2,1.547112226E0,6.373942643E-2
2.412084788E1,-1.865756884E-2,1.611951232E0,9.637708217E-2
2.414084788E1,3.454006463E-2,1.302102923E0,8.906415105E-2
2.416284631E1,4.539601505E-2,6.899461150E-1,5.789257213E-2
2.418285100E1,-2.530727303E-3,2.483778000E-1,-2.792526782E-2
2.420485412E1,-6.037093699E-2,1.424188614E-1,-7.695156336E-2
2.422684788E1,-1.003913358E-1,3.003886044E-1,-2.549926005E-2
2.424684788E1,-8.410741389E-2,4.126656353E-1,9.238027781E-2
2.426684788E1,-5.674065277E-2,3.555410206E-1,1.972396523E-1
2.428884631E1,-3.618067503E-2,1.860171854E-1,2.759365439E-1
2.430884631E1,-2.914699912E-2,-1.607448235E-2,3.156602383E-1
2.432884631E1,5.358160939E-3,-2.204699963E-1,2.724109888E-1
2.434884631E1,9.056513757E-2,-3.739193380E-1,2.531949282E-1
2.436884788E1,1.760339141E-1,-3.744080365E-1,2.930233181E-1
2.439084631E1,2.333330661E-1,-1.612858772E-1,3.394490778E-1
2.441084631E1,2.402969301E-1,1.406386346E-1,3.728721440E-1
2.443084788E1,2.381327152E-1,-9.061749279E-2,3.264987469E-1
2.445284788E1,6.603278518E-1,-5.547180176E-1,1.441467404E-1
2.447484631E1,9.139590859E-1,3.761184514E-1,1.582839042E-1
2.449484788E1,3.306700885E-1,-4.673991799E-1,5.427973811E-3
2.451684788E1,-5.897991061E-1,1.360868096E0,-2.311863154E-1
2.453684788E1,-1.325856805E0,2.354955196E0,-5.339486003E-1
2.455684788E1,-1.432479024E0,2.253726244E0,-6.329087615E-1
2.457686975E1,-6.322280765E-1,1.189546585E0,-4.386885166E-1
2.459884631E1,-2.316051871E-1,5.727472305E-1,-3.311064243E-1
2.461884788E1,-2.111499310E-1,-9.913469665E-3,-1.986533701E-1
2.463886663E1,-9.965830296E-2,-6.343747973E-1,-2.105041593E-1
2.466084631E1,-1.019097716E-1,-1.001888752E0,-2.892883122E-1
2.468084631E1,-4.230678082E-2,-1.017718911E0,-2.480112910E-1
2.470084631E1,7.059856504E-2,-9.601579905E-1,-1.979377866E-1
2.472084788E1,1.339714676E-1,-9.273108840E-1,-1.664694995E-1
2.474084788E1,1.168148890E-1,-8.796284795E-1,-1.656317413E-1
2.476284631E1,2.762856148E-2,-8.938180208E-1,-1.834340990E-1
2.478284631E1,-8.766788989E-2,-8.796459436E-1,-1.035154760E-1
2.480284631E1,-9.896016866E-2,-8.183150887E-1,-2.457423508E-2
2.482284788E1,-5.078908056E-2,-7.706152201E-1,3.193952516E-2
2.484484788E1,9.546951391E-3,-6.927735209E-1,1.628915817E-1
2.486484788E1,7.199483365E-2,-5.603030324E-1,2.784498334E-1
2.488484788E1,1.026951745E-1,-3.436553180E-1,3.836233616E-1
2.490684631E1,5.122541264E-2,-9.264207631E-2,3.862937093E-1
2.492684631E1,2.050761878E-2,-6.716027111E-2,3.305304646E-1
2.494684788E1,-7.784168422E-2,-2.352354825E-1,2.859198451E-1
2.496684788E1,-2.231228948E-1,-3.914948106E-1,2.338392138E-1
2.498684788E1,-1.927716136E-1,-4.547804296E-1,2.151641846E-1
2.500884788E1,-1.521927118E-1,-3.893654943E-1,1.041612476E-1
2.503084631E1,-7.609635592E-3,-4.394041002E-1,8.035495877E-2
2.505084631E1,6.995279342E-2,-3.573561609E-1,7.035422325E-2
2.507084631E1,1.829454154E-1,-7.365289330E-2,-8.396779001E-2
2.509084631E1,3.188367486E-1,1.303935498E-1,-3.477568626E-1
2.511084631E1,3.726452589E-1,3.102148175E-1,-4.941899776E-1
2.513084631E1,3.048566580E-1,4.611858130E-1,-4.233121574E-1
2.515084631E1,1.401324868E-1,7.629008889E-1,-1.547757983E-1
2.517084631E1,-2.530727303E-3,1.146943092E0,5.300565064E-2
2.519084631E1,-3.508111835E-2,1.274299741E0,9.073966742E-2
2.521084631E1,-4.380776547E-3,1.216895938E0,5.249950290E-2
2.523084631E1,3.387684003E-2,7.892902493E-1,-5.148721393E-3
2.525084631E1,5.098106712E-2,2.275211215E-1,-5.445427075E-2
2.527084631E1,1.860520989E-2,-2.040464431E-1,-8.134979755E-2
2.529084631E1,-6.925466657E-2,-3.973591030E-1,-1.044055969E-1
2.531084631E1,-1.374970376E-1,-3.980397880E-1,-3.832742944E-2
2.533084631E1,-1.671850830E-1,-3.397283256E-1,3.255039081E-2
2.535084631E1,-1.614604145E-1,-2.938610911E-1,1.156978756E-1
2.537084631E1,-1.402721107E-1,-3.303210139E-1,2.008001357E-1
2.539084631E1,-1.060985625E-1,-4.857949317E-1,2.278701812E-1
2.541084631E1,-7.918559015E-2,-7.030535340E-1,2.436828762E-1
2.543084631E1,-4.056145251E-2,-8.656483889E-1,2.108183205E-1
2.545084631E1,5.838126317E-2,-8.990191221E-1,1.070235893E-1
2.547084631E1,1.788264364E-1,-7.894473076E-1,-1.000073645E-2
2.549084631E1,2.844363153E-1,-6.013880968E-1,-6.321582198E-2
2.551084631E1,3.699923456E-1,-4.259127080E-1,-8.901178837E-2
2.553084631E1,4.583932757E-1,-1.748296320E-1,-1.016828790E-1
2.555084631E1,6.054372787E-1,1.185602173E-1,-5.064945295E-2
2.557085256E1,3.932052255E-1,-1.022239327E-1,-8.400269598E-2
2.559284631E1,-5.394114852E-1,-7.194247097E-2,-3.732386529E-1
2.561284788E1,-1.031262636E0,8.885471523E-2,-6.658082008E-1
2.563485412E1,-8.120493293E-1,6.495068073E-1,-6.159266829E-1
2.565684788E1,-2.704562247E-1,6.484072804E-1,-3.019419611E-1
2.567884631E1,-1.144586951E-1,4.843986928E-1,7.504915819E-3
2.569884788E1,-3.135483861E-1,2.833018303E-1,4.920083284E-2
2.571884788E1,-3.609864414E-1,-3.042108938E-2,-7.063347101E-2
2.573886662E1,-2.610663474E-1,-2.311863154E-1,-1.081929579E-1
2.576084631E1,-6.236061454E-2,-3.694338500E-1,-7.576474547E-2
2.578084788E1,9.189158678E-2,-5.743355155E-1,-8.583529294E-2
2.580284631E1,1.414589286E-1,-8.264308572E-1,-1.270250678E-1
2.582284788E1,1.041263416E-1,-1.014891505E0,-1.572541595E-1
2.584486194E1,2.031563222E-2,-1.140659928E0,-1.356295347E-1
2.586684788E1,9.494591504E-3,-1.101163149E0,-9.726719558E-2
2.588684788E1,4.413937777E-2,-9.264906049E-1,-2.134537697E-2
2.590884788E1,7.209955156E-2,-7.097730637E-1,1.188918278E-1
2.593084788E1,8.025024086E-2,-5.510178804E-1,2.542421222E-1
2.595284788E1,6.092944369E-2,-3.606722951E-1,2.675938904E-1
2.597284788E1,2.179916203E-2,-1.132369637E-1,2.789734304E-1
2.599484788E1,2.080432512E-2,-1.705186628E-2,2.749591768E-1
2.601684788E1,3.457497060E-2,-1.346347034E-1,2.906496823E-1
2.603886662E1,-9.494591504E-3,-4.984660447E-2,3.876899779E-1
2.606084631E1,-1.966986060E-2,1.820552945E-1,3.791902363E-1
2.608084788E1,4.019493237E-2,3.045599461E-1,2.963743508E-1
2.610084788E1,1.937315464E-1,3.385066092E-1,2.593384683E-1
2.612084788E1,2.958333194E-1,5.228133798E-1,2.255314440E-1
2.614084788E1,3.770783842E-1,9.327563047E-1,6.452482194E-2
2.616084788E1,3.862588108E-1,1.192391515E0,-1.307077110E-1
2.618284788E1,3.320139945E-1,1.335368872E0,-2.014284432E-1
2.620484788E1,2.526538670E-1,1.326467633E0,-1.096590385E-1
2.622485569E1,1.865931451E-1,1.292014837E0,-2.108357660E-2
2.624684788E1,1.668709219E-1,1.325839400E0,3.199188411E-2
2.626884788E1,1.701172441E-1,1.253041625E0,4.811872914E-2
2.629084788E1,1.112123802E-1,1.041141272E0,7.278022822E-3
2.631284788E1,7.960446924E-2,7.526558042E-1,-5.811946467E-2
2.633485256E1,2.356194519E-2,5.552067161E-1,-1.541125774E-1
2.635684631E1,-5.803219602E-2,4.444655478E-1,-1.733111888E-1
2.637684788E1,-6.717772037E-2,3.610388041E-1,-1.200611964E-1
2.639684788E1,-2.872812003E-2,2.477494925E-1,-3.220132366E-2
2.641684788E1,1.919862116E-4,1.074075624E-1,4.792674258E-2
2.643684788E1,1.047197584E-4,-2.951351739E-2,1.470090896E-1
2.645684788E1,1.466076542E-2,-2.441191971E-1,1.926145405E-1
2.647684788E1,6.600835174E-2,-4.499284327E-1,1.904154271E-1
2.649884631E1,1.341460049E-1,-5.906892419E-1,1.428377479E-1
2.651884788E1,1.826312542E-1,-6.854606271E-1,6.208136305E-2
2.653886819E1,2.659532726E-1,-7.627263069E-1,-5.052728206E-2
2.656084788E1,2.945417762E-1,-1.008102179E0,-1.614604145E-1
2.658084788E1,2.146231383E-1,-1.521578074E0,-3.076840937E-1
2.660284788E1,1.653175801E-1,-1.041385651E0,-3.275808394E-1
2.662484631E1,-6.323327869E-2,1.249830276E-1,-7.827802002E-2
2.664485100E1,-5.407029986E-1,6.879389882E-1,2.649409883E-2
2.666684631E1,-8.639379740E-1,1.913683653E0,-1.988104582E-1
2.668684631E1,-8.122762442E-1,2.485383749E0,-3.425732255E-1
2.670684944E1,-4.317421019E-1,1.756289959E0,-3.283487856E-1
2.672884631E1,-2.087239176E-1,1.033409476E0,-1.318421662E-1
2.674884631E1,-2.719571888E-1,3.651228845E-1,1.292067170E-1
2.676884631E1,-3.218910694E-1,-2.096489519E-1,1.711644381E-1
2.678884631E1,-2.686236203E-1,-4.406083822E-1,9.068730474E-2
2.680884631E1,-1.256462485E-1,-3.139323592E-1,1.074948311E-1
2.682884788E1,2.740166849E-3,-1.321912408E-1,1.135860309E-1
2.684884788E1,4.607669264E-2,-1.952848881E-1,1.208116934E-1
2.687084788E1,1.075122785E-2,-4.580790997E-1,8.243189752E-2
2.689284631E1,-6.647959352E-2,-7.829896212E-1,1.933824830E-2
2.691284631E1,-9.403833747E-2,-9.619033337E-1,-2.829178795E-2
2.693284631E1,-7.415904105E-2,-1.038139343E0,-6.492624991E-3
2.695284788E1,-1.298524998E-2,-9.795835018E-1,3.553490341E-2
2.697284788E1,5.445427075E-2,-7.967427969E-1,1.229933500E-1
2.699484944E1,6.038839370E-2,-5.295852423E-1,2.505071163E-1
2.701684788E1,1.158898603E-2,-2.926742733E-1,2.793050408E-1
2.703684788E1,-1.321214251E-2,-1.115265414E-1,2.584308982E-1
2.705884631E1,-2.220058814E-2,1.204277202E-2,2.171713114E-1
2.707884631E1,-3.778637946E-2,2.331759781E-2,2.301914692E-1
2.709884631E1,-2.626720443E-2,2.211506665E-1,3.433935344E-1
2.711884788E1,-2.984512970E-2,5.828177929E-1,3.905348778E-1
2.713887600E1,3.293436393E-2,8.569043279E-1,3.726976216E-1
2.716084788E1,1.859299242E-1,7.892378569E-1,4.795292020E-1
2.718284788E1,2.494948208E-1,7.096159458E-1,4.687430859E-1
2.720485100E1,3.775321543E-1,4.617094100E-1,-1.207767799E-2
2.722684788E1,4.660029113E-1,-5.000368133E-2,-5.667433143E-1
2.724884631E1,4.521799088E-1,-1.003040746E-1,-6.134832501E-1
2.726884631E1,3.304955363E-1,2.817136049E-1,-3.494149148E-1
2.728884631E1,1.143365204E-1,7.158293128E-1,-1.611637026E-1
2.730884631E1,-7.365289610E-3,1.045399904E0,-1.139001846E-1
2.732884788E1,3.668681905E-2,1.080638051E0,-1.378984600E-1
2.735084631E1,5.117305368E-2,7.731983066E-1,-1.944820434E-1
2.737084788E1,2.694788389E-2,3.397632539E-1,-2.518510222E-1
2.739284788E1,-2.333505265E-2,7.326892018E-2,-2.960951030E-1
2.741484788E1,-9.269443899E-2,6.728244573E-2,-2.937040031E-1
2.743684631E1,-9.801769257E-2,1.754928529E-1,-2.005383372E-1
2.745684788E1,-6.654940546E-2,2.526713014E-1,-5.653121322E-2
2.747884788E1,-3.029891662E-2,2.164033800E-1,1.086641997E-1
2.750084788E1,1.130973361E-2,4.426154867E-2,1.846383810E-1
2.752284631E1,3.583160788E-2,-1.887573600E-1,1.991595179E-1
2.754284788E1,6.838200241E-2,-3.180339038E-1,2.086017579E-1
2.756484788E1,1.428901106E-1,-4.565083086E-1,1.507266313E-1
2.758684788E1,2.424611449E-1,-6.481105685E-1,6.698573381E-2
2.760885569E1,3.253468275E-1,-8.954237103E-1,-2.754129469E-2
2.763084631E1,3.061307371E-1,-1.012744784E0,-1.369210780E-1
2.765084788E1,2.929884195E-1,-1.194468379E0,-3.251024783E-1
2.767284788E1,4.661425352E-1,-6.750584245E-1,-3.762755394E-1
2.769484788E1,4.087212086E-1,6.270444393E-1,-1.016305238E-1
2.771484788E1,-3.463780284E-1,8.471478820E-1,-3.234444261E-1
2.773484788E1,-1.010789990E0,1.014716983E0,-5.227609873E-1
2.775684788E1,-9.776461720E-1,1.067879677E0,-5.460436940E-1
2.777684788E1,-4.603305757E-1,5.007523894E-1,-4.494746327E-1
2.779685569E1,-1.891587824E-1,6.592108309E-2,-3.009820282E-1
2.781884631E1,-5.340707488E-3,-3.172310293E-1,-3.694862127E-2
2.783886662E1,1.040216256E-2,-4.260523319E-1,6.284930557E-2
2.786084788E1,-1.161691174E-1,-3.392221928E-1,9.229300916E-2
2.788284788E1,-9.772098809E-2,-1.336922199E-1,1.189441904E-1
2.790284788E1,-6.457717973E-4,1.787217148E-2,1.989500821E-1
2.792284788E1,5.564109609E-2,5.986479111E-3,2.406809032E-1
2.794484788E1,7.728318125E-2,-2.400351316E-1,1.858426630E-1
2.796485413E1,4.005530477E-2,-5.451884866E-1,6.499606371E-2
2.798684788E1,5.480333697E-3,-7.487811446E-1,4.700171575E-2
2.800884788E1,5.225515738E-2,-7.439291477E-1,6.223843992E-2
2.803084631E1,1.245117858E-1,-6.076538563E-1,9.843657166E-2
2.805084631E1,1.226966456E-1,-4.567701221E-1,1.268156171E-1
2.807084788E1,8.417722583E-2,-4.505392909E-1,1.620014608E-1
2.809284631E1,9.564404376E-3,-5.201255679E-1,1.912531853E-1
2.811284788E1,-4.225442186E-2,-4.882034957E-1,1.990024447E-1
2.813484788E1,-1.204277156E-3,-4.250923991E-1,1.941678822E-1
2.815486038E1,6.979571283E-2,-4.500855207E-1,1.644449234E-1
2.817684631E1,4.455825686E-2,-4.057715833E-1,1.967335194E-1
2.819684631E1,-4.626867920E-2,-9.360200912E-2,2.683618367E-1
2.821684631E1,-5.511749908E-2,4.057541490E-1,3.710221052E-1
2.823684788E1,4.036946595E-2,6.861063838E-1,4.741710424E-1
2.825884631E1,2.661627159E-2,1.054719925E0,3.384542465E-1
2.827884631E1,1.006531343E-1,1.095752597E0,-1.790707856E-1
2.829884631E1,2.422691584E-1,7.004879117E-1,-7.082022429E-1
2.831884631E1,2.792003155E-1,4.951499104E-1,-8.240222931E-1
2.833886662E1,2.511528730E-1,5.806536078E-1,-5.461135507E-1
2.836084631E1,2.408728898E-1,5.738816857E-1,-2.494599074E-1
2.838084631E1,2.600715160E-1,3.834837377E-1,-2.406285405E-1
2.840084631E1,3.144734204E-1,2.346246094E-1,-3.321885169E-1
2.842084631E1,2.856929302E-1,1.000248194E-1,-4.164879322E-1
2.844084788E1,1.273392290E-1,-1.410226058E-2,-4.808905721E-1
2.846084788E1,4.031710327E-3,-9.257226437E-2,-5.051157475E-1
2.848284631E1,-5.628686771E-2,-2.630211227E-2,-4.004832506E-1
2.850284788E1,-6.457718462E-2,1.741838604E-1,-2.549577057E-1
2.852486038E1,2.113593742E-2,4.676086009E-1,-5.619960371E-3
2.854684631E1,1.089434549E-1,7.223045230E-1,2.241875380E-1
2.856684788E1,1.674468815E-1,7.991688251E-1,3.970623910E-1
2.858684788E1,1.530653685E-1,7.356737256E-1,4.617268443E-1
2.860684788E1,9.492845833E-2,5.634446144E-1,4.575555027E-1
2.862684788E1,3.499384969E-2,2.565808594E-1,4.368733764E-1
2.864884631E1,6.236061454E-2,-8.147197217E-2,3.555235565E-1
2.866884631E1,1.573763341E-1,-3.279997110E-1,2.471735328E-1
2.868884788E1,2.626022398E-1,-5.285555124E-1,1.446179748E-1
2.870884788E1,3.020292222E-1,-6.624397039E-1,3.537782282E-2
2.872884788E1,2.763728797E-1,-6.617066860E-1,-1.546361744E-1
2.875084631E1,2.003114372E-1,-7.366685867E-1,-3.552617729E-1
2.877084631E1,2.393719107E-1,-5.234591365E-1,-2.676113248E-1
2.879084788E1,-1.610589772E-1,-1.773254573E-1,-1.295208782E-1
2.881284788E1,-5.094965100E-1,4.533143640E-1,-1.906423122E-1
2.883484631E1,-6.484247446E-1,7.809475660E-1,-3.396410644E-1
2.885484788E1,-4.967207015E-1,9.408546090E-1,-3.957883120E-1
2.887484788E1,-3.111049235E-1,9.451481700E-1,-2.428625673E-1
2.889484788E1,-1.948136538E-1,7.914718986E-1,2.649409883E-2
2.891484788E1,-2.406634539E-1,4.774173498E-1,1.866978705E-1
2.893484788E1,-3.318394423E-1,1.761037260E-1,1.736777127E-1
2.895684788E1,-2.092475295E-1,9.021607041E-2,1.501681209E-1
2.897884788E1,-2.392846346E-2,1.458920687E-1,2.064899057E-1
2.899884788E1,5.414011329E-2,1.291718185E-1,2.547307909E-1
2.902084631E1,4.754276946E-2,-2.085668407E-2,2.695660889E-1
2.904084631E1,1.213003788E-2,-2.040115297E-1,2.264739275E-1
2.906084631E1,-3.106686100E-2,-3.870442212E-1,1.481609941E-1
2.908084788E1,-2.666863054E-2,-4.891110659E-1,1.148601174E-1
2.910284788E1,2.199114859E-2,-5.308418870E-1,1.491209269E-1
2.912485881E1,1.019795910E-1,-5.448219776E-1,2.451838553E-1
2.914684631E1,1.591391265E-1,-4.821646512E-1,3.659082651E-1
2.916684788E1,1.165705398E-1,-3.007551432E-1,4.537332356E-1
2.918884788E1,6.332054734E-2,-6.714281440E-2,4.602433145E-1
2.921084788E1,7.173303515E-2,1.029220670E-1,4.152487218E-1
2.923084788E1,1.081580520E-1,4.050909355E-2,3.715980351E-1
2.925284788E1,1.025729999E-1,-8.068656921E-2,3.638138771E-1
2.927485412E1,2.377138473E-2,-3.659955412E-2,4.014431834E-1
2.929684788E1,-2.918190509E-2,1.459444314E-1,3.557679057E-1
2.931684788E1,2.553416602E-2,2.875081003E-1,3.670078218E-1
2.933886662E1,1.326275766E-1,3.186272979E-1,4.405210912E-1
2.936084788E1,1.580221057E-1,4.343949854E-1,1.698554456E-1
2.938284788E1,2.741737664E-1,3.143861592E-1,-3.378084898E-1
2.940484788E1,3.811275363E-1,2.117084414E-1,-7.404733896E-1
2.942484788E1,4.070805907E-1,5.072450638E-1,-6.288246512E-1
2.944484944E1,2.812947035E-1,9.808226824E-1,-2.836858034E-1
2.946684631E1,2.188642882E-2,1.398340344E0,-3.464478627E-2
2.948684788E1,-1.226617396E-1,1.640295386E0,-1.350884791E-2
2.950684788E1,-9.608037770E-2,1.760112166E0,-1.916371472E-2
2.952684788E1,-4.960225895E-2,1.565804720E0,-2.330014482E-2
2.954884788E1,-3.326597437E-2,1.102175474E0,-1.794198528E-2
2.957084788E1,-1.916371472E-2,7.251144648E-1,1.136209350E-2
2.959284631E1,-5.455899239E-2,5.402492285E-1,4.764748737E-2
2.961284788E1,-6.710790843E-2,4.876275361E-1,1.343205422E-1
2.963484788E1,-4.139921069E-2,4.508534372E-1,2.580992877E-1
2.965484788E1,-4.728097096E-2,3.194301724E-1,3.353126645E-1
2.967484788E1,-2.055997774E-2,1.219985113E-1,3.370405436E-1
2.969684631E1,3.743731230E-2,-1.062207371E-1,3.134960532E-1
2.971684631E1,1.391201913E-1,-3.311413229E-1,2.775771618E-1
2.973684788E1,2.407332659E-1,-4.843114018E-1,2.688854337E-1
2.975684788E1,3.275110424E-1,-5.648583770E-1,2.308197916E-1
2.977684788E1,3.808831871E-1,-6.302209496E-1,1.528908461E-1
2.979684788E1,3.929783404E-1,-7.335270047E-1,2.221804112E-2
2.981684788E1,3.733433783E-1,-9.121265411E-1,-6.211626902E-2
2.983886662E1,2.505769134E-1,-9.655161500E-1,-1.287354827E-1
2.986084788E1,1.723861694E-1,-1.280338645E0,-2.005906850E-1
2.988284788E1,-1.049117446E-1,-8.543212414E-1,1.570796408E-2
2.990284788E1,-5.687504411E-1,1.364672929E-1,-1.059414819E-2
2.992484788E1,-4.614126980E-1,2.024320126E0,-2.811027169E-1
2.994684788E1,-4.657410979E-1,2.692205191E0,-3.233222365E-1
2.996884788E1,-2.515194118E-1,2.048021793E0,-1.617745608E-1
2.998884788E1,-1.742013097E-1,1.390835404E0,-1.034980267E-1
3.000884788E1,-4.097335041E-1,7.590262294E-1,-2.160717547E-2
3.003084631E1,-5.098455548E-1,4.890412688E-1,6.990043819E-2
3.005084631E1,-3.818082213E-1,4.295080602E-1,8.553858846E-2
3.007084788E1,-1.759640872E-1,4.780980349E-1,9.375908971E-2
3.009284631E1,-2.302089334E-2,4.154058099E-1,1.099208370E-1
3.011284788E1,-3.595378250E-3,1.983566731E-1,1.250702888E-1
3.013484788E1,-1.006007791E-1,-6.063273922E-2,1.705884784E-1
3.015684788E1,-1.819505692E-1,-2.762332559E-1,7.380997390E-2
3.017884631E1,-2.187770158E-1,-4.208512306E-1,8.316493779E-2
3.019884631E1,-2.404365540E-1,-3.383495212E-1,1.883384734E-1
3.021884788E1,-1.915149838E-1,-2.892708778E-1,2.790955901E-1
3.023886663E1,-1.094146892E-1,-2.494599074E-1,3.720169365E-1
3.026084631E1,-6.288421154E-2,-1.666789502E-1,4.929333329E-1
3.028084631E1,-9.234537184E-2,-1.084198505E-1,5.696580410E-1
3.030084788E1,-1.309171468E-1,-6.789331138E-2,5.866924524E-1
3.032284788E1,-6.536258012E-2,-8.314748853E-2,5.077686310E-1
3.034484788E1,1.982693933E-2,-2.381501794E-1,3.863286376E-1
3.036485725E1,1.296779606E-2,-3.108431399E-1,3.092897832E-1
3.038684788E1,-7.951720059E-2,-9.183922410E-2,3.434109688E-1
3.040884788E1,-9.944885969E-2,3.314205706E-1,2.871066630E-1
3.043084788E1,-1.277581044E-2,6.252990961E-1,1.643751115E-1
3.045284631E1,1.111600175E-1,7.985404730E-1,2.079734355E-1
3.047284788E1,2.269626111E-1,1.137814999E0,1.204451695E-1
3.049484788E1,3.913551867E-1,1.416038036E0,-2.227040082E-1
3.051485256E1,5.137027502E-1,1.528472066E0,-4.739965200E-1
3.053684788E1,5.516462326E-1,1.567794323E0,-4.608367383E-1
3.055684788E1,4.974537492E-1,1.678919435E0,-2.860071063E-1
3.057686038E1,3.117332458E-1,1.831984878E0,-1.463109553E-1
3.059884631E1,2.458819896E-1,1.921694756E0,-9.789551795E-2
3.061884788E1,3.012961745E-1,1.798544288E0,-1.033409461E-1
3.063886663E1,3.553839326E-1,1.366976738E0,-1.095892265E-1
3.066084788E1,4.082674086E-1,7.163529396E-1,-1.141270772E-1
3.068284788E1,3.798883557E-1,6.192428246E-2,-1.254368126E-1
3.070484788E1,2.363524884E-1,-2.293886244E-1,-7.508406043E-2
3.072484788E1,1.295732409E-1,-2.858849168E-1,1.007054932E-2
3.074484944E1,1.218763441E-1,-2.793748379E-1,1.385442317E-1
3.076485100E1,1.223999411E-1,-4.457570985E-2,2.769314051E-1
3.078684631E1,7.944738865E-2,3.704984784E-1,4.503822029E-1
3.080684788E1,5.361651629E-2,5.199335814E-1,4.650080800E-1
3.082884788E1,7.511897385E-2,3.268652558E-1,3.833441138E-1
3.084884788E1,1.099208370E-1,1.823868975E-2,2.705260217E-1
3.086884788E1,1.547234356E-1,-2.394591719E-1,1.381078959E-1
3.088884788E1,2.212728411E-1,-4.471707940E-1,2.532472648E-2
3.090884788E1,2.344500721E-1,-4.172209501E-1,-1.492256485E-2
3.093084788E1,3.016801476E-1,-3.267081678E-1,-1.293812543E-1
3.095284631E1,3.488214910E-1,-1.731366664E-1,-1.847081929E-1
3.097284631E1,3.075270057E-1,1.029744223E-1,1.169370604E-3
3.099284631E1,-6.012659147E-2,2.066295296E-1,8.220500499E-2
3.101284788E1,-4.096985757E-1,-7.138396613E-3,-1.740965992E-1
3.103284788E1,-4.907167852E-1,-3.792600334E-2,-5.280668139E-1
3.105484944E1,-2.898642719E-1,1.419301778E-1,-5.023581386E-1
3.107684631E1,-1.149473861E-1,3.208787739E-1,-2.474178672E-1
3.109684788E1,-3.691371530E-2,2.852391601E-1,-1.274090377E-3
3.111884788E1,-1.787566245E-1,1.758593768E-1,4.202752933E-2
3.113886663E1,-3.006853163E-1,2.569299042E-1,1.991420612E-2
3.116084631E1,-2.659183741E-1,3.342131078E-1,4.927064478E-2
3.118084788E1,-1.689653248E-1,2.865481675E-1,1.035503820E-1
3.120084788E1,-1.118581519E-1,9.463175386E-2,1.291194558E-1
3.122084788E1,-1.031315029E-1,-1.599594206E-1,8.843583614E-2
3.124284788E1,-1.210560352E-1,-3.797312975E-1,4.490732029E-2
3.126484631E1,-1.348790377E-1,-4.110599458E-1,7.028441131E-2
3.128484788E1,-1.281595230E-1,-3.597297966E-1,1.046150327E-1
3.130684788E1,-1.005484164E-1,-3.531324565E-1,1.523148865E-1
3.132684788E1,-7.037167251E-2,-3.590491414E-1,2.110975683E-1
3.134684788E1,-5.005604401E-2,-2.857802212E-1,3.055897057E-1
3.136884631E1,-1.722639985E-2,-1.454033852E-1,4.076740146E-1
3.138884631E1,-4.468042869E-3,-4.351105914E-2,4.956036806E-1
3.140884788E1,-3.857177682E-3,-4.152138159E-2,4.902629852E-1
3.143084788E1,2.396337129E-2,-1.877799779E-1,4.393517375E-1
3.145284631E1,3.066543490E-2,-3.733957410E-1,3.573386967E-1
3.147284788E1,-8.939576149E-2,-4.203276336E-1,2.917317748E-1
3.149484788E1,-1.301143020E-1,-3.035302162E-1,2.648362517E-1
3.151485725E1,-7.185520232E-2,-1.829279512E-1,1.646718085E-1
3.153684788E1,4.644321278E-2,-4.766494036E-2,2.354274690E-1
3.155684788E1,6.801547855E-2,1.467821896E-1,2.081828713E-1
3.157685412E1,1.297477782E-1,3.345447183E-1,-9.613273293E-2
3.159884631E1,2.157925069E-1,4.427202046E-1,-5.254837275E-1
3.161884788E1,2.856056690E-1,5.321159959E-1,-7.186393142E-1
3.163886663E1,2.926219106E-1,7.396879792E-1,-5.697103739E-1
3.166084788E1,1.774301678E-1,1.065383911E0,-2.367190123E-1
3.168284788E1,-3.289945796E-2,1.411849141E0,-9.733701497E-2
3.170484788E1,-6.834709644E-2,1.622004271E0,-2.775073424E-2
3.172484788E1,-2.919935808E-2,1.537495494E0,-5.272639543E-2
3.174484788E1,-1.870992966E-2,1.160940647E0,-9.780824929E-2
3.176684631E1,1.572541706E-2,6.377432942E-1,-1.054004356E-1
3.178684631E1,8.464846760E-2,2.022138536E-1,-1.146681309E-1
3.180684788E1,4.117231816E-2,2.387610450E-2,-3.487167880E-2
3.182884788E1,-4.009021446E-2,-5.295328796E-2,1.787217148E-2
3.185084631E1,-7.604399323E-2,-9.122835845E-2,1.392772794E-1
3.187084631E1,-9.625490755E-2,8.150687441E-3,3.028495312E-1
3.189084631E1,-6.756169349E-2,1.102524474E-1,4.251796603E-1
3.191084631E1,-1.206022501E-2,3.518583626E-2,4.517261088E-1
3.193084788E1,3.312635049E-2,-1.704488546E-1,4.169068038E-1
3.195284631E1,8.241444826E-2,-4.521100819E-1,3.471809030E-1
3.197284788E1,1.443387270E-1,-6.991090775E-1,2.358463407E-1
3.199484788E1,2.339439392E-1,-8.175820112E-1,1.041437984E-1
3.201484788E1,3.081029654E-1,-7.910530567E-1,2.448697016E-2
3.203484788E1,3.867998719E-1,-6.069557071E-1,-7.255333662E-2
3.205484788E1,4.483052790E-1,-3.792251348E-1,-1.057320461E-1
3.207485256E1,4.847826660E-1,-1.349837631E-1,-4.014257342E-3
3.209684788E1,1.598721594E-1,-7.622202039E-1,-4.251622036E-2
3.211884788E1,-6.485468745E-1,-1.142893910E0,-4.095415175E-1
3.213886662E1,-9.778556228E-1,2.511179745E-1,-6.447071433E-1
3.216084788E1,-3.476346731E-1,9.298939705E-1,-5.528504848E-1
3.218084788E1,7.634069771E-2,9.171355963E-1,-2.624800801E-1
3.220284631E1,-1.093797833E-1,5.427450538E-1,-3.644247353E-2
3.222284631E1,-3.381226361E-1,7.504915819E-3,-7.735299319E-2
3.224284788E1,-4.251621962E-1,-1.679704934E-1,-1.591740251E-1
3.226484788E1,-2.853787839E-1,-6.853908300E-2,-1.443038285E-1
3.228484788E1,-2.778564207E-2,5.438445881E-2,-7.084291428E-2
3.230684788E1,1.505171955E-1,1.148426607E-1,1.820378378E-2
3.232684788E1,1.471487135E-1,4.380776361E-2,5.134758726E-2
3.234684788E1,7.585200667E-2,-3.221877664E-2,7.171557844E-2
3.236684788E1,2.844886621E-3,-7.539822254E-3,1.376366615E-1
3.238684788E1,2.111848444E-3,9.569640458E-2,1.703964919E-1
3.240685412E1,5.335471407E-2,1.587900519E-1,2.218138874E-1
3.242884631E1,7.490953058E-2,1.924749166E-1,3.556282818E-1
3.244884788E1,6.586872786E-2,2.323556840E-1,5.105437040E-1
3.246884788E1,7.953465730E-2,2.162113935E-1,6.396806240E-1
3.248884788E1,1.774999797E-1,1.966811568E-1,7.255508304E-1
3.250884788E1,3.323456049E-1,6.864380091E-2,7.873354554E-1
3.253084631E1,3.908315897E-1,-7.756242901E-2,7.480829954E-1
3.255084631E1,1.760862619E-1,-2.946464717E-1,5.194623470E-1
3.257084788E1,-2.518859208E-1,-4.505741894E-1,2.888170779E-1
3.259084788E1,-5.796238407E-2,-4.239753783E-1,5.434955284E-2
3.261284788E1,2.024232894E-1,-2.210634053E-1,-1.073377486E-2
3.263485413E1,2.665117681E-1,4.768239334E-2,1.799608916E-1
3.265684788E1,7.168067247E-2,2.590592206E-1,1.008625776E-1
3.267884631E1,-1.884955540E-2,3.627841473E-1,-5.197939277E-1
3.269884631E1,1.084373072E-1,6.621779501E-2,-1.121234417E0
3.271885100E1,2.866703272E-1,-5.476843193E-2,-1.231504321E0
3.273886662E1,3.743033111E-1,1.906248629E-1,-9.467538595E-1
3.276084631E1,2.052681744E-1,7.312231660E-1,-5.463927984E-1
3.278084631E1,-1.559975296E-1,1.340639710E0,-3.545985520E-1
3.280084788E1,-3.174230158E-1,1.613295078E0,-3.099006712E-1
3.282284631E1,-2.585181594E-1,1.505503535E0,-2.379232794E-1
3.284284631E1,-1.922480166E-1,1.116888523E0,-2.231577933E-1
3.286284631E1,-1.454731971E-1,6.588618159E-1,-2.254092693E-1
3.288284631E1,-1.168847010E-1,4.156676233E-1,-2.166651785E-1
3.290284631E1,-8.086110651E-2,4.740314186E-1,-1.235867664E-1
3.292284631E1,-5.581562966E-2,7.012558579E-1,4.297000542E-2
3.294284631E1,-4.471533373E-2,9.142034650E-1,2.892883122E-1
3.296284631E1,-3.073524870E-2,9.705950618E-1,4.488812387E-1
3.298284631E1,-6.265731994E-3,7.543138266E-1,5.210855007E-1
3.300284631E1,-9.843656793E-3,3.432888091E-1,5.144881606E-1
3.302284631E1,-1.197295822E-2,-1.471487135E-1,4.313755631E-1
3.304284631E1,8.616690338E-2,-5.357462764E-1,3.187320232E-1
3.306284631E1,2.146231383E-1,-7.538251281E-1,2.066469789E-1
3.308284631E1,2.326349318E-1,-9.515011311E-1,1.174257547E-1
3.310284631E1,4.141666368E-2,-1.242604613E0,5.707226694E-3
3.312284631E1,2.677858770E-1,-9.538573623E-1,-4.729842395E-2
3.314284631E1,5.852263570E-1,-3.992266059E-1,-1.639213264E-1
3.316284631E1,3.669729233E-1,-3.354173601E-1,-2.588323355E-1
3.318284631E1,-5.220977664E-1,-2.550048113E0,-4.404861927E-1
3.320284631E1,-1.156367898E0,-2.095407486E0,-5.293059945E-1
3.322284631E1,-6.613401771E-1,-5.910906792E-1,-1.731366664E-1
3.324284631E1,-4.309392571E-1,8.114733696E-1,-2.587799728E-1
3.326284631E1,-2.970725000E-1,1.372561812E0,-2.522349954E-1
3.328284631E1,-7.194247097E-2,1.061910629E0,-1.379508227E-1
3.330284631E1,6.223843992E-2,3.637091517E-1,1.626646891E-2
3.332284788E1,8.363617957E-2,-7.311183959E-2,2.025978118E-1
3.334484788E1,-1.561022550E-1,-6.019640714E-2,2.478018403E-1
3.336484944E1,-3.030066192E-1,8.203047328E-3,1.809557378E-1
3.338684631E1,-2.256536186E-1,1.222254038E-1,2.032435834E-1
3.340684944E1,-8.812167495E-2,4.565781355E-2,2.064200938E-1
3.342884631E1,6.778858602E-2,-1.603433937E-1,2.012539208E-1
3.344884631E1,1.466949284E-1,-2.909987569E-1,1.874134541E-1
3.346884631E1,1.255415380E-1,-3.202679157E-1,2.243795246E-1
3.348884631E1,5.019566789E-2,-2.810329199E-1,2.220756859E-1
3.350884631E1,4.164355621E-2,-2.477494925E-1,2.132094204E-1
3.352884631E1,9.351474047E-2,-1.938711703E-1,2.387784868E-1
3.354884631E1,1.373225003E-1,-6.440264732E-2,3.133563995E-1
3.356884631E1,1.266410947E-1,9.457939118E-2,4.029092491E-1
3.358884631E1,8.970992267E-2,1.559451669E-1,4.417777359E-1
3.360884631E1,6.990043819E-2,9.880308807E-2,4.166100919E-1
3.362884631E1,7.632324845E-2,1.036725566E-2,3.758043051E-1
3.364884631E1,8.929104358E-2,-3.279473633E-2,3.616496623E-1
3.366884631E1,5.473352596E-2,-3.089232743E-2,3.096563220E-1
3.368884631E1,-4.782202095E-2,4.408701509E-2,2.471211702E-1
3.370884631E1,-1.535889804E-1,1.617047489E-1,1.615476757E-1
3.372884631E1,-1.162912846E-1,2.284286916E-1,1.817934960E-1
3.374884631E1,-1.006356850E-1,3.745476604E-1,1.196074113E-1
3.376884631E1,-3.335324302E-2,3.182433248E-1,-3.906221390E-1
3.378884631E1,2.018647790E-1,-2.675065994E-1,-9.649925232E-1
3.380884631E1,4.291764498E-1,-6.210753918E-1,-1.148339391E0
3.382884631E1,4.167497158E-1,-2.657263875E-1,-9.052673578E-1
3.384884631E1,1.345997900E-1,5.101073980E-1,-4.423013330E-1
3.386884631E1,-2.160368562E-1,1.256375313E0,-2.284636050E-1
3.388884631E1,-2.377487570E-1,1.605790138E0,-1.975014508E-1
3.390884788E1,-1.103397161E-1,1.638707042E0,-1.270250678E-1
3.393084631E1,-3.199188411E-2,1.173472166E0,-7.911577821E-2
3.395084631E1,-4.192280769E-2,5.045746565E-1,-7.161086053E-2
3.397084631E1,-6.675884128E-2,-3.169517964E-2,-1.324006766E-1
3.399084631E1,-1.406037211E-1,-3.033905923E-1,-1.706059277E-1
3.401084631E1,-1.618443877E-1,-3.408802450E-1,-1.307077110E-1
3.403084631E1,-1.513200402E-1,-2.380105555E-1,2.268928103E-3
3.405084631E1,-1.328544617E-1,-1.428726465E-1,1.108633131E-1
3.407084631E1,-1.492082030E-1,-1.323832273E-1,2.099805623E-1
3.409084631E1,-1.619316489E-1,-2.318495363E-1,2.590766847E-1
3.411084631E1,-1.622807086E-1,-3.754203320E-1,2.533869147E-1
3.413084631E1,-1.334478706E-1,-5.233369470E-1,1.953547001E-1
3.415084631E1,-9.265953302E-2,-6.637661457E-1,9.555677325E-2
3.417084631E1,-9.178686142E-2,-8.149465919E-1,1.870992966E-2
3.419084631E1,-1.268505305E-1,-1.074477077E0,-5.682792142E-2
3.421084631E1,-1.528035700E-1,-1.217122793E0,-1.486496925E-1
3.423084631E1,-1.668709219E-1,-1.174624085E0,-2.598097026E-1
3.425084788E1,-1.868200451E-1,-9.971414804E-1,-2.647664547E-1
3.427284631E1,-6.590886712E-1,-9.300684929E-1,-1.183856800E-1
3.429284631E1,-8.008967042E-1,4.948357344E-1,-9.662142396E-2
3.431284788E1,-6.309539676E-1,1.008102179E0,2.394591644E-2
3.433484788E1,-2.897595465E-1,4.621457458E-1,3.008947708E-2
3.435484788E1,-2.936691046E-1,2.323033214E-1,-3.045599535E-2
3.437484788E1,-4.148647487E-1,-6.726498902E-2,4.998622835E-2
3.439484788E1,-4.514119625E-1,-5.722061992E-1,2.192133479E-2
3.441484788E1,-4.116359055E-1,-1.000946283E0,-5.930628628E-2
3.443484788E1,-2.835636437E-1,-1.162790656E0,-1.210385859E-1
3.445485413E1,-1.416509151E-1,-1.363102198E0,-1.924400032E-1
3.447684631E1,-7.890633494E-2,-1.599105597E0,-2.224596590E-1
3.449684788E1,-1.154360771E-1,-1.721156478E0,-2.332283407E-1
3.451684788E1,-2.629163861E-1,-1.886386752E0,-2.658136487E-1
3.453684788E1,-4.985184073E-1,-2.098339558E0,-2.587276101E-1
3.455884788E1,-7.025299072E-1,-2.024093151E0,-3.030589819E-1
3.458084788E1,-6.575527787E-1,-1.669180512E0,-2.119004279E-1
3.460284788E1,-4.191408157E-1,-1.350099444E0,-3.214896470E-2
3.462484788E1,-2.770361006E-1,-1.049693346E0,1.504299343E-1
3.464484944E1,-2.704038620E-1,-7.056191564E-1,2.942101657E-1
3.466485256E1,-3.531673849E-1,-4.042531550E-1,3.362551332E-1
3.468485569E1,-4.168020785E-1,-2.860420048E-1,3.049962819E-1
3.470684788E1,-3.734830022E-1,-4.102571011E-1,1.713564247E-1
3.472684788E1,-2.967932522E-1,-7.573507428E-1,-5.096361414E-2
3.474684788E1,-2.682571113E-1,-1.107655764E0,-1.450368613E-1
3.476884631E1,-1.709375530E-1,-1.089102864E0,-2.509434521E-1
3.478884631E1,1.190140024E-1,-1.047337174E0,-1.817062348E-1
3.480884944E1,3.148748577E-1,-7.857821584E-1,-1.153488085E-1
3.483084631E1,3.066020012E-1,-5.126730204E-1,-3.512998819E-1
3.485084631E1,3.352079391E-1,-5.326919556E-1,-7.258824110E-1
3.487084631E1,4.928286076E-1,-6.124534607E-1,-7.341552973E-1
3.489084631E1,5.625545382E-1,-4.279721975E-1,-7.402116060E-1
3.491084631E1,5.162335038E-1,-3.782826662E-1,-5.275955796E-1
3.493084788E1,3.236014843E-1,-4.197691381E-1,-2.616423070E-1
3.495284631E1,1.788438857E-1,-5.236511230E-1,-2.565808594E-1
3.497284788E1,7.518878579E-2,-5.470908880E-1,-4.158072472E-1
3.499484788E1,4.956734926E-2,-3.404788375E-1,-5.405284762E-1
3.501684788E1,1.434137076E-1,-1.212305725E-1,-5.818753242E-1
3.503886663E1,1.589645892E-1,-1.285609454E-1,-5.568124056E-1
3.506084631E1,5.345943570E-2,-3.645294607E-1,-4.880115092E-1
3.508084788E1,-9.548696131E-2,-6.421415210E-1,-4.462108612E-1
3.510284788E1,-2.004685104E-1,-9.099797606E-1,-4.096811414E-1
3.512484788E1,-2.166477144E-1,-1.033287287E0,-3.201806545E-1
3.514484788E1,-1.544267386E-1,-1.003162861E0,-1.987057328E-1
3.516486194E1,-6.215117499E-2,-1.031175375E0,-1.306553483E-1
3.518684631E1,-3.815289587E-2,-1.130344987E0,-1.493827254E-1
3.520684788E1,-2.897246554E-2,-1.288070440E0,-1.915673316E-1
3.522884631E1,7.108726352E-2,-1.486828566E0,-2.755176723E-1
3.524884631E1,2.280621678E-1,-1.592455864E0,-3.300068676E-1
3.526884788E1,4.393866360E-1,-1.688344240E0,-3.755948544E-1
3.529084631E1,5.445078015E-1,-1.151201725E0,-4.521275461E-1
3.531084631E1,2.940530777E-1,-1.999274641E-1,-5.957681537E-1
3.533084631E1,2.431941777E-1,-2.893756032E-1,-6.843959689E-1
3.535084631E1,-3.347890675E-1,-7.774569392E-1,-8.507956266E-1
3.537084631E1,-9.527403116E-1,-1.137623072E0,-8.692088723E-1
3.539084631E1,-1.426091075E0,-3.033207655E-1,-7.410144210E-1
3.541084631E1,-9.137670994E-1,-1.361356825E-1,-5.011538267E-1
3.543084788E1,-2.809805572E-1,-1.582315564E-1,-2.583261728E-1
3.545284631E1,-2.693566680E-1,-9.513789415E-2,-1.319294423E-1
3.547284631E1,-2.397209704E-1,-5.371599793E-1,-2.132792324E-1
3.549284631E1,-2.016553432E-1,-1.281909466E0,-3.449468613E-1
3.551284631E1,-1.650034338E-1,-1.952779055E0,-4.371002614E-1
3.553284788E1,-9.883799404E-2,-2.333924055E0,-5.030736923E-1
3.555484631E1,-3.682644665E-2,-2.396441698E0,-5.615247488E-1
3.557484788E1,-5.422737822E-2,-2.203635216E0,-5.825036168E-1
3.559485413E1,-6.370452046E-2,-1.899703622E0,-5.848074555E-1
3.561485412E1,-1.291369051E-1,-1.543621540E0,-4.652873278E-1
3.563684788E1,-2.221804112E-1,-1.035643458E0,-3.937986493E-1
3.565684788E1,-1.772381812E-1,-7.390072942E-1,-2.298773080E-1
3.567684788E1,-2.042035200E-2,-5.916142464E-1,2.548180753E-3
3.569884788E1,3.200933710E-2,-4.647637308E-1,2.166826278E-1
3.572084788E1,-7.991862297E-2,-3.341781795E-1,3.158871531E-1
3.574284788E1,-9.470156580E-2,-2.816786766E-1,3.740938604E-1
3.576484788E1,4.455825686E-2,-5.031784177E-1,3.550697863E-1
3.578485256E1,7.899360359E-2,-9.732828736E-1,3.385415077E-1
3.580684788E1,-8.103563637E-2,-1.321161866E0,4.164704680E-1
3.582684788E1,-8.274605870E-2,-1.348807931E0,3.827332556E-1
3.584684788E1,5.417501926E-2,-1.120187163E0,3.366914690E-1
3.586884631E1,1.702045053E-1,-7.696203589E-1,3.126059175E-1
3.588884631E1,1.448797733E-1,-3.901858032E-1,8.311257511E-2
3.590884788E1,1.551423222E-1,-6.183701381E-2,-3.099006712E-1
3.593084788E1,1.539729387E-1,1.711818874E-1,-6.283185482E-1
3.595284631E1,2.137504667E-1,5.976705551E-1,-6.249151230E-1
3.597284788E1,2.938959897E-1,1.077880383E0,-3.396759629E-1
3.599484788E1,2.195100635E-1,1.548438668E0,-5.656611919E-2
3.601484788E1,1.587202400E-1,1.698763847E0,-1.155408006E-2
3.603484788E1,1.432217211E-1,1.615127683E0,-1.350884885E-1
3.605484788E1,1.145634130E-1,1.342036009E0,-2.642079294E-1
3.607484788E1,1.465029418E-1,9.395630956E-1,-3.382447958E-1
3.609484788E1,1.914800704E-1,5.693438649E-1,-3.735179007E-1
3.611484788E1,2.197893113E-1,3.089581728E-1,-3.853337765E-1
3.613485881E1,2.029643357E-1,2.092649788E-1,-3.461686075E-1
3.615684788E1,1.402721107E-1,1.507615447E-1,-2.557605505E-1
3.617684788E1,7.349581271E-2,3.457497060E-2,-1.783202887E-1
3.619884788E1,3.525565192E-2,-9.869837016E-2,-1.004436985E-1
3.621884788E1,7.894124091E-2,-1.069014147E-1,-3.619812801E-2
3.623886662E1,1.523323357E-1,-4.183554277E-2,8.525933325E-2
3.626084788E1,2.150420099E-1,-6.918485463E-2,1.393994540E-1
3.628284631E1,2.327571064E-1,-1.720894575E-1,1.571843475E-1
3.630284631E1,2.265437394E-1,-2.934596539E-1,8.806931227E-2
3.632284788E1,2.231927067E-1,-5.248728395E-1,-4.605923966E-2
3.634484788E1,2.739643455E-1,-7.428644896E-1,-1.906597614E-1
3.636485881E1,9.304349869E-2,-1.011906981E0,-3.889989853E-1
3.638684788E1,3.536036909E-1,-1.945343912E-1,-1.602212191E-1
3.640884788E1,3.347017765E-1,9.214640260E-1,7.220426947E-2
3.643084631E1,-4.173431396E-1,1.796676874E0,-1.232900545E-1
3.645084631E1,-9.388474822E-1,1.645688415E0,-2.837905288E-1
3.647084631E1,-8.608313203E-1,1.478346229E0,-4.683416486E-1
3.649084631E1,-5.061454773E-1,1.142771721E0,-5.421690941E-1
3.651084788E1,-1.263618320E-1,8.540419340E-1,-3.167248964E-1
3.653084788E1,1.317723542E-1,3.207740486E-1,1.815142483E-2
3.655084788E1,6.918485463E-2,-2.434036136E-1,1.545139998E-1
3.657085569E1,-9.616763890E-2,-5.633399487E-1,2.675589733E-2
3.659284631E1,-1.141445339E-1,-6.344446540E-1,-4.406956211E-2
3.661284788E1,-5.649630725E-2,-5.332679152E-1,1.965240762E-2
3.663485100E1,-2.782054804E-2,-4.998448491E-1,6.623524427E-2
3.665684631E1,-1.743583940E-2,-6.554758549E-1,1.973967440E-2
3.667684631E1,-3.218387067E-2,-7.893600464E-1,6.405358203E-3
3.669684631E1,-6.606071442E-2,-8.561189175E-1,4.293509945E-2
3.671684631E1,-1.080882400E-1,-8.256279826E-1,8.637634665E-2
3.673684631E1,-1.021192148E-1,-7.461107969E-1,1.137954667E-1
3.675684631E1,-7.154104859E-2,-5.981417894E-1,1.892285943E-1
3.677684631E1,-2.792526782E-2,-4.688303471E-1,2.946639359E-1
3.679685412E1,1.413716702E-3,-4.260872304E-1,3.681597412E-1
3.681884631E1,6.981316983E-5,-3.767816722E-1,4.204672575E-1
3.683886506E1,1.797689125E-3,-3.056595027E-1,4.252494574E-1
3.686084631E1,-1.816887781E-2,-3.240552843E-1,3.400948644E-1
3.688084631E1,-1.119454205E-1,-4.236088693E-1,2.576804161E-1
3.690084631E1,-2.577502131E-1,-2.713288963E-1,3.350334167E-1
3.692084631E1,-3.481931984E-1,-5.611233413E-2,3.364122212E-1
3.694084631E1,-2.843315899E-1,3.159045940E-3,2.026152760E-1
3.696084631E1,-1.713389754E-1,-7.836528122E-3,1.434486061E-1
3.698084631E1,-8.838347346E-2,4.761258140E-2,9.981537610E-2
3.700084631E1,5.040510744E-2,2.138202786E-1,-1.996656694E-2
3.702084631E1,2.198416740E-1,5.068086982E-1,-8.030259609E-2
3.704084631E1,2.947337627E-1,7.446098328E-1,-1.342332661E-1
3.706084631E1,3.298672140E-1,5.916317105E-1,-8.431685716E-2
3.708084631E1,2.692344785E-1,5.190085769E-1,2.738421597E-2
3.710084631E1,2.069611400E-1,5.575978160E-1,4.050909355E-2
3.712084631E1,2.043082416E-1,5.545434356E-1,2.710496262E-2
3.714084631E1,2.539105117E-1,4.273089468E-1,-4.174827412E-2
3.716084631E1,3.032858670E-1,1.528559327E-1,-1.524894089E-1
3.718084631E1,2.983640432E-1,-1.013861746E-1,-2.269102484E-1
3.720084631E1,2.599493265E-1,-3.207217157E-1,-2.713114321E-1
3.722084788E1,1.828581393E-1,-5.165476203E-1,-2.950479090E-1
3.724284631E1,6.401867419E-2,-6.752155423E-1,-2.829178572E-1
3.726284631E1,-6.000442058E-2,-7.591832876E-1,-2.359859645E-1
3.728284631E1,-1.307077110E-1,-7.369129062E-1,-1.121897623E-1
3.730284631E1,-1.119628698E-1,-5.736722946E-1,6.696828455E-2
3.732284631E1,-5.516985804E-2,-4.152836502E-1,2.265786380E-1
3.734284631E1,-7.033676840E-3,-2.697406411E-1,2.471037209E-1
3.736284631E1,6.689847261E-2,-2.214473784E-1,1.890889704E-1
3.738284631E1,1.514422148E-1,-2.968281507E-1,8.649851382E-2
3.740284631E1,2.247111350E-1,-5.679999590E-1,-9.253735840E-2
3.742284631E1,3.928561509E-1,-8.751779199E-1,-2.352354825E-1
3.744284631E1,3.957534134E-1,6.110397726E-2,-2.442937344E-1
3.746284631E1,2.774375379E-1,1.371741533E0,-2.879793346E-1
3.748284631E1,1.678134054E-1,1.128652096E0,-2.754827738E-1
3.750284631E1,-4.296651483E-1,8.566948771E-1,-4.062951803E-1
3.752284631E1,-1.167241335E0,7.990989685E-1,-5.171934366E-1
3.754284631E1,-1.046272516E0,5.295154452E-1,-6.297147870E-1
3.756284631E1,-5.410695076E-1,2.157925069E-1,-5.399175882E-1
3.758284631E1,-2.576978505E-1,2.213252038E-1,-2.064549923E-1
3.760284631E1,-1.905899495E-1,9.730210900E-2,1.717403978E-1
3.762284631E1,-2.318844497E-1,-2.224422097E-1,2.392148226E-1
3.764284631E1,-2.265961021E-1,-5.088507533E-1,1.577254087E-1
3.766284631E1,-1.309520602E-1,-7.555181384E-1,1.725257933E-1
3.768284631E1,-3.124139272E-3,-9.224239588E-1,2.162986547E-1
3.770284631E1,7.616616786E-2,-1.119768381E0,1.965938807E-1
3.772284631E1,1.055575162E-1,-1.314826369E0,1.077915356E-1
3.774284631E1,8.822639287E-2,-1.471748829E0,8.377579972E-3
3.776284788E1,4.902629927E-2,-1.554774165E0,-5.588544160E-2
3.778284788E1,8.220500313E-3,-1.505381346E0,-3.143338114E-2
3.780484944E1,1.130973361E-2,-1.282904267E0,6.101670861E-2
3.782684788E1,3.801327199E-2,-9.687449932E-1,1.835388243E-1
3.784684788E1,4.698426276E-2,-6.533640027E-1,3.177895546E-1
3.786684788E1,3.897320107E-2,-3.102846444E-1,3.882485032E-1
3.788684788E1,4.892157763E-2,-4.391248524E-2,3.744603992E-1
3.790684788E1,5.335471407E-2,8.239699155E-2,3.524518013E-1
3.792684788E1,4.981169850E-2,3.401646763E-2,2.917667031E-1
3.794684788E1,3.822271153E-2,7.227408141E-2,2.531949282E-1
3.796684788E1,1.862266287E-2,2.138551921E-1,2.768964767E-1
3.798884788E1,2.656391077E-2,3.258529603E-1,2.256536186E-1
3.801084631E1,1.523672491E-1,3.695909083E-1,4.037993848E-1
3.803084631E1,1.437453181E-1,5.423261523E-1,5.011538267E-1
3.805084631E1,1.902757883E-1,6.050707698E-1,2.251649201E-1
3.807084631E1,3.231651485E-1,-1.446179748E-1,-2.790432274E-1
3.809084631E1,5.045223236E-1,-1.187260270E0,-7.153406739E-1
3.811084631E1,5.520476699E-1,-1.360239744E0,-5.922251344E-1
3.813084631E1,4.260348678E-1,-4.119151533E-1,-1.483704448E-1
3.815084631E1,2.076941729E-1,1.091616154E0,1.287703961E-1
3.817084631E1,9.365436435E-2,2.151135683E0,1.966287941E-1
3.819084631E1,1.888795346E-1,2.167192698E0,2.110452056E-1
3.821084631E1,2.338915765E-1,1.500267625E0,1.034282148E-1
3.823084631E1,1.847780049E-1,7.783121467E-1,-9.683086723E-2
3.825084631E1,6.705555320E-2,5.263913274E-1,-2.285334170E-1
3.827084631E1,-2.007128671E-2,4.121420383E-1,-2.556558251E-1
3.829084631E1,-6.948155910E-2,2.772804499E-1,-2.773153782E-1
3.831084631E1,-1.104444340E-1,1.793849468E-1,-2.358463407E-1
3.833084631E1,-1.324006766E-1,1.608495414E-1,-1.160469428E-1
3.835084631E1,-9.004153311E-2,2.529156506E-1,1.843067631E-2
3.837084788E1,-5.579817668E-2,3.899763525E-1,1.482657194E-1
3.839284631E1,-1.745329209E-4,4.827580750E-1,2.289872020E-1
3.841284631E1,7.166321576E-2,4.484798014E-1,2.109055817E-1
3.843284631E1,1.099731922E-1,3.335847855E-1,1.015781611E-1
3.845284631E1,1.896474808E-1,8.948303014E-2,-4.598942399E-2
3.847284631E1,3.335324228E-1,-3.299370408E-1,-1.925796270E-1
3.849284631E1,6.300114989E-1,-7.431088090E-1,-2.288824767E-1
3.851284631E1,8.461705446E-1,-9.543809295E-1,-2.801951468E-1
3.853284631E1,-8.986700326E-2,-3.224775076E0,-4.899662733E-1
3.855284631E1,-1.445883155E0,-1.222585678E0,-4.128227234E-1
3.857285100E1,-1.184938908E0,1.428220391E0,-4.741710424E-1
3.859484631E1,-7.676656246E-1,2.993134975E0,-4.472929835E-1
3.861484631E1,-1.033583954E-1,2.105495453E0,4.286528751E-2
3.863484788E1,1.089085415E-1,1.528035760E0,8.112290502E-2
3.865485100E1,-3.144559562E-1,9.550092816E-1,8.414231986E-2
3.867684788E1,-4.259301424E-1,1.828057915E-1,-2.373647876E-3
3.869884631E1,-2.778040469E-1,-4.179714620E-1,-6.092944369E-2
3.871884631E1,-3.792600334E-2,-7.383440733E-1,-5.529202893E-2
3.873886506E1,2.156354338E-1,-8.895768523E-1,-6.442010403E-2
3.876084631E1,3.525041342E-1,-8.842012286E-1,-7.396705449E-2
3.878084631E1,3.331309855E-1,-7.953116298E-1,-7.869689912E-2
3.880084631E1,1.982170492E-1,-6.851987839E-1,-7.867944241E-2
3.882084631E1,4.295255244E-2,-6.051405668E-1,-8.101818711E-2
3.884084631E1,-2.710496262E-2,-4.878020585E-1,-5.583308265E-2
3.886084631E1,-4.014257342E-3,-3.313856721E-1,6.366961449E-2
3.888084631E1,5.129522830E-2,-1.291543692E-1,2.861641943E-1
3.890084631E1,5.885250121E-2,1.463109553E-1,4.849920869E-1
3.892084631E1,-1.106538717E-2,4.780456722E-1,5.947558284E-1
3.894084631E1,-7.143632323E-2,6.782523990E-1,6.334148645E-1
3.896084631E1,-5.614724010E-2,5.239129066E-1,6.146700382E-1
3.898084631E1,2.701769583E-2,1.347743273E-1,5.695183873E-1
3.900084631E1,5.379104614E-2,-2.216917276E-1,3.994011581E-1
3.902084631E1,1.986184716E-2,-3.395538032E-1,2.217964381E-1
3.904084631E1,3.789109737E-2,-2.842617631E-1,1.469567269E-1
3.906084631E1,5.632177368E-2,-1.104793400E-1,1.927541643E-1
3.908084631E1,9.014625847E-2,1.102699041E-1,7.607889920E-2
3.910084631E1,1.760339141E-1,1.831199378E-1,-2.742086649E-1
3.912084788E1,2.970550358E-1,-2.576106042E-2,-7.505788207E-1
3.914284631E1,3.511078954E-1,-2.313783020E-1,-9.180257320E-1
3.916284631E1,3.013136387E-1,-7.033676840E-3,-6.154379845E-1
3.918284788E1,1.215621829E-1,2.946464717E-1,-2.210983038E-1
3.920484944E1,1.347394194E-2,6.347064376E-1,-5.797983706E-2
3.922684631E1,3.014183603E-2,7.301061153E-1,-1.399055868E-1
3.924684788E1,6.181956083E-2,5.817705989E-1,-2.506292760E-1
3.926884788E1,4.405210912E-2,1.824218184E-1,-3.844087720E-1
3.929084631E1,-5.352924764E-2,-6.913249195E-2,-4.867374301E-1
3.931084631E1,-1.448797733E-1,1.134464052E-3,-4.893728793E-1
3.933084631E1,-1.672548950E-1,1.993166059E-1,-3.629761338E-1
3.935084631E1,-1.599070728E-1,2.942974269E-1,-2.266310006E-1
3.937084631E1,-1.711295396E-1,2.818183005E-1,-7.621853054E-2
3.939084631E1,-1.785297245E-1,2.109928578E-1,6.332054734E-2
3.941084631E1,-1.219636053E-1,2.061931938E-1,1.959655732E-1
3.943084631E1,-2.516764775E-2,1.590518504E-1,2.622357309E-1
3.945084631E1,9.037315100E-2,1.928588748E-2,2.565284967E-1
3.947084631E1,1.828581393E-1,-2.522000670E-1,2.177472711E-1
3.949084631E1,2.157226950E-1,-6.432585716E-1,1.158898622E-1
3.951084631E1,2.485872507E-1,-1.034578800E0,-2.028072625E-2
3.953084631E1,2.451664060E-1,-1.541439891E0,-1.828930527E-1
3.955084631E1,2.443460934E-2,-2.721474409E0,-4.649906158E-1
3.957084631E1,1.071632188E-2,-2.265070915E0,-5.637413263E-1
3.959084631E1,3.724183440E-1,-6.147747636E-1,-2.246587873E-1
3.961084631E1,-1.387362182E-1,8.592604995E-1,-1.400277615E-1
3.963084631E1,-8.089600801E-1,1.726776361E0,-2.397733331E-1
3.965084631E1,-9.994627833E-1,2.186164618E0,-3.888593614E-1
3.967084631E1,-7.573507428E-1,2.157471180E0,-2.966361642E-1
3.969084631E1,-4.258428812E-1,1.601601362E0,-1.099208370E-1
3.971084631E1,-2.114815414E-1,9.438565969E-1,1.759291887E-1
3.973084788E1,-7.834783196E-2,8.382816613E-2,3.270398080E-1
3.975284788E1,-7.396705449E-2,-5.545958281E-1,1.840449721E-1
3.977485413E1,-6.627015024E-2,-7.863231897E-1,9.571385384E-2
3.979684631E1,-1.609193534E-2,-7.911053896E-1,7.408922911E-2
3.981684788E1,2.078687213E-2,-8.348782659E-1,7.555530220E-2
3.983886662E1,4.591961205E-2,-9.691638947E-1,2.940879762E-2
3.986084788E1,2.748893574E-2,-1.171587110E0,-2.281145379E-2
3.988284631E1,-3.890338913E-2,-1.275486588E0,-5.143485218E-2
3.990284631E1,-8.253662288E-2,-1.239358306E0,-3.738495335E-2
3.992284631E1,-7.079055160E-2,-1.030547142E0,1.560324337E-2
3.994284631E1,-4.380776547E-3,-7.228280902E-1,1.766622216E-1
3.996284788E1,2.794272080E-2,-4.517435730E-1,3.559249938E-1
3.998484631E1,-7.539822254E-3,-2.350260317E-1,4.955687821E-1
4.000484944E1,-5.942846090E-2,-6.670648605E-2,5.317494869E-1
4.002684631E1,-5.403539166E-2,3.900810704E-2,4.729842246E-1
4.004684788E1,-1.593485661E-2,1.132718660E-2,4.187393785E-1
4.006684788E1,-1.335176919E-2,-1.019970402E-1,4.133637846E-1
4.008684788E1,-2.532472648E-2,-1.808510125E-1,4.319340885E-1
4.010684788E1,-1.544616371E-2,-2.010793835E-1,4.147774875E-1
4.012884788E1,8.555603772E-2,-2.131396085E-1,4.457047284E-1
4.015084788E1,1.587202400E-1,-1.449844986E-1,5.274385214E-1
4.017284788E1,1.937489957E-1,3.380702808E-2,2.725855112E-1
4.019284788E1,2.925869823E-1,6.948155910E-2,-2.386214137E-1
4.021484788E1,4.555309415E-1,-1.178446338E-1,-7.254111767E-1
4.023484788E1,4.949928224E-1,-4.923573881E-2,-7.943691611E-1
4.025484788E1,3.158173263E-1,2.420597076E-1,-5.236511230E-1
4.027484788E1,1.389805675E-1,6.941872835E-1,-2.685887218E-1
4.029684631E1,6.311110407E-2,1.155093789E0,-2.322335094E-1
4.031684788E1,8.011060953E-2,1.338178873E0,-2.474353313E-1
4.033886662E1,1.077217236E-1,1.028644681E0,-3.046995699E-1
4.036084788E1,1.295732409E-1,4.293684363E-1,-4.025078416E-1
4.038284631E1,9.040805697E-2,6.649704650E-3,-4.665265083E-1
4.040284788E1,-1.972221956E-2,-1.286482215E-1,-4.653396904E-1
4.042484788E1,-7.442083955E-2,-7.531096041E-2,-4.232423306E-1
4.044485412E1,-5.476843193E-2,1.488765888E-2,-2.893406749E-1
4.046486194E1,-1.961750165E-2,1.022937447E-1,-1.169719696E-1
4.048684631E1,3.677408770E-2,2.296504229E-1,7.675957680E-2
4.050684788E1,2.139773592E-2,2.694788277E-1,2.156354338E-1
4.052684788E1,1.720894687E-2,1.259953231E-1,2.692694068E-1
4.054884788E1,3.707079217E-2,-1.529781073E-1,2.251649201E-1
4.057084631E1,8.456119895E-2,-5.195496082E-1,1.307775229E-1
4.059084788E1,1.227315515E-1,-7.917162776E-1,2.410299703E-2
4.061284631E1,1.986010075E-1,-8.367282748E-1,-4.349360615E-2
4.063284631E1,1.970825791E-1,-1.142911434E0,-2.980498672E-1
4.065284631E1,3.070557714E-1,-8.080874570E-3,-3.668507636E-1
4.067284631E1,3.813369870E-1,9.715898633E-1,-3.843215108E-2
4.069284631E1,-2.051983625E-1,7.753799558E-1,-2.159321308E-1
4.071284631E1,-9.242914915E-1,7.103315592E-1,-3.726801574E-1
4.073284631E1,-1.113048792E0,1.398130894E0,-4.628787637E-1
4.075284788E1,-7.012732625E-1,1.121007562E0,-3.647214472E-1
4.077484788E1,-3.277379274E-1,7.587295175E-1,-1.632580906E-1
4.079484788E1,-2.807536721E-1,5.600761771E-1,1.216319948E-1
4.081684788E1,-2.298249602E-1,1.482308060E-1,7.195992768E-2
4.083886662E1,-1.563815027E-1,-3.778463304E-1,-9.007643908E-2
4.086084788E1,-5.963790044E-2,-8.054345250E-1,-1.279675364E-1
4.088284631E1,4.169591516E-2,-1.032292485E0,-1.007578596E-1
4.090284631E1,8.566076308E-2,-1.122560859E0,-1.155058891E-1
4.092284631E1,7.031931728E-2,-1.194485903E0,-1.660506278E-1
4.094284631E1,3.139847144E-2,-1.200873733E0,-2.019869536E-1
4.096284788E1,-1.642354764E-2,-1.079660654E0,-1.923178285E-1
4.098484788E1,-1.471312530E-2,-9.050928354E-1,-1.299746633E-1
4.100486038E1,4.773475602E-2,-7.304028273E-1,-7.079055160E-2
4.102684788E1,1.315803677E-1,-5.844933391E-1,8.517206647E-3
4.104684788E1,1.763480604E-1,-4.496666193E-1,1.596976221E-1
4.106684788E1,1.526290476E-1,-2.542071939E-1,2.975262702E-1
4.108884631E1,6.735225767E-2,1.291543618E-2,3.644247353E-1
4.110884788E1,-1.464331243E-2,1.375319511E-1,3.487516940E-1
4.112884788E1,-8.621926606E-2,-4.742059484E-2,2.835636437E-1
4.115084788E1,-1.144586951E-1,-5.559397340E-1,2.147627622E-1
4.117284788E1,-1.591391265E-1,-9.682214260E-1,1.629439443E-1
4.119284788E1,-2.166826278E-1,-1.030285358E0,1.954419762E-1
4.121484788E1,-1.794547588E-1,-7.272612453E-1,2.755002081E-1
4.123484788E1,-4.995132238E-2,-3.271794319E-1,3.888767958E-1
4.125684631E1,7.375761122E-2,1.563989520E-1,3.221877813E-1
4.127684788E1,2.298424095E-1,4.531572759E-1,3.331833705E-2
4.129884631E1,3.661002517E-1,5.625021458E-1,-2.982069552E-1
4.131884631E1,3.645643592E-1,6.721262932E-1,-3.720343709E-1
4.133886662E1,2.716430426E-1,6.976255774E-1,-2.644173801E-1
4.136084788E1,1.718800217E-1,8.461879492E-1,-2.637192421E-2
4.138084788E1,1.785122752E-1,1.251558185E0,-2.249729447E-2
4.140284788E1,2.226691097E-1,1.610921383E0,-6.108652428E-2
4.142485725E1,2.560921609E-1,1.415688872E0,-1.068839654E-1
4.144684788E1,2.856405973E-1,7.534062862E-1,-2.372251451E-1
4.146884631E1,3.212103844E-1,1.306727976E-1,-3.437949419E-1
