"Time (s)","Linear Acceleration x (m/s^2)","Linear Acceleration y (m/s^2)","Linear Acceleration z (m/s^2)"
1.199687500E-2,5.691999793E-1,3.658999801E-1,1.142019939E1
3.199687500E-2,-5.094999671E-1,-3.467700005E0,3.141599894E0
5.199687500E-2,1.503600001E0,1.331099987E0,1.750599980E0
7.199687500E-2,1.976499915E0,1.079930019E1,5.918399811E0
9.200156300E-2,-2.495199919E0,9.294599533E0,-3.111599922E0
1.219968750E-1,1.240299940E0,6.164000034E0,-6.119099617E0
1.419968750E-1,4.597899914E0,-5.259999633E-1,1.840799928E0
1.619968750E-1,4.344500065E0,-4.938799858E0,3.871099949E0
1.820046880E-1,4.376999855E0,-6.014999866E0,-4.843199730E0
2.119968750E-1,2.763900042E0,-2.653899908E0,-7.820099831E0
2.319968750E-1,4.380999804E-1,-1.081200004E0,-4.437999725E0
2.519968750E-1,-1.597000003E0,7.135999799E-1,1.805299997E0
2.820000000E-1,-2.020999938E-1,3.694999814E-1,-1.544999957E0
3.119968750E-1,8.988999724E-1,-8.008999825E-1,1.385599971E0
3.320015630E-1,3.729599953E0,-3.945499897E0,2.412999868E0
3.619953130E-1,2.178299904E0,1.396699905E0,-2.486199856E0
3.820031250E-1,1.627999902E0,1.087100029E0,-2.975299835E0
4.119968750E-1,1.351499915E0,-2.648599863E0,-1.203799963E0
4.319968750E-1,2.802999914E-1,-3.710999966E0,-2.406699896E0
4.519968750E-1,-1.594099998E0,-5.563600063E0,-4.191499710E0
4.819968750E-1,-8.948599815E0,-9.287799835E0,-4.047500134E0
5.019968750E-1,-9.940400124E0,-1.300990009E1,5.719999790E0
5.220078130E-1,-6.592999935E0,-1.501049995E1,6.109699726E0
5.519968750E-1,-5.203499794E0,-1.883449936E1,-5.521999836E0
5.819968750E-1,-7.059199810E0,-1.759959984E1,-6.195199966E0
6.019968750E-1,-4.006299973E0,-2.148149872E1,6.304000020E-1
6.319968750E-1,5.551999807E-1,-2.496309853E1,-4.752099991E0
6.619968750E-1,-8.011300087E0,-1.661019897E1,-5.448400021E0
6.919953130E-1,1.972000003E0,-2.712839890E1,8.677899361E0
7.119968750E-1,1.333619976E1,-3.386059952E1,9.325499535E0
7.319968750E-1,2.016160011E1,-3.716740036E1,-6.471799850E0
7.519968750E-1,1.156299973E1,-3.799359894E1,-1.009560013E1
7.719968750E-1,2.318300009E0,-5.110589981E1,1.718669891E1
7.919968750E-1,2.680999994E0,-4.953469849E1,3.900169754E1
8.119968750E-1,-1.380599976E0,-4.398629761E1,1.939539909E1
8.319968750E-1,-1.277119923E1,-3.996229935E1,8.158399582E0
8.619953130E-1,-1.580439949E1,-4.033469772E1,4.386909866E1
8.819968750E-1,-9.689499855E0,-3.901229858E1,3.680199814E1
9.119968750E-1,-1.575019932E1,-2.164739990E1,1.311879921E1
9.319968750E-1,-8.026599884E0,-2.411439896E1,1.613599968E1
9.519968750E-1,-8.967499733E0,-2.470079994E1,2.301219940E1
9.719968750E-1,-1.335239983E1,-1.835350037E1,2.720319939E1
9.919968750E-1,-9.300199509E0,-1.409770012E1,2.690899849E1
1.011996875E0,-5.654599667E0,-1.592879963E1,2.141139984E1
1.041996875E0,-1.489569950E1,-1.231869984E1,1.765550041E1
1.061996875E0,-1.779920006E1,-7.570199966E0,1.462479973E1
1.081996875E0,-1.482759953E1,-8.370499611E0,2.016329956E1
1.101996875E0,-1.072739983E1,-1.438879967E1,2.399839973E1
1.121996875E0,-1.335389996E1,-1.300570011E1,2.634210014E1
1.141996875E0,-1.346999931E1,-1.169889927E1,2.484350014E1
1.161996875E0,-1.219789982E1,-1.485199928E1,1.750679970E1
1.181996875E0,-1.995030022E1,-1.171840000E1,1.058570004E1
1.201996875E0,-2.105439949E1,-6.504600048E0,7.031899929E0
1.221996875E0,-1.209929943E1,-5.517199993E0,1.113369942E1
1.241996875E0,-8.754699707E0,-7.211599827E0,9.519299507E0
1.271995313E0,-2.446829987E1,-7.393699646E0,8.104599953E0
1.291995313E0,-2.716619873E1,-6.185100079E0,7.699100018E0
1.311996875E0,-2.253149986E1,-1.835869980E1,3.920499802E0
1.341995313E0,-1.664089966E1,-2.143919945E1,7.807699680E0
1.361995313E0,-9.307600021E0,-2.048499870E1,3.151799917E0
1.381996875E0,-4.220799923E0,-2.213579941E1,-2.639199972E0
1.411996875E0,-4.168299675E0,-2.452789879E1,-4.904699802E0
1.431996875E0,-5.316299915E0,-1.992429924E1,-2.694099903E0
1.451996875E0,-4.370100021E0,-1.782040024E1,-1.200999990E-1
1.471996875E0,-4.008100033E0,-2.176869965E1,-1.099200010E0
1.491996875E0,-5.195499897E0,-2.313689995E1,-3.272399902E0
1.511996875E0,-6.559399605E0,-1.939109993E1,-4.701399803E0
1.541995313E0,-4.641299725E0,-1.451939964E1,-4.437299728E0
1.561996875E0,-6.781099796E0,-1.565329933E1,-7.260399818E0
1.581996875E0,-7.964599609E0,-1.400769997E1,-9.961500168E0
1.601996875E0,-8.130700111E0,-1.277250004E1,-1.065439987E1
1.621996875E0,-6.777499676E0,-1.284099960E1,-1.086779976E1
1.641996875E0,-4.096300125E0,-1.067899990E1,-1.087909985E1
1.661996875E0,-4.660599709E0,-8.458099365E0,-8.372799873E0
1.691995313E0,-8.301499367E0,-4.094200134E0,-9.716400146E0
1.711995313E0,-1.375239944E1,-3.341899872E0,-8.033200264E0
1.731996875E0,-1.301239967E1,2.788699865E0,-1.551369953E1
1.761995313E0,-4.847499847E0,-1.024699926E0,-7.545799732E0
1.781996875E0,2.497999966E-1,-5.712000132E-1,-6.039700031E0
1.801996875E0,1.763099909E0,2.437399864E0,-7.377399921E0
1.831995313E0,2.838399887E0,-1.991199970E0,4.510200024E0
1.851995313E0,1.512799978E0,2.325399876E0,-3.103899956E0
1.871996875E0,-4.513999820E-1,1.348899961E0,-3.566499949E0
1.901995313E0,-1.440199971E0,-2.499999851E-2,-4.789000034E0
1.921995313E0,-1.193699956E0,5.429999828E-1,-5.787399769E0
1.941996875E0,-3.997499943E0,3.208199978E0,1.002799988E0
1.971995313E0,-4.014699936E0,1.757299900E0,-5.081799984E0
1.991995313E0,-4.616699696E0,1.591999978E-1,-5.564699650E0
2.011996875E0,-2.576299906E0,-1.448799968E0,-5.533199787E0
2.041995313E0,-1.797199965E0,2.307299852E0,-3.151700020E0
2.061995313E0,-5.478999615E-1,-6.685000062E-1,-4.817899704E0
2.081996875E0,-5.238000154E-1,5.670799732E0,-6.906199932E0
2.111995313E0,2.224499941E0,2.748199940E0,-7.565999627E-1
2.131995313E0,4.248099804E0,3.126899958E0,-1.028699970E1
2.151995313E0,3.043699980E0,2.100199938E0,-4.549900055E0
2.171996875E0,-2.155099869E0,1.899499893E0,4.150999784E-1
2.201996875E0,2.753299952E0,-9.211999774E-1,-4.559899807E0
2.231996875E0,-9.308400154E0,-5.126599789E0,4.683099747E0
2.261995313E0,-7.999300003E0,-8.323900223E0,-7.271699905E0
2.281995313E0,-9.329999685E-1,-1.172609997E1,-1.836899996E0
2.301996875E0,-5.008100033E0,-1.865979958E1,9.205499649E0
2.331995313E0,6.307999611E0,-2.447739983E1,-5.301300049E0
2.351995313E0,1.746920013E1,-1.965909958E1,-1.765899897E0
2.371996875E0,1.912669945E1,-1.805349922E1,-3.239899874E0
2.401995313E0,1.633160019E1,-8.475699425E0,-3.069200039E0
2.421995313E0,1.594849968E1,-7.803599834E0,-1.952199936E0
2.441996875E0,1.142749977E1,-2.757499933E0,-7.265299797E0
2.471995313E0,3.646099806E0,-3.611599922E0,-4.670899868E0
2.491995313E0,1.518700004E0,4.239999875E-2,-6.540699959E0
2.511996875E0,8.009999990E-2,3.125599861E0,-8.779899597E0
2.531996875E0,-1.506799936E0,6.761299610E0,-1.049230003E1
2.561996875E0,-5.961099625E0,6.573899746E0,-5.546199799E0
2.581996875E0,-8.270500183E0,5.298199654E0,-3.950799942E0
2.601996875E0,-8.872200012E0,4.778500080E0,-4.075699806E0
2.631995313E0,-8.535499573E0,2.325299978E0,-2.977099895E0
2.651995313E0,-5.278899670E0,1.338899970E0,-1.125800014E0
2.671996875E0,6.437000036E-1,-8.991000056E-1,-5.997999907E-1
2.701995313E0,1.195129967E1,-4.442699909E0,1.413699985E0
2.721995313E0,1.665180016E1,-4.533599854E0,2.536499977E0
2.741995313E0,1.995689964E1,-3.020900011E0,4.097199917E0
2.761995313E0,1.921450043E1,-3.843999803E-1,9.264999628E-1
2.781995313E0,1.337659931E1,3.874000013E-1,1.054899931E0
2.801996875E0,6.386299610E0,-3.559999764E-1,3.056699991E0
2.831996875E0,-1.032199979E0,-2.109999955E-2,4.369499683E0
2.851996875E0,-5.214999914E-1,3.304999828E0,4.617999792E-1
2.871996875E0,2.893499851E0,5.115799904E0,-5.628399849E0
2.901995313E0,-4.192000031E-1,-8.825999498E-1,-6.561299801E0
2.921995313E0,6.754999757E-1,-5.926599979E0,-6.121900082E0
2.941996875E0,-3.806499958E0,-1.113259983E1,2.732599974E0
2.971995313E0,3.128599882E0,-1.199999973E-1,-1.050449944E1
2.991995313E0,1.554199934E0,-3.402999878E0,3.730599880E0
3.011996875E0,-2.671700001E0,-6.500599861E0,-4.792200089E0
3.031996875E0,-5.408400059E0,-7.146199703E0,-6.898999691E0
3.061995313E0,-8.536199570E0,-1.099030018E1,-4.591000080E0
3.081996875E0,-4.412300110E0,-7.748999596E0,4.241600037E0
3.101996875E0,-2.904799938E0,-5.141999722E0,1.401399970E0
3.131995313E0,-1.995700002E0,-4.644899845E0,-1.160699964E0
3.151995313E0,-2.857899904E0,-2.250099897E0,8.355000019E-1
3.171996875E0,-2.796900034E0,-7.621999979E-1,-1.093299985E0
3.201996875E0,1.141999960E-1,-4.607999921E-1,2.687999904E-1
3.231996875E0,-3.506399870E0,3.080999851E-1,-1.659299970E0
3.261995313E0,-2.924899817E0,1.876699924E0,-3.123399973E0
3.281995313E0,-9.200000018E-2,2.825899839E0,-3.197199821E0
3.301996875E0,3.000000026E-3,2.008800030E0,-1.502200007E0
3.331995313E0,-1.031999961E-1,-8.269299507E0,-2.507200003E0
3.351995313E0,-1.086300015E0,-1.070109940E1,-4.000899792E0
3.371996875E0,-2.073600054E0,-7.034899712E0,-1.818699956E0
3.401995313E0,-1.742399931E0,-1.203909969E1,7.421999574E-1
3.421995313E0,-3.186399937E0,-6.721299648E0,1.603299975E0
3.441996875E0,-3.936299801E0,-1.695899963E0,1.820599914E0
3.471995313E0,-1.134500027E0,3.716799974E0,7.105999589E-1
3.491995313E0,1.050300002E0,3.909999847E0,1.125999928E0
3.511996875E0,3.284799814E0,-8.592000008E-1,5.040000007E-2
3.531996875E0,1.209900022E0,-5.681900024E0,-2.860800028E0
3.561995313E0,-7.210999727E-1,-5.759799957E0,-3.989899874E0
3.581995313E0,-1.866099954E0,1.445599914E0,-3.419099808E0
3.601996875E0,-4.827999771E-1,4.863199711E0,-3.534399986E0
3.631995313E0,1.090999991E-1,5.201099873E0,-1.972399950E0
3.651995313E0,1.047099948E0,3.849399805E0,-1.952999949E0
3.671996875E0,2.180399895E0,2.020999908E0,-2.001499891E0
3.701996875E0,2.023399830E0,-3.779000044E-1,-1.019999981E0
3.731996875E0,1.090600014E0,-1.572399974E0,1.587899923E0
3.761995313E0,-6.413999796E-1,-3.627799988E0,2.012199879E0
3.781995313E0,-1.676999927E-1,-3.105199814E0,1.870899916E0
3.801996875E0,1.116599917E0,-1.344900012E0,1.726799965E0
3.831995313E0,1.046199918E0,-2.556999922E-1,7.687999606E-1
3.851995313E0,-8.489999771E-1,-1.095399976E0,-1.674399972E0
3.871996875E0,-2.972800016E0,-2.207000017E0,-5.325599670E0
3.891996875E0,-4.640899658E0,-3.674700022E0,-8.685999870E0
3.921995313E0,-5.058399677E0,-4.587599754E0,-6.888599873E0
3.941996875E0,-4.653599739E0,-1.286299944E0,-3.489499807E0
3.971995313E0,-4.989099979E0,-4.183000028E-1,-2.864599943E0
3.991996875E0,-4.781699657E0,6.503999829E-1,-2.800699949E0
4.011996875E0,-3.940499783E0,1.284600019E0,-2.079499960E0
4.031996875E0,-2.009999901E-1,6.977999806E-1,-9.513999820E-1
4.061995313E0,4.401599884E0,-1.156799912E0,-3.847999871E-1
4.081995313E0,1.869699955E0,2.711400032E0,-4.993999898E-1
4.101995313E0,-4.904999733E-1,5.578299999E0,-3.753999770E-1
4.121995313E0,-1.763299942E0,7.645599842E0,1.480000000E-2
4.141995313E0,-1.507599950E0,8.038499832E0,7.750000060E-2
4.161996875E0,-9.065999985E-1,6.197399616E0,2.997999787E-1
4.191995313E0,-4.784999788E-1,3.216699839E0,8.285999894E-1
4.211995313E0,-1.589999944E-1,8.402999640E-1,4.193999767E-1
4.231996875E0,3.455999792E-1,-1.181299925E0,7.285999656E-1
4.261995313E0,-5.839999765E-2,-2.918499947E0,2.072900057E0
4.281995313E0,7.710000128E-2,-3.426499844E0,2.066799879E0
4.301996875E0,2.072700024E0,-4.077600002E0,-6.462000012E-1
4.331995313E0,-1.125100017E0,-3.360299826E0,-4.594899654E0
4.351995313E0,-5.131199837E0,-1.299600005E0,-5.194499969E0
4.371996875E0,-5.131099701E0,-1.467999965E-1,-7.623899937E0
4.401995313E0,-4.115200043E0,-4.053699970E0,3.253999949E-1
4.421995313E0,-4.627999783E0,-4.711800098E0,-1.254099965E0
4.441996875E0,-5.426499844E0,-3.226300001E0,-1.564899921E0
4.461996875E0,-3.969299793E0,-1.610599995E0,-1.317799926E0
4.481996875E0,-2.196300030E0,-1.797000021E-1,-1.100399971E0
4.511996875E0,-4.627999961E-1,7.204999924E-1,-2.276999950E0
4.541995313E0,3.612999916E-1,1.552999973E0,-1.302699924E0
4.561995313E0,3.425999880E-1,2.563199997E0,3.477999866E-1
4.581995313E0,5.748000145E-1,3.356499910E0,1.689999938E0
4.601996875E0,5.929999948E-1,3.064199924E0,2.151700020E0
4.631995313E0,9.053999782E-1,3.201599836E0,2.466399908E0
4.651995313E0,1.026600003E0,3.731799841E0,2.753000021E0
4.671996875E0,1.473599911E0,3.695499897E0,2.162499905E0
4.701995313E0,2.146899939E0,3.204299927E0,2.220299959E0
4.721995313E0,2.296700001E0,1.921499968E0,2.176100016E0
4.741996875E0,2.046799898E0,-5.773000121E-1,2.158400059E0
4.771996875E0,2.149099827E0,-4.392099857E0,2.736899853E0
4.801996875E0,2.808699846E0,-4.706399918E0,3.776399851E0
4.831995313E0,2.327299833E0,-3.240899801E0,1.033299923E0
4.851995313E0,1.900399923E0,-3.616899967E0,-8.581999540E-1
4.871995313E0,1.013499975E0,-3.685899973E0,-2.162699938E0
4.891995313E0,-8.556999564E-1,-1.872999907E0,-2.373800039E0
4.911995313E0,-2.845299959E0,-1.820799947E0,-4.237299919E0
4.931995313E0,-4.678999901E0,-3.074599981E0,-6.235199928E0
4.951996875E0,-6.129399776E0,-2.445600033E0,-6.763499737E0
4.981995313E0,-3.297099829E0,1.398999989E-1,-6.469899654E0
5.001995313E0,-1.278499961E0,5.494999886E-1,-3.649299860E0
5.021995313E0,2.412999868E-1,1.120999932E0,-9.952999949E-1
5.041995313E0,1.264699936E0,2.279899836E0,8.464999795E-1
5.061995313E0,2.123800039E0,3.415400028E0,1.675599933E0
5.081995313E0,2.396699905E0,4.152100086E0,1.651799917E0
5.101995313E0,2.373299837E0,4.556200027E0,1.212700009E0
5.121995313E0,2.460500002E0,4.250400066E0,1.073300004E0
5.141995313E0,2.000499964E0,4.032299995E0,7.064999938E-1
5.161996875E0,1.197899938E0,5.098899841E0,1.221799970E0
5.191995313E0,-7.960000038E-1,5.108799934E0,5.582999587E-1
5.211995313E0,-1.274500012E0,4.074800014E0,-1.045400023E0
5.231996875E0,-2.866999805E-1,1.999199986E0,-9.742999673E-1
5.261995313E0,1.364099979E0,-1.495999992E-1,3.226999938E-1
5.281995313E0,1.927299976E0,-1.151899934E0,8.949999809E-1
5.301996875E0,2.145499945E0,-2.783299923E0,-3.779999912E-2
5.331995313E0,1.561199903E0,-5.270699978E0,-2.507900000E0
5.351995313E0,1.167500019E0,-5.200699806E0,-1.520699978E0
5.371995313E0,8.295999765E-1,-4.287600040E0,-8.186999559E-1
5.391995313E0,2.510000020E-2,-2.094699860E0,-1.657999992E0
5.411995313E0,-7.403999567E-1,-2.811100006E0,-3.631599903E0
5.431995313E0,-6.448999643E-1,-3.411499977E0,-3.477900028E0
5.451995313E0,-1.004899979E0,-4.477200031E0,-1.272199988E0
5.471995313E0,-1.939199924E0,-5.223799706E0,8.299999870E-3
5.491995313E0,-2.820299864E0,-3.641299963E0,9.258999825E-1
5.511996875E0,-3.366299868E0,-2.075799942E0,-4.494999945E-1
5.541995313E0,-3.351799965E0,-1.564999968E-1,-8.957999945E-1
5.562001563E0,-1.668499947E0,1.243499994E0,4.011999965E-1
5.591995313E0,-3.152000010E-1,2.392699957E0,2.678999901E0
5.611995313E0,3.109000027E-1,2.857199907E0,3.688499928E0
5.631995313E0,6.072999835E-1,3.533999920E0,4.125199795E0
5.651995313E0,5.777999759E-1,4.205399990E0,4.122999668E0
5.671995313E0,6.051999927E-1,4.751999855E0,3.370999813E0
5.691995313E0,7.846999764E-1,5.163300037E0,2.203699827E0
5.711995313E0,9.569999576E-1,4.906699657E0,1.256099939E0
5.731996875E0,8.843999505E-1,4.082999706E0,9.639999866E-1
5.761995313E0,2.825999856E-1,2.907299995E0,8.919999599E-1
5.781995313E0,-4.041000009E-1,1.879099965E0,8.849999905E-1
5.801995313E0,-3.140999973E-1,-3.400000036E-1,1.034799933E0
5.821995313E0,1.322999895E-1,-2.842499971E0,7.911999822E-1
5.841995313E0,3.606999815E-1,-5.344699860E0,8.296999931E-1
5.861995313E0,8.457999825E-1,-4.828199863E0,2.528100014E0
5.881995313E0,2.024299860E0,-5.627799988E0,1.019500017E0
5.901995313E0,2.700399876E0,-7.026599884E0,-1.466999948E-1
5.921995313E0,2.004699945E0,-4.267699718E0,2.483000010E-1
5.941996875E0,8.951999545E-1,-2.255300045E0,5.023999810E-1
5.961996875E0,-3.152000010E-1,-4.318999767E0,-4.138999879E-1
5.981996875E0,-2.015899897E0,-5.197199821E0,-2.593999803E-1
6.011996875E0,-4.012899876E0,-2.968699932E0,-2.070099831E0
6.041995313E0,-1.953099966E0,-1.626099944E0,-2.105999947E0
6.061995313E0,-3.933999836E-1,-8.129000068E-1,-1.140499949E0
6.081995313E0,2.766000032E-1,1.115700006E0,7.335000038E-1
6.101995313E0,3.296000063E-1,2.819799900E0,1.687799931E0
6.121995313E0,-1.476999968E-1,4.074999809E0,2.236000061E0
6.141995313E0,6.893000007E-1,4.696000099E0,2.609599829E0
6.161996875E0,1.122200012E0,4.629899979E0,1.690199971E0
6.191995313E0,1.575299978E0,5.113699913E0,1.861599922E0
6.211995313E0,1.771600008E0,4.770999908E0,1.768199921E0
6.231996875E0,1.561699986E0,4.312599659E0,1.720299959E0
6.261995313E0,1.081699967E0,2.978399992E0,1.251099944E0
6.281995313E0,1.004999995E0,1.822399974E0,1.238999963E0
6.301996875E0,8.851000071E-1,6.486999989E-1,9.738999605E-1
6.331995313E0,8.980000019E-1,-1.931800008E0,-8.209999651E-2
6.351995313E0,6.843000054E-1,-2.826799870E0,-2.140000015E-1
6.371996875E0,1.043499947E0,-3.621500015E0,-7.574999928E-1
6.401995313E0,1.267099977E0,-3.983399868E0,-2.961999893E0
6.421995313E0,1.654799938E0,-3.005599976E0,-1.517599940E0
6.441996875E0,-2.525699854E0,-3.608500004E0,-3.353499889E0
6.461996875E0,-4.184799671E0,-3.132299900E0,-3.978699923E0
6.491995313E0,-4.512799740E0,-3.952399969E0,-2.260099888E0
6.511996875E0,-4.627199650E0,-6.340799809E0,1.365599990E0
6.541995313E0,-3.266499996E0,-5.997799873E0,2.771600008E0
6.561995313E0,-1.125399947E0,-2.891700029E0,1.468599916E0
6.581995313E0,-5.867999792E-1,-8.891999722E-1,1.940799952E0
6.601995313E0,-2.750000060E-1,1.403299928E0,2.435499907E0
6.621995313E0,2.583000064E-1,3.307799816E0,2.703399897E0
6.641995313E0,7.116000056E-1,4.698100090E0,2.896499872E0
6.661996875E0,1.000100017E0,5.489399910E0,2.775300026E0
6.691995313E0,1.282799959E0,6.343199730E0,2.465899944E0
6.711995313E0,9.265999794E-1,6.614699841E0,1.751199961E0
6.731996875E0,2.989999950E-1,6.269499779E0,4.509999752E-1
6.761995313E0,-3.012000024E-1,4.846999645E0,-1.033900023E0
6.781995313E0,-3.662999868E-1,3.741699934E0,-6.785999537E-1
6.801996875E0,-9.754999876E-1,2.119499922E0,-3.403999805E-1
6.831996875E0,-9.878000021E-1,-2.721899986E0,-3.492999971E-1
6.851996875E0,-6.588000059E-1,-5.082399845E0,-3.136999905E-1
6.871996875E0,-5.949000120E-1,-6.012000084E0,4.591999948E-1
6.901995313E0,6.750999689E-1,-4.457699776E0,2.545399904E0
6.921996875E0,1.921599984E0,-5.260600090E0,1.711899996E0
6.941996875E0,2.339699984E0,-5.347399712E0,8.198999763E-1
6.961996875E0,1.660699964E0,-2.413699865E0,5.400999784E-1
6.991995313E0,5.273999572E-1,-3.031299829E0,-6.481999755E-1
7.011995313E0,-6.157999635E-1,-4.261199951E0,-9.169999957E-1
7.031996875E0,-2.352099895E0,-3.380999804E0,-1.455199957E0
7.061995313E0,-2.634500027E0,-3.786999881E-1,-1.799299955E0
7.081995313E0,-1.128000021E0,-1.504999995E-1,-1.477100015E0
7.101996875E0,-1.796000004E-1,9.126999974E-1,-4.666999876E-1
7.131996875E0,5.439999700E-1,3.217799902E0,-4.219999909E-2
7.161996875E0,1.254999995E0,4.784399986E0,7.652999759E-1
7.191995313E0,1.551599979E0,5.483999729E0,1.445299983E0
7.211995313E0,1.179099917E0,5.329799652E0,1.740799904E0
7.231996875E0,5.845999718E-1,4.676399708E0,1.801399946E0
7.261995313E0,-1.509999949E-2,3.415999889E0,1.481599927E0
7.281995313E0,-7.490000129E-2,2.475899935E0,1.397699952E0
7.301996875E0,4.319999814E-1,1.078999996E0,1.095299959E0
7.331995313E0,1.586799979E0,-6.797999740E-1,8.077999949E-1
7.351995313E0,1.533199906E0,-1.578299999E0,3.476999998E-1
7.371996875E0,1.272899985E0,-2.665099859E0,-2.342999876E-1
7.391996875E0,5.403000116E-1,-3.588099957E0,-6.707999706E-1
7.421995313E0,3.092900038E0,-4.725299835E0,-2.724499941E0
7.441996875E0,3.081399918E0,-4.545499802E0,-4.821099758E0
7.471995313E0,-3.809999943E0,-2.420599937E0,-5.537299633E0
7.491995313E0,-2.921499968E0,-2.074399948E0,-2.195699930E0
7.511996875E0,-2.267299891E0,-3.440500021E0,2.823999822E-1
7.541995313E0,-4.489900112E0,-4.347000122E0,1.923099995E0
7.561996875E0,-5.598899841E0,-3.363299847E0,1.235099912E0
7.591996875E0,-3.539799929E0,-2.139199972E0,1.487499952E0
7.621995313E0,-6.918999553E-1,-1.882999986E-1,1.935699940E0
7.641996875E0,-1.261999905E-1,1.904599905E0,2.096199989E0
7.661996875E0,1.030000001E-1,3.386299849E0,1.787299991E0
7.691995313E0,5.684999824E-1,5.467199802E0,1.660099983E0
7.711995313E0,8.087999821E-1,5.127599716E0,1.298499942E0
7.731996875E0,7.828999758E-1,5.093899727E0,1.140200019E0
7.761995313E0,2.939999998E-1,4.677499771E0,7.732999921E-1
7.781995313E0,-3.709999844E-2,4.840399742E0,2.830999792E-1
7.801995313E0,-2.735999823E-1,3.443499804E0,2.009999938E-2
7.821995313E0,-3.175999820E-1,1.474699974E0,4.617999792E-1
7.841995313E0,1.684999913E-1,-2.316999882E-1,3.525999784E-1
7.861995313E0,8.030999899E-1,-1.487399936E0,4.068999887E-1
7.881996875E0,5.451999903E-1,-2.212399960E0,9.705999494E-1
7.911995313E0,2.899000049E-1,-4.045099735E0,6.049999595E-1
7.931995313E0,5.342999697E-1,-4.709899902E0,1.900999993E-1
7.951996875E0,1.141899943E0,-4.174099922E0,4.098999798E-1
7.981995313E0,9.716999531E-1,-5.336199760E0,5.189999938E-1
8.001995313E0,2.649999857E-1,-2.911499977E0,5.026999712E-1
8.021996875E0,-6.592999697E-1,-2.163100004E0,2.829999849E-2
8.051995313E0,-1.529999971E0,-2.571300030E0,-3.206000030E-1
8.071995313E0,-2.455199957E0,-2.829999924E0,-1.456200004E0
8.091996875E0,-3.180299997E0,-1.497900009E0,-2.014099836E0
8.111996875E0,-2.721299887E0,-5.141000152E-1,-3.240700006E0
8.131996875E0,-8.865999579E-1,7.118999958E-1,-2.390300035E0
8.161996875E0,1.894099951E0,1.992899895E0,1.092999950E-1
8.191995313E0,2.328299999E0,4.012099743E0,9.251999855E-1
8.211995313E0,2.442100048E0,5.101599693E0,1.046800017E0
8.231996875E0,2.390300035E0,5.654799938E0,1.442799926E0
8.261996875E0,1.366299987E0,5.352399826E0,1.647399902E0
8.281996875E0,1.132599950E0,3.856299877E0,1.353799939E0
8.301996875E0,2.133999914E-1,2.843799829E0,5.500999689E-1
8.331995313E0,-6.688999534E-1,1.469499946E0,3.348000050E-1
8.351995313E0,2.199999988E-1,-1.984999925E-1,-7.778999805E-1
8.371995313E0,1.990299940E0,-1.541700006E0,-1.176399946E0
8.391995313E0,2.125799894E0,-1.480000019E0,-4.408999979E-1
8.411995313E0,1.529899955E0,-1.806999922E0,4.009999931E-1
8.431995313E0,1.476300001E0,-2.872200012E0,4.991999865E-1
8.451996875E0,1.371799946E0,-4.388499737E0,4.968999922E-1
8.471996875E0,2.141900063E0,-4.799900055E0,-5.444999933E-1
8.491996875E0,2.235399961E0,-5.070600033E0,-9.043999910E-1
8.521996875E0,-2.705600023E0,-2.840899944E0,-5.059199810E0
8.551995313E0,-2.764099836E0,2.635999918E-1,-3.614799976E0
8.571995313E0,-9.689999819E-1,2.220599890E0,-1.025499940E0
8.591996875E0,-1.232800007E0,-3.482699871E0,-2.522199869E0
8.621995313E0,-4.806900024E0,-5.615499973E0,6.830000132E-2
8.641996875E0,-5.388299942E0,-2.531899929E0,3.499099970E0
8.661996875E0,-3.909899950E0,-4.338999987E-1,1.913699985E0
8.681996875E0,-1.880100012E0,6.931999922E-1,1.520599961E0
8.711995313E0,-2.836999893E-1,4.472499847E0,2.635799885E0
8.731996875E0,8.149999976E-1,5.135900021E0,3.077699900E0
8.761995313E0,1.247900009E0,5.506599903E0,3.046299934E0
8.781995313E0,9.936999679E-1,5.949399948E0,2.327899933E0
8.801996875E0,4.828999937E-1,5.045700073E0,2.075999975E0
8.831996875E0,3.623999953E-1,4.212699890E0,1.597000003E0
8.851996875E0,2.149999887E-2,3.614399910E0,1.249099970E0
8.881995313E0,-5.658999681E-1,1.320999980E0,5.360999703E-1
8.901995313E0,-1.024699926E0,-1.055899978E0,-3.915999830E-1
8.921995313E0,-1.054600000E0,-2.631500006E0,-5.609999895E-1
8.941996875E0,-6.378999949E-1,-4.834899902E0,5.299999937E-2
8.961996875E0,-1.074000001E-1,-6.295499802E0,-1.016099930E0
8.981996875E0,1.082700014E0,-6.282299995E0,-5.404999852E-1
9.011995313E0,1.361199975E0,-5.739500046E0,5.345999599E-1
9.031995313E0,9.876999855E-1,-4.252699852E0,5.802999735E-1
9.051995313E0,7.817999721E-1,-2.149299860E0,1.464999914E-1
9.071995313E0,1.366299987E0,-7.119999528E-1,2.427999973E-1
9.091996875E0,5.918999910E-1,-2.162600040E0,-6.013000011E-1
9.111996875E0,-7.378999591E-1,-3.576200008E0,-1.488499999E0
9.131996875E0,-2.521199942E0,-2.776399851E0,-3.119099855E0
9.161996875E0,-3.352499962E0,-4.834999740E-1,-3.253299952E0
9.191995313E0,-1.157500029E0,1.605199933E0,-8.050999641E-1
9.211995313E0,1.121299982E0,2.625699997E0,2.155999988E-1
9.231996875E0,2.324100018E0,3.646899939E0,9.884999990E-1
9.261995313E0,2.298399925E0,4.428899765E0,-2.242999971E-1
9.281996875E0,1.836899996E0,4.449699879E0,-1.095199943E0
9.301996875E0,1.584100008E0,4.677199841E0,-7.736999989E-1
9.331995313E0,1.772199988E0,3.781899929E0,3.280999959E-1
9.351995313E0,2.046599865E0,3.316599846E0,8.087999821E-1
9.371996875E0,2.150799990E0,2.699300051E0,7.777999640E-1
9.391996875E0,1.671800017E0,2.014299870E0,1.812899947E0
9.421995313E0,1.871999979E0,-1.490999937E0,4.674299717E0
9.441995313E0,1.393999934E0,-2.705299854E0,3.605999947E0
9.461996875E0,1.549299955E0,-2.217700005E0,2.631000042E0
9.491995313E0,2.154000044E0,-2.304699898E0,2.267999947E-1
9.511996875E0,2.470700026E0,-2.157999992E0,-2.230000019E0
9.531996875E0,1.915799975E0,-3.317099810E0,-1.928599954E0
9.561995313E0,-3.547099829E0,-4.472099781E0,-3.691499949E0
9.581995313E0,-5.198800087E0,-4.360399723E0,-4.677499771E0
9.601996875E0,-3.396600008E0,-5.093499660E0,-4.327300072E0
9.631995313E0,-2.707000017E0,-7.488999844E0,8.123999834E-1
9.651995313E0,-2.697700024E0,-6.453199863E0,8.922999501E-1
9.671995313E0,-1.592599988E0,-3.367300034E0,1.085999966E0
9.691995313E0,-6.550999880E-1,2.307000011E-1,1.584800005E0
9.711995313E0,-3.344999850E-1,2.521699905E0,1.913299918E0
9.731995313E0,-3.294999897E-1,4.159899712E0,1.908499956E0
9.751995313E0,-1.659999974E-2,5.940499783E0,2.616199970E0
9.771995313E0,3.647999763E-1,7.280999660E0,2.954900026E0
9.791996875E0,4.494999945E-1,7.757299900E0,2.959899902E0
9.811996875E0,3.238999844E-1,7.842700005E0,2.641999960E0
9.831996875E0,5.279999971E-2,6.626899719E0,1.583199978E0
9.851996875E0,-7.148000002E-1,5.112099648E0,8.079999685E-1
9.871996875E0,-1.259500027E0,3.699599981E0,-1.307999939E-1
9.891996875E0,-1.787299991E0,2.299299955E0,-3.048999906E-1
9.921995313E0,-8.648999929E-1,3.005999923E-1,4.912000000E-1
9.941995313E0,-3.348999918E-1,-1.449299932E0,1.950000040E-2
9.961996875E0,2.269999981E-1,-3.231699944E0,6.839999557E-2
9.991995313E0,9.972999692E-1,-5.524699688E0,3.765999973E-1
1.001199531E1,6.715999842E-1,-6.088599682E0,9.132999778E-1
1.003199531E1,4.475999773E-1,-5.863199711E0,8.434000015E-1
1.005199531E1,7.238000035E-1,-6.456199646E0,-6.819999963E-2
1.007199531E1,4.167999923E-1,-2.217099905E0,2.440999895E-1
1.009199688E1,8.338999748E-1,5.238999724E-1,1.377999932E-1
1.012199531E1,3.463999927E-1,-4.176700115E0,-4.378999770E-1
1.014199531E1,-1.760100007E0,-4.161799908E0,-5.767999887E-1
1.016199688E1,-4.164899826E0,-2.959699869E0,-2.397899866E0
1.019199531E1,-4.278399944E0,-1.683000028E-1,-3.214399815E0
1.021199531E1,-1.825699925E0,1.019600034E0,-2.013399839E0
1.023199688E1,1.058999971E-1,1.747999907E0,-1.222999930E0
1.026199531E1,7.412999868E-1,3.511499882E0,-7.189999521E-2
1.028199531E1,1.217299938E0,4.483500004E0,7.107999921E-1
1.030199688E1,1.376799941E0,5.123899937E0,9.156999588E-1
1.032199688E1,1.490499973E0,5.049099922E0,1.985999942E-1
1.035199531E1,1.147699952E0,4.438899994E0,5.109999776E-1
1.037199688E1,8.246999979E-1,4.059700012E0,1.186200023E0
1.039199688E1,9.144999981E-1,2.829699993E0,1.211799979E0
1.042199531E1,1.103999972E0,9.558999538E-1,1.575699925E0
1.044199531E1,1.264400005E0,-2.025000006E-1,6.380999684E-1
1.046199688E1,1.614499927E0,-9.951999784E-1,-6.047999859E-1
1.049199531E1,3.111799955E0,-2.190199852E0,-3.602899790E0
1.051199531E1,2.961799860E0,-3.672399998E0,-4.000999928E0
1.053199688E1,2.565500021E0,-3.722299814E0,-3.955499887E0
1.056199531E1,-5.428000093E-1,-5.023399830E0,-4.677999973E0
1.058199531E1,-4.604899883E0,-2.226999998E0,-1.498499990E0
1.060199688E1,-5.397599697E0,-2.129299879E0,-2.188600063E0
1.063199531E1,-3.609099865E0,-3.932999849E0,1.032999977E-1
1.065199531E1,-3.086299896E0,-5.374799728E0,3.955599785E0
1.067200000E1,-4.570799828E0,-5.702799797E0,3.775199890E0
1.070199688E1,-3.530900002E0,-1.795300007E0,2.839499950E0
1.073199688E1,-1.310699940E0,1.189000010E0,1.796199918E0
1.076199531E1,2.876999974E-1,3.465699911E0,6.304000020E-1
1.078199531E1,9.235999584E-1,4.720499992E0,8.718000054E-1
1.080199688E1,1.123000026E0,5.280799866E0,1.332299948E0
1.082199688E1,1.373999953E0,5.382199764E0,1.664499998E0
1.085199531E1,1.419600010E0,4.932899952E0,1.260299921E0
1.087199688E1,1.238999963E0,3.953899860E0,6.927999854E-1
1.089199688E1,8.008999825E-1,3.328599930E0,3.323999941E-1
1.092199531E1,5.302000046E-1,2.506500006E0,-3.979999945E-2
1.094199531E1,6.916999817E-1,1.414600015E0,-6.083999872E-1
1.096199531E1,6.667999625E-1,-3.235999942E-1,-6.891999841E-1
1.098199531E1,3.819999993E-1,-1.896799922E0,-3.446999788E-1
1.100199531E1,3.583999872E-1,-3.264199972E0,1.395499945E0
1.102199688E1,-6.159999967E-1,-4.360799789E0,2.097499847E0
1.105199531E1,-8.025999665E-1,-3.808899879E0,-5.785999894E-1
1.107199531E1,-4.878999889E-1,-4.207699776E0,-1.006899953E0
1.109199688E1,-4.533999860E-1,-3.625799894E0,2.334999889E-1
1.112199531E1,-3.094999790E-1,-2.960999966E0,1.894299984E0
1.114199531E1,7.409999520E-2,-3.961899996E0,1.696399927E0
1.116199688E1,-1.152199984E0,-2.958299875E0,6.989999861E-2
1.119199531E1,-2.069000006E0,-1.099200010E0,-2.573099852E0
1.121199531E1,-6.311999559E-1,-8.526999950E-1,-2.072700024E0
1.123199688E1,5.339999795E-1,-4.752999842E-1,-2.577999830E-1
1.126199531E1,1.160200000E0,1.113899946E0,1.260100007E0
1.128199531E1,1.360499978E0,2.673199892E0,1.526099920E0
1.130199688E1,1.513199925E0,3.779099941E0,1.201399922E0
1.132199688E1,1.576099992E0,4.486000061E0,7.378000021E-1
1.135199531E1,1.540099978E0,4.358399868E0,6.423000097E-1
1.137199688E1,1.313199997E0,3.463299990E0,5.013999939E-1
1.139199688E1,1.023900032E0,3.104799986E0,4.298000038E-1
1.142199531E1,6.672999859E-1,2.751899958E0,3.195999861E-1
1.144199531E1,4.431999922E-1,2.153800011E0,4.457999766E-1
1.146199688E1,3.634999990E-1,1.254499912E0,4.619999826E-1
1.149199688E1,9.830999970E-1,-4.036999941E-1,2.500999868E-1
1.152199844E1,2.277099848E0,-2.099999905E0,-5.992999673E-1
1.155199688E1,3.020599842E0,-2.456199884E0,-1.648699999E0
1.158199531E1,8.500000089E-2,-4.936800003E0,-3.049199820E0
1.160199688E1,-4.298199654E0,-3.348299980E0,-3.811999798E0
1.163199531E1,-3.534899950E0,-4.371900082E0,-3.279299974E0
1.165199531E1,-2.136399984E0,-5.852399826E0,-4.999999655E-4
1.167199688E1,-2.324899912E0,-6.647899628E0,1.631599903E0
1.170199531E1,-2.873299837E0,-3.141899824E0,1.926099896E0
1.172199531E1,-2.385900021E0,-1.282699943E0,2.879099846E0
1.174199688E1,-1.872699976E0,4.605999887E-1,3.571499825E0
1.177199531E1,-7.143999934E-1,2.821099997E0,2.796599865E0
1.179199531E1,-1.239999942E-2,3.863799810E0,2.305899858E0
1.181199688E1,5.013999939E-1,4.415100098E0,2.325799942E0
1.184199531E1,7.384999990E-1,4.816599846E0,2.181099892E0
1.186199531E1,3.998000026E-1,4.964399815E0,1.800899982E0
1.188199531E1,-2.219999880E-1,4.968899727E0,1.094599962E0
1.190199531E1,-7.806999683E-1,4.638999939E0,2.044999897E-1
1.192199531E1,-9.967999458E-1,4.067800045E0,-4.081999958E-1
1.194199531E1,-8.628000021E-1,3.065899849E0,-7.033999562E-1
1.196199688E1,-4.210999906E-1,1.500000000E0,-1.005999923E0
1.199199531E1,-5.345999599E-1,-2.215199947E0,-7.084000111E-1
1.201199531E1,-1.158699989E0,-4.068799973E0,-7.899999619E-3
1.203199688E1,-1.439399958E0,-4.997999668E0,4.129999876E-2
1.206199531E1,-7.609999776E-1,-4.353799820E0,3.035999835E-1
1.208199531E1,-4.009999931E-1,-5.455599785E0,7.717999816E-1
1.210199688E1,7.729999721E-2,-4.672299862E0,1.620999932E0
1.213199531E1,5.893999934E-1,-1.980499983E0,1.625299931E0
1.215199531E1,6.304000020E-1,-2.986299992E0,1.348999977E0
1.217199688E1,-1.069999952E-2,-3.918499947E0,4.413999915E-1
1.220199531E1,-1.969599962E0,-1.611899972E0,-1.249300003E0
1.222199531E1,-1.692699909E0,-5.703999996E-1,-2.676499844E0
1.224199531E1,-4.684999883E-1,2.118999958E-1,-2.289999962E0
1.226199531E1,7.070999742E-1,7.012000084E-1,-9.804999828E-1
1.228199531E1,1.584399939E0,1.845600009E0,9.049999714E-2
1.230199688E1,1.753899932E0,3.454599857E0,6.844999790E-1
1.232199688E1,1.503700018E0,4.937099934E0,3.692999780E-1
1.235199531E1,1.209599972E0,5.489199638E0,1.613999903E-1
1.237199531E1,1.089399934E0,5.084300041E0,8.334999681E-1
1.239199688E1,4.623000026E-1,4.162499905E0,1.309599996E0
1.242199531E1,-6.802999973E-1,2.849900007E0,1.249599934E0
1.244199531E1,-1.067299962E0,1.665099978E0,5.223000050E-1
1.246199688E1,-4.741999805E-1,5.861999989E-1,9.950000048E-2
1.249199531E1,6.782999635E-1,3.529999778E-2,-4.332999885E-1
1.251199531E1,1.364599943E0,-8.197000027E-1,-5.662999749E-1
1.253199688E1,2.039399862E0,-1.808999896E0,-4.908999801E-1
1.255199688E1,2.846199989E0,-2.565099955E0,-5.529999733E-1
1.257199688E1,3.625899792E0,-2.646899939E0,-2.169999838E0
1.259199688E1,3.362299919E0,-3.683300018E0,-5.956099987E0
1.262199531E1,8.959999681E-1,-3.594099998E0,-3.271899939E0
1.264199531E1,-1.893499970E0,-1.787400007E0,-3.314399958E0
1.266199688E1,-1.423099995E0,-1.665300012E0,-2.847199917E0
1.269199531E1,-2.673699856E0,-4.329400063E0,-1.439999938E-1
1.271199531E1,-3.978299856E0,-4.361700058E0,2.631099939E0
1.273199688E1,-4.166800022E0,-4.004799843E0,2.086600065E0
1.276199531E1,-2.570199966E0,-2.577899933E0,2.579799891E0
1.278199531E1,-1.842899919E0,-6.814999580E-1,3.011600018E0
1.280199688E1,-1.185299993E0,1.491400003E0,2.773499966E0
1.282199688E1,-5.852000117E-1,3.114300013E0,2.491999865E0
1.285199531E1,3.091999888E-1,4.454699993E0,2.411599874E0
1.287199531E1,6.604999900E-1,4.787600040E0,2.079900026E0
1.289199531E1,9.704999924E-1,4.932399750E0,1.778599977E0
1.291199531E1,7.842999697E-1,4.723599911E0,1.317899942E0
1.293199531E1,6.801999807E-1,4.386699677E0,1.032999992E0
1.295199688E1,7.436999679E-1,3.608199835E0,8.192999959E-1
1.298199531E1,4.600999951E-1,2.166499853E0,4.677999914E-1
1.300199531E1,2.576999962E-1,1.187299967E0,2.726999819E-1
1.302199688E1,3.029999882E-2,-4.953999817E-1,-1.167999953E-1
1.305199531E1,-6.768000126E-1,-3.721099854E0,-4.147999883E-1
1.307199531E1,-5.875999928E-1,-4.649300098E0,2.408999950E-1
1.309199688E1,-5.257999897E-1,-3.805399895E0,8.836999536E-1
1.312199531E1,1.512999982E-1,-3.757499933E0,1.033499956E0
1.314199531E1,3.810999990E-1,-4.514999866E0,1.251699924E0
1.316199688E1,9.899999946E-2,-2.695799828E0,1.132599950E0
1.319199531E1,4.035999775E-1,-2.317699909E0,-1.242999911E0
1.321199688E1,-5.412999988E-1,-2.930099964E0,-2.359999895E0
1.323199688E1,-2.546599865E0,-2.851699829E0,-3.097699881E0
1.326199531E1,-3.435999870E0,-9.899999946E-3,-2.497299910E0
1.328199531E1,-2.391799927E0,1.240299940E0,-1.563099980E0
1.330199688E1,-1.121699929E0,1.463199973E0,-3.287999928E-1
1.332199688E1,-1.467999965E-1,2.388000011E0,5.995000005E-1
1.335199531E1,1.099999994E-1,3.923699856E0,1.016700029E0
1.337199531E1,4.469999969E-1,4.703399658E0,8.054999709E-1
1.339199688E1,8.166999817E-1,4.756899834E0,5.706999898E-1
1.342199531E1,1.141899943E0,3.884799957E0,5.365999937E-1
1.344199531E1,8.517999649E-1,3.098299980E0,7.842999697E-1
1.346199688E1,2.566999793E-1,2.309399843E0,1.066699982E0
1.349199688E1,-3.905999959E-1,1.306699991E0,7.159000039E-1
1.352199688E1,1.035999954E-1,2.784000039E-1,2.267999947E-1
1.355199531E1,1.298399925E0,-7.473999858E-1,-3.509999812E-2
1.357199531E1,1.635399938E0,-1.299499989E0,-5.101999640E-1
1.359199688E1,2.134199858E0,-2.803999901E0,-1.744499922E0
1.362199531E1,1.868799925E0,-3.108599901E0,-4.376199722E0
1.364199531E1,2.787199974E0,-2.721199989E0,-6.833799839E0
1.366199688E1,1.850600004E0,-3.754199982E0,-5.202600002E0
1.369199531E1,-2.517999887E0,-2.069099903E0,-3.675699949E0
1.371199531E1,-2.633100033E0,-3.418999910E-1,-2.400399923E0
1.373199688E1,-2.456799984E0,-2.231299877E0,-8.267999887E-1
1.375199688E1,-3.722499847E0,-3.641499996E0,2.008399963E0
1.378199688E1,-4.445600033E0,-4.356599808E0,2.514499903E0
1.380199688E1,-3.449699879E0,-3.213199854E0,2.243299961E0
1.382199688E1,-1.924499989E0,-1.474200010E0,2.775599957E0
1.385199688E1,-9.344999790E-1,1.699299932E0,2.716300011E0
1.388199688E1,-8.329999447E-2,3.621299982E0,2.344899893E0
1.391199531E1,6.236000061E-1,4.577199936E0,1.964499950E0
1.393199531E1,7.935999632E-1,5.102099895E0,1.622999907E0
1.395199688E1,4.499000013E-1,5.113899708E0,1.131500006E0
1.398199531E1,4.742999971E-1,4.717599869E0,1.066100001E0
1.400199531E1,4.982999861E-1,3.957099915E0,5.568999648E-1
1.402199688E1,1.421999931E-1,3.100800037E0,2.303999960E-1
1.405199531E1,9.899999946E-3,1.260800004E0,1.070999950E-1
1.407199531E1,-1.678999960E-1,-2.122999877E-1,-4.570999742E-1
1.409199688E1,-5.604000092E-1,-2.175699949E0,-8.570999503E-1
1.412199531E1,-6.782000065E-1,-4.449899673E0,-3.756999969E-1
1.414199531E1,-6.342999935E-1,-4.125199795E0,-5.934999585E-1
1.416199688E1,-6.171000004E-1,-3.785300016E0,-8.342999816E-1
1.419199531E1,-5.945999622E-1,-4.926499844E0,-3.265999854E-1
1.421199531E1,2.486999929E-1,-3.542899847E0,4.409999847E-1
1.423199688E1,1.874499917E0,-2.181499958E0,1.400000006E-1
1.426199531E1,1.525999904E0,-2.084100008E0,7.137999535E-1
1.428199531E1,-9.699999690E-1,-2.075999975E0,-8.302999735E-1
1.430199688E1,-2.856400013E0,-1.378000021E0,-2.421999931E0
1.432199688E1,-3.392999887E0,2.615000010E-1,-2.922099829E0
1.435199531E1,-1.116699934E0,8.447999954E-1,-1.725499988E0
1.437199531E1,3.750000000E-1,1.268399954E0,-2.597000003E-1
1.439199688E1,5.357999802E-1,2.192699909E0,6.998999715E-1
1.442199531E1,7.385999560E-1,3.447700024E0,8.646000028E-1
1.444199531E1,1.196299911E0,3.935799837E0,3.391000032E-1
1.446199531E1,1.424399972E0,4.137700081E0,6.489999592E-2
1.448199531E1,1.054600000E0,4.002599716E0,3.734999895E-1
1.450199531E1,1.578999907E-1,3.453199863E0,6.390999556E-1
1.452199688E1,-5.121999979E-1,2.844099998E0,7.439999580E-1
1.455199688E1,-5.442000031E-1,1.734899998E0,6.233999729E-1
1.458199531E1,4.649999738E-1,3.510999978E-1,6.426999569E-1
1.460199688E1,1.344299912E0,-1.791999936E-1,9.226999879E-1
1.463199531E1,1.609099984E0,-9.393999577E-1,9.343999624E-1
1.465199531E1,1.329299927E0,-1.920799971E0,4.711000025E-1
1.467199531E1,1.364399910E0,-2.767899990E0,-4.866999984E-1
1.469199531E1,2.815699816E0,-2.964099884E0,-2.711999893E0
1.471199531E1,3.209899902E0,-3.927899837E0,-5.876899719E0
1.473199688E1,2.112799883E0,-4.632299900E0,-5.910799980E0
1.476199531E1,-3.198799849E0,-6.592999697E-1,-4.774600029E0
1.478199531E1,-2.226199865E0,-1.446799994E0,-2.250000000E0
1.480199688E1,-3.231699944E0,-4.062999725E0,7.349999994E-2
1.483199531E1,-4.014699936E0,-4.252099991E0,3.704699993E0
1.485199531E1,-2.877199888E0,-3.354599953E0,1.341899991E0
1.487199531E1,-1.651699901E0,-1.591399908E0,1.751699924E0
1.489199531E1,-7.168999910E-1,3.350000083E-2,1.416499972E0
1.491199531E1,-1.667999923E-1,1.796199918E0,1.353799939E0
1.493199531E1,2.187999934E-1,3.214499950E0,1.716499925E0
1.495199688E1,6.777999997E-1,4.026400089E0,1.935499907E0
1.498199531E1,8.237999678E-1,4.823299885E0,2.127899885E0
1.500199531E1,5.056999922E-1,5.003499985E0,1.956699967E0
1.502199531E1,2.091999948E-1,5.074599743E0,1.573300004E0
1.504199688E1,-1.756999940E-1,4.918999672E0,1.053300023E0
1.507199531E1,-2.547000051E-1,3.169399977E0,8.159999549E-2
1.509199688E1,-5.521999598E-1,2.103600025E0,1.098999977E-1
1.512199531E1,-4.946999848E-1,8.100999594E-1,7.209999859E-2
1.514199531E1,-6.477000117E-1,-7.022999525E-1,-4.327999949E-1
1.516199688E1,-8.009999990E-1,-2.883800030E0,-3.255999982E-1
1.519199531E1,-1.501999944E-1,-5.268300056E0,8.609999716E-2
1.521199531E1,-1.081999987E-1,-4.520100117E0,1.823000014E-1
1.523199688E1,-3.053999841E-1,-3.491400003E0,1.358000040E-1
1.526199531E1,-1.955000013E-1,-3.722299814E0,-1.212999970E-1
1.528199531E1,-3.287000060E-1,-2.457499981E0,-5.179999769E-2
1.530199531E1,-2.588000000E-1,-1.412099957E0,-2.972999811E-1
1.532199531E1,-5.600999594E-1,-8.179999590E-1,-4.448999763E-1
1.534199531E1,-1.542999983E0,-8.500999808E-1,-1.659500003E0
1.536199531E1,-3.611500025E0,-1.598599911E0,-3.285099983E0
1.538199531E1,-3.866499901E0,-6.953999996E-1,-3.654199839E0
1.540199531E1,-2.692299843E0,5.138999820E-1,-2.908799887E0
1.542199531E1,-9.228999615E-1,4.747999907E-1,-1.691199899E0
1.544199531E1,2.105000019E-1,9.572999477E-1,-6.999999750E-3
1.546199531E1,5.365999937E-1,2.186100006E0,8.797000051E-1
1.548199531E1,9.772999883E-1,3.291800022E0,1.005299926E0
1.550199531E1,1.483999968E0,4.113800049E0,8.115999699E-1
1.552199688E1,1.850999951E0,4.402499676E0,7.852999568E-1
1.555199688E1,1.570500016E0,3.740799904E0,1.148599982E0
1.558199531E1,9.872999787E-1,2.597199917E0,1.501099944E0
1.560199688E1,8.245999813E-1,1.965199947E0,1.629799962E0
1.563199531E1,1.174999952E0,1.036199927E0,1.550400019E0
1.565199531E1,1.433200002E0,2.533999979E-1,1.498099923E0
1.567199688E1,1.906799912E0,-5.916000009E-1,1.241500020E0
1.570199531E1,2.546099901E0,-2.052599907E0,2.789999917E-2
1.572199531E1,2.228399992E0,-2.859599829E0,-8.000999689E-1
1.574199688E1,1.828199983E0,-2.971099854E0,-7.154999971E-1
1.577199531E1,2.452399969E0,-3.767899990E0,-6.606999874E0
1.579199531E1,-7.269999981E-1,-3.963099957E0,-3.916499853E0
1.581199531E1,-3.829099894E0,-1.521099925E0,-7.083799839E0
1.583199531E1,-1.648399949E0,-2.460999936E-1,-4.225999832E0
1.585199531E1,-1.480399966E0,-2.202899933E0,-1.506099939E0
1.587199531E1,-4.210299969E0,-4.757699966E0,2.492999882E-1
1.589199531E1,-6.134199619E0,-4.184199810E0,2.631599903E0
1.591199531E1,-5.137199879E0,-3.706899881E0,1.429899931E0
1.593199531E1,-2.825299978E0,-2.629099846E0,2.627099991E0
1.595199531E1,-1.554499984E0,-1.311999917E0,3.801399946E0
1.597199531E1,-9.562000036E-1,5.873999596E-1,3.443699837E0
1.599199531E1,-5.364999771E-1,2.374699831E0,2.694700003E0
1.601199531E1,-1.909999922E-2,3.311499834E0,2.055399895E0
1.603199531E1,6.474999785E-1,4.064399719E0,1.791199923E0
1.605199531E1,9.388999939E-1,4.553400040E0,1.519199967E0
1.607199531E1,1.024999976E0,4.854199886E0,1.259799957E0
1.609199531E1,8.841999769E-1,4.406599998E0,8.744999766E-1
1.611199531E1,7.547000051E-1,3.376199961E0,7.100999951E-1
1.613199531E1,1.093999967E-1,2.923099995E0,5.060999990E-1
1.615199531E1,-2.505999804E-1,2.408099890E0,1.287999898E-1
1.617199531E1,-3.055999875E-1,1.703199983E0,-6.830000132E-2
1.619199531E1,-3.852999806E-1,3.337000012E-1,-1.204999983E-1
1.621199531E1,-6.943999529E-1,-1.119699955E0,3.260999918E-1
1.623199531E1,-1.074000001E0,-2.220399857E0,7.820999622E-1
1.625199531E1,-1.186399937E0,-3.214200020E0,8.328999877E-1
1.627199531E1,-7.932999730E-1,-3.358799934E0,1.049000025E0
1.629199531E1,2.427999973E-1,-3.593599796E0,1.263700008E0
1.631199531E1,1.373399973E0,-4.550199986E0,1.638499975E0
1.633199531E1,2.113100052E0,-4.058499813E0,1.949299932E0
1.635199531E1,3.158599854E0,-2.655799866E0,1.448699951E0
1.637199531E1,3.270200014E0,-3.066900015E0,1.585899949E0
1.639199531E1,1.860999942E0,-3.286899805E0,6.128999591E-1
1.641199531E1,-5.139999986E-1,-3.058899879E0,-1.559899926E0
1.643199531E1,-1.781999946E0,-2.380699873E0,-3.155999899E0
1.645199531E1,-1.405399919E0,-1.250899911E0,-4.026899815E0
1.647199531E1,-2.206999958E-1,7.699999958E-2,-3.849200010E0
1.649199531E1,3.261999786E-1,9.372999668E-1,-2.572099924E0
1.651199688E1,4.829999804E-2,1.815599918E0,-1.163900018E0
1.653199688E1,-1.326999962E-1,2.962800026E0,-2.222999930E-1
1.656199844E1,-2.663999796E-1,4.651799679E0,5.232999921E-1
1.659199688E1,-4.310999811E-1,4.757400036E0,9.825999737E-1
1.662199531E1,-9.979999661E-1,4.230999947E0,7.760999799E-1
1.664199531E1,-1.558399916E0,3.960399866E0,1.686999947E-1
1.666199688E1,-1.381099939E0,2.841199875E0,-6.300000008E-3
1.669199531E1,-6.689999700E-1,1.446099997E0,1.118899941E0
1.671199531E1,8.009999990E-2,8.119999766E-1,1.406000018E0
1.673199688E1,5.726000071E-1,-1.099999994E-3,1.152699947E0
1.676199531E1,1.000900030E0,-1.318199992E0,1.595999897E-1
1.678199531E1,1.632299900E0,-2.645099878E0,-3.287999928E-1
1.680199531E1,2.322700024E0,-3.817699909E0,-9.077000022E-1
1.682199688E1,2.897399902E0,-4.354399681E0,-2.549299955E0
1.685199531E1,1.709699988E0,-4.423599720E0,-1.947199941E0
1.687199531E1,4.679999873E-2,-3.756099939E0,-8.165000081E-1
1.689199688E1,-3.542000055E-1,-1.745899916E0,-2.941900015E0
1.692199531E1,-1.193499923E0,-6.996999979E-1,-1.061900020E0
1.694199531E1,-2.048899889E0,-1.620299935E0,3.599999845E-1
1.696199688E1,-2.857499838E0,-2.649699926E0,1.368399978E0
1.699199531E1,-2.488499880E0,-3.016599894E0,1.894199967E0
1.701199531E1,-8.847999573E-1,-1.905299902E0,2.501600027E0
1.703199531E1,-4.219999909E-2,-4.728999734E-1,2.176100016E0
1.705199531E1,-1.297999918E-1,1.252699971E0,2.059200048E0
1.707199531E1,-4.129999876E-2,2.652699947E0,2.223500013E0
1.709199688E1,-6.700000167E-2,3.622599840E0,2.088500023E0
1.712199531E1,-5.350000039E-2,4.438600063E0,1.841499925E0
1.714199531E1,3.879999742E-2,4.491499901E0,1.352999926E0
1.716199688E1,3.920000046E-2,4.387199879E0,8.438999653E-1
1.718199688E1,3.529999778E-2,3.888000011E0,4.493999779E-1
1.721199688E1,1.295000017E-1,2.429600000E0,6.674999595E-1
1.723199688E1,1.103999987E-1,1.718999982E0,6.577999592E-1
1.725199688E1,3.472999930E-1,8.118999600E-1,4.290999770E-1
1.728199531E1,4.439999759E-1,-1.416399956E0,4.549999908E-2
1.730199531E1,4.278999865E-1,-3.388299942E0,9.559999406E-2
1.732199688E1,8.069999814E-1,-4.724899769E0,3.790999949E-1
1.735199531E1,6.409999728E-1,-3.756799936E0,-2.371999919E-1
1.737199531E1,2.331999987E-1,-3.048300028E0,-4.970999956E-1
1.739199688E1,-6.870999932E-1,-2.827800035E0,-5.550000072E-1
1.742199688E1,-9.910999537E-1,-1.183599949E0,-3.287999928E-1
1.745199688E1,-2.335000038E0,-8.348000050E-1,-1.609799981E0
1.748199531E1,-4.131700039E0,-1.715399981E0,-2.996599913E0
1.750199531E1,-5.155999660E0,-1.643499970E0,-2.700099945E0
1.752199688E1,-4.901299953E0,-7.270999551E-1,-1.609499931E0
1.755199531E1,-2.034199953E0,-1.959999949E-1,-3.932999969E-1
1.757199531E1,-3.431999981E-1,8.325999975E-1,6.399999857E-1
1.759199688E1,1.098299980E0,2.088599920E0,1.342000008E0
1.762199531E1,2.888099909E0,3.180500031E0,1.490999937E0
1.764199531E1,3.339699984E0,3.539699793E0,1.668799996E0
1.766199688E1,2.943099976E0,3.701799870E0,2.132799864E0
1.768199688E1,2.134899855E0,3.420899868E0,2.284399986E0
1.771199531E1,1.883899927E0,2.645999908E0,2.230599880E0
1.773199688E1,1.522499919E0,2.162400007E0,1.918999910E0
1.775199688E1,1.157799959E0,1.396399975E0,1.530399919E0
1.778199531E1,1.028800011E0,-1.599999890E-2,1.172599912E0
1.780199531E1,1.251500010E0,-7.969999909E-1,8.683999777E-1
1.782199688E1,1.641600013E0,-1.456300020E0,3.834999800E-1
1.785199688E1,1.439599991E0,-2.403800011E0,-3.849000037E-1
1.788199688E1,9.797999859E-1,-2.813400030E0,-6.966999769E-1
1.791199531E1,2.185899973E0,-3.266599894E0,-4.250000000E0
1.793199531E1,1.886999965E0,-3.644199848E0,-4.651799679E0
1.795199688E1,-5.622999668E-1,-3.052899837E0,-5.230299950E0
1.798199531E1,-9.077000022E-1,-8.649999648E-2,-3.487900019E0
1.800199531E1,-1.464699984E0,-1.721599936E0,-1.229300022E0
1.802199688E1,-3.105000019E0,-2.839699984E0,2.060199976E0
1.805199531E1,-4.840199947E0,-3.590499878E0,2.762899876E0
1.807199531E1,-4.302299976E0,-2.902899981E0,2.243299961E0
1.809199688E1,-2.311599970E0,-1.483299971E0,1.698899984E0
1.812199531E1,-5.192999840E-1,1.037899971E0,1.694899917E0
1.814199531E1,-2.703999877E-1,2.679399967E0,1.988699913E0
1.816199688E1,8.980000019E-2,3.658299923E0,2.081899881E0
1.818199688E1,2.179999948E-1,4.162699699E0,1.967899919E0
1.821199531E1,1.013999954E-1,4.575799942E0,1.526099920E0
1.823199688E1,-6.289999932E-2,4.440999985E0,1.182299972E0
1.825199688E1,-1.447999924E-1,3.762899876E0,7.720999718E-1
1.828199531E1,-1.069999952E-2,2.774699926E0,5.643999577E-1
1.830199531E1,-2.331999987E-1,2.299499989E0,6.808999777E-1
1.832199688E1,-4.625999928E-1,1.491299987E0,6.243000031E-1
1.835199531E1,-6.832000017E-1,-4.148999751E-1,-9.179999679E-2
1.837199531E1,-6.248999834E-1,-1.987499952E0,-5.189999938E-1
1.839199688E1,-3.897999823E-1,-3.650899887E0,-7.659999728E-1
1.842199531E1,-2.829000056E-1,-3.950299978E0,-1.066100001E0
1.844199531E1,-4.531999826E-1,-3.228399992E0,-9.662999511E-1
1.846199688E1,-7.657999992E-1,-3.849999905E0,-1.023800015E0
1.849199688E1,-4.029999971E-1,-2.832000017E0,-3.281999826E-1
1.852199688E1,1.240899920E0,-1.925599933E0,-3.226999938E-1
1.855199531E1,-6.202999949E-1,-2.156800032E0,-8.483999968E-1
1.857199531E1,-2.787099838E0,-1.326300025E0,-1.957199931E0
1.859199688E1,-3.319899797E0,-1.331000030E-1,-2.510200024E0
1.862199531E1,-7.207999825E-1,7.374999523E-1,-1.776799917E0
1.864199531E1,7.202000022E-1,1.256099939E0,-1.284999996E-1
1.866199688E1,1.254599929E0,2.148499966E0,1.123700023E0
1.868199688E1,1.521199942E0,2.839799881E0,1.745799899E0
1.871199688E1,1.849399924E0,3.028899908E0,1.414999962E0
1.874199688E1,1.697199941E0,3.084399939E0,7.936999798E-1
1.877199531E1,6.621999741E-1,3.056499958E0,8.294000030E-1
1.879199531E1,-4.329999909E-2,2.654999971E0,7.662000060E-1
1.881199688E1,-2.542999983E-1,1.636999965E0,9.406999946E-1
1.884199531E1,-6.822999716E-1,9.228000045E-1,6.266999841E-1
1.886199531E1,-3.111999929E-1,7.642999887E-1,8.500999808E-1
1.888199688E1,2.400999963E-1,6.647999883E-1,9.927999973E-1
1.891199531E1,7.382000089E-1,-3.291999996E-1,4.041999876E-1
1.893199531E1,8.345999718E-1,-1.238299966E0,-5.230999589E-1
1.895199688E1,8.902999759E-1,-1.930399895E0,-1.536000013E0
1.898199531E1,3.008999825E0,-3.243799925E0,-2.832799911E0
1.900199531E1,2.712699890E0,-4.010099888E0,-5.518099785E0
1.902199688E1,8.200000040E-3,-3.122099876E0,-5.932199955E0
1.905199531E1,-1.478299975E0,-1.347199917E0,-3.559099913E0
1.907199531E1,-2.250499964E0,-3.429099798E0,-8.999999613E-3
1.909199688E1,-3.602499962E0,-4.643899918E0,2.319799900E0
1.912199531E1,-3.965699911E0,-4.222799778E0,1.281099916E0
1.914199531E1,-2.246299982E0,-3.084899902E0,1.568099976E0
1.916199688E1,-1.051999927E0,-1.144299984E0,2.153899908E0
1.918199688E1,-8.524000049E-1,1.072999954E0,2.427999973E0
1.921199688E1,-3.260000050E-1,3.456499815E0,2.553999901E0
1.924199688E1,2.122000009E-1,4.450699806E0,2.313099861E0
1.927199531E1,2.278999984E-1,4.568699837E0,1.739599943E0
1.929199531E1,1.289999951E-2,4.600599766E0,1.495899916E0
1.931199688E1,-3.077999949E-1,4.257800102E0,1.101899981E0
1.934199531E1,-6.419000030E-1,3.503199816E0,6.575999856E-1
1.936199531E1,-1.072499990E0,3.064899921E0,2.727999985E-1
1.938199688E1,-1.130999923E0,2.371999979E0,-2.679999918E-2
1.941199531E1,-5.920000076E-1,5.119000077E-1,-8.060000092E-2
1.943199531E1,-5.256999731E-1,-1.399099946E0,-3.533000052E-1
1.945199688E1,-2.931999862E-1,-3.068199873E0,-3.436999917E-1
1.948199531E1,6.003000140E-1,-4.127999783E0,-5.970000029E-1
1.950199531E1,8.783999681E-1,-3.757999897E0,-8.651999831E-1
1.952199688E1,7.430999875E-1,-3.693599939E0,-1.180599928E0
1.955199531E1,7.476999760E-1,-3.473199844E0,-1.082700014E0
1.957199531E1,1.828199983E0,-3.287699938E0,-5.475000143E-1
1.959199688E1,1.593400002E0,-3.382299900E0,5.705999732E-1
1.961199688E1,-3.545999825E-1,-3.719099998E0,3.287199974E0
1.964199531E1,-3.702499866E0,-1.916799903E0,3.984399796E0
1.966199688E1,-4.946000099E0,5.800999999E-1,3.177999854E-1
1.969199688E1,-2.928200006E0,1.267599940E0,-4.025099754E0
1.972199531E1,2.727299929E0,3.021999896E-1,-5.901700020E0
1.974199688E1,3.391799927E0,9.322999716E-1,-9.304399490E0
1.977199531E1,4.957000017E-1,3.577899933E0,-2.779799938E0
1.979199531E1,-9.699999541E-2,3.801299810E0,4.793999791E-1
1.981199531E1,-6.768999696E-1,4.113899708E0,2.212300062E0
1.983199531E1,-9.919999838E-1,4.211400032E0,2.797099829E0
1.985199688E1,-1.046899915E0,3.547499895E0,2.556099892E0
1.988199688E1,-1.127200007E0,2.554499865E0,2.009500027E0
1.991199531E1,-5.338999629E-1,1.172899961E0,1.450799942E0
1.993199531E1,2.592999935E-1,6.758999825E-1,1.297599912E0
1.995199688E1,1.054000020E0,2.044999897E-1,1.267799973E0
1.998199531E1,1.536700010E0,-2.985000014E-1,1.095700026E0
2.000199531E1,1.595999956E0,-7.910000086E-1,7.892999649E-1
2.002199688E1,1.620800018E0,-1.545699954E0,2.556999922E-1
2.005199531E1,1.659500003E0,-2.452800035E0,-7.281000018E-1
2.007199531E1,1.941599965E0,-3.294399977E0,-1.763899922E0
2.009199688E1,1.575599909E0,-4.001800060E0,-1.918699980E0
2.012199531E1,-3.826999962E-1,-3.777299881E0,-5.037199974E0
2.014199531E1,-7.081999779E-1,-1.905999899E0,-5.868299961E0
2.016199688E1,-1.064499974E0,-2.616199970E0,-1.730299950E0
2.018199688E1,-3.206799984E0,-4.233900070E0,1.585699916E0
2.021199688E1,-3.917799950E0,-3.851099968E0,1.559099913E0
2.023199688E1,-1.507499933E0,-3.199199915E0,2.097599983E0
2.025199688E1,-4.966999888E-1,-1.497499943E0,2.269299984E0
2.028199531E1,-4.460999966E-1,1.984999895E0,1.844099998E0
2.030199531E1,-3.955000043E-1,3.657899857E0,1.826799989E0
2.032199531E1,-1.601999998E-1,4.488999844E0,1.774199963E0
2.034199531E1,1.499999966E-2,4.970999718E0,1.394699931E0
2.036199531E1,-1.299999952E-1,5.201600075E0,7.677999735E-1
2.038199688E1,-3.867000043E-1,5.056900024E0,3.361999989E-1
2.041199531E1,-5.967999697E-1,4.479700089E0,1.631999910E-1
2.043199531E1,-1.123600006E0,3.671399832E0,1.825999916E-1
2.045199531E1,-1.215699911E0,2.920599937E0,5.658000112E-1
2.047199531E1,-1.010699987E0,1.927099943E0,6.531999707E-1
2.049199531E1,-8.912999630E-1,4.812999964E-1,3.944999874E-1
2.051199531E1,-8.208999634E-1,-1.061999917E0,3.078999817E-1
2.053199531E1,-5.475999713E-1,-3.046099901E0,2.858999968E-1
2.055199531E1,8.599999547E-2,-4.910699844E0,3.843999803E-1
2.057199531E1,8.716999888E-1,-5.558700085E0,2.219999880E-1
2.059199531E1,1.454999924E0,-4.492099762E0,1.059999987E-1
2.061199531E1,1.919799924E0,-4.480000019E0,-4.411000013E-1
2.063199531E1,1.735799909E0,-4.078499794E0,-2.377000004E-1
2.065199531E1,1.528899908E0,-2.318199873E0,-3.879999742E-2
2.067199531E1,1.724999905E0,-1.781799912E0,2.061999887E-1
2.069199531E1,1.072399974E0,-1.756799936E0,1.269999985E-2
2.071199531E1,-5.949999690E-1,-1.969899893E0,-7.290999889E-1
2.073199531E1,-2.439299822E0,-1.829699993E0,-1.686100006E0
2.075199531E1,-2.959100008E0,-5.982999802E-1,-2.299299955E0
2.077199531E1,-2.044199944E0,6.279000044E-1,-2.109400034E0
2.079199531E1,-7.312999964E-1,1.174399972E0,-1.347999930E0
2.081199531E1,-4.162999988E-1,1.413200021E0,-6.660999656E-1
2.083199531E1,-7.062999606E-1,2.258999825E0,-1.009999961E-1
2.085199531E1,-7.384999990E-1,3.198499918E0,7.497999668E-1
2.087199531E1,-4.265999794E-1,3.840399981E0,1.333799958E0
2.089199531E1,-4.179999977E-2,4.020699978E0,1.060699940E0
2.091199531E1,1.825999916E-1,3.681900024E0,6.854000092E-1
2.093199688E1,-5.289999768E-2,3.055999994E0,5.637999773E-1
2.095199688E1,-2.908000052E-1,2.526299953E0,4.284999967E-1
2.098199531E1,-3.398000002E-1,1.837999940E0,5.327000022E-1
2.100199531E1,-3.150000051E-2,1.532699943E0,7.317000031E-1
2.102199688E1,1.995999962E-1,9.932000041E-1,9.158999920E-1
2.105199531E1,6.108999848E-1,2.716999948E-1,9.626999497E-1
2.107199531E1,8.805999756E-1,-3.396999836E-1,4.618999958E-1
2.109199688E1,1.397599936E0,-1.252099991E0,-6.116999984E-1
2.111199688E1,1.636199951E0,-2.034999847E0,-1.861400008E0
2.114199531E1,3.066799879E0,-3.651799917E0,-3.227699995E0
2.116199531E1,2.330699921E0,-4.567500114E0,-5.722199917E0
2.118199688E1,-9.987999797E-1,-3.804899931E0,-5.698199749E0
2.121199688E1,-1.348399997E0,-1.574399948E0,-2.416499853E0
2.124199688E1,-1.354499936E0,-2.047100067E0,4.512999952E-1
2.127199531E1,-4.158100128E0,-2.502599955E0,2.414099932E0
2.129199531E1,-5.060100079E0,-2.893100023E0,1.956999898E0
2.131199531E1,-3.293900013E0,-2.318199873E0,1.782899976E0
2.133199531E1,-9.210999608E-1,-1.240700006E0,7.189999819E-1
2.135199531E1,1.179999951E-2,4.170999825E-1,8.097999692E-1
2.137199531E1,4.609999806E-2,2.022099972E0,1.088999987E0
2.139199531E1,-1.920000017E-1,3.132599831E0,1.554799914E0
2.141199531E1,-5.909999833E-2,3.612999916E0,1.996199965E0
2.143199531E1,4.279999807E-2,3.960799932E0,2.039200068E0
2.145199531E1,7.580000162E-2,4.121799946E0,1.661499977E0
2.147199531E1,3.500000015E-2,3.829499960E0,1.241899967E0
2.149199531E1,4.669999704E-2,3.484899998E0,1.234899998E0
2.151199531E1,3.759999946E-2,2.817600012E0,9.589999914E-1
2.153199688E1,-9.749999642E-2,2.368599892E0,6.922999620E-1
2.155199688E1,-7.329999655E-2,1.970499992E0,3.676999807E-1
2.157199688E1,6.459999830E-2,1.556100011E0,-4.059999809E-2
2.159199688E1,2.109999955E-1,3.845999837E-1,-2.962000072E-1
2.161199688E1,-7.180000097E-2,-1.269899964E0,-4.172999859E-1
2.164199531E1,-1.008000001E-1,-3.231699944E0,-3.303000033E-1
2.166199531E1,2.379999869E-2,-3.782299995E0,-7.023999691E-1
2.168199688E1,-6.570000201E-2,-3.384599924E0,-1.186200023E0
2.171199531E1,-5.588999987E-1,-4.122399807E0,-1.339599967E0
2.173199531E1,-3.990999758E-1,-3.507999897E0,-2.397999913E-1
2.175199688E1,6.599000096E-1,-2.252199888E0,1.328999996E-1
2.178199531E1,7.221999764E-1,-2.014099836E0,5.399999619E-1
2.180199531E1,-1.078199983E0,-1.594999909E0,-8.161999583E-1
2.182199531E1,-3.210299969E0,-3.740999997E-1,-2.465699911E0
2.184199531E1,-3.527999878E0,7.418999672E-1,-3.031699896E0
2.186199531E1,-1.314599991E0,5.303999782E-1,-2.667799950E0
2.188199531E1,7.761999965E-1,-3.213999867E-1,-1.700099945E0
2.190199531E1,8.819999695E-1,5.909999833E-2,-6.983999610E-1
2.192199531E1,1.878999919E-1,1.597800016E0,2.240999937E-1
2.194199531E1,-6.300000008E-3,2.932499886E0,3.790999949E-1
2.196199531E1,2.557999790E-1,3.648599863E0,2.603999972E-1
2.198199531E1,2.933000028E-1,3.538299799E0,4.227999747E-1
2.200199531E1,1.141999960E-1,3.231099844E0,6.362000108E-1
2.202199531E1,-2.955999970E-1,3.180199862E0,6.943999529E-1
2.204199531E1,-7.127000093E-1,3.012699842E0,4.919999838E-1
2.206199531E1,-6.570999622E-1,2.786399841E0,5.934000015E-1
2.208199531E1,-3.594000041E-1,2.294499874E0,8.833000064E-1
2.210199688E1,1.202999949E-1,1.665499926E0,1.299399972E0
2.213199531E1,7.651000023E-1,6.076999903E-1,1.397300005E0
2.215199531E1,1.189800024E0,-2.211999893E-1,1.061200023E0
2.217199531E1,1.576799989E0,-1.252099991E0,3.147999942E-1
2.219199531E1,1.535300016E0,-2.307499886E0,-9.217999578E-1
2.221199531E1,1.653299928E0,-2.815099955E0,-2.086899996E0
2.223199531E1,3.032199860E0,-3.224599838E0,-3.287699938E0
2.225199688E1,3.683499813E0,-3.843400002E0,-5.388299942E0
2.228199531E1,-1.454599977E0,-2.432600021E0,-7.259099960E0
2.230199531E1,-1.690999985E0,-3.847999871E-1,-4.125999928E0
2.232199688E1,-2.231999874E0,-1.914099932E0,-1.215999961E0
2.235199531E1,-4.601999760E0,-3.383699894E0,1.731400013E0
2.237199531E1,-5.300199986E0,-3.586899996E0,1.092299938E0
2.239199688E1,-4.257199764E0,-3.638499975E0,1.496799946E0
2.242199531E1,-1.762499928E0,-1.529500008E0,2.421099901E0
2.244199531E1,-1.250199914E0,2.524999976E-1,2.617199898E0
2.246199688E1,-8.908999562E-1,2.082399845E0,2.428799868E0
2.249199531E1,-1.735999882E-1,3.734699965E0,1.966699958E0
2.251199531E1,1.789999902E-1,4.336999893E0,1.837399960E0
2.253199688E1,2.696999907E-1,4.750899792E0,1.684700012E0
2.255199688E1,1.983999908E-1,4.899099827E0,1.347800016E0
2.258199531E1,-1.797999889E-1,4.487400055E0,7.089999914E-1
2.260199531E1,-1.309999973E-1,3.683199883E0,5.507999659E-1
2.262199531E1,-2.868999839E-1,3.036399841E0,4.678999782E-1
2.264199531E1,-1.665000021E-1,2.007599831E0,4.287999868E-1
2.266199531E1,6.560000032E-2,8.915999532E-1,1.964999884E-1
2.268199688E1,1.253999919E-1,-6.722999811E-1,-2.795000076E-1
2.271199531E1,3.353999853E-1,-3.309999943E0,-1.015200019E0
2.273199531E1,1.008499980E0,-4.237400055E0,-1.168099999E0
2.275199688E1,1.322499990E0,-4.080899715E0,-1.071699977E0
2.278199531E1,8.639000058E-1,-3.744699955E0,-9.006999731E-1
2.280199531E1,4.508000016E-1,-3.956299782E0,-7.299999595E-1
2.282199688E1,7.224999666E-1,-4.206200123E0,-1.059999987E-1
2.285199531E1,1.863299966E0,-2.580899954E0,-3.012999892E-1
2.287199531E1,1.789699912E0,-1.431100011E0,-2.927999794E-1
2.289199688E1,4.620999992E-1,-3.694999814E-1,-1.097499967E0
2.292199531E1,-3.181299925E0,-8.959999681E-2,-3.184999943E0
2.294199531E1,-4.336400032E0,9.218999743E-1,-3.373099804E0
2.296199688E1,-2.952499866E0,1.071799994E0,-2.750099897E0
2.299199531E1,-9.391999841E-1,1.111099958E0,-1.006600022E0
2.301199531E1,-4.883999825E-1,1.674799919E0,-2.264999896E-1
2.303199531E1,-2.105000019E-1,2.425199986E0,4.529999793E-1
2.305199531E1,5.920000002E-2,2.980000019E0,8.922999501E-1
2.307199531E1,3.554999828E-1,2.985399961E0,1.133599997E0
2.309199531E1,3.815999925E-1,2.774299860E0,1.267899990E0
2.311199531E1,1.368999928E-1,2.445099831E0,1.215899944E0
2.313199531E1,-1.958999932E-1,2.265300035E0,1.074199915E0
2.315199531E1,-1.339000016E-1,2.035699844E0,1.011899948E0
2.317199688E1,1.759999990E-2,1.667999983E0,1.176800013E0
2.320199531E1,-2.740000002E-2,1.287999988E0,1.652300000E0
2.322199531E1,9.349999577E-2,1.011500001E0,1.822199941E0
2.324199688E1,2.924999893E-1,6.313999891E-1,1.550899982E0
2.327199531E1,6.482999921E-1,-3.109999895E-1,5.600999594E-1
2.329199531E1,1.044700027E0,-1.282599926E0,-1.762999892E-1
2.331199688E1,1.222700000E0,-2.231299877E0,-1.142699957E0
2.334199531E1,2.926599979E0,-3.701200008E0,-2.519899845E0
2.336199531E1,4.476999760E0,-4.555999756E0,-5.600399971E0
2.338199531E1,1.556499958E0,-4.300300121E0,-7.918099880E0
2.340199531E1,-1.571299911E0,-1.477299929E0,-7.813699722E0
2.342199531E1,1.565999985E-1,7.229999453E-2,-3.853099823E0
2.344199531E1,-6.525999904E-1,-1.937899947E0,-1.172500014E0
2.346199531E1,-2.585299969E0,-2.408200026E0,2.427899837E0
2.348199531E1,-3.945499897E0,-3.195600033E0,2.680999994E0
2.350199531E1,-4.433199883E0,-3.170799971E0,2.462399960E0
2.352200312E1,-2.932299852E0,-2.182999849E0,2.673899889E0
2.355199531E1,-9.065999985E-1,1.221999973E-1,2.338000059E0
2.357199531E1,-4.711000025E-1,1.746299982E0,2.178200006E0
2.359199688E1,-1.345999986E-1,2.857300043E0,2.113199949E0
2.361199688E1,1.021999940E-1,3.513899803E0,2.045500040E0
2.364199688E1,2.791000009E-1,4.146599770E0,1.772599936E0
2.367199688E1,9.999999747E-5,4.315299988E0,1.235099912E0
2.370199531E1,-1.238999963E-1,3.627599955E0,8.550999761E-1
2.372199531E1,-2.067999989E-1,3.066900015E0,8.783999681E-1
2.374199531E1,-1.577000022E-1,2.322700024E0,7.041999698E-1
2.376199531E1,-1.543999910E-1,1.570299983E0,5.119999647E-1
2.378199531E1,-3.568999767E-1,8.574000001E-1,2.097999901E-1
2.380199531E1,-2.657999992E-1,-5.179999769E-2,-6.809999794E-2
2.382199531E1,-1.762999892E-1,-1.491699934E0,-3.025999963E-1
2.384199531E1,-6.119999662E-2,-2.988199949E0,-4.816999733E-1
2.386199531E1,6.740000099E-2,-4.141200066E0,-6.609999537E-1
2.388199531E1,1.538999975E-1,-4.246500015E0,-7.667999864E-1
2.390199531E1,2.377999872E-1,-4.128900051E0,-1.318799973E0
2.392199531E1,4.349999875E-2,-4.278899670E0,-1.527599931E0
2.394199531E1,5.559999943E-1,-3.471099854E0,-5.954999924E-1
2.396199531E1,1.192799926E0,-2.153899908E0,-1.228999943E-1
2.398199531E1,1.356400013E0,-1.566999912E0,2.542999983E-1
2.400199531E1,1.969999969E-1,-1.572399974E0,-3.637999892E-1
2.402199531E1,-1.743299961E0,-1.407699943E0,-1.845999956E0
2.404199531E1,-3.350399971E0,-4.253999889E-1,-3.043599844E0
2.406199531E1,-3.500199795E0,6.146000028E-1,-3.262300014E0
2.408199531E1,-2.037299871E0,6.815999746E-1,-2.481600046E0
2.410199531E1,-1.240399957E0,1.081699967E0,-1.088099957E0
2.412199688E1,-1.199899912E0,2.136600018E0,2.298999876E-1
2.414199688E1,-8.758999705E-1,2.871399879E0,9.393999577E-1
2.417199688E1,4.774999917E-1,3.226199865E0,1.000499964E0
2.420199531E1,1.302500010E0,3.353799820E0,9.329999983E-2
2.422199531E1,1.054899931E0,3.635699987E0,-2.049999870E-2
2.424199688E1,5.358999968E-1,3.572199821E0,4.220999777E-1
2.427199531E1,2.863999903E-1,2.546000004E0,9.952999949E-1
2.429199531E1,4.259999990E-1,1.708099961E0,1.163699985E0
2.431199531E1,8.398000002E-1,6.838999987E-1,1.200999975E0
2.433199531E1,1.000800014E0,1.111999974E-1,1.075799942E0
2.435199531E1,9.378999472E-1,3.163999915E-1,7.307999730E-1
2.437199531E1,5.669999719E-1,-1.359999925E-2,-1.162999943E-1
2.439199531E1,6.103999615E-1,-4.305999875E-1,-7.609999776E-1
2.441199531E1,9.059999585E-1,-1.317199945E0,-1.121099949E0
2.443199531E1,2.260400057E0,-3.057899952E0,-6.656000018E-1
2.445199688E1,3.845899820E0,-4.392199993E0,-3.388099909E0
2.448199531E1,4.495800018E0,-5.587999821E0,-7.127500057E0
2.450199531E1,-4.302999973E-1,-2.567699909E0,-8.771800041E0
2.452199688E1,7.206000090E-1,2.987000048E-1,-3.389199972E0
2.454199688E1,-5.881999731E-1,-1.835699916E0,-7.706999779E-1
2.456199688E1,-3.232499838E0,-3.230399847E0,3.429199934E0
2.458199688E1,-4.161299706E0,-2.992599964E0,4.093299866E0
2.460199688E1,-4.146699905E0,-3.389899969E0,2.549700022E0
2.463199531E1,-2.125200033E0,-2.826900005E0,3.285399914E0
2.465199531E1,-9.441999793E-1,-1.558099985E0,2.491999865E0
2.467203438E1,-8.840999603E-1,6.247999668E-1,2.279000044E0
2.470199531E1,-3.470999897E-1,2.947700024E0,2.311699867E0
2.472199688E1,-1.239999942E-2,3.944899797E0,1.993599892E0
2.474199688E1,4.499999806E-2,4.530900002E0,1.624199986E0
2.477199531E1,-2.899999917E-2,5.254299641E0,1.213999987E0
2.479199531E1,-4.224999845E-1,4.917699814E0,1.016099930E0
2.481199688E1,-3.282999992E-1,4.382800102E0,1.079100013E0
2.484199531E1,-4.055999815E-1,2.838199854E0,7.322999835E-1
2.486199531E1,-1.950999945E-1,1.827699900E0,3.887999952E-1
2.488199688E1,-9.999999747E-5,7.500999570E-1,-7.289999723E-2
2.491199531E1,-1.520999968E-1,-1.946999907E0,-5.800999999E-1
2.493199531E1,-1.929999888E-1,-3.559000015E0,-4.702999890E-1
2.495199688E1,1.592999995E-1,-4.407799721E0,-3.606999815E-1
2.498199531E1,2.648999989E-1,-3.911499977E0,1.860000007E-2
2.500199531E1,7.339999825E-2,-4.122399807E0,-4.244999886E-1
2.502199688E1,-1.428000033E-1,-3.857499838E0,1.529999916E-2
2.505199531E1,5.724999905E-1,-2.517699957E0,-2.393999994E-1
2.507199531E1,7.402999997E-1,-2.188400030E0,-2.958999872E-1
2.509199531E1,-3.958999813E-1,-2.320899963E0,-9.909999967E-1
2.511199531E1,-2.132200003E0,-2.087199926E0,-1.895999908E0
2.513199531E1,-3.324800014E0,-7.910999656E-1,-2.481699944E0
2.515199531E1,-2.799700022E0,3.438999951E-1,-2.625200033E0
2.517199531E1,-1.291800022E0,6.240000129E-1,-1.362100005E0
2.519199531E1,-2.612999976E-1,1.043499947E0,1.100999936E-1
2.521199531E1,-2.919999883E-2,2.001699924E0,1.312500000E0
2.523199531E1,2.789999917E-2,2.933300018E0,1.900399923E0
2.525199531E1,1.374000013E-1,3.612399817E0,1.782099962E0
2.527199531E1,6.114000082E-1,3.674199820E0,9.801999927E-1
2.529199531E1,8.242999911E-1,3.566999912E0,3.115999997E-1
2.531199531E1,7.102000117E-1,3.602299929E0,2.368000001E-1
2.533199531E1,5.507999659E-1,3.408099890E0,4.671999812E-1
2.535199531E1,2.680999935E-1,2.691299915E0,6.843999624E-1
2.537199531E1,2.874000072E-1,2.044899940E0,9.717999697E-1
2.539199531E1,3.281999826E-1,1.240899920E0,1.108699918E0
2.541199531E1,6.574000120E-1,5.259999633E-1,1.021299958E0
2.543199531E1,1.322600007E0,-1.490999907E-1,7.081999779E-1
2.545199531E1,1.887599945E0,-8.587999940E-1,2.944999933E-1
2.547199531E1,2.030999899E0,-1.667699933E0,-4.316999912E-1
2.549199531E1,1.749499917E0,-2.322099924E0,-1.134599924E0
2.551199531E1,1.633799911E0,-2.413399935E0,-1.904599905E0
2.553199531E1,1.957799911E0,-3.175899982E0,-2.957299948E0
2.555199531E1,9.238999486E-1,-3.678799868E0,-3.318599939E0
2.557199531E1,-1.777999997E-1,-3.101300001E0,-3.299199820E0
2.559199531E1,-1.993999928E-1,-2.482499838E0,-3.864199877E0
2.561199688E1,-8.287999630E-1,-2.427999973E0,-1.390799999E0
2.564199531E1,-3.273299932E0,-3.421000004E0,8.684999943E-1
2.566199531E1,-4.067699909E0,-3.361399889E0,1.094699979E0
2.568199531E1,-2.754199982E0,-2.955799818E0,5.780000091E-1
2.570199531E1,-9.231999516E-1,-1.762599945E0,1.740999937E0
2.572199531E1,-4.501999915E-1,8.039999753E-2,2.552899837E0
2.574199688E1,-6.463999748E-1,2.084199905E0,2.978799820E0
2.577199531E1,-3.358999789E-1,3.699999809E0,3.103600025E0
2.579199531E1,-6.529999524E-2,4.292999744E0,2.684900045E0
2.581199531E1,3.799999878E-2,4.665199757E0,2.102299929E0
2.583199531E1,-7.970000058E-2,4.605199814E0,1.491099954E0
2.585199531E1,6.520000100E-2,4.040899754E0,1.077199936E0
2.587199531E1,1.184000000E-1,3.562199831E0,7.286999822E-1
2.589199688E1,-2.166000009E-1,2.887899876E0,2.592000067E-1
2.592199531E1,-5.843999982E-1,1.577700019E0,-1.299999952E-1
2.594199531E1,-3.788999915E-1,4.995999932E-1,-5.170999765E-1
2.596199531E1,-4.918999970E-1,-4.820999801E-1,-8.500999808E-1
2.598199531E1,-8.133999705E-1,-1.848899961E0,-7.507999539E-1
2.600199531E1,-9.560999870E-1,-3.089200020E0,-4.405999780E-1
2.602199688E1,-7.574999928E-1,-3.151899815E0,-4.865999818E-1
2.605199531E1,-3.292999864E-1,-2.046499968E0,-6.384999752E-1
2.607199531E1,-2.531000078E-1,-2.448400021E0,-4.645999968E-1
2.609199531E1,-3.867999911E-1,-3.239699841E0,-3.143000007E-1
2.611199688E1,1.538999975E-1,-3.158900023E0,-3.075000048E-1
2.613199688E1,4.465000033E-1,-3.130199909E0,-1.112200022E0
2.615199688E1,-4.266999960E-1,-2.769699812E0,-1.519999981E0
2.617199688E1,-1.976199985E0,-2.315000057E0,-1.867899895E0
2.620199531E1,-2.841099977E0,-7.111999989E-1,-1.574699998E0
2.622199531E1,-1.899099946E0,-7.840000093E-2,-1.172699928E0
2.624199688E1,-8.585000038E-1,6.074000001E-1,-6.915000081E-1
2.626199688E1,-1.539999992E-1,1.625499964E0,-1.215999946E-1
2.629199531E1,7.811999917E-1,2.979199886E0,4.431999922E-1
2.631199688E1,1.319999933E0,3.543299913E0,6.643999815E-1
2.634199688E1,1.478099942E0,4.039999962E0,4.069999754E-1
2.637199531E1,6.290000081E-1,4.177499771E0,8.285999894E-1
2.639199688E1,1.762999892E-1,3.783399820E0,1.138299942E0
2.642199531E1,-3.940000013E-2,2.575700045E0,1.059499979E0
2.644199531E1,-2.358999997E-1,1.701699972E0,9.720000029E-1
2.646199688E1,1.639999896E-1,8.077999949E-1,9.598000050E-1
2.649199531E1,7.762999535E-1,-2.408999950E-1,5.458999872E-1
2.651199531E1,1.186499953E0,-8.639000058E-1,1.604000032E-1
2.653199688E1,1.360999942E0,-1.738799930E0,-3.434000015E-1
2.655199688E1,1.213999987E0,-2.647500038E0,-1.472800016E0
2.658199531E1,3.195699930E0,-3.769399881E0,-5.429800034E0
2.660199688E1,1.956200004E0,-4.931799889E0,-7.626799583E0
2.663199531E1,-1.981999993E0,-2.175400019E0,-5.652299881E0
2.665199531E1,-6.516999602E-1,-1.161899924E0,-3.185899973E0
2.667199531E1,-6.362999678E-1,-2.146199942E0,-1.154299974E0
2.669199531E1,-2.503900051E0,-2.716899872E0,2.227200031E0
2.671199531E1,-4.279599667E0,-2.575799942E0,2.892899990E0
2.673199531E1,-5.178499699E0,-2.303099871E0,2.088099957E0
2.675199531E1,-3.514899969E0,-2.012899876E0,2.332200050E0
2.677199531E1,-1.019199967E0,-1.401799917E0,2.491899967E0
2.679199531E1,-1.903999895E-1,4.129999876E-1,2.558300018E0
2.681199531E1,-6.999999750E-4,1.968799949E0,2.341099977E0
2.683199531E1,1.412999928E-1,3.140899897E0,2.460199833E0
2.685199531E1,2.110999972E-1,3.808499813E0,2.562799931E0
2.687199531E1,3.664999902E-1,4.015999794E0,2.484999895E0
2.689199531E1,4.174999893E-1,3.975399971E0,2.159100056E0
2.691199531E1,2.872999907E-1,3.628099918E0,1.811800003E0
2.693199531E1,1.851999909E-1,3.191200018E0,1.456599951E0
2.695199688E1,2.478999943E-1,2.775399923E0,9.275999665E-1
2.697199688E1,6.979999691E-2,2.313999891E0,3.467999995E-1
2.700199531E1,7.679999620E-2,1.276199937E0,-3.743000031E-1
2.702199531E1,-5.570000038E-2,1.860000007E-2,-6.978999972E-1
2.704199531E1,-4.972999990E-1,-1.869799972E0,-9.259999990E-1
2.706199531E1,-6.721000075E-1,-3.541899920E0,-8.151999712E-1
2.708199531E1,-5.299999714E-1,-3.969999790E0,-7.015999556E-1
2.710199688E1,-3.862999976E-1,-2.977299929E0,-7.426999807E-1
2.713199531E1,-6.473999619E-1,-3.737099886E0,-6.808999777E-1
2.715199531E1,-8.732999563E-1,-3.253000021E0,5.568000078E-1
2.717199688E1,1.472999901E-1,-2.312199831E0,1.073300004E0
2.720199531E1,1.651999950E0,-3.411199808E0,1.121699929E0
2.722199531E1,2.608000040E-1,-3.229899883E0,1.577999890E-1
2.724199531E1,-1.804699898E0,-1.297599912E0,-1.587399960E0
2.726199531E1,-2.559200048E0,2.593999803E-1,-2.839999914E0
2.728199531E1,-1.452700019E0,9.796999693E-1,-2.866799831E0
2.730199531E1,1.750000007E-2,1.263199925E0,-1.503399968E0
2.732199688E1,5.389999747E-1,1.755399942E0,4.199999943E-2
2.735199531E1,3.836999834E-1,2.800599813E0,1.041800022E0
2.737199531E1,5.446999669E-1,3.452799797E0,1.021099925E0
2.739199688E1,7.949000001E-1,3.770200014E0,5.203999877E-1
2.742199531E1,4.402999878E-1,4.044199944E0,3.405999839E-1
2.744199531E1,-1.375999898E-1,3.687099934E0,4.901999831E-1
2.746199688E1,-7.689999938E-1,2.918900013E0,7.208999991E-1
2.749199531E1,-8.585999608E-1,1.453599930E0,9.017999768E-1
2.751199531E1,-4.755999744E-1,5.602999926E-1,9.212999940E-1
2.753199688E1,-6.849999726E-2,4.229999781E-1,8.369999528E-1
2.756199531E1,7.269999981E-1,-2.449999936E-2,8.603999615E-1
2.758199531E1,9.769999981E-1,-5.564000010E-1,5.598999858E-1
2.760199688E1,1.301199913E0,-1.386600018E0,-1.438999921E-1
2.763199531E1,1.835099936E0,-2.864300013E0,-2.053599834E0
2.765199531E1,3.900599957E0,-3.749099970E0,-3.643399954E0
2.767199688E1,3.237200022E0,-3.905799866E0,-6.158400059E0
2.770199531E1,5.378000140E-1,-3.268800020E0,-5.654299736E0
2.772199531E1,-6.954999566E-1,-1.472499967E0,-3.251099825E0
2.774199688E1,-1.521399975E0,-1.688899994E0,-9.619999677E-2
2.776199688E1,-3.188599825E0,-2.373199940E0,2.989699841E0
2.779199688E1,-4.771399975E0,-3.013000011E0,2.561800003E0
2.781199688E1,-4.292900085E0,-2.817800045E0,2.156199932E0
2.784199531E1,-1.195999980E0,-8.170999885E-1,9.496999979E-1
2.786199531E1,-7.010999918E-1,1.082899928E0,9.869999886E-1
2.788199688E1,-6.055999994E-1,2.595199823E0,1.522300005E0
2.790199688E1,-4.961999953E-1,3.522699833E0,1.986099958E0
2.792199688E1,-3.005999923E-1,4.131199837E0,2.306599855E0
2.795199688E1,1.291999966E-1,4.027699947E0,2.269000053E0
2.797199688E1,1.351999938E-1,3.510900021E0,1.834299922E0
2.800199531E1,2.915999889E-1,2.736799955E0,1.324499965E0
2.802199531E1,4.431999922E-1,2.386100054E0,9.966999888E-1
2.804199531E1,2.998999953E-1,1.832899928E0,4.696999788E-1
2.806199531E1,-1.744000018E-1,1.171399951E0,1.894000024E-1
2.808199531E1,-3.003000021E-1,7.825999856E-1,-3.920000046E-2
2.810199688E1,-2.140999883E-1,5.649999902E-2,-4.708999991E-1
2.813199531E1,7.059999555E-2,-1.754499912E0,-5.393999815E-1
2.815199531E1,3.486000001E-1,-3.051100016E0,-7.935000062E-1
2.817199688E1,3.495999873E-1,-3.245999813E0,-1.586799979E0
2.820199531E1,-7.669999450E-2,-4.094099998E0,-2.726799965E0
2.822199531E1,1.208999977E-1,-4.877899647E0,-1.790399909E0
2.824199688E1,1.190599918E0,-3.464099884E0,-6.226999760E-1
2.827199531E1,2.133499861E0,-2.511499882E0,6.500999928E-1
2.829199531E1,1.564999968E-1,-2.954200029E0,7.134000063E-1
2.831199531E1,-2.883899927E0,-1.756099939E0,-5.202000141E-1
2.833199531E1,-4.339799881E0,-2.369999886E-2,-6.927999854E-1
2.835199531E1,-3.654899836E0,5.839999914E-1,-3.616999984E-1
2.837199531E1,-1.268100023E0,-1.659999937E-1,3.524999917E-1
2.839199531E1,2.744999826E-1,1.525999904E-1,6.994000077E-1
2.841199531E1,2.312999964E-1,8.854999542E-1,3.682000041E-1
2.843199531E1,-1.535999924E-1,2.050099850E0,-2.113999873E-1
2.845199688E1,-2.440999895E-1,3.195199966E0,-3.558000028E-1
2.848199531E1,-5.726999640E-1,4.420799732E0,-6.297999620E-1
2.850199688E1,-7.814999819E-1,4.769999981E0,-7.655000091E-1
2.853199688E1,-1.009699941E0,4.443799973E0,-2.988999784E-1
2.855199688E1,-1.209399939E0,3.613999844E0,1.074000001E-1
2.858199531E1,-7.963999510E-1,2.264600039E0,3.502999842E-1
2.860199688E1,-4.544999897E-1,1.410399914E0,4.356999993E-1
2.863199531E1,4.373999834E-1,2.784000039E-1,8.465999961E-1
2.865199531E1,1.079599977E0,-5.241999626E-1,7.615999579E-1
2.867199688E1,1.550300002E0,-1.353799939E0,3.208999932E-1
2.870199531E1,1.819700003E0,-2.790799856E0,-1.011699915E0
2.872199531E1,2.078599930E0,-3.286999941E0,-1.969199896E0
2.874199688E1,2.381700039E0,-4.011399746E0,-2.912199974E0
2.877199531E1,1.056100011E0,-4.270699978E0,-5.518399715E0
2.879199531E1,-2.633999884E-1,-3.056999922E0,-5.542099953E0
2.881199688E1,-3.908999860E-1,-1.586799979E0,-2.753299952E0
2.884199531E1,-1.274199963E0,-1.969799995E0,-1.768999994E-1
2.886199531E1,-3.152400017E0,-2.149899960E0,6.844999790E-1
2.888199688E1,-4.659699917E0,-2.013000011E0,7.781999707E-1
2.890199688E1,-3.981799841E0,-1.424799919E0,9.702000022E-1
2.893199531E1,-1.267099977E0,-5.090000033E-1,1.601099968E0
2.895199688E1,-6.840999722E-1,7.207999825E-1,2.191499949E0
2.897199688E1,-6.406999826E-1,2.034600019E0,2.220799923E0
2.900199531E1,-4.300999939E-1,3.417500019E0,2.076499939E0
2.902199531E1,-1.973000020E-1,3.911399841E0,2.016399860E0
2.904199531E1,6.169999763E-2,4.168499947E0,1.882200003E0
2.906199531E1,2.120999992E-1,4.089600086E0,1.786099911E0
2.908199531E1,6.309999526E-2,3.822799921E0,1.635999918E0
2.910199688E1,-2.949999869E-1,3.204099894E0,1.333799958E0
2.913199531E1,-3.984999955E-1,2.364399910E0,6.566999555E-1
2.915199531E1,-1.923999935E-1,1.997099996E0,-2.779999934E-2
2.917199688E1,2.892999947E-1,1.177799940E0,-4.404999912E-1
2.920199531E1,4.148999751E-1,-1.117799997E0,-5.636000037E-1
2.922199531E1,2.453999966E-1,-2.757099867E0,-3.964000046E-1
2.924199688E1,2.239999920E-1,-3.865299940E0,-6.028000116E-1
2.927199531E1,5.130999684E-1,-3.669899940E0,-1.297699928E0
2.929199531E1,4.126999974E-1,-4.067800045E0,-1.478099942E0
2.931199688E1,-1.642999947E-1,-4.585499763E0,-1.117399931E0
2.934199531E1,1.041700006E0,-2.974999905E0,-2.540999949E-1
2.936199531E1,1.836299896E0,-2.102799892E0,1.090000011E-2
2.938199688E1,1.202700019E0,-1.820099950E0,-2.102999985E-1
2.941199531E1,-2.599799871E0,-6.904000044E-1,-2.537699938E0
2.943199531E1,-4.203899860E0,5.534999967E-1,-3.664299965E0
2.945199531E1,-3.587399960E0,1.122300029E0,-3.785300016E0
2.947199688E1,-1.519599915E0,5.902000070E-1,-2.717200041E0
2.949199688E1,-8.265999556E-1,7.346000075E-1,-1.249099970E0
2.952199531E1,-1.385200024E0,2.267299891E0,3.543999791E-1
2.954199688E1,-1.303900003E0,3.295099974E0,8.914999962E-1
2.957199531E1,-6.333999634E-1,3.959800005E0,8.792999983E-1
2.959199531E1,-2.466999888E-1,3.811199903E0,6.527999640E-1
2.961199688E1,-1.601999998E-1,3.602099895E0,7.254999876E-1
2.964199531E1,4.010000080E-2,2.498600006E0,1.000200033E0
2.966199531E1,2.999999821E-1,1.710599899E0,1.225899935E0
2.968199688E1,4.639999866E-1,1.167899966E0,1.380399942E0
2.971199531E1,1.210699916E0,7.644999623E-1,1.535899997E0
2.973199531E1,1.425899982E0,6.498999596E-1,1.200299978E0
2.975199688E1,1.812500000E0,3.445999920E-1,6.974999905E-1
2.978199531E1,2.009399891E0,-7.251999974E-1,-2.336999923E-1
2.980199531E1,1.370000005E0,-1.895099998E0,-1.276299953E0
2.982199688E1,9.732999802E-1,-2.596799850E0,-2.559299946E0
2.985199531E1,3.597199917E0,-3.528899908E0,-5.597099781E0
2.987199531E1,1.926099896E0,-4.069299698E0,-7.871399879E0
2.989199531E1,-4.795999825E-1,-2.870999813E0,-7.548999786E0
2.991199531E1,5.945999622E-1,-5.449999869E-2,-3.481199980E0
2.993199531E1,-3.303999901E-1,-1.787400007E0,-1.912699938E0
2.995199531E1,-2.991899967E0,-3.135799885E0,1.665000021E-1
2.997199688E1,-4.060199738E0,-3.172600031E0,1.169299960E0
3.000199531E1,-3.751499891E0,-3.988499880E0,2.739000022E-1
3.002199531E1,-2.496299982E0,-2.457999945E0,7.369999886E-1
3.004199688E1,-1.390399933E0,-6.487999558E-1,1.589800000E0
3.007199531E1,-9.176999927E-1,1.826900005E0,2.105999947E0
3.009199531E1,-9.429000020E-1,2.839900017E0,2.131599903E0
3.011199688E1,-9.210000038E-1,3.652799845E0,1.919699907E0
3.014199531E1,-7.087999582E-1,4.168699741E0,1.284299970E0
3.016199531E1,-4.488999844E-1,4.325900078E0,1.316299915E0
3.018199688E1,-5.752999783E-1,4.344299793E0,1.127200007E0
3.021199531E1,-4.101999998E-1,3.615000010E0,1.130599976E0
3.023199531E1,-5.677999854E-1,3.351399899E0,9.478999972E-1
3.025199531E1,-5.841999650E-1,2.771999836E0,5.485000014E-1
3.027199531E1,-3.973999918E-1,1.881699920E0,1.268000007E-1
3.029199531E1,-9.099999815E-2,6.933999658E-1,-5.469999835E-2
3.031199688E1,1.102999970E-1,-1.097199917E0,-1.296999902E-1
3.034199531E1,4.758999944E-1,-3.617999792E0,-2.194999903E-1
3.036199531E1,9.434999824E-1,-4.536200047E0,-8.465999961E-1
3.038199688E1,1.459599972E0,-3.542799950E0,-1.312699914E0
3.040199688E1,1.950399995E0,-3.378599882E0,-1.525499940E0
3.043199531E1,1.200600028E0,-3.806599855E0,-8.203999996E-1
3.045199531E1,1.154399991E0,-2.161099911E0,-4.973999858E-1
3.047199688E1,1.612800002E0,-1.942699909E0,-5.792999864E-1
3.050199531E1,-1.097999960E-1,-3.142699957E0,-1.059599996E0
3.052199531E1,-2.334800005E0,-3.133899927E0,-1.723500013E0
3.054199688E1,-3.671799898E0,-1.844900012E0,-2.144000053E0
3.057199531E1,-2.365900040E0,1.828999966E-1,-1.757699966E0
3.059199531E1,-1.468999982E0,9.551999569E-1,-3.578999937E-1
3.061199688E1,-1.203099966E0,1.929600000E0,9.802999496E-1
3.064199688E1,-1.272300005E0,3.651399851E0,1.896600008E0
3.067199688E1,-7.542999983E-1,4.513000011E0,1.483099937E0
3.070199531E1,-3.134000003E-1,4.449699879E0,-1.018999964E-1
3.072199531E1,-2.182999998E-1,4.067199707E0,-5.266999602E-1
3.074199688E1,2.131999880E-1,3.611699820E0,-7.759000063E-1
3.077199531E1,6.775999665E-1,2.971799850E0,-1.289199948E0
3.079199531E1,1.225000024E0,2.112200022E0,-8.163999915E-1
3.081199688E1,1.545799971E0,1.123099923E0,-2.389999852E-2
3.083199688E1,1.958499908E0,3.783999979E-1,6.441999674E-1
3.086199531E1,2.185600042E0,-1.010800004E0,3.533999920E-1
3.088199531E1,1.911299944E0,-1.916899920E0,-2.786999941E-1
3.090199688E1,1.441999912E0,-2.321199894E0,-1.309399962E0
3.093199531E1,1.230599999E0,-3.698899984E0,-2.012399912E0
3.095199531E1,3.746999800E-1,-4.615900040E0,-2.857499838E0
3.097199531E1,-5.997999907E-1,-4.181699753E0,-3.418999910E0
3.099199531E1,1.871999949E-1,-3.212399960E0,-2.915499926E0
3.101199688E1,3.270999789E-1,-2.413699865E0,-1.876099944E0
3.103199688E1,-5.242999792E-1,-1.888700008E0,-1.183200002E0
3.106199688E1,-3.200500011E0,-1.733199954E0,-7.541999817E-1
3.108199688E1,-3.790099859E0,-2.063199997E0,-5.819999576E-1
3.110199688E1,-2.424700022E0,-2.143599987E0,-4.150999784E-1
3.113199531E1,-7.300999761E-1,-6.714999676E-1,-1.098999977E-1
3.115199531E1,-7.847999930E-1,7.489999533E-1,7.455999851E-1
3.117199688E1,-7.708999515E-1,1.844999909E0,1.486299992E0
3.120199531E1,-3.341999948E-1,2.921799898E0,1.958699942E0
3.122199688E1,-6.999999750E-4,3.505800009E0,1.839899898E0
3.124199688E1,8.469999582E-2,4.068999767E0,1.548999906E0
3.127199531E1,1.560999900E-1,4.276199818E0,1.170899987E0
3.129199531E1,2.539999969E-2,3.995099783E0,1.117100000E0
3.131199688E1,-1.688999981E-1,3.724399805E0,1.000599980E0
3.134199531E1,-1.604999900E-1,3.109200001E0,5.008999705E-1
3.136199531E1,-1.674999893E-1,2.408699989E0,2.823999822E-1
3.138199688E1,-1.379999984E-2,1.305899978E0,2.267999947E-1
3.140199688E1,1.215000004E-1,-5.626999736E-1,6.179999933E-2
3.143199688E1,4.214999974E-1,-3.316900015E0,-3.700000048E-2
3.146199688E1,1.144099951E0,-4.843800068E0,-6.987000108E-1
3.149199531E1,1.405499935E0,-4.288399696E0,-1.128499985E0
3.151199688E1,9.907999635E-1,-4.565000057E0,-1.313899994E0
3.153199688E1,8.650999665E-1,-3.472899914E0,-9.241999984E-1
3.156199531E1,2.362699986E0,-1.701799989E0,-6.832000017E-1
3.158199531E1,2.132200003E0,-1.384099960E0,-5.981000066E-1
3.160199688E1,1.939999871E-2,-2.016099930E0,-1.436200023E0
3.163199531E1,-3.396699905E0,-9.425999522E-1,-2.807699919E0
3.165199531E1,-3.690699816E0,1.305000037E-1,-3.063699961E0
3.167199688E1,-2.231699944E0,-2.469999902E-2,-2.686199903E0
3.170199531E1,-1.145699978E0,4.267999828E-1,-5.417999625E-1
3.172199688E1,-9.982999563E-1,1.679499984E0,6.294999719E-1
3.174199688E1,-1.146899939E0,3.071399927E0,1.388199925E0
3.177199531E1,-6.758999825E-1,4.513000011E0,1.681299925E0
3.179199531E1,-5.141999722E-1,4.800699711E0,1.052799940E0
3.181199688E1,-2.861000001E-1,4.235199928E0,4.023000002E-1
3.184199531E1,-3.215999901E-1,2.782399893E0,1.335999966E-1
3.186199531E1,-3.916999996E-1,2.170599937E0,3.009999916E-2
3.188199688E1,-2.680999935E-1,1.567099929E0,2.439999878E-1
3.190199688E1,2.505999804E-1,1.101300001E0,7.475999594E-1
3.193199688E1,9.352999926E-1,6.152999997E-1,1.015100002E0
3.196199688E1,1.723999977E0,-2.881000042E-1,8.071999550E-1
3.198199688E1,2.362400055E0,-8.833999634E-1,3.238999844E-1
3.201199531E1,2.818300009E0,-1.724999905E0,-7.209999561E-1
3.203199688E1,2.933300018E0,-2.280599833E0,-1.517499924E0
3.206199688E1,1.870399952E0,-3.820499897E0,-3.106499910E0
3.209199531E1,8.841999769E-1,-4.442500114E0,-3.705299854E0
3.211199531E1,7.935999632E-1,-3.319399834E0,-4.994199753E0
3.213199531E1,1.013700008E0,-2.817600012E0,-3.986199856E0
3.215199531E1,-8.359999657E-1,-3.285799980E0,-2.510000020E-2
3.217199688E1,-3.425999880E0,-2.800699949E0,5.109999776E-1
3.220199531E1,-3.724799871E0,-2.236799955E0,5.260000005E-2
3.222199531E1,-2.326599836E0,-1.771899939E0,5.225999951E-1
3.224199688E1,-1.589399934E0,-3.874000013E-1,1.119799972E0
3.227199531E1,-1.318799973E0,1.824999928E0,2.032199860E0
3.229199531E1,-1.250399947E0,3.005800009E0,1.958999991E0
3.231199688E1,-1.179899931E0,3.774899960E0,1.482299924E0
3.234199531E1,-7.396000028E-1,4.658599854E0,1.173399925E0
3.236199531E1,-7.917000055E-1,5.024300098E0,1.013000011E0
3.238199688E1,-7.847999930E-1,4.905900002E0,1.013100028E0
3.241199531E1,-1.214599967E0,4.816999912E0,8.730999827E-1
3.243199531E1,-1.368099928E0,4.425899982E0,7.148999572E-1
3.245199531E1,-1.238699913E0,3.572799921E0,6.728999615E-1
3.247199688E1,-9.542999864E-1,2.560299873E0,7.504999638E-1
3.250199531E1,-6.532999873E-1,1.679999940E-2,6.074999571E-1
3.252199531E1,1.336999983E-1,-2.854099989E0,-2.433999926E-1
3.254199688E1,1.668499947E0,-5.156399727E0,-4.086000025E-1
3.257199531E1,3.127599955E0,-7.146499634E0,-6.680999994E-1
3.259199531E1,2.771100044E0,-6.886699677E0,1.359999925E-2
3.261199688E1,1.527799964E0,-6.669899940E0,-1.710199952E0
3.264199531E1,1.515100002E0,-3.047600031E0,-1.993199944E0
3.266199531E1,3.092200041E0,-2.320499897E0,-1.379999995E0
3.268199531E1,2.461799860E0,-3.070699930E0,-5.170999765E-1
3.270199531E1,-3.653999865E-1,-3.187199831E0,-7.421999574E-1
3.272199688E1,-3.478899956E0,-1.273899913E0,-2.266199827E0
3.274199688E1,-4.123099804E0,4.918999970E-1,-3.645900011E0
3.277199531E1,-2.011899948E0,2.136999846E0,-4.041800022E0
3.279199531E1,-1.210399985E0,2.459199905E0,-1.926199913E0
3.281199531E1,-1.302600026E0,3.213999987E0,-9.449999779E-2
3.283199688E1,-1.227699995E0,3.800799847E0,1.056499958E0
3.286199531E1,-5.291000009E-1,3.897699833E0,1.412299991E0
3.288199531E1,-3.488999903E-1,3.812299967E0,8.819999695E-1
3.290199531E1,-5.950999856E-1,3.729199886E0,2.619000077E-1
3.292199531E1,-1.119400024E0,3.597899914E0,4.939999804E-2
3.294199531E1,-1.432199955E0,3.174700022E0,2.806999981E-1
3.296199531E1,-1.316499949E0,2.595700026E0,1.011299968E0
3.298199531E1,-9.584999681E-1,1.458999991E0,1.521899939E0
3.300199531E1,-3.053999841E-1,9.303999543E-1,1.962899923E0
3.302199531E1,4.090999961E-1,3.907999992E-1,2.034100056E0
3.304199531E1,9.875999689E-1,8.689999580E-2,1.825599909E0
3.306199531E1,1.559799910E0,-4.187999964E-1,1.026799917E0
3.308199531E1,1.539999962E0,-1.086300015E0,-2.209999971E-2
3.310199531E1,1.671299934E0,-2.227499962E0,-6.561999917E-1
3.312199531E1,2.291800022E0,-3.362099886E0,-7.276999950E-1
3.314199531E1,2.878499985E0,-4.604300022E0,-2.137799978E0
3.316199531E1,2.575500011E0,-4.834399700E0,-3.554099798E0
3.318199531E1,1.221699953E0,-4.993000031E0,-5.347699642E0
3.320199531E1,-1.442299962E0,-1.620800018E0,-6.132499695E0
3.322199531E1,-8.280000091E-2,1.670999974E-1,-1.546700001E0
3.324199531E1,-1.185999960E-1,-1.458999991E0,-1.460500002E0
3.326199531E1,-1.994300008E0,-1.495499969E0,7.384999990E-1
3.328199531E1,-4.031799793E0,-1.672599912E0,1.669099927E0
3.330199531E1,-4.179599762E0,-2.330800056E0,1.488799930E0
3.332199688E1,-2.642499924E0,-1.915199995E0,5.713999867E-1
3.335199531E1,-2.504000068E-1,-5.920999646E-1,2.495999932E-1
3.337199531E1,6.699999794E-3,8.457999825E-1,1.399299979E0
3.339199531E1,-1.361999959E-1,2.037899971E0,2.207399845E0
3.341199531E1,-8.269999921E-2,3.068499804E0,2.631299973E0
3.343199531E1,1.946000010E-1,3.900299788E0,2.437899828E0
3.345199531E1,3.707999885E-1,4.580899715E0,1.897799969E0
3.347199531E1,3.501999974E-1,4.920799732E0,1.296700001E0
3.349199531E1,5.593999624E-1,4.589900017E0,1.062999964E0
3.351199531E1,4.758999944E-1,3.618899822E0,9.560999870E-1
3.353199531E1,6.911000013E-1,2.864799976E0,7.441999912E-1
3.355199531E1,6.151999831E-1,2.396199942E0,3.315999806E-1
3.357199531E1,5.241000056E-1,1.722000003E0,1.399999950E-3
3.359199531E1,5.485999584E-1,5.938000083E-1,-6.679999828E-2
3.361199531E1,5.791999698E-1,-1.125399947E0,-2.168999910E-1
3.363199531E1,6.869999766E-1,-2.736799955E0,-5.029999614E-1
3.365199531E1,1.140999913E0,-4.279399872E0,-8.323000073E-1
3.367199531E1,1.825799942E0,-4.772399902E0,-1.162999988E0
3.369199531E1,1.870499969E0,-5.395499706E0,-1.606799960E0
3.371199531E1,1.420599937E0,-6.102599621E0,-1.276899934E0
3.373199531E1,1.868499994E0,-4.169099808E0,2.590999901E-1
3.375199531E1,3.040199995E0,-3.119899988E0,9.347999692E-1
3.377199531E1,2.463599920E0,-3.386999846E0,1.790499926E0
3.379199531E1,-3.244999945E-1,-2.664499998E0,1.242599964E0
3.381199531E1,-3.125399828E0,-1.081699967E0,-1.412699938E0
3.383199531E1,-4.167299747E0,5.453000069E-1,-3.662199974E0
3.385199531E1,-3.123499870E0,1.280399919E0,-4.216799736E0
3.387199531E1,-1.326799989E0,6.829000115E-1,-2.132400036E0
3.389199531E1,-1.508899927E0,1.103500009E0,4.930000007E-2
3.391199531E1,-2.026000023E0,2.096899986E0,1.353399992E0
3.393199531E1,-2.041399956E0,2.819900036E0,1.917799950E0
3.395199531E1,-1.309799910E0,3.102799892E0,1.983999968E0
3.397199531E1,-4.590999782E-1,2.806599855E0,1.315599918E0
3.399199531E1,1.359999925E-1,2.723899841E0,7.150999904E-1
3.401199531E1,1.772999913E-1,2.559799910E0,4.008999765E-1
3.403199531E1,4.789999872E-2,2.119699955E0,2.489999980E-1
3.405199531E1,9.309999645E-2,1.848799944E0,3.425000012E-1
3.407199531E1,2.733999789E-1,1.685400009E0,6.625999808E-1
3.409199531E1,6.277999878E-1,1.618799925E0,1.035599947E0
3.411199531E1,1.131600022E0,1.561299920E0,1.262699962E0
3.413199531E1,1.658899903E0,1.337099910E0,1.350000024E0
3.415199531E1,1.816399932E0,9.282999635E-1,1.125299931E0
3.417199531E1,1.910499930E0,2.167999893E-1,7.673000097E-1
3.419199531E1,2.019599915E0,-6.409999728E-1,1.228000000E-1
3.421199531E1,2.128999949E0,-1.266799927E0,-7.077999711E-1
3.423199531E1,2.916999817E0,-2.350999832E0,-2.054299831E0
3.425199688E1,1.285899997E0,-3.926999807E0,-3.256099939E0
3.428199531E1,-1.460199952E0,-3.263199806E0,-3.154799938E0
3.430199531E1,-4.404999912E-1,-3.588399887E0,8.384000063E-1
3.432199688E1,-1.066799998E0,-5.064699650E0,2.821499825E0
3.434199688E1,-1.624199986E0,-5.411599636E0,2.267400026E0
3.437199531E1,-2.415599823E0,-5.613699913E0,2.463299990E0
3.439199688E1,-9.968999624E-1,-4.238599777E0,3.540599823E0
3.442199531E1,-3.995999992E-1,-9.706999660E-1,3.996199846E0
3.444199531E1,-1.746999919E-1,1.155399919E0,4.105899811E0
3.446199688E1,-1.801999956E-1,2.635399818E0,3.852399826E0
3.449199531E1,-6.969999522E-2,4.483099937E0,3.106799841E0
3.451199531E1,-1.539999992E-2,5.182899952E0,2.598299980E0
3.453199688E1,5.759999901E-2,5.265599728E0,2.131399870E0
3.456199531E1,3.801999986E-1,4.093800068E0,1.755699992E0
3.458199688E1,-3.339999914E-2,3.130299807E0,2.154099941E0
3.460199688E1,-1.639000028E-1,1.771699905E0,1.990999937E0
3.463199531E1,-1.992999911E-1,9.629999846E-2,1.018000007E0
3.465199531E1,4.609999806E-2,-1.194999933E0,7.400000095E-1
3.467199688E1,2.718999982E-1,-2.767899990E0,8.703999519E-1
3.470199531E1,3.492999971E-1,-5.696599960E0,1.725399971E0
3.472199531E1,2.351000011E-1,-7.192599773E0,2.160199881E0
3.474199688E1,3.899999894E-3,-6.527999878E0,2.323600054E0
3.477199531E1,-2.971999943E-1,-5.184700012E0,2.175600052E0
3.479199531E1,-2.999999821E-1,-2.524299860E0,2.394399881E0
3.481199688E1,1.007200003E0,-1.020599961E0,1.859399915E0
3.484199531E1,1.256999969E0,-1.231599927E0,1.372200012E0
3.486199531E1,-5.514000058E-1,3.035999835E-1,1.096599936E0
3.488199531E1,-2.195799828E0,-9.246999621E-1,-4.501999915E-1
3.490199531E1,-3.002199888E0,1.722999960E-1,-9.355999827E-1
3.492199531E1,-1.436399937E0,5.162000060E-1,-6.615999937E-1
3.494199531E1,1.010299921E0,2.145999968E-1,7.739999890E-2
3.496199688E1,2.812899828E0,1.472999901E-1,6.232999563E-1
3.499199531E1,2.969699860E0,1.475399971E0,8.964999914E-1
3.501199531E1,2.234799862E0,2.320199966E0,1.148599982E0
3.503199688E1,1.292599916E0,2.753799915E0,1.112100005E0
3.506199531E1,4.248999953E-1,3.190500021E0,1.034500003E0
3.508199531E1,1.440999955E-1,2.817699909E0,1.005299926E0
3.510199688E1,-4.639999941E-2,1.964599967E0,1.182600021E0
3.513199531E1,-5.690999627E-1,8.088999987E-1,1.171499968E0
3.515199531E1,-3.687999845E-1,4.583999813E-1,1.440099955E0
3.517199688E1,1.358999908E-1,7.339999825E-2,1.485399961E0
3.520199531E1,7.066999674E-1,-1.808999926E-1,1.665599942E0
3.522199531E1,8.306999803E-1,-8.055999875E-1,1.513099909E0
3.524199688E1,1.127699971E0,-2.030400038E0,1.053399920E0
3.527199531E1,2.422899961E0,-2.887199879E0,-2.719999850E-1
3.529199531E1,3.414999962E0,-3.039000034E0,-2.845899820E0
3.531199531E1,2.432299852E0,-2.661700010E0,-2.418099880E0
3.533199531E1,1.000999957E-1,-2.249599934E0,-1.729399920E0
3.535199531E1,-2.305500031E0,-2.414399862E0,-1.649500012E0
3.537199531E1,-3.394599915E0,-3.307999849E0,-2.141499996E0
3.539199531E1,-3.364499807E0,-5.486399651E0,-2.554000020E-1
3.541199531E1,-3.842599869E0,-6.528699875E0,2.697599888E0
3.543199531E1,-3.069799900E0,-5.912299633E0,2.170899868E0
3.545199531E1,-1.812699914E0,-4.032700062E0,3.026199818E0
3.547199531E1,-1.160699964E0,-1.636399984E0,4.259500027E0
3.549199531E1,-9.726999998E-1,1.018199921E0,4.607399940E0
3.551199531E1,-6.187999845E-1,3.039199829E0,4.322599888E0
3.553199688E1,-9.479999542E-2,4.397200108E0,3.765799999E0
3.556199531E1,6.793000102E-1,5.813999653E0,2.664399862E0
3.558199531E1,4.708999991E-1,5.780200005E0,1.628999949E0
3.560199688E1,-1.184999943E-1,6.571699619E0,1.289399981E0
3.563199531E1,-5.776999593E-1,4.609699726E0,4.131999910E-1
3.565199531E1,-1.933099985E0,3.326799870E0,7.493999600E-1
3.567199688E1,-2.608899832E0,1.965799928E0,8.460999727E-1
3.570199531E1,-2.343699932E0,-3.669999912E-2,5.070999861E-1
3.572199531E1,-2.043400049E0,-1.375199914E0,5.083999634E-1
3.574199688E1,-1.872599959E0,-2.869799852E0,8.733999729E-1
3.577199531E1,-1.547099948E0,-4.885799885E0,1.302399993E0
3.579199531E1,-1.128600001E0,-4.663099766E0,6.881999969E-1
3.581199531E1,-4.719999805E-2,-3.880299807E0,3.718000054E-1
3.583199688E1,8.930999637E-1,-3.958599806E0,-2.569999918E-2
3.586199531E1,1.965199947E0,-2.533499956E0,5.399999674E-3
3.588199531E1,2.747200012E0,-1.936499953E0,-2.956999838E-1
3.590199531E1,2.532399893E0,-1.608099937E0,-3.842999935E-1
3.592199688E1,9.287999868E-1,-1.545099974E0,-8.998999596E-1
3.594199688E1,-1.116799951E0,-1.025799990E0,-1.529399991E0
3.596199688E1,-2.545399904E0,3.000000026E-3,-1.706799984E0
3.599199531E1,-1.991799951E0,-1.808999926E-1,-1.731899977E0
3.601199531E1,-2.220999897E-1,-7.465999722E-1,-3.238999844E-1
3.603199688E1,7.694000006E-1,-8.734999895E-1,8.982999921E-1
3.606199531E1,9.579999745E-2,9.017999768E-1,1.809799910E0
3.608199531E1,-2.536000013E-1,2.309299946E0,1.904299974E0
3.610199688E1,-8.499999531E-3,3.415400028E0,1.794899940E0
3.613199531E1,3.155999780E-1,4.434400082E0,1.183699965E0
3.615199531E1,3.075000048E-1,4.448899746E0,1.045899987E0
3.617199688E1,-5.339999869E-2,3.823199987E0,9.226999879E-1
3.620199531E1,1.869999990E-2,2.949199915E0,9.627999663E-1
3.622199531E1,-5.739999935E-2,2.187500000E0,8.461999893E-1
3.624199688E1,-4.910000041E-2,1.292299986E0,7.137999535E-1
3.627199531E1,5.004999638E-1,4.734999835E-1,5.586999655E-1
3.629199688E1,8.481000066E-1,-2.811999917E-1,2.525999844E-1
3.632199688E1,1.319700003E0,-2.145799875E0,-5.187999606E-1
3.635199531E1,2.689800024E0,-3.811699867E0,-2.999899864E0
3.637199531E1,3.926499844E0,-3.925199986E0,-6.186599731E0
3.639199688E1,2.216199875E0,-4.686599731E0,-6.237099648E0
3.642199531E1,-1.094599962E0,-2.069200039E0,-4.463900089E0
3.644199531E1,-1.286399961E0,-1.672699928E0,-1.017199993E0
3.646199531E1,-1.621399999E0,-2.814899921E0,1.255299926E0
3.648199531E1,-2.759399891E0,-3.341499805E0,2.998100042E0
3.650199531E1,-4.785999775E0,-3.408200026E0,2.966199875E0
3.652199688E1,-5.240999699E0,-3.036899805E0,2.991199970E0
3.655199688E1,-2.075999975E0,-1.938399911E0,1.890599966E0
3.658199531E1,-4.585999846E-1,4.029999971E-1,1.977299929E0
3.660199688E1,-7.274000049E-1,1.993399978E0,1.983199954E0
3.663199531E1,-5.115999579E-1,3.322599888E0,2.153800011E0
3.665199531E1,-2.836999893E-1,3.879999876E0,2.186699867E0
3.667199531E1,-3.480999768E-1,4.506799698E0,1.952499986E0
3.669199531E1,-4.265999794E-1,4.750000000E0,1.641999960E0
3.671199531E1,-3.414999843E-1,4.636899948E0,1.279600024E0
3.673199531E1,-9.609999508E-2,4.141399860E0,1.153399944E0
3.675199531E1,-5.849999934E-2,3.457799911E0,9.806999564E-1
3.677199531E1,-9.339999408E-2,2.363499880E0,8.901999593E-1
3.679199531E1,-1.577999890E-1,1.212000012E0,6.834999919E-1
3.681199531E1,-4.499999806E-2,3.109999932E-2,2.565000057E-1
3.683199531E1,1.733999997E-1,-1.808699965E0,-1.030000001E-1
3.685199531E1,4.481000006E-1,-3.776000023E0,-2.940999866E-1
3.687199531E1,6.222999692E-1,-5.214699745E0,-5.819000006E-1
3.689199531E1,4.813999832E-1,-4.587500095E0,-1.093899965E0
3.691199531E1,7.441999912E-1,-3.656599998E0,-6.754999757E-1
3.693199531E1,9.670999646E-1,-3.658200026E0,2.032999992E-1
3.695199531E1,8.166999817E-1,-2.669299841E0,1.006899953E0
3.697199531E1,5.735999942E-1,-1.029899955E0,1.026799917E0
3.699199531E1,2.739999890E-1,-3.016999960E-1,7.084999681E-1
3.701199531E1,-1.148299932E0,-1.006500006E0,-4.619999975E-2
3.703199688E1,-2.358500004E0,-2.659399986E0,-7.471999526E-1
3.705199688E1,-2.741999865E0,-3.079299927E0,-3.228999972E-1
3.708199531E1,-1.222599983E0,-1.917299986E0,-4.457999766E-1
3.710199531E1,1.726000011E-1,-1.147899985E0,2.754999995E-1
3.712199531E1,9.002999663E-1,4.623000026E-1,1.258599997E0
3.714199531E1,1.153900027E0,1.799600005E0,1.766799927E0
3.716199531E1,1.147799969E0,3.033799887E0,1.878099918E0
3.718199531E1,1.157699943E0,4.153899670E0,1.625000000E0
3.720199531E1,1.179399967E0,4.666199684E0,1.251199961E0
3.722199531E1,1.014799953E0,4.662399769E0,7.850999832E-1
3.724199531E1,7.829999924E-1,4.088599682E0,2.728999853E-1
3.726199531E1,2.513999939E-1,3.456899881E0,-4.719999805E-2
3.728199531E1,-2.847000062E-1,2.592099905E0,-2.280999869E-1
3.730199531E1,-3.691999912E-1,1.684399962E0,-2.457999885E-1
3.732199531E1,1.577999890E-1,7.350999713E-1,-1.081999987E-1
3.734199531E1,7.949000001E-1,-1.530999988E-1,-6.830000132E-2
3.736199531E1,1.181200027E0,-1.039399981E0,9.950000048E-2
3.738199531E1,1.753499985E0,-2.174799919E0,-1.093999967E-1
3.740199531E1,2.613499880E0,-3.303599834E0,-9.923999906E-1
3.742199531E1,3.121799946E0,-3.031199932E0,-2.645200014E0
3.744199531E1,3.830299854E0,-2.827999830E0,-5.916100025E0
3.746199531E1,2.193300009E0,-3.108500004E0,-5.129399776E0
3.748199531E1,-3.827999830E-1,-2.904399872E0,-2.386800051E0
3.750199531E1,-2.195499897E0,-1.180999994E0,-2.569900036E0
3.752199531E1,-2.254099846E0,-2.045799971E0,-2.416999936E-1
3.754199531E1,-3.041499853E0,-3.108899832E0,2.230999947E0
3.756199531E1,-4.519499779E0,-3.524699926E0,2.577399969E0
3.758199531E1,-5.961799622E0,-3.272099972E0,1.592799902E0
3.760199531E1,-4.924999714E0,-2.649899960E0,1.836299896E0
3.762199531E1,-2.565999985E0,-2.210799932E0,2.369600058E0
3.764199531E1,-1.304000020E0,-7.379999757E-1,3.121599913E0
3.766199531E1,-9.797999859E-1,1.063499928E0,3.445899963E0
3.768199531E1,-5.519999862E-1,2.358899832E0,3.331899881E0
3.770199531E1,2.087000012E-1,3.162599802E0,3.248600006E0
3.772199531E1,6.407999992E-1,3.823099852E0,2.855700016E0
3.774199531E1,7.609999776E-1,4.289999962E0,2.325700045E0
3.776199688E1,7.945999503E-1,4.501399994E0,1.766499996E0
3.778199688E1,6.078000069E-1,4.504799843E0,1.143000007E0
3.781199531E1,2.657999992E-1,3.750599861E0,3.630999923E-1
3.783199688E1,2.447999865E-1,3.180599928E0,1.092999950E-1
3.786199531E1,3.994999826E-1,1.330600023E0,-2.536999881E-1
3.788199531E1,3.693999946E-1,-6.096999645E-1,-2.809999883E-1
3.790199531E1,1.882999986E-1,-2.842799902E0,-1.037999988E-1
3.792199531E1,2.337999940E-1,-4.419699669E0,-4.499999806E-3
3.794199531E1,3.978999853E-1,-4.680200100E0,-9.999999404E-2
3.796199688E1,3.264999986E-1,-3.646999836E0,-1.445000023E-1
3.799199531E1,-6.882999539E-1,-4.638299942E0,-1.261999905E-1
3.801199531E1,-4.350000024E-1,-1.886599898E0,1.037500024E0
3.803199531E1,1.049999967E-1,-3.925999999E-1,1.051900029E0
3.805199531E1,-4.070999920E-1,-1.997999907E0,1.241299987E0
3.807199531E1,-1.124300003E0,-3.840999842E0,1.578400016E0
3.809199531E1,-3.478399992E0,-3.230499983E0,-2.160999924E-1
3.811199531E1,-4.905299664E0,-1.573199987E0,-4.074299812E0
3.813199531E1,-3.500799894E0,8.739999682E-2,-5.836299896E0
3.815199531E1,-1.351699948E0,7.152999640E-1,-5.286799908E0
3.817199531E1,-1.014099956E0,1.345099926E0,-1.931699991E0
3.819199531E1,-5.490999818E-1,2.119999886E0,9.449999779E-2
3.821199531E1,8.732999563E-1,2.696300030E0,8.333999515E-1
3.823199531E1,1.740799904E0,3.067999840E0,2.764999866E-1
3.825199531E1,1.487800002E0,3.882900000E0,-8.540000021E-2
3.827199531E1,1.322899938E0,3.999199867E0,3.534999788E-1
3.829199531E1,1.133899927E0,3.846499920E0,6.517999768E-1
3.831199531E1,5.509999990E-1,3.721199989E0,5.939999819E-1
3.833199531E1,-8.999999845E-4,3.385900021E0,4.950999916E-1
3.835199531E1,7.710000128E-2,2.675400019E0,4.991999865E-1
3.837199531E1,3.186999857E-1,1.629799962E0,5.810999870E-1
3.839199531E1,7.403999567E-1,7.907999754E-1,9.785999656E-1
3.841199531E1,1.365800023E0,1.885999888E-1,1.289799929E0
3.843199531E1,1.653800011E0,-4.485999942E-1,1.469999909E0
3.845199531E1,1.366899967E0,-1.031800032E0,1.688399911E0
3.847199531E1,1.116299987E0,-1.626599908E0,1.284999967E0
3.849199531E1,1.725799918E0,-1.994599938E0,-8.999999613E-2
3.851199531E1,2.359599829E0,-3.803699970E0,-4.141600132E0
3.853199531E1,-3.006599903E0,-4.855400085E0,-7.332099915E0
3.855199531E1,-3.989300013E0,-6.614999771E-1,-1.003520012E1
3.857200000E1,-1.327000022E0,-2.675499916E0,-1.223299980E0
3.860199688E1,-5.190499783E0,-7.804499626E0,1.557699919E0
3.863199531E1,-3.819399834E0,-5.307199955E0,1.013199925E0
3.865199531E1,-2.967700005E0,-4.079999924E0,1.686999917E0
3.867199688E1,-2.058199883E0,-2.167500019E0,3.428699970E0
3.870199531E1,-1.084900022E0,1.925399899E0,4.105400085E0
3.872199531E1,-4.879999757E-1,3.599599838E0,3.971699953E0
3.874199531E1,2.499999851E-2,4.851999760E0,3.298300028E0
3.876199531E1,3.328999877E-1,5.724499702E0,2.380800009E0
3.878199531E1,5.173000097E-1,6.257400036E0,1.617999911E0
3.880199531E1,5.877000093E-1,6.305699825E0,1.062600017E0
3.882199531E1,4.430999756E-1,5.627099991E0,8.565999866E-1
3.884199531E1,-1.158999950E-1,4.471300125E0,5.831999779E-1
3.886199531E1,-8.695999980E-1,3.607299805E0,2.680000067E-1
3.888199531E1,-1.043900013E0,2.733599901E0,-2.279999852E-2
3.890199531E1,-6.863999963E-1,1.633700013E0,-2.786000073E-1
3.892199531E1,-6.812999845E-1,-3.052999973E-1,-3.692999780E-1
3.894199531E1,-6.759999990E-1,-2.679999828E0,3.720000014E-2
3.896199531E1,-2.651000023E-1,-4.993000031E0,7.824999690E-1
3.898199531E1,7.184000015E-1,-6.593999863E0,1.037999988E0
3.900199531E1,1.618600011E0,-7.084599972E0,3.621000051E-1
3.902199531E1,1.541700006E0,-6.805199623E0,-5.730999708E-1
3.904199531E1,1.118099928E0,-4.730000019E0,-4.095999897E-1
3.906199531E1,1.309899926E0,-2.583799839E0,-2.491999865E-1
3.908199531E1,1.941799998E0,-1.202000022E0,4.438000023E-1
3.910199531E1,1.855199933E0,-1.017300010E0,8.967999816E-1
3.912199688E1,-1.695999950E-1,-1.276700020E0,3.190000057E-1
3.915199531E1,-4.024399757E0,6.413999796E-1,-1.647199988E0
3.917199688E1,-4.479799747E0,8.797999620E-1,-2.544699907E0
3.919199688E1,-2.305999994E0,4.141999781E-1,-1.867199898E0
3.922199531E1,3.362999856E-1,-3.499999875E-3,5.130000040E-2
3.924199531E1,3.245999813E-1,1.069299936E0,7.633999586E-1
3.926199531E1,4.997999966E-1,2.134700060E0,7.987999916E-1
3.928199531E1,8.312999606E-1,2.985699892E0,1.942999959E-1
3.930199531E1,7.723000050E-1,3.969199896E0,-4.276999831E-1
3.932199531E1,2.302999943E-1,4.603600025E0,-1.063999981E-1
3.934199531E1,-3.324999809E-1,4.352799892E0,4.329999983E-1
3.936199531E1,-7.730000019E-1,3.373999834E0,7.418999672E-1
3.938199531E1,-9.007999897E-1,2.267600060E0,1.046800017E0
3.940199531E1,-7.066000104E-1,1.265999913E0,1.260900021E0
3.942199531E1,-2.412999868E-1,4.048999846E-1,1.736499906E0
3.944199531E1,1.510999948E-1,-1.178999990E-1,2.057299852E0
3.946199531E1,3.251999915E-1,-2.324999869E-1,2.100899935E0
3.948199531E1,5.159000158E-1,-4.007000029E-1,1.948599935E0
3.950199531E1,9.062999487E-1,-1.213899970E0,1.354900002E0
3.952199531E1,1.302399993E0,-2.426300049E0,1.911000013E-1
3.954199531E1,3.013599873E0,-3.854599953E0,-1.982499957E0
3.956199531E1,3.857199907E0,-4.443599701E0,-6.755699635E0
3.958199531E1,2.390799999E0,-4.035799980E0,-7.937199593E0
3.960199531E1,-1.550099969E0,-1.778599977E0,-7.093400002E0
3.962199531E1,-1.979299903E0,4.459999874E-2,-3.154699802E0
3.964199531E1,-2.106099844E0,-1.091400027E0,-6.279000044E-1
3.966199531E1,-3.685599804E0,-3.011299849E0,1.630800009E0
3.968199531E1,-5.170099735E0,-3.533299923E0,3.000900030E0
3.970199531E1,-5.803099632E0,-3.512099981E0,3.192499876E0
3.972199688E1,-4.225899696E0,-3.556999922E0,3.727099895E0
3.975199688E1,-9.934999943E-1,-1.435400009E0,3.052199841E0
3.978199531E1,-4.402000010E-1,1.508899927E0,2.760799885E0
3.980199531E1,-1.941999942E-1,2.928400040E0,2.736899853E0
3.982199531E1,4.559999704E-2,3.752699852E0,2.771699905E0
3.984199531E1,2.408999950E-1,4.333799839E0,2.573600054E0
3.986199531E1,3.017999828E-1,4.767999649E0,2.129099846E0
3.988199531E1,3.303999901E-1,4.778500080E0,1.677099943E0
3.990199531E1,2.962000072E-1,4.815199852E0,1.283999920E0
3.992199531E1,-3.879999742E-2,4.280399799E0,8.561999798E-1
3.994199531E1,-7.022999525E-1,3.384599924E0,3.357000053E-1
3.996199688E1,-5.625999570E-1,2.273999929E0,1.186999977E-1
3.999199531E1,-1.666999906E-1,-8.649999648E-2,-1.978999972E-1
4.001199531E1,1.149000004E-1,-2.049599886E0,-1.142999977E-1
4.003199688E1,9.839999676E-2,-3.906799793E0,1.621000022E-1
4.006199531E1,3.079999983E-2,-5.168600082E0,2.089999914E-1
4.008199531E1,2.700999975E-1,-4.464099884E0,2.667999864E-1
4.010199688E1,6.570000201E-2,-4.574699879E0,1.201999933E-1
4.013199531E1,2.111999989E-1,-4.040899754E0,6.298999786E-1
4.015199531E1,1.421100020E0,-2.262500048E0,7.865999937E-1
4.017199688E1,2.555999994E0,-1.444100022E0,1.037899971E0
4.019199688E1,2.556799889E0,-1.494599938E0,1.251500010E0
4.022199531E1,-6.575999856E-1,-1.041999936E0,-5.773999691E-1
4.024199688E1,-2.549899817E0,2.569999918E-2,-2.467399836E0
4.026199688E1,-2.429499865E0,6.717999578E-1,-2.838500023E0
4.029199531E1,3.163999915E-1,-1.488000005E-1,-1.378899932E0
4.031199531E1,4.039999843E-1,3.306999803E-1,4.580000043E-2
4.033199531E1,-7.119999826E-2,1.105899930E0,1.106299996E0
4.035199531E1,-2.039999962E-1,1.999699950E0,1.642300010E0
4.037199531E1,4.809999838E-2,2.923300028E0,1.097899914E0
4.039199688E1,4.192999899E-1,3.621599913E0,2.549000084E-1
4.042199531E1,1.321000010E-1,3.481699944E0,3.029999882E-2
4.044199531E1,-5.570999980E-1,2.971400023E0,2.291999906E-1
4.046199688E1,-9.206999540E-1,2.323600054E0,3.263999820E-1
4.049199531E1,-1.318300009E0,2.049799919E0,3.951999843E-1
4.051199531E1,-9.788999557E-1,1.825099945E0,8.120999932E-1
4.053199688E1,-3.256999850E-1,1.215999961E0,1.291599989E0
4.056199531E1,2.728999853E-1,-1.569999903E-1,1.162599921E0
4.058199531E1,6.051999927E-1,-1.350700021E0,3.209999800E-1
4.060199531E1,8.740999699E-1,-2.412799835E0,-8.604999781E-1
4.062199531E1,2.861500025E0,-3.502300024E0,-2.056599855E0
4.064199531E1,4.279699802E0,-4.036399841E0,-5.487999916E0
4.066199531E1,1.572899938E0,-3.480799913E0,-5.575699806E0
4.068199531E1,-6.024000049E-1,-2.781100035E0,-4.197099686E0
4.070199531E1,-1.839899898E0,-1.526399970E0,-2.977499962E0
4.072199688E1,-1.974999905E0,-2.476399899E0,-1.438699961E0
4.075199688E1,-4.083300114E0,-4.356999874E0,2.927999973E0
4.078199531E1,-4.765699863E0,-4.146399975E0,2.055899858E0
4.080199531E1,-2.785399914E0,-3.566099882E0,2.873699903E0
4.082199688E1,-1.321999907E0,-2.159600019E0,3.586099863E0
4.085199531E1,-1.401499987E0,1.090099931E0,3.651599884E0
4.087199531E1,-1.161599994E0,2.663800001E0,3.304099798E0
4.089199688E1,-5.917999744E-1,3.508699894E0,2.878399849E0
4.092199531E1,3.799999831E-3,4.203299999E0,2.177999973E0
4.094199531E1,1.711999923E-1,4.422999859E0,1.724399924E0
4.096199688E1,2.327999920E-1,4.395400047E0,1.472100019E0
4.099199531E1,2.316999882E-1,3.825599909E0,1.452899933E0
4.101199531E1,7.019999623E-2,3.130699873E0,1.299600005E0
4.103199531E1,-3.317999840E-1,2.530099869E0,8.925999999E-1
4.105199531E1,-5.138999820E-1,1.842399955E0,4.219999909E-1
4.107199531E1,-4.957000017E-1,7.238000035E-1,-8.320000023E-2
4.109199531E1,-3.659999967E-1,-5.073999763E-1,-1.057999954E-1
4.111199531E1,-4.894999862E-1,-2.009199858E0,2.217999995E-1
4.113199531E1,-8.569999933E-1,-3.329299927E0,6.815999746E-1
4.115199531E1,-1.000800014E0,-4.132699966E0,5.694000125E-1
4.117199688E1,-7.627999783E-1,-4.095399857E0,-1.603000015E-1
4.119199688E1,-5.841000080E-1,-3.881299973E0,-9.793999791E-1
4.122199531E1,8.529999852E-2,-2.848099947E0,-6.701999903E-1
4.124199531E1,1.229699969E0,-1.293099999E0,-1.133999974E-1
4.126199531E1,1.910999894E0,-1.812999994E-1,4.907999933E-1
4.128199531E1,1.313799977E0,-1.348000020E-1,3.479999900E-1
4.130199531E1,-1.184899926E0,-1.379299998E0,-9.281999469E-1
4.132199688E1,-2.819000006E0,-1.757799983E0,-1.520900011E0
4.134199688E1,-3.060199976E0,-1.527999997E0,-1.693399906E0
4.137199531E1,-3.734000027E-1,-1.663999915E0,-1.143700004E0
4.139199688E1,2.316999882E-1,-1.084599972E0,-2.572999895E-1
4.142199531E1,-2.254000008E-1,9.084999561E-1,1.500800014E0
4.144199531E1,-6.999999750E-4,2.023200035E0,2.278300047E0
4.146199531E1,9.919999540E-2,3.100499868E0,2.141700029E0
4.148199531E1,9.619999677E-2,3.866099834E0,1.512300014E0
4.150199531E1,1.000999957E-1,4.307399750E0,8.808999658E-1
4.152199531E1,-3.876999915E-1,4.450399876E0,3.580999970E-1
4.154199688E1,-7.902999520E-1,4.213900089E0,1.116999984E-1
4.157199531E1,-7.735999823E-1,2.900399923E0,2.744999826E-1
4.159199688E1,-3.628000021E-1,1.909799933E0,5.051999688E-1
4.161199688E1,-1.219999976E-2,1.373600006E0,5.462999940E-1
4.164199531E1,5.286999941E-1,3.046000004E-1,-1.261000037E-1
4.166199531E1,7.714999914E-1,-5.737999678E-1,-7.247999907E-1
4.168199688E1,1.024399996E0,-1.896299958E0,-1.343099952E0
4.171199531E1,2.508399963E0,-3.683499813E0,-3.129699945E0
4.173199531E1,2.294499874E0,-4.010200024E0,-4.895999908E0
4.175199688E1,1.719499946E0,-4.380599976E0,-4.478600025E0
4.178199531E1,-7.793999910E-1,-2.525499821E0,-5.769299984E0
4.180199531E1,-1.021499991E0,-1.657999903E-1,-2.115299940E0
4.182199688E1,-8.780999780E-1,-5.755000114E-1,4.463999867E-1
4.185199531E1,-2.424399853E0,-1.881099939E0,1.958699942E0
4.187199531E1,-4.476200104E0,-2.394899845E0,2.226899862E0
4.189199688E1,-5.211499691E0,-3.189499855E0,1.758199930E0
4.192199531E1,-1.811499953E0,-3.143299818E0,2.172299862E0
4.194199531E1,-2.648999989E-1,-1.596300006E0,2.540299892E0
4.196199688E1,-2.333999872E-1,4.034999907E-1,2.853199959E0
4.199199531E1,-4.339999855E-1,2.677000046E0,2.745299816E0
4.201199531E1,-2.829999924E-1,3.578899860E0,2.573899984E0
4.203199688E1,7.539999485E-2,4.030900002E0,2.269099951E0
4.206199531E1,4.247999787E-1,4.303699970E0,1.661899924E0
4.208199531E1,3.533999920E-1,4.171799660E0,1.074199915E0
4.210199688E1,3.741999865E-1,3.822599888E0,6.969999671E-1
4.213199531E1,5.839999765E-2,2.824199915E0,1.706999987E-1
4.215199531E1,-1.547999978E-1,2.062199831E0,1.238999963E-1
4.217199531E1,-1.762999892E-1,1.407299995E0,7.859999686E-2
4.219199688E1,-2.340999991E-1,1.676999927E-1,5.268999934E-1
4.222199688E1,-1.747999936E-1,-3.095000029E0,7.942999601E-1
4.225199688E1,2.459999919E-1,-5.305599689E0,3.652999997E-1
4.228199531E1,7.922999859E-1,-4.477999687E0,-2.326999903E-1
4.230199531E1,1.492799997E0,-3.609799862E0,5.264999866E-1
4.232199688E1,1.926899910E0,-2.379099846E0,1.162599921E0
4.234199688E1,1.365000010E0,-8.569999933E-1,9.027000070E-1
4.237199531E1,-1.031800032E0,-2.400799990E0,-1.999999881E-1
4.239199531E1,-1.455899954E0,-3.043900013E0,-8.150000125E-2
4.241199531E1,-1.328400016E0,-2.568300009E0,-6.567999721E-1
4.243199531E1,-1.225499988E0,-1.497799993E0,-1.081399918E0
4.245199531E1,-1.382200003E0,-6.730999947E-1,-6.238999963E-1
4.247199531E1,-1.402199984E0,-2.099999925E-3,-5.289999843E-1
4.249199531E1,-5.730999708E-1,5.990999937E-1,-1.657999903E-1
4.251199531E1,5.281000137E-1,1.206399918E0,1.718000025E-1
4.253199531E1,1.259400010E0,1.546800017E0,-1.230999976E-1
4.255199531E1,1.468999982E0,2.278800011E0,-8.350999951E-1
4.257200000E1,8.474999666E-1,3.164199829E0,-1.103399992E0
4.260199688E1,-2.479999959E-1,4.243799686E0,-7.669999450E-2
4.263199531E1,-7.206999660E-1,4.629399776E0,8.125999570E-1
4.265199531E1,-8.162999749E-1,4.311800003E0,8.801999688E-1
4.267199531E1,-1.025799990E0,3.551499844E0,6.638000011E-1
4.269199531E1,-1.004500031E0,2.758599997E0,7.771999836E-1
4.271199531E1,-5.291999578E-1,1.634499907E0,8.659999967E-1
4.273199531E1,3.910999894E-1,8.100000024E-1,7.490999699E-1
4.275199531E1,1.013399959E0,-8.329999447E-2,6.072999835E-1
4.277199531E1,1.370299935E0,-1.199800014E0,6.119999886E-1
4.279199531E1,1.560400009E0,-2.369600058E0,6.511999965E-1
4.281199531E1,1.631099939E0,-3.592299938E0,5.877999663E-1
4.283199531E1,2.322999954E0,-4.667099953E0,-1.370399952E0
4.285199531E1,2.134899855E0,-5.046199799E0,-3.852699995E0
4.287199531E1,5.465999842E-1,-5.631700039E0,-3.992699862E0
4.289199531E1,-6.668999791E-1,-2.539000034E0,-5.910899639E0
4.291199531E1,-8.549999595E-1,-1.869399905E0,-3.707099915E0
4.293199531E1,-1.234099984E0,-3.317399979E0,-2.615200043E0
4.295199531E1,-4.896199703E0,-4.729599953E0,2.071599960E0
4.297199531E1,-5.604199886E0,-4.009200096E0,2.937700033E0
4.299199531E1,-4.069299698E0,-3.233899832E0,1.755100012E0
4.301199531E1,-2.478999853E0,-2.174900055E0,3.297299862E0
4.303199531E1,-1.541799903E0,-2.072999924E-1,4.113299847E0
4.305199531E1,-1.296299934E0,1.699599981E0,4.020699978E0
4.307199531E1,-6.272000074E-1,3.076399803E0,3.555599928E0
4.309199531E1,4.569999874E-2,3.993099928E0,2.998100042E0
4.311199531E1,4.623000026E-1,4.699299812E0,2.501199961E0
4.313199531E1,4.371999800E-1,5.160899639E0,2.117799997E0
4.315199531E1,1.552999914E-1,5.342499733E0,1.624699950E0
4.317199531E1,-8.549999446E-2,5.056699753E0,1.179299951E0
4.319199531E1,-3.746999800E-1,4.421299934E0,8.603999615E-1
4.321199531E1,-5.683999658E-1,3.703799963E0,5.874999762E-1
4.323199531E1,-5.116999745E-1,2.696099997E0,4.997999966E-1
4.325199531E1,-8.809999824E-1,1.383799911E0,1.815000027E-1
4.327199531E1,-9.027999640E-1,3.070999980E-1,-1.070999950E-1
4.329199531E1,-8.366999626E-1,-1.064499974E0,-2.272999883E-1
4.331199531E1,-7.353000045E-1,-3.541399956E0,-1.193999946E-1
4.333199531E1,4.699999932E-3,-5.630499840E0,-1.045999974E-1
4.335199531E1,1.994999945E-1,-5.777199745E0,-2.333999872E-1
4.337199531E1,-2.763999999E-1,-4.667500019E0,3.434999883E-1
4.339199531E1,-6.798999906E-1,-4.461299896E0,3.892000020E-1
4.341199531E1,-2.969999984E-2,-3.244599819E0,5.546000004E-1
4.343199531E1,1.527400017E0,-1.568699956E0,6.255999804E-1
4.345199531E1,2.595099926E0,-1.173699975E0,4.450999796E-1
4.347199531E1,1.726699948E0,-1.768000007E0,2.897999883E-1
4.349199531E1,-5.940999985E-1,-2.454200029E0,-9.318999648E-1
4.351199531E1,-2.649199963E0,-8.974999785E-1,-2.172099829E0
4.353199531E1,-2.727799892E0,-2.488999963E-1,-3.452199936E0
4.355199531E1,-1.144299984E0,-8.446999788E-1,-2.675400019E0
4.357199531E1,1.784999967E-1,-8.009999990E-1,-8.130999804E-1
4.359199531E1,3.825999796E-1,9.389999509E-2,5.446000099E-1
4.361199531E1,4.747999907E-1,1.382499933E0,1.191200018E0
4.363199531E1,9.532999992E-1,2.614399910E0,1.399999976E0
4.365199531E1,1.025200009E0,3.229899883E0,1.046000004E0
4.367199531E1,7.017999887E-1,3.925499916E0,7.588999867E-1
4.369199531E1,1.911000013E-1,4.587899685E0,7.588999867E-1
4.371199531E1,-1.454999894E-1,4.720599651E0,1.152799964E0
4.373199531E1,-4.930999875E-1,3.739899874E0,1.352599978E0
4.375199531E1,-6.812999845E-1,3.029500008E0,1.459199905E0
4.377199531E1,-7.091999650E-1,2.217499971E0,1.294299960E0
4.379199531E1,-3.405999839E-1,1.447399974E0,1.385800004E0
4.381199531E1,4.649999738E-1,1.110299945E0,1.533199906E0
4.383199531E1,1.241899967E0,-1.124999970E-1,1.026499987E0
4.385199531E1,1.882499933E0,-1.672399998E0,6.541000009E-1
4.387199531E1,2.553499937E0,-3.098799944E0,9.921999574E-1
4.389199531E1,3.300199986E0,-3.905299902E0,-5.752999783E-1
4.391199531E1,3.587199926E0,-4.149799824E0,-5.702499866E0
4.393199531E1,1.777799964E0,-4.303599834E0,-4.437900066E0
4.395199531E1,-1.683799982E0,-4.040800095E0,-1.321499944E0
4.397199688E1,-2.680699825E0,-3.112399817E0,-2.632799864E0
4.400199531E1,-2.761099815E0,-2.960299969E0,-1.068300009E0
4.402199531E1,-4.027499676E0,-4.926799774E0,-4.540999830E-1
4.404199531E1,-5.452699661E0,-4.553599834E0,2.806099892E0
4.406199531E1,-3.959699869E0,-4.283499718E0,2.790999889E0
4.408199531E1,-1.171999931E0,-2.883999825E0,2.831199884E0
4.410199531E1,-2.401999980E-1,-6.469999552E-1,3.892399788E0
4.412199531E1,-2.489999980E-1,1.539899945E0,3.260499954E0
4.414199531E1,-1.014999971E-1,3.164499998E0,2.689399958E0
4.416199531E1,3.468999863E-1,4.297100067E0,2.581699848E0
4.418199531E1,6.201999784E-1,4.986899853E0,2.408299923E0
4.420199531E1,6.994000077E-1,5.430799961E0,2.178599834E0
4.422199531E1,5.496999621E-1,5.414099693E0,1.803200006E0
4.424199531E1,6.700000167E-2,4.907700062E0,1.192199945E0
4.426199531E1,-1.803999990E-1,4.183799744E0,5.857999921E-1
4.428199531E1,-5.105000138E-1,3.158900023E0,5.257999897E-1
4.430199531E1,-8.391000032E-1,1.943699956E0,7.505999804E-1
4.432199531E1,-1.129499912E0,6.847999692E-1,8.944999576E-1
4.434199531E1,-1.437899947E0,-4.456000030E-1,9.857999682E-1
4.436199531E1,-1.634299994E0,-1.527899981E0,9.254999757E-1
4.438199531E1,-1.731899977E0,-3.447700024E0,5.641999841E-1
4.440199531E1,-1.458400011E0,-4.992199898E0,6.830000132E-2
4.442199531E1,-1.180899978E0,-4.445099831E0,-5.629000068E-1
4.444199531E1,-6.800000072E-1,-3.837999821E0,-6.873999834E-1
4.446199531E1,-6.309999824E-1,-3.882699966E0,-1.783999950E-1
4.448199531E1,5.460000038E-2,-2.571399927E0,5.946999788E-1
4.450199531E1,1.638899922E0,-1.446099997E0,9.243999720E-1
4.452199531E1,2.666199923E0,-1.568199992E0,9.778999686E-1
4.454199688E1,1.851799965E0,-1.836199999E0,5.514999628E-1
4.457199531E1,-2.032999992E0,-2.071099997E0,-1.703199983E0
4.459199531E1,-3.331599951E0,-6.237999797E-1,-2.474599838E0
4.461199688E1,-2.003000021E0,-1.715999991E-1,-2.826799870E0
4.464199531E1,2.547999918E-1,3.342999816E-1,-1.829999983E-1
4.466199531E1,-4.470000044E-2,1.204100013E0,1.241400003E0
4.468199688E1,-3.725999892E-1,2.392599821E0,2.236999989E0
4.471199531E1,2.599000037E-1,4.013499737E0,1.229599953E0
4.473199531E1,6.292999983E-1,4.511600018E0,1.673000008E-1
4.475199688E1,4.433999956E-1,4.743400097E0,-5.073999763E-1
4.478199531E1,-5.661999583E-1,3.972099781E0,2.186999917E-1
4.480199531E1,-6.962999701E-1,3.213799953E0,9.422999620E-1
4.482199531E1,-4.481000006E-1,2.337299824E0,1.177500010E0
4.484199531E1,-4.079999924E-1,1.209399939E0,9.433999658E-1
4.486199531E1,-7.979999483E-2,2.229999900E-1,7.182999849E-1
4.488199531E1,7.022999525E-1,-3.097999990E-1,4.190999866E-1
4.490199688E1,1.431100011E0,-7.342999578E-1,1.920999885E-1
4.493199531E1,2.227399826E0,-1.798499942E0,-9.377999902E-1
4.495199531E1,1.581900001E0,-2.183799982E0,-1.346899986E0
4.497199688E1,1.676199913E0,-2.454900026E0,-1.625999928E0
4.500199531E1,1.262499928E0,-3.973099947E0,-5.178800106E0
4.502199531E1,-1.124699950E0,-2.641799927E0,-1.551399946E0
4.504199688E1,-2.239300013E0,-2.840699911E0,-1.199299932E0
4.507199531E1,-1.886299968E0,-2.859699965E0,-3.190699816E0
4.509199531E1,-3.183399916E0,-3.910899878E0,-1.766199946E0
4.511199688E1,-4.451999664E0,-4.416899681E0,-4.099999741E-2
4.514199531E1,-3.167999983E0,-3.414499998E0,2.855399847E0
4.516199531E1,-1.046800017E0,-2.505699873E0,2.855199814E0
4.518199688E1,-7.325999737E-1,-4.474999905E-1,3.289399862E0
4.521199531E1,-5.508999825E-1,2.443799973E0,2.281999826E0
4.523199531E1,-9.179999679E-2,3.749799967E0,2.010499954E0
4.525199688E1,2.219999880E-1,4.585799694E0,1.873699903E0
4.528199531E1,3.037999868E-1,5.424799919E0,1.747699976E0
4.530199531E1,2.369999886E-2,5.474999905E0,1.536399961E0
4.532199688E1,-2.628999949E-1,4.580499649E0,1.088799953E0
4.535199531E1,-3.129999936E-1,3.464599848E0,3.206000030E-1
4.537199531E1,-3.540000021E-1,2.630899906E0,2.699999884E-2
4.539199531E1,-3.470000029E-1,1.511799932E0,2.009999938E-2
4.541199531E1,-4.879999757E-1,5.069000125E-1,1.283999979E-1
4.543199531E1,-4.492999911E-1,-5.389999747E-1,6.099999696E-2
4.545199531E1,-3.337999880E-1,-2.444700003E0,7.389999926E-2
4.547199531E1,-6.989999861E-2,-4.322700024E0,2.150999904E-1
4.549199531E1,3.237999976E-1,-5.038000107E0,-4.867999852E-1
4.551199531E1,7.311999798E-1,-4.378399849E0,-1.062699914E0
4.553199688E1,4.195999801E-1,-4.128399849E0,-3.034999967E-1
4.555199688E1,-6.319999695E-2,-3.487499952E0,7.895999551E-1
4.558199531E1,7.815999985E-1,-1.323699951E0,1.324899912E0
4.560199531E1,8.334999681E-1,-6.963999867E-1,1.299099922E0
4.562199688E1,-7.001000047E-1,-5.749999881E-1,7.637999654E-1
