"Time (s)","Acceleration x (m/s^2)","Acceleration y (m/s^2)","Acceleration z (m/s^2)"
0.000000000E0,-3.695067167E0,5.288351059E0,9.000952721E0
2.197968700E-2,-3.350934267E0,5.813955307E0,9.453783035E0
4.198437500E-2,-2.520213366E0,6.000089645E0,9.883830070E0
6.397812500E-2,-2.122498035E0,5.644484043E0,1.024196434E1
8.398593700E-2,-2.779237270E0,6.219810486E0,1.025593662E1
1.059796870E-1,-3.172039509E0,5.700153828E0,9.511904716E0
1.259796870E-1,-2.328705788E0,4.005729198E0,1.046113873E1
1.459796870E-1,-1.263956547E0,2.480010033E0,1.150900364E1
1.659984370E-1,-2.118772715E-1,1.610770941E0,1.121114635E1
1.879796870E-1,5.709021688E-1,8.846862912E-1,1.019040203E1
2.079843750E-1,7.237192988E-1,4.140627980E-1,1.017914009E1
2.279859370E-1,1.026585817E0,4.069376886E-1,9.882201195E0
2.499796870E-1,5.991345644E-1,6.786317229E-1,9.929558754E0
2.719796870E-1,8.813726902E-1,6.558388472E-1,9.907320976E0
2.939796870E-1,3.078368902E-1,1.409342051E0,9.332215309E0
3.159796870E-1,-4.229692519E-1,2.329069853E0,8.418904305E0
3.359796870E-1,-4.097819924E-1,2.600974560E0,7.287624359E0
3.559843750E-1,7.717852592E-1,1.824420094E0,6.945933819E0
3.779796870E-1,1.451365054E-1,1.936679363E0,6.409584522E0
3.979828120E-1,-3.351307809E-1,3.292592287E0,6.735358715E0
4.199796870E-1,-1.881603122E0,3.098154545E0,8.467649460E0
4.399843750E-1,-6.193033457E-1,2.168131590E0,9.424496651E0
4.619781250E-1,8.748412877E-2,2.196325779E0,9.068527222E0
4.819828120E-1,-4.849982262E-1,2.507131338E0,1.027256107E1
5.039796870E-1,-8.352986574E-1,3.087639093E0,9.619547844E0
5.259781250E-1,1.853591055E-1,3.330909252E0,9.456177711E0
5.459796870E-1,1.558816880E-1,4.008880138E0,9.740216255E0
5.659984370E-1,-3.350445926E-1,4.147868156E0,9.817634583E0
5.879796870E-1,-6.525061727E-1,4.113669395E0,9.588384628E0
6.079796870E-1,6.119101048E-1,5.333755016E0,9.981599808E0
6.279796870E-1,-1.630738676E-1,4.516623020E0,9.793434143E0
6.479796870E-1,-5.410799980E-1,4.616164684E0,9.303599358E0
6.699796870E-1,-4.802577198E-1,5.125391960E0,9.548306465E0
6.919796870E-1,-5.983493328E-1,5.107196331E0,1.007662010E1
7.119796870E-1,-6.648697853E-1,4.672600746E0,1.035271931E1
7.319796870E-1,9.166919440E-2,3.576745749E0,1.095109749E1
7.519796870E-1,3.774123788E-1,2.632242918E0,1.181155491E1
7.719796870E-1,-2.298337817E-1,2.125476599E0,1.166916656E1
7.939796870E-1,-1.199983478E0,2.256659746E0,1.013843822E1
8.159796870E-1,-1.006321311E0,2.268582821E0,9.178488731E0
8.379796870E-1,-5.934843421E-1,2.071013212E0,9.334916115E0
8.579796870E-1,-7.421450615E-1,1.899952292E0,9.624413490E0
8.779796870E-1,-9.652559161E-1,1.867649674E0,9.774970055E0
8.979796870E-1,-9.893032908E-1,1.815561414E0,9.639027596E0
9.179796870E-1,-8.670074344E-1,1.881354094E0,9.279619217E0
9.379796870E-1,-7.262762785E-1,2.005143881E0,8.964111328E0
9.579796870E-1,-3.431656957E-1,2.221905231E0,8.740684509E0
9.779796870E-1,-1.618480310E-2,2.674811840E0,7.799849510E0
9.979796870E-1,-2.060641497E-1,2.896045446E0,6.544243813E0
1.017979687E0,-2.446108013E-1,2.806138515E0,6.180181503E0
1.037979687E0,5.267243832E-4,3.313163280E0,5.939487934E0
1.057981250E0,1.042090654E0,2.082515001E0,6.045454979E0
1.079979687E0,2.070764065E0,-1.821604371E0,3.411277771E0
1.099979687E0,-8.450286984E-1,1.820886135E0,9.564586639E0
1.119979687E0,-2.182898998E0,4.707364082E0,1.365178585E1
1.139979687E0,-8.200236559E-1,2.393387794E0,1.307380676E1
1.159979687E0,1.162499905E0,1.385591507E0,1.040672398E1
1.181978125E0,7.960720658E-1,1.505924225E0,5.757920742E0
1.201978125E0,-1.792529225E0,1.603607535E0,1.298884106E1
1.221978125E0,-1.038863301E0,3.680395603E0,8.474190712E0
1.241978125E0,-8.090582490E-1,5.336579800E0,4.926922321E0
1.261979687E0,-3.501663685E0,6.392805576E0,9.114476204E0
1.283984375E0,-4.155089378E0,4.291309357E0,1.009685612E1
1.305978125E0,-2.589070559E0,2.927907467E0,1.309451199E1
1.325978125E0,-1.138960123E0,2.365155220E0,1.431300640E1
1.345978125E0,7.526603937E-1,1.959797740E0,1.480672932E1
1.365996875E0,-1.565807872E-2,1.402590513E0,1.210335064E1
1.387979687E0,-1.692805886E0,2.016080618E0,9.947381020E0
1.407979687E0,-1.388167739E0,2.749309778E0,9.162849426E0
1.427995312E0,1.918904781E-1,2.265614033E0,9.109755516E0
1.449981250E0,7.484561801E-1,2.571228981E0,8.414507866E0
1.471979687E0,-5.860431194E-1,3.209733963E0,8.123124123E0
1.491979687E0,-2.578124285E0,3.974049330E0,9.066908836E0
1.513979687E0,-3.218573332E-1,3.258996725E0,9.019015312E0
1.535979687E0,1.995710731E-1,2.696953297E0,8.429562569E0
1.557979687E0,-1.559678763E-1,2.749865294E0,6.711847782E0
1.577979687E0,-9.582935572E-1,2.987484932E0,8.415590286E0
1.599979687E0,-1.207194805E0,2.851120949E0,8.479199409E0
1.619979687E0,-7.742081881E-1,2.793678999E0,8.295630455E0
1.639979687E0,-7.546906471E-1,2.563577175E0,8.915336609E0
1.659979687E0,-9.039643407E-1,2.643198729E0,8.505171776E0
1.681978125E0,-5.832371116E-1,2.593495131E0,7.772967339E0
1.701978125E0,3.762919009E-1,3.069740057E0,5.534178257E0
1.721978125E0,-5.184020996E-1,3.063361883E0,4.970132828E0
1.741978125E0,-6.158844829E-1,4.934171677E0,1.162075615E1
1.761978125E0,-1.161676288E0,2.030043602E0,1.257588005E1
1.781978125E0,-1.467310429E0,6.290909052E-1,1.149711895E1
1.801978125E0,1.361534595E-1,2.409151077E0,9.661589622E0
1.821978125E0,-9.200629592E-1,3.215968370E0,7.478422642E0
1.841979687E0,-3.198136330E0,5.053556442E0,8.201672554E0
1.863978125E0,-5.343293190E0,5.676729202E0,9.655020714E0
1.883987500E0,-4.364189148E0,5.764969826E0,7.542644978E0
1.905978125E0,-5.078159332E0,6.011974812E0,7.950406075E0
1.925978125E0,-5.287594318E0,5.770370960E0,8.004390717E0
1.945978125E0,-2.706099033E0,3.943767309E0,9.314239502E0
1.965996875E0,-1.732176185E0,2.660149574E0,9.995313644E0
1.987996875E0,-1.984486699E0,2.037168741E0,9.931158066E0
2.009979687E0,-2.122852564E0,1.586177707E0,1.047595406E1
2.029979687E0,-2.211715460E0,1.674313068E0,1.065933990E1
2.049979687E0,-2.164664745E0,2.208392620E0,1.027311707E1
2.069979687E0,-1.949368596E0,2.636676788E0,9.246598244E0
2.089979687E0,-1.649049520E0,2.858839512E0,7.903173923E0
2.110021875E0,-1.832397461E0,3.330440044E0,7.006343842E0
2.131978125E0,-2.179623842E0,3.745661736E0,6.538114548E0
2.151981250E0,-2.326244593E0,3.822458029E0,6.419123173E0
2.173985937E0,-2.572464466E0,3.703877926E0,6.726576805E0
2.195978125E0,-1.889954090E0,3.568806648E0,6.550957203E0
2.215979687E0,-1.569312930E0,3.540593147E0,7.498975277E0
2.237978125E0,-1.203948259E0,3.593237162E0,8.805807114E0
2.257984375E0,-1.771220803E0,3.523335934E0,8.600584984E0
2.279978125E0,-2.951380253E0,4.035905838E0,7.715544701E0
2.299984375E0,-3.499097109E0,4.612506390E0,8.355821609E0
2.321978125E0,-2.965391159E0,4.452267170E0,8.329302788E0
2.341979687E0,-2.429798603E0,4.331015110E0,8.800299644E0
2.363979687E0,-1.575183630E0,3.609948397E0,8.926101685E0
2.385979687E0,-1.522492051E0,3.439902782E0,9.641469955E0
2.405979687E0,-1.879620671E0,3.915736198E0,9.484601974E0
2.427985937E0,-2.344047785E0,4.872286797E0,9.649619102E0
2.449979687E0,-1.652506709E0,5.035781860E0,9.955148697E0
2.469979687E0,-8.644217253E-1,4.745968819E0,1.080173874E1
2.489979687E0,-5.897206068E-1,3.873368263E0,1.142404747E1
2.509979687E0,-3.777954280E-1,2.735356092E0,1.167149448E1
2.529979687E0,-1.126998588E-1,2.193739891E0,1.159208298E1
2.549979687E0,3.706224263E-3,2.343971491E0,1.091649723E1
2.569979687E0,-5.158067942E-1,2.162845135E0,1.016601944E1
2.589982812E0,-1.078329325E0,1.865676880E0,1.005791664E1
2.611979687E0,-8.914857507E-1,1.651491523E0,1.104656887E1
2.631979687E0,-6.489052773E-1,1.710561395E0,1.120643425E1
2.651979687E0,-6.701465845E-1,2.076174974E0,1.034566116E1
2.671990625E0,-9.863728285E-1,2.517244577E0,9.028639793E0
2.693979687E0,-1.260087490E0,2.950422525E0,8.019369125E0
2.713982812E0,-1.223264694E0,3.195349455E0,7.324026108E0
2.735978125E0,-7.283545136E-1,3.210183859E0,6.507372856E0
2.755982812E0,-5.736219883E-1,3.256660223E0,6.078773022E0
2.777979687E0,-7.392145395E-1,3.358442307E0,6.272013664E0
2.799979687E0,-6.343772411E-1,3.317568541E0,6.760794640E0
2.819981250E0,-5.417311788E-1,3.259408712E0,6.961946011E0
2.841979687E0,-4.437221885E-1,3.276139498E0,6.994535446E0
2.861979687E0,-1.152721882E0,3.651435375E0,7.478222370E0
2.883978125E0,-1.303930163E0,3.905804873E0,8.144336700E0
2.903978125E0,-1.193145633E0,4.013639450E0,8.829844475E0
2.923978125E0,-1.281597018E0,4.231790066E0,9.270156860E0
2.943978125E0,-1.404821754E0,4.319494247E0,9.631567001E0
2.963978125E0,-1.626467466E0,4.510522842E0,1.000758076E1
2.983978125E0,-1.436377287E0,4.446367741E0,1.000911331E1
3.003978125E0,-1.730749249E0,4.124022007E0,1.177534485E1
3.023981250E0,-1.735212088E0,4.448675632E0,1.132233334E1
3.045978125E0,-2.438551903E0,4.762565136E0,1.084141541E1
3.065996875E0,-3.240743637E0,4.364428520E0,1.132642174E1
3.087978125E0,-3.159819603E0,3.407887459E0,1.149068356E1
3.108026562E0,-3.232622385E0,3.258987188E0,1.071987534E1
3.129978125E0,-3.095501661E0,2.528736591E0,1.018922424E1
3.149978125E0,-2.913350821E0,1.621430039E0,1.067604160E1
3.169979687E0,-3.074624300E0,1.134842038E0,1.091479206E1
3.191978125E0,-2.628727913E0,1.023071051E0,1.081418705E1
3.211978125E0,-1.755371213E0,1.083424211E0,1.046217251E1
3.231978125E0,-1.123847842E0,1.371168971E0,9.465380669E0
3.251978125E0,-9.434016943E-1,1.808503270E0,8.164878845E0
3.271985937E0,-9.151596427E-1,2.244985342E0,7.446513176E0
3.293978125E0,-8.548257351E-1,2.518996954E0,6.877373219E0
3.313981250E0,-8.227434754E-1,2.653599024E0,6.660122871E0
3.335978125E0,-8.188169599E-1,2.689263105E0,6.920095444E0
3.355978125E0,-7.727812529E-1,2.623623848E0,7.324294090E0
3.375978125E0,-8.356721997E-1,2.546338797E0,7.474295616E0
3.395978125E0,-8.396943808E-1,2.607055902E0,7.523194790E0
3.415978125E0,-8.142200708E-1,2.626123190E0,7.673339844E0
3.435978125E0,-8.712404370E-1,2.768003702E0,7.982182026E0
3.455982812E0,-1.107854605E0,3.292965889E0,8.217647552E0
3.477978125E0,-1.168849230E0,3.774248362E0,8.376133919E0
3.497984375E0,-8.707807660E-1,3.913791895E0,8.774165154E0
3.519979687E0,-5.700594187E-1,3.903784275E0,9.501571655E0
3.541978125E0,-2.645592988E-1,3.539808035E0,1.034045219E1
3.561978125E0,-4.974672198E-1,3.188626528E0,1.075374794E1
3.581978125E0,-1.342026591E0,4.096919537E0,1.051441383E1
3.601978125E0,-1.670386553E0,5.034747601E0,1.069926548E1
3.621985937E0,-1.394411802E0,5.058861732E0,1.140982723E1
3.643979687E0,-6.960614920E-1,3.670905113E0,1.192866039E1
3.663979687E0,-2.149131149E-1,2.302475214E0,1.264269733E1
3.685978125E0,6.198779941E-1,1.902557135E0,1.181551933E1
3.705978125E0,1.099781394E0,1.931277990E0,1.042029381E1
3.725978125E0,9.554972053E-1,1.764957666E0,9.818707466E0
3.745978125E0,3.587950766E-1,1.530747175E0,1.020715237E1
3.766010937E0,3.402639329E-1,1.564821482E0,1.037271595E1
3.787978125E0,2.023004591E-1,1.936573982E0,9.824444771E0
3.807978125E0,-1.834437400E-1,2.165871620E0,8.681700706E0
3.827992187E0,-6.233447790E-1,2.416257143E0,7.765660286E0
3.849979687E0,-7.485136986E-1,2.742653847E0,6.794456959E0
3.871978125E0,-6.335728168E-1,2.959357977E0,6.175824165E0
3.891978125E0,-4.896333814E-1,2.975868225E0,6.053154945E0
3.911978125E0,-4.305061996E-1,3.023158550E0,6.277577400E0
3.931978125E0,-5.008574128E-1,2.997100115E0,6.556875706E0
3.951978125E0,-4.950347245E-1,2.992819071E0,7.018333912E0
3.971978125E0,-4.129806459E-1,3.048680782E0,7.491026402E0
3.991978125E0,-3.492374122E-1,3.123657465E0,8.077883720E0
4.011978125E0,-3.519667983E-1,3.392899990E0,8.650394440E0
4.031979687E0,-2.869211435E-1,3.849493265E0,8.893616676E0
4.051979687E0,-2.761663795E-1,4.236367702E0,8.889183044E0
4.073979687E0,-3.455598950E-1,4.383773804E0,9.430980682E0
4.093979687E0,-5.354584455E-1,4.519937038E0,9.929300308E0
4.115979687E0,-6.172922254E-1,4.556069851E0,1.022749329E1
4.137979687E0,-6.725982428E-1,4.602201462E0,1.068238163E1
4.159979687E0,-8.416959643E-1,4.561183929E0,1.092419624E1
4.181978125E0,-1.472520232E0,4.878990173E0,1.042701626E1
4.201978125E0,-2.084650517E0,4.757795811E0,1.040668488E1
4.221978125E0,-2.339498997E0,4.041517735E0,1.135030651E1
4.241978125E0,-2.984496832E0,3.281818390E0,1.295859718E1
4.261978125E0,-3.036029816E0,2.918282986E0,1.282574844E1
4.281978125E0,-1.820282817E0,2.318678856E0,1.062214375E1
4.301978125E0,-1.386893988E0,1.939226866E0,9.300582886E0
4.321978125E0,-2.683114767E0,2.161197901E0,9.863976479E0
4.341978125E0,-2.940989494E0,2.228781462E0,9.701334000E0
4.361978125E0,-2.390256166E0,2.119874001E0,8.990974426E0
4.381978125E0,-1.869392753E0,2.430976629E0,8.714223862E0
4.401978125E0,-1.511411667E0,2.487891674E0,8.893540382E0
4.421979687E0,-1.365173817E0,2.708723068E0,8.555852890E0
4.443978125E0,-1.141344786E0,2.898353577E0,7.529783726E0
4.463978125E0,-1.646253109E0,3.249372244E0,6.696179867E0
4.483978125E0,-9.842084646E-1,3.311563969E0,6.667325020E0
4.503978125E0,-9.878475666E-1,3.228724718E0,7.218345642E0
4.523982812E0,-7.505726218E-1,2.965841293E0,7.340602875E0
4.545978125E0,-6.145915389E-1,2.994906902E0,7.067808151E0
4.566003125E0,-2.637165189E-1,2.897654533E0,7.322694778E0
4.587987500E0,-1.996840835E0,3.588151932E0,6.976617813E0
4.607993750E0,-1.505809188E0,3.525730133E0,6.687187672E0
4.629978125E0,-1.494776726E0,3.877505302E0,7.177242279E0
4.649978125E0,-1.788315415E0,4.228026390E0,7.529792786E0
4.669979687E0,-2.004971504E0,4.361775875E0,8.403198242E0
4.689982812E0,-1.824362516E0,3.995941877E0,9.556226730E0
4.711978125E0,-1.720368028E0,3.422118664E0,1.082868671E1
4.731978125E0,-2.327259779E0,3.803601265E0,1.119188786E1
4.751978125E0,-2.978080511E0,5.245705605E0,1.135954857E1
4.771979687E0,-2.452399969E0,5.319954395E0,1.203082561E1
4.791979687E0,-1.437153101E0,3.960277796E0,1.318217754E1
4.813978125E0,-7.055233717E-1,2.357225657E0,1.463053513E1
4.833979687E0,4.690720141E-2,1.790661693E0,1.441128445E1
4.855982812E0,8.165951371E-1,1.909347177E0,1.205409622E1
4.877981250E0,1.273801565E0,1.897433639E0,1.035457706E1
4.898007812E0,6.356509924E-1,1.919919968E0,9.876283646E0
4.919979687E0,1.385189295E-1,1.936823010E0,9.391544342E0
4.939981250E0,-9.047209471E-2,2.106983662E0,8.861850739E0
4.961979687E0,-3.501376212E-1,2.297887802E0,7.904466152E0
4.981979687E0,-6.783635020E-1,2.536695004E0,7.137086391E0
5.003979687E0,-1.128540516E0,2.889351368E0,6.711062431E0
5.025978125E0,-1.354198694E0,3.125343084E0,6.522849083E0
5.045979687E0,-9.928945899E-1,3.028330088E0,5.820907593E0
5.065998437E0,-9.406914115E-1,2.975283861E0,5.654386044E0
5.087981250E0,-1.205260277E0,3.125295162E0,5.967930794E0
5.107990625E0,-1.438101172E0,3.328649044E0,6.130267143E0
5.129979687E0,-1.367031693E0,3.402514935E0,6.533431530E0
5.149979687E0,-1.645802975E0,3.521296024E0,7.115615368E0
5.169979687E0,-1.946313620E0,3.822084427E0,7.862051010E0
5.189979687E0,-1.971079230E0,4.206411362E0,8.116008759E0
5.209979687E0,-2.056312799E0,4.671624184E0,8.024415970E0
5.229979687E0,-1.817993999E0,4.726987362E0,8.488622665E0
5.249979687E0,-2.283570290E0,4.973053932E0,9.283765793E0
5.271979687E0,-3.019787312E0,5.212952614E0,1.079501438E1
5.291979687E0,-2.724352598E0,5.101689339E0,1.150881290E1
5.311979687E0,-2.827829838E0,5.268268585E0,1.148872089E1
5.331979687E0,-4.257791042E0,5.291214466E0,1.033426571E1
5.351984375E0,-5.216094017E0,4.855967999E0,1.258915329E1
5.373979687E0,-6.024596691E0,4.197160244E0,1.359165287E1
5.395981250E0,-5.262484074E0,3.538371563E0,1.216192150E1
5.417979687E0,-4.371927261E0,3.418958187E0,9.817491531E0
5.437992187E0,-4.253950596E0,2.911885500E0,9.392722130E0
5.459979687E0,-4.156841755E0,2.359179258E0,9.802723885E0
5.479982812E0,-3.946228504E0,2.072746515E0,9.727334976E0
5.501978125E0,-3.419695854E0,2.204839706E0,8.965615273E0
5.521978125E0,-3.405732632E0,2.900661707E0,7.735579491E0
5.541978125E0,-3.680970192E0,4.153107166E0,8.712882996E0
5.561979687E0,-3.948469400E0,3.946468115E0,7.694829941E0
5.583979687E0,-1.890662670E0,3.282134533E0,7.189490795E0
5.603984375E0,-5.555027127E-1,2.717907190E0,6.333295345E0
5.625979687E0,7.776367068E-1,2.584224701E0,5.362130642E0
5.645979687E0,1.272422433E0,2.208009481E0,4.617639065E0
5.665998437E0,2.422012806E0,1.854395390E0,4.006322861E0
5.687979687E0,1.412933350E0,2.183693886E0,4.402716637E0
5.707985937E0,1.791973710E0,1.707831860E0,6.539292336E0
5.727987500E0,7.359105945E-1,2.094198704E0,6.610888481E0
5.747992187E0,-1.247312069E0,3.656798363E0,6.761053085E0
5.769984375E0,-1.121156693E0,3.809711218E0,8.572094917E0
5.791979687E0,-1.260796189E0,4.147408485E0,9.770498276E0
5.811987500E0,-1.167364836E0,4.226119995E0,9.595577240E0
5.833979687E0,-1.227717876E0,4.005470753E0,1.047959232E1
5.855978125E0,-1.868099809E0,3.944677353E0,1.045662785E1
5.875979687E0,-2.266791821E0,4.553876877E0,1.188455868E1
5.895979687E0,-2.244238615E0,5.018553257E0,1.296488953E1
5.917982812E0,-9.707434773E-1,3.642423630E0,1.301788807E1
5.939979687E0,-5.883990228E-2,2.005594015E0,1.481678486E1
5.959987500E0,-2.451470941E-1,7.942715883E-1,1.504757690E1
5.981979687E0,9.741527587E-2,5.789659023E-1,1.362000942E1
6.001979687E0,6.144383550E-1,1.075274348E0,1.167208767E1
6.021979687E0,1.392793298E0,1.106667161E0,1.061783409E1
6.041979687E0,2.164119005E0,9.593278766E-1,1.094404030E1
6.061979687E0,6.292058229E-1,7.978054881E-1,1.103301716E1
6.083979687E0,-1.639913201E0,8.865920305E-1,9.634057045E0
6.103979687E0,-2.429894447E0,1.472060561E0,8.359718323E0
6.123979687E0,-2.059626579E0,1.846398830E0,6.908181667E0
6.145978125E0,-1.664238334E0,2.302264452E0,6.177758694E0
6.165998437E0,-1.864834070E0,2.348213911E0,6.750144958E0
6.187985937E0,-1.182975054E0,2.873521090E0,6.785311222E0
6.209979687E0,-7.580617070E-1,2.973234653E0,5.785348892E0
6.229979687E0,-8.763448596E-1,3.058765173E0,5.139489174E0
6.249979687E0,-8.904610872E-1,2.965199709E0,5.843556404E0
6.269979687E0,-8.786241412E-1,2.937407732E0,7.459154606E0
6.289979687E0,-1.007221460E0,3.065545321E0,7.691066265E0
6.309979687E0,-9.465045333E-1,3.497804165E0,7.842331886E0
6.329979687E0,-9.631011486E-1,3.876538038E0,8.586957932E0
6.349979687E0,-1.148622990E0,4.293397427E0,8.865719795E0
6.369979687E0,-1.290857792E0,4.289796352E0,9.183323860E0
6.389979687E0,-1.512790680E0,4.216103077E0,9.529775620E0
6.411979687E0,-1.349458218E0,3.697394609E0,1.060772133E1
6.431979687E0,-1.123867035E0,3.463519335E0,1.103048897E1
6.451979687E0,-1.232333899E0,4.113535881E0,1.137005424E1
6.473978125E0,-5.296357274E-1,4.077000141E0,1.194038200E1
6.493979687E0,-3.083061576E-1,3.243425131E0,1.283728790E1
6.513979687E0,-1.003984571E0,2.805669308E0,1.211792660E1
6.535979687E0,-1.629943848E0,2.572119713E0,1.108860111E1
6.555979687E0,-1.373687625E0,2.456489325E0,1.066003895E1
6.575979687E0,-6.637493372E-1,2.027630329E0,1.030910683E1
6.597979687E0,-3.409726322E-1,1.501873136E0,1.012018585E1
6.617979687E0,-7.366575599E-1,1.313775182E0,1.021333885E1
6.637987500E0,-1.092608333E0,1.217547417E0,1.001017666E1
6.659979687E0,-1.108716607E0,1.225907803E0,1.013301849E1
6.679979687E0,-9.105436206E-1,1.336874366E0,9.499847412E0
6.701979687E0,-6.645250320E-1,1.599029899E0,8.148359299E0
6.723979687E0,-2.084870934E-1,1.863445401E0,6.905251026E0
6.745979687E0,1.354447752E-1,2.099619150E0,6.099190235E0
6.766012500E0,4.105577245E-2,2.256247759E0,6.179521084E0
6.787990625E0,-1.051820666E-1,2.380612373E0,7.038608551E0
6.809979687E0,4.958104491E-1,2.451940298E0,7.811552048E0
6.829979687E0,7.660871148E-1,2.515223980E0,7.988934040E0
6.849979687E0,6.946536899E-1,2.636351347E0,8.028572083E0
6.869979687E0,3.177680373E-1,2.814202070E0,8.184846878E0
6.889979687E0,-2.384624910E-3,3.078780413E0,8.535463333E0
6.911979687E0,-4.392881319E-2,3.366008043E0,8.843989372E0
6.931979687E0,-4.722610712E-1,3.681650162E0,9.339818954E0
6.951979687E0,-7.239874005E-1,3.954081535E0,1.024402237E1
6.973978125E0,-7.284502387E-1,4.092351437E0,1.072542953E1
6.993979687E0,-1.411104083E0,4.671269417E0,1.021725559E1
7.013979687E0,-1.556757808E0,4.918245792E0,1.014611912E1
7.035979687E0,-1.327824295E-1,4.132717609E0,1.130994987E1
7.057981250E0,1.047003508E0,2.118533134E0,1.339212036E1
7.077981250E0,7.475559711E-1,7.463876009E-1,1.497216892E1
7.100021875E0,1.531714499E-1,4.624065161E-1,1.440321064E1
7.121979687E0,1.014404058E0,7.313424349E-1,1.303148651E1
7.141979687E0,2.244784355E0,1.030732512E0,1.166338158E1
7.161979687E0,2.189315319E0,1.467291236E0,9.969216347E0
7.181979687E0,1.452926159E0,1.832349658E0,8.902063370E0
7.201979687E0,7.087794542E-1,2.016875505E0,8.200467110E0
7.223979687E0,-9.871772677E-2,2.219061136E0,7.667938709E0
7.245979687E0,-8.516463041E-1,2.491636276E0,7.103596687E0
7.266012500E0,-1.235886931E0,2.730529547E0,6.269504547E0
7.287979687E0,-1.324903369E0,3.063256502E0,5.388074398E0
7.307979687E0,-9.985449314E-1,3.172106504E0,5.141586304E0
7.327979687E0,-7.296281457E-1,3.074787140E0,5.510475636E0
7.347995312E0,-6.724354625E-1,2.795105934E0,6.347765923E0
7.369979687E0,-8.876071572E-1,2.576563120E0,7.706628799E0
7.389979687E0,-1.020600319E0,2.504267931E0,7.985764027E0
7.409979687E0,-1.628832936E0,2.989486217E0,8.136512756E0
7.429979687E0,-1.536244273E0,3.385918379E0,8.753632545E0
7.449979687E0,-1.070169806E0,3.368316174E0,9.368874550E0
7.469979687E0,-1.052979469E0,3.663837433E0,9.593307495E0
7.489979687E0,-1.066463590E0,3.955623627E0,9.533653259E0
7.509979687E0,-7.113652229E-1,4.024806499E0,1.002143860E1
7.529979687E0,1.052108034E-1,3.934276581E0,1.065276051E1
7.549979687E0,2.245378047E-1,4.378659725E0,1.082394600E1
7.569979687E0,2.266159803E-1,4.487174511E0,1.132406616E1
7.589979687E0,3.804194927E-1,4.017920494E0,1.101653576E1
7.609979687E0,4.371525049E-1,3.035196543E0,1.057654858E1
7.629979687E0,5.085954666E-1,2.399172068E0,1.103082466E1
7.649979687E0,1.026489973E0,1.574733496E0,1.212927437E1
7.669979687E0,-3.397085071E-1,1.395982385E0,1.191558743E1
7.689979687E0,-6.136530638E-1,7.698124647E-1,1.287670612E1
7.709979687E0,-2.083338648E-1,1.453759335E-2,1.417467976E1
7.729979687E0,-8.462449312E-1,2.679590695E-2,1.451220512E1
7.749979687E0,-1.458739281E0,4.844523668E-1,1.253333950E1
7.769979687E0,-1.561153531E0,9.947142005E-1,1.011288738E1
7.789979687E0,-1.232803226E0,1.376790524E0,8.442721367E0
7.809979687E0,-7.067492008E-1,1.702315688E0,6.981434345E0
7.829979687E0,-3.163698018E-1,1.901417494E0,5.979049206E0
7.849979687E0,-3.771633804E-1,1.973291516E0,5.627925396E0
7.869979687E0,-1.853303611E-1,2.028798580E0,5.571077824E0
7.889979687E0,5.468356423E-3,2.028702974E0,5.533910275E0
7.909979687E0,1.059386358E-1,1.997367501E0,5.540642738E0
7.929979687E0,4.132775366E-1,1.960803390E0,5.895941734E0
7.949979687E0,4.155089259E-1,1.623489022E0,7.238878250E0
7.969979687E0,3.770388663E-2,1.699643850E0,8.648584366E0
7.989979687E0,2.780146897E-2,1.932092071E0,8.772680283E0
8.009979687E0,-2.444096804E-1,2.397132397E0,8.632686615E0
8.029979687E0,-2.413929850E-1,2.538849831E0,9.161537170E0
8.049979687E0,4.014597461E-2,2.519159794E0,1.017789555E1
8.069979687E0,2.421687096E-1,2.546970844E0,1.122149944E1
8.089979687E0,-2.273055166E-1,2.394355059E0,1.208456039E1
8.109979687E0,-8.800798059E-1,2.804979801E0,1.228871918E1
8.129979687E0,-6.959465891E-2,2.895710468E0,1.240959740E1
8.149979687E0,6.737666726E-1,2.281023026E0,1.298262596E1
8.169979687E0,5.492299050E-2,1.421945095E0,1.365563583E1
8.189979687E0,-4.100501537E-1,9.766331911E-1,1.459309006E1
8.209979687E0,-2.157463133E-1,7.277415991E-1,1.441991329E1
8.229979687E0,3.841257393E-1,4.032410383E-1,1.343571377E1
8.249979687E0,1.463652134E0,1.055076793E-1,1.269089699E1
8.271979687E0,2.064548731E0,2.492938489E-1,1.110341740E1
8.293979687E0,1.823500633E0,6.528604627E-1,9.754629135E0
8.315978125E0,9.656198621E-1,1.045480847E0,9.267954826E0
8.335979687E0,3.276033998E-1,1.222182512E0,8.687590599E0
8.357979687E0,-1.241154149E-1,1.451116085E0,7.693326473E0
8.377979687E0,-1.178426072E-1,1.670721769E0,7.074693680E0
8.397979687E0,-4.450342059E-1,1.990290284E0,6.290678501E0
8.417979687E0,-5.058469176E-1,2.177421093E0,5.654711723E0
8.437979687E0,-5.008574128E-1,2.331464052E0,5.805766582E0
8.457989062E0,-6.082612872E-1,2.342793465E0,6.290286064E0
8.479978125E0,-9.454702735E-1,2.391500950E0,6.537051678E0
8.499978125E0,-9.627755284E-1,2.391931772E0,7.159601688E0
8.519979687E0,-8.050742745E-1,2.443196535E0,7.767230988E0
8.539979687E0,-5.894811749E-1,2.662132025E0,8.496648788E0
8.559979687E0,-5.588833094E-1,2.877648354E0,9.620620728E0
8.581978125E0,-6.587598324E-1,3.126674175E0,1.006350040E1
8.601978125E0,-4.665724635E-1,3.251057863E0,1.048033142E1
8.621979687E0,-1.141363829E-1,3.180227757E0,1.113071060E1
8.643978125E0,1.728709340E-1,3.181463242E0,1.123009872E1
8.663979687E0,3.002712131E-1,3.608282328E0,1.106201649E1
8.683993750E0,3.150961101E-1,3.721345901E0,1.147417259E1
8.705979687E0,4.756800085E-2,3.066838264E0,1.242118549E1
8.725979687E0,-4.897578955E-1,2.281396389E0,1.320212555E1
8.745979687E0,-9.860567451E-1,1.699231982E0,1.311206532E1
8.766012500E0,-1.084544659E0,1.539452553E0,1.187952137E1
8.787985937E0,-6.166409850E-1,1.435170650E0,1.114126492E1
8.809979687E0,-1.694041342E-1,1.175495625E0,1.109053612E1
8.831978125E0,-3.538917601E-1,1.108726025E0,1.077565002E1
8.851978125E0,-6.412342787E-1,1.079286933E0,1.035530567E1
8.871978125E0,-7.191032767E-1,1.161321878E0,9.487263680E0
8.891978125E0,-7.387931943E-1,1.362013459E0,8.316471100E0
8.911978125E0,-5.507047176E-1,1.558596611E0,7.702031612E0
8.931978125E0,-3.856484294E-1,1.809729099E0,7.082910538E0
8.951978125E0,-1.556901485E-1,2.036871910E0,6.348781109E0
8.971978125E0,7.766790222E-3,2.215670824E0,6.211114883E0
8.991979687E0,-8.474516124E-2,2.298950672E0,6.354622841E0
9.011979687E0,-2.308201939E-1,2.406871796E0,6.487673759E0
9.033978125E0,-2.080274075E-1,2.496520281E0,6.985686779E0
9.053979687E0,-9.192776680E-2,2.590085745E0,7.521585941E0
9.073979687E0,-2.509219348E-1,2.764833689E0,7.793423176E0
9.093979687E0,-6.335824132E-1,2.902481318E0,8.207898140E0
9.115979687E0,-8.818132281E-1,3.019318104E0,8.828129768E0
9.137979687E0,-4.587769210E-1,2.969681740E0,9.566013336E0
9.157981250E0,-2.010554820E-1,2.833326817E0,1.019991207E1
9.179979687E0,-3.931374848E-1,2.982974052E0,1.061771965E1
9.199979687E0,-8.759426475E-1,3.890884161E0,1.056128311E1
9.219979687E0,-7.059064507E-1,4.160202980E0,1.042978382E1
9.239979687E0,5.157206655E-1,3.363048792E0,1.085847092E1
9.259979687E0,9.696804285E-1,1.512292743E0,1.275928497E1
9.279979687E0,1.756003201E-1,3.760524690E-1,1.555161285E1
9.299979687E0,-2.733986676E-1,2.750363052E-1,1.528452682E1
9.319979687E0,6.503322124E-1,8.340249658E-1,1.293977928E1
9.339979687E0,1.836649537E0,1.326608062E0,1.067196274E1
9.359979687E0,2.241059065E0,1.784417748E0,8.744132042E0
9.379979687E0,1.579627156E0,2.092819691E0,7.849447727E0
9.399979687E0,8.451915383E-1,2.066540718E0,8.523970604E0
9.419979687E0,1.287314296E-1,2.012585163E0,9.055694580E0
9.439979687E0,-3.237343729E-1,2.044657946E0,8.747675896E0
9.459979687E0,-5.202121735E-1,2.157989740E0,8.176888466E0
9.481979687E0,-7.440125942E-1,2.390849829E0,7.171591759E0
9.503979687E0,-6.709511280E-1,2.542527437E0,6.532225132E0
9.523979687E0,-7.178104520E-1,2.619457722E0,6.479954720E0
9.545979687E0,-6.724259257E-1,2.612907171E0,6.611061096E0
9.565996875E0,-6.746286154E-1,2.586657286E0,6.696285248E0
9.587979687E0,-7.468185425E-1,2.681601524E0,6.933540821E0
9.607979687E0,-6.691506505E-1,2.817170858E0,7.437271595E0
9.627985937E0,-5.111907721E-1,3.118093252E0,8.250830650E0
9.647985937E0,-4.573404193E-1,3.520070314E0,8.788348198E0
9.668004687E0,-2.940462530E-1,3.797548532E0,9.332320213E0
9.689979687E0,-4.200770557E-1,3.950988293E0,9.649417877E0
9.711978125E0,-4.000328183E-1,3.856465101E0,1.057988167E1
9.731978125E0,-2.483840585E-1,3.746312857E0,1.125055504E1
9.751978125E0,-2.206209004E-1,3.849445343E0,1.115018082E1
9.771978125E0,-7.418194413E-2,3.499728918E0,1.128767490E1
9.791978125E0,-2.160527557E-2,2.452658415E0,1.316978550E1
9.811978125E0,-5.072738528E-1,1.366255999E0,1.512036991E1
9.831978125E0,-1.453194261E0,1.348586798E0,1.382278061E1
9.851978125E0,-1.809757948E0,1.648551464E0,1.121798420E1
9.871978125E0,-1.391768575E0,1.652171493E0,1.049790382E1
9.891978125E0,-6.618435383E-1,1.177420497E0,1.129323864E1
9.911978125E0,-9.311624765E-1,1.061780572E0,1.124129391E1
9.931978125E0,-1.248375177E0,1.214894533E0,1.044816208E1
9.951978125E0,-1.222182512E0,1.397830725E0,9.604387283E0
9.971978125E0,-1.173628092E0,1.626496077E0,8.625226974E0
9.991979687E0,-9.301090837E-1,1.823874116E0,7.626260281E0
1.001397969E1,-7.145734429E-1,1.998459339E0,6.867423058E0
1.003397969E1,-5.735070705E-1,2.044169426E0,6.714270592E0
1.005397969E1,-5.282853842E-1,2.007921219E0,6.559097767E0
1.007597812E1,-2.324099392E-1,2.011129379E0,6.159974575E0
1.009597969E1,-1.293156296E-1,2.183167219E0,6.062645435E0
1.011597969E1,-3.513730466E-1,2.405157566E0,6.128227711E0
1.013797969E1,-3.824402094E-1,2.432374716E0,6.350869179E0
1.015797969E1,-3.545238078E-1,2.403845549E0,7.995254517E0
1.017997812E1,-5.615360737E-1,2.448549986E0,9.594054222E0
1.019997813E1,-7.432559729E-1,2.656270981E0,9.140899658E0
1.021997812E1,-7.324150205E-1,2.901226521E0,9.018067360E0
1.023997969E1,-2.523584366E-1,2.858111858E0,1.030333233E1
1.026197812E1,-4.367981851E-2,2.747193098E0,1.148631668E1
1.028197812E1,-1.170477271E-1,2.782167673E0,1.234622765E1
1.030197812E1,-2.592250109E-1,3.156841040E0,1.307805824E1
1.032197813E1,2.323907912E-1,3.011206627E0,1.282877445E1
1.034197812E1,1.524694681E0,2.357493877E0,1.256605339E1
1.036197812E1,1.530900359E0,1.735030055E0,1.313819122E1
1.038197812E1,8.676395416E-1,1.293587208E0,1.335000229E1
1.040197813E1,1.165573955E0,6.910336018E-1,1.362866783E1
1.042197812E1,2.140780210E0,4.292707741E-1,1.334838295E1
1.044197812E1,2.168543339E0,7.442041039E-1,1.191009045E1
1.046197812E1,1.649585843E0,1.448635578E0,1.008725929E1
1.048197969E1,1.101629615E0,2.052913189E0,8.476834297E0
1.050397813E1,2.889801264E-1,2.418076754E0,7.622046471E0
1.052397813E1,-1.228895858E-1,2.487814903E0,7.266162395E0
1.054397812E1,-3.460387588E-1,2.578698874E0,6.954437733E0
1.056397812E1,-3.910497427E-1,2.611393929E0,6.645537376E0
1.058397969E1,-6.237086654E-1,2.695334673E0,6.089796066E0
1.060597969E1,-7.190266848E-1,2.747499704E0,5.782820702E0
1.062597969E1,-7.277224064E-1,2.744147778E0,6.044382095E0
1.064797969E1,-8.902216554E-1,2.761615992E0,6.216496944E0
1.066798594E1,-1.038700461E0,2.766337156E0,6.501167297E0
1.068997969E1,-1.052299619E0,2.835328579E0,7.167626858E0
1.070997969E1,-1.129402399E0,3.055939913E0,8.023304939E0
1.072997969E1,-1.155096889E0,3.406862736E0,8.825257301E0
1.074997969E1,-9.741719365E-1,3.761147261E0,9.495049477E0
1.076997969E1,-1.006618142E0,3.991143703E0,1.037391281E1
1.078997969E1,-1.099446177E0,4.128963947E0,1.110801411E1
1.080997969E1,-7.159907818E-1,3.997694254E0,1.148610687E1
1.082997969E1,1.799194664E-1,4.078292847E0,1.187973213E1
1.084998125E1,4.018906951E-1,4.603982925E0,1.158304214E1
1.087197812E1,5.417791009E-1,5.083531857E0,1.146748829E1
1.089197969E1,5.940493345E-1,4.238263607E0,1.298019314E1
1.091197969E1,-2.434520125E-1,3.518030405E0,1.391435337E1
1.093397969E1,-1.221818566E0,3.398981094E0,1.120015240E1
1.095397969E1,-1.379328370E0,3.422472954E0,8.853020668E0
1.097597969E1,-2.982409000E-1,2.802958965E0,8.840398788E0
1.099797969E1,-1.528841406E-1,2.065027475E0,9.876713753E0
1.101797969E1,-7.297526598E-1,1.883231163E0,9.665851593E0
1.103799688E1,-9.797360897E-1,1.802891374E0,8.972453117E0
1.105997969E1,-8.442817330E-1,1.757142901E0,8.567066193E0
1.107997969E1,-6.695050001E-1,1.872476459E0,7.912443638E0
1.109997969E1,-3.973895907E-1,2.067029238E0,6.956381798E0
1.111997969E1,-2.408279628E-1,2.300511837E0,6.294107437E0
1.113997969E1,-1.259062737E-1,2.557371378E0,5.967758179E0
1.115997969E1,1.641656160E-1,2.646052599E0,5.982803822E0
1.117997969E1,2.724122703E-1,2.820589781E0,6.408856392E0
1.119997969E1,2.125668079E-1,2.983204126E0,6.810642242E0
1.121997969E1,1.795938611E-1,3.004703760E0,7.231446743E0
1.123997969E1,1.637155116E-1,2.961914778E0,7.609385967E0
1.125997969E1,-1.611393541E-1,2.973512173E0,8.178966522E0
1.127997969E1,-6.819356680E-1,3.224185228E0,8.159391403E0
1.129997969E1,-6.903920174E-1,3.449929714E0,8.429429054E0
1.132197813E1,-1.690210551E-1,3.471582890E0,9.630589485E0
1.134197812E1,-1.481244713E-1,3.563989401E0,1.101729298E1
1.136197812E1,-2.781104743E-1,3.779917717E0,1.257130146E1
1.138197812E1,-8.443965912E-1,4.335075855E0,1.264016914E1
1.140197813E1,-1.178809106E-1,4.456232071E0,1.211142349E1
1.142197812E1,1.789129496E0,3.323333979E0,1.281933212E1
1.144197812E1,2.340906620E0,1.783555746E0,1.457258606E1
1.146197812E1,1.560195923E0,9.186168909E-1,1.506832027E1
1.148197969E1,1.722350359E0,8.124771118E-1,1.411173153E1
1.150197969E1,2.992196798E0,9.091741443E-1,1.222396088E1
1.152397813E1,3.566833735E0,1.233502269E0,1.014991188E1
1.154397812E1,2.931355238E0,1.586867332E0,8.606561661E0
1.156397812E1,1.834533095E0,1.992617488E0,7.636526585E0
1.158397813E1,8.552184701E-1,2.334155083E0,7.137163162E0
1.160397813E1,2.850728035E-1,2.620319605E0,6.656196594E0
1.162397812E1,-1.271321177E-1,2.966463804E0,6.160510540E0
1.164397812E1,-3.708043694E-1,3.323717117E0,5.644914627E0
1.166397969E1,-6.705009937E-1,3.592959166E0,5.118094921E0
1.168397969E1,-9.799275994E-1,3.788316727E0,5.152005672E0
1.170597813E1,-9.579679370E-1,3.633651018E0,5.794140816E0
1.172597969E1,-1.034668565E0,3.437939405E0,6.726490498E0
1.174797813E1,-1.261322856E0,3.268899441E0,7.263328075E0
1.176797969E1,-1.287754893E0,3.226789951E0,7.587263584E0
1.178797969E1,-1.164846182E0,3.166532993E0,8.207888603E0
1.180797969E1,-1.054550052E0,3.163017988E0,8.665171623E0
1.182799844E1,-1.062182784E0,3.232134104E0,8.936779022E0
1.184997969E1,-1.008782506E0,3.237640619E0,9.285058975E0
1.187197812E1,-8.606675863E-1,3.145099878E0,9.444589615E0
1.189197813E1,-4.308222234E-1,2.791169882E0,1.040710640E1
1.191197813E1,-7.719863951E-2,2.444604397E0,1.166838169E1
1.193197812E1,-1.408843994E-1,2.047272444E0,1.298392773E1
1.195197812E1,-4.336378276E-1,1.664113879E0,1.373391724E1
1.197197813E1,-9.548076391E-1,1.271158338E0,1.386361504E1
1.199197813E1,-1.336491346E0,1.077103496E0,1.343716049E1
1.201197812E1,-1.612418175E0,1.275716782E0,1.296148968E1
1.203197969E1,-1.667216659E0,1.450895786E0,1.187342072E1
1.205197969E1,-1.404103518E0,1.162873268E0,1.144759750E1
1.207197969E1,-1.150835276E0,4.425729811E-1,1.257099533E1
1.209397969E1,-1.526648283E0,-9.099882096E-2,1.349037933E1
1.211397969E1,-1.838890553E0,-1.501739025E-1,1.294847488E1
1.213397969E1,-1.579052567E0,-1.702756248E-2,1.170322132E1
1.215397969E1,-1.126270771E0,1.876671016E-1,1.021061897E1
1.217397969E1,-4.803056121E-1,3.581247032E-1,8.521203041E0
1.219397969E1,1.408269554E-1,5.544013381E-1,6.835015297E0
1.221397969E1,6.259209514E-1,6.829411983E-1,5.690615177E0
1.223397969E1,9.356827140E-1,8.302516937E-1,5.306201935E0
1.225397969E1,1.306046605E0,9.658496976E-1,5.539694309E0
1.227597969E1,1.319865942E0,1.137772560E0,5.772563934E0
1.229597969E1,1.121673942E0,1.387707949E0,5.774029255E0
1.231797969E1,1.422385573E0,1.454142332E0,5.916551113E0
1.233797969E1,1.155068278E0,1.383992195E0,7.053413868E0
1.235797969E1,1.803504229E-1,1.525614023E0,8.345689774E0
1.237797969E1,-1.698829830E-1,1.763789177E0,8.315455437E0
1.239798125E1,-1.521658748E-1,2.085579634E0,8.729498863E0
1.241997969E1,1.826296933E-2,2.412177324E0,9.266479492E0
1.244197812E1,-4.195407331E-1,2.644999027E0,1.022770405E1
1.246197812E1,-8.033599854E-1,2.535603285E0,1.123401546E1
1.248197969E1,-6.433124542E-1,2.237956047E0,1.208400536E1
1.250397813E1,5.539225042E-2,1.659900069E0,1.374712276E1
1.252397813E1,1.885769069E-1,8.532552123E-1,1.567334461E1
1.254397812E1,1.655829884E-2,1.329931170E-1,1.626347733E1
1.256397812E1,3.529053181E-2,-2.107663602E-1,1.560873890E1
1.258397813E1,1.002145767E0,-4.712746441E-1,1.455443859E1
1.260397813E1,2.135972738E0,-6.519985795E-1,1.314447403E1
1.262397812E1,2.499307156E0,-4.725866616E-1,1.144902420E1
1.264397812E1,2.112854242E0,-5.234682560E-2,9.869444847E0
1.266397969E1,1.299630165E0,3.712736368E-1,8.869176865E0
1.268398750E1,4.658446014E-1,6.507344246E-1,8.307928085E0
1.270597969E1,-1.659277529E-1,9.567996264E-1,7.197707653E0
1.272597969E1,-3.147513568E-1,1.310289145E0,5.917767525E0
1.274798438E1,-3.581247032E-1,1.626151323E0,4.973217010E0
1.276997969E1,-4.153556824E-1,1.917276740E0,4.346376419E0
1.278997969E1,-5.354297161E-1,2.146995544E0,4.409611702E0
1.280997969E1,-6.842149496E-1,2.201937675E0,5.068237782E0
1.283197813E1,-9.794583321E-1,2.168648720E0,6.519487858E0
1.285197969E1,-1.112662077E0,2.163496256E0,7.217799664E0
1.287397812E1,-9.576232433E-1,2.121052027E0,8.158586502E0
1.289397812E1,-9.287683368E-1,2.015036821E0,9.398390770E0
1.291397813E1,-1.098201156E0,2.062221766E0,1.007034779E1
1.293397813E1,-1.124700189E0,2.205883265E0,1.063807964E1
1.295397812E1,-3.077123761E-1,2.100327969E0,1.183322620E1
1.297397812E1,1.044513583E0,1.936803818E0,1.349283028E1
1.299397812E1,1.949521899E0,1.831008792E0,1.410830307E1
1.301397813E1,2.078578949E0,2.389920950E0,1.313906288E1
1.303397812E1,1.727569699E0,3.074672222E0,1.155975151E1
1.305397812E1,1.335485697E0,3.046908855E0,1.139074993E1
1.307397812E1,1.000307083E0,2.129987001E0,1.268103313E1
1.309397813E1,-1.935664266E-1,1.528707385E0,1.274163437E1
1.311397813E1,-1.182237625E0,1.459974647E0,1.172821808E1
1.313397812E1,-1.045059443E0,1.451029897E0,1.088715363E1
1.315397812E1,9.656294435E-2,1.070122004E0,1.145488548E1
1.317397813E1,9.033322930E-1,4.557027817E-1,1.248018837E1
1.319397813E1,1.364675760E0,-1.475690156E-1,1.266181278E1
1.321397812E1,1.142685413E0,-3.606912792E-1,1.155233860E1
1.323397812E1,6.262944341E-1,-2.672120631E-1,1.041060162E1
1.325397813E1,4.884746075E-1,-1.571458280E-1,9.756429672E0
1.327397813E1,5.986174941E-1,3.876691312E-2,8.920258522E0
1.329397812E1,6.950175762E-1,2.784265280E-1,7.613944530E0
1.331397812E1,7.913219333E-1,5.835723281E-1,6.314476967E0
1.333397969E1,1.008284569E0,7.971159816E-1,5.291999817E0
1.335397969E1,1.288942337E0,9.835476279E-1,5.002818584E0
1.337397969E1,1.398864985E0,1.166771173E0,4.815065384E0
1.339597969E1,1.398213744E0,1.455147982E0,4.541810036E0
1.341797969E1,1.217413187E0,1.678622723E0,4.767755985E0
1.343797969E1,9.564356804E-1,1.640899658E0,5.636218548E0
1.345797969E1,1.034697413E0,1.443378091E0,7.627534389E0
1.347997812E1,1.739464164E0,1.073617578E0,1.016340542E1
1.349997969E1,1.809662104E0,1.109281540E0,1.117114353E1
1.351997969E1,1.775769830E0,1.367970228E0,1.103315163E1
1.353997969E1,2.104637384E0,1.573124647E0,1.088813972E1
1.356197969E1,1.821882248E0,2.092828989E0,1.139967537E1
1.358397969E1,1.969585180E0,2.127803802E0,1.173715210E1
1.360597969E1,2.156648874E0,1.432862639E0,1.296233177E1
1.362597969E1,1.286002278E0,6.942035556E-1,1.476029205E1
1.364797969E1,5.863591433E-1,3.356192112E-1,1.578088284E1
1.366797969E1,1.427710295E0,2.379740775E-1,1.560492802E1
1.368797969E1,3.252570868E0,2.821327187E-2,1.433090591E1
1.370797969E1,4.256670475E0,1.734647006E-1,1.275381660E1
1.372997812E1,4.287296772E0,2.956360281E-1,1.067374420E1
1.374997969E1,2.927304268E0,4.135073423E-1,9.554196358E0
1.377197812E1,1.559161663E0,5.526009202E-1,9.151328087E0
1.379197812E1,8.850023150E-1,8.729833961E-1,8.479898453E0
1.381197813E1,5.017288923E-1,1.252224922E0,7.284598351E0
1.383197813E1,3.162836432E-1,1.608309865E0,6.062760353E0
1.385197969E1,3.149620295E-1,1.895537376E0,5.070909500E0
1.387397812E1,3.968915939E-1,2.077132702E0,4.371649265E0
1.389398281E1,2.339996994E-1,2.127688646E0,4.165757656E0
1.391597812E1,-1.359140426E-1,2.145568609E0,4.410243988E0
1.393597812E1,-1.879065186E-1,2.147273302E0,5.226992130E0
1.395597813E1,-1.466592252E-1,1.934285164E0,6.708342075E0
1.397597969E1,-3.295379132E-2,1.785404086E0,8.803288460E0
1.399797969E1,4.504163861E-1,1.752459884E0,1.015798569E1
1.401797969E1,1.053611517E0,1.656519413E0,1.107040501E1
1.403797969E1,1.374693155E0,1.665636539E0,1.210925961E1
1.405797969E1,2.036852837E0,1.788890004E0,1.235246181E1
1.407797969E1,2.996688128E0,1.974756718E0,1.234775066E1
1.409997969E1,3.017546415E0,2.192696095E0,1.187458897E1
1.412197812E1,1.963063478E0,2.122153282E0,1.188717270E1
1.414197813E1,1.201429605E0,1.410405040E0,1.288644600E1
1.416197813E1,3.477817476E-1,6.322128773E-1,1.391765690E1
1.418197969E1,-7.924041748E-1,6.171103120E-1,1.328001499E1
1.420397812E1,-3.101257384E-1,5.540661812E-1,1.257079411E1
1.422397812E1,7.721108794E-1,2.863369584E-1,1.277590084E1
1.424397813E1,1.125427961E0,1.700745076E-1,1.239803791E1
1.426397813E1,7.756160498E-1,3.937983215E-1,1.159882545E1
1.428398125E1,2.579608858E-1,6.467792392E-1,1.057380009E1
1.430597813E1,-2.723643929E-2,1.022247553E0,9.309882164E0
1.432597812E1,1.107653528E-1,1.182371736E0,8.074828148E0
1.434597812E1,2.091670334E-1,1.228570223E0,6.983895779E0
1.436599688E1,2.994858921E-1,1.132160544E0,6.224254131E0
1.438799844E1,4.855249524E-1,1.015170217E0,5.569066525E0
1.440997969E1,7.246960998E-1,9.494542480E-1,5.061993599E0
1.443197812E1,6.916273832E-1,9.859705567E-1,4.706004620E0
1.445197812E1,4.023503661E-1,1.194515109E0,4.601387501E0
1.447197813E1,1.600763202E-1,1.368324637E0,5.133771896E0
1.449197813E1,1.598177552E-1,1.482346058E0,5.814587116E0
1.451197812E1,-5.017289147E-2,1.731256843E0,6.595709324E0
1.453197812E1,-2.195770293E-1,1.919728398E0,7.808918476E0
1.455197969E1,-6.080314517E-2,2.144333363E0,9.747149467E0
1.457397813E1,6.937438846E-1,2.132228374E0,1.186786652E1
1.459397813E1,1.318879485E0,1.802747726E0,1.371809578E1
1.461397813E1,1.651434064E0,1.625251055E0,1.479796696E1
1.463397812E1,1.011559844E0,2.137304068E0,1.471170902E1
1.465397812E1,1.207625747E0,2.469552040E0,1.422690201E1
1.467397813E1,2.667102337E0,1.856875896E0,1.488723278E1
1.469397813E1,2.944370031E0,9.879146814E-1,1.602197838E1
1.471397812E1,2.155011415E0,2.930502873E-3,1.582899570E1
1.473397812E1,2.216523170E0,-4.295772314E-1,1.468199253E1
1.475397813E1,3.977334023E0,-7.377876043E-1,1.313188934E1
1.477397813E1,4.997608662E0,-4.856015742E-1,1.114921284E1
1.479397969E1,4.295255184E0,3.031059355E-2,8.480731010E0
1.481597812E1,2.942177057E0,2.850345075E-1,7.657413483E0
1.483597812E1,1.334250212E0,4.541609287E-1,8.071418762E0
1.485597813E1,2.368440032E-1,5.972288251E-1,7.814760685E0
1.487597813E1,-2.898325026E-1,8.619700670E-1,6.877411842E0
1.489597813E1,-2.946496308E-1,1.197656274E0,5.408932686E0
1.491597812E1,-2.068111449E-1,1.545840263E0,4.412398815E0
1.493597812E1,-4.032123089E-1,1.838861823E0,4.021157265E0
1.495597813E1,-7.483987212E-1,2.096123457E0,4.410981655E0
1.497597813E1,-5.604155660E-1,1.987991810E0,5.657020092E0
1.499597812E1,-7.443381548E-1,1.993383527E0,7.184348106E0
1.501597969E1,-1.056647420E0,1.968618035E0,8.065232277E0
1.503597969E1,-1.453711390E0,1.977102995E0,8.598966599E0
1.505597969E1,-1.499919415E0,2.114855766E0,9.251741409E0
1.507797969E1,-1.231969953E0,2.404563665E0,1.011366272E1
1.509797969E1,-1.095759034E0,2.612878323E0,1.069956207E1
1.511797969E1,-1.183884859E0,2.690919876E0,1.116850090E1
1.513797969E1,-1.133261800E0,2.778787136E0,1.111270618E1
1.515797969E1,-9.558132291E-1,3.024738789E0,1.080168056E1
1.517997969E1,-1.004731536E0,3.150146961E0,1.078693199E1
1.519997969E1,3.231214359E-2,1.712390542E0,1.221122360E1
1.521997969E1,-1.217307895E-1,6.838797778E-2,1.559287071E1
1.523997969E1,-1.635278106E0,-4.460780919E-1,1.553744888E1
1.525997969E1,-2.580489635E0,2.933758795E-1,1.266387081E1
1.527997969E1,-1.477806687E0,5.908985734E-1,1.140694427E1
1.529997969E1,6.895300746E-2,3.637941480E-1,1.181506920E1
1.531997969E1,-9.338344634E-2,3.968628943E-1,1.101140308E1
1.534197969E1,-8.437166810E-1,5.930629373E-1,9.616473198E0
1.536397969E1,-1.019393563E0,6.961093545E-1,8.532006264E0
1.538397969E1,-9.867462516E-1,8.382004499E-1,7.714980125E0
1.540597812E1,-8.632341623E-1,1.024114966E0,7.049803734E0
1.542597812E1,-7.185861468E-1,1.122296333E0,6.775006771E0
1.544597813E1,-5.131827593E-1,1.226645231E0,6.601331234E0
1.546599688E1,-2.580087483E-1,1.359264851E0,6.480644703E0
1.548797813E1,5.171475350E-4,1.501518846E0,6.818552017E0
1.550797813E1,1.746330708E-1,1.690651178E0,7.278277397E0
1.552797812E1,-5.377376825E-2,1.916568041E0,7.610918045E0
1.554798438E1,-2.240302414E-1,2.046017647E0,7.705077171E0
1.556997812E1,-2.898420691E-1,2.074460983E0,7.997485638E0
1.558997969E1,-8.607347012E-1,2.190962553E0,8.471959114E0
1.560997969E1,-1.467138052E0,2.332843065E0,8.922088623E0
1.563197813E1,-1.001801014E0,2.371753693E0,1.011092472E1
1.565197813E1,-3.907241523E-1,2.354429245E0,1.127458286E1
1.567197812E1,-4.559517652E-2,2.310960293E0,1.174448872E1
1.569197812E1,-4.068897963E-1,2.634177208E0,1.161075783E1
1.571197813E1,-1.160536647E0,3.181290865E0,1.108613110E1
1.573197813E1,-6.667181253E-1,3.177335501E0,1.137150955E1
1.575197812E1,6.175795197E-1,2.860649586E0,1.249978256E1
1.577197969E1,1.530938745E0,1.814651608E0,1.302899742E1
1.579397812E1,1.970868587E0,4.531553388E-1,1.345426464E1
1.581397812E1,2.141872168E0,7.526411861E-2,1.358959389E1
1.583397813E1,2.487757683E0,2.489969730E-1,1.241152287E1
1.585397813E1,2.837828159E0,4.439041317E-1,1.125562096E1
1.587397812E1,2.441386700E0,5.296931863E-1,1.071805573E1
1.589398438E1,1.313123941E0,7.158471942E-1,1.019985485E1
1.591597812E1,5.180286169E-1,8.120748997E-1,9.695588112E0
1.593597812E1,-1.809920669E-1,9.988992214E-1,8.729307175E0
1.595597813E1,-5.995846987E-1,1.274778366E0,7.585472584E0
1.597597969E1,-7.212772369E-1,1.570902824E0,6.575014114E0
1.599797969E1,-7.255005240E-1,1.907470107E0,5.667544842E0
1.601798438E1,-6.478230953E-1,2.173810482E0,5.081741333E0
1.603998125E1,-4.750574827E-1,2.323486567E0,4.876979351E0
1.606197969E1,-4.970554113E-1,2.306267500E0,5.499749660E0
1.608202031E1,-5.689389706E-1,2.171914577E0,6.191290379E0
1.610397969E1,-8.107341528E-1,2.111120939E0,7.006928444E0
1.612397969E1,-7.078888416E-1,2.289144039E0,7.542961597E0
1.614597813E1,-5.082123876E-1,2.713147640E0,8.589132309E0
1.616599844E1,-2.552985251E-1,3.043920994E0,9.849602699E0
1.618797969E1,3.125008047E-1,3.398444891E0,1.048857594E1
1.620797969E1,1.656950474E0,3.239469767E0,1.089696980E1
1.622797969E1,2.277192354E0,2.610378981E0,1.177523899E1
1.624997969E1,1.143451571E0,2.221982002E0,1.309548855E1
1.627197969E1,-4.320863783E-1,3.077621937E0,1.341029644E1
1.629397969E1,-7.849533558E-1,3.609594345E0,1.277988434E1
1.631597812E1,-7.936012745E-1,2.855267525E0,1.260172749E1
1.633597812E1,-9.230892062E-1,1.749711275E0,1.251342964E1
1.635597812E1,-2.019738913E0,9.328097105E-1,1.137462234E1
1.637597812E1,-1.850315690E0,4.183245003E-1,1.094864655E1
1.639597813E1,-7.410916090E-1,-1.022419855E-1,1.185904598E1
1.641597813E1,2.311841212E-2,-3.261668980E-1,1.233146000E1
1.643597813E1,-5.800671875E-2,7.685387135E-2,1.160578728E1
1.645597812E1,-1.686379910E-1,4.927363098E-1,1.067005634E1
1.647597812E1,-1.207539588E-1,8.503342271E-1,9.586507797E0
1.649597812E1,1.519647688E-1,1.135301709E0,8.457929611E0
1.651597812E1,2.761568129E-1,1.474043012E0,7.459633350E0
1.653597812E1,3.171359599E-1,1.682510853E0,6.673665047E0
1.655597812E1,4.209772646E-1,1.877762794E0,6.300351620E0
1.657597813E1,7.370119095E-1,1.949560165E0,6.200158596E0
1.659597813E1,1.112020493E0,1.949761271E0,6.337500095E0
1.661597969E1,9.151501060E-1,1.923070669E0,6.787533283E0
1.663597969E1,5.328918695E-1,1.978098989E0,6.913295746E0
1.665597969E1,3.056629300E-1,2.004387379E0,7.100388050E0
1.667797969E1,-3.213976324E-2,2.189717770E0,7.399146557E0
1.669797969E1,-3.993720114E-1,2.430162668E0,8.043033600E0
1.671798438E1,-8.380472064E-1,2.653311729E0,8.987717628E0
1.673997969E1,-8.163557053E-1,2.824008703E0,1.000496674E1
1.676197813E1,1.591378003E-1,2.805152178E0,1.086643887E1
1.678197813E1,4.622150064E-1,2.810237408E0,1.198748016E1
1.680197812E1,-3.794713914E-1,3.341242313E0,1.238971615E1
1.682197812E1,-3.796054721E-1,3.372165918E0,1.219945431E1
1.684197812E1,1.247628093E0,2.522636175E0,1.264543533E1
1.686197812E1,2.119969845E0,1.426972866E0,1.361355591E1
1.688197969E1,1.378744125E0,1.076567173E0,1.431888676E1
1.690397813E1,1.463268995E0,9.107064009E-1,1.398217583E1
1.692397812E1,2.851034403E0,9.793625474E-1,1.221625137E1
1.694397969E1,3.390802383E0,1.136163592E0,1.077086258E1
1.696599844E1,2.554412127E0,1.438685417E0,1.000368404E1
1.698798125E1,1.377125621E0,1.555809736E0,9.616809845E0
1.700997969E1,6.452661157E-1,1.621276736E0,9.306386948E0
1.702997969E1,2.522243559E-1,1.820321202E0,8.248312950E0
1.704997969E1,-1.150653288E-1,2.179556608E0,6.695490360E0
1.706997969E1,-4.043423533E-1,2.510531187E0,5.463204384E0
1.709197812E1,-3.228245974E-1,2.674802303E0,4.989717484E0
1.711197812E1,-1.930588484E-1,2.668088913E0,5.351644039E0
1.713197969E1,-2.942186594E-1,2.649375677E0,6.093090534E0
1.715397813E1,-4.110939801E-1,2.544289351E0,6.615993023E0
1.717397812E1,-4.714470506E-1,2.540784359E0,7.076331139E0
1.719397812E1,-6.481486559E-1,2.760045528E0,7.503859043E0
1.721397812E1,-9.892840981E-1,3.281090498E0,7.932382584E0
1.723397812E1,-8.570284247E-1,3.606462717E0,8.309823990E0
1.725397812E1,-6.637971997E-1,3.748448372E0,8.827259064E0
1.727397813E1,-9.120663404E-1,3.653427362E0,9.724461555E0
1.729397813E1,-1.204187751E0,3.430488825E0,1.094032383E1
1.731397813E1,-8.957187533E-1,3.525931120E0,1.165942669E1
1.733397812E1,-6.923935413E-1,4.259380341E0,1.183876228E1
1.735397812E1,1.584291011E-1,3.292104006E0,1.278511333E1
1.737397812E1,-3.377261162E-1,1.889867902E0,1.427810955E1
1.739397812E1,-2.101716518E0,1.568096757E0,1.341132259E1
1.741397812E1,-2.883471251E0,2.145386696E0,1.099490261E1
1.743397812E1,-2.306391954E0,2.379290581E0,9.403887749E0
1.745397813E1,-1.313679338E0,1.662888050E0,1.028875542E1
1.747397813E1,-1.590027690E0,8.815737963E-1,1.078892422E1
1.749397812E1,-2.330985069E0,5.982726812E-1,1.041317749E1
1.751397812E1,-2.236893177E0,5.038262606E-1,9.975814819E0
1.753397812E1,-1.619658351E0,5.906974673E-1,9.580552101E0
1.755397812E1,-9.520112276E-1,8.673618436E-1,9.235116005E0
1.757397812E1,-6.370012760E-1,1.260786653E0,8.365119934E0
1.759397812E1,-3.129317462E-1,1.551509738E0,7.573358059E0
1.761397813E1,-8.152735978E-2,1.738362789E0,6.888061047E0
1.763397813E1,2.200079858E-1,1.803370237E0,6.619058132E0
1.765397813E1,2.831574380E-1,1.796254635E0,6.822651386E0
1.767397812E1,2.184661031E-1,1.747384191E0,7.197410583E0
1.769397812E1,2.761089206E-1,1.662600756E0,7.280805588E0
1.771397812E1,1.188864857E-1,1.751004100E0,7.431716919E0
1.773397812E1,-1.185991764E-1,1.771345377E0,7.902225494E0
1.775397812E1,-1.899463832E-1,1.886180758E0,8.468549728E0
1.777397813E1,-2.504334971E-2,1.947357416E0,9.489140511E0
1.779397813E1,5.003881454E-2,2.276722908E0,1.040014362E1
1.781397969E1,-3.822103515E-2,2.754969597E0,1.077678967E1
1.783597969E1,-6.024194360E-1,3.358069181E0,1.096404552E1
1.785797969E1,-1.307904482E0,4.137917995E0,1.108544159E1
1.787797969E1,-5.280268192E-1,3.955786228E0,1.168368530E1
1.789797969E1,7.585501075E-1,2.571276903E0,1.306825161E1
1.791797969E1,9.622775316E-1,6.423355937E-1,1.547403240E1
1.793797969E1,3.398904502E-1,-5.332940817E-1,1.657836342E1
1.795797969E1,5.446042418E-1,-7.299921513E-1,1.535389996E1
1.797798594E1,2.312683821E0,-5.292813778E-1,1.372651386E1
1.799997969E1,2.980053186E0,1.043871939E-1,1.136319733E1
1.802197812E1,2.145846367E0,9.680427909E-1,8.977212906E0
1.804197969E1,1.217518568E0,1.557275057E0,7.608045101E0
1.806197969E1,5.346540213E-1,1.785049796E0,6.933435440E0
1.808397969E1,-1.124604419E-1,1.894713759E0,6.592185497E0
1.810397969E1,-6.738240719E-1,2.180073977E0,6.214552879E0
1.812397969E1,-8.872528672E-1,2.387842655E0,5.849781513E0
1.814597813E1,-6.059628725E-1,2.471946239E0,5.644042969E0
1.816599844E1,-1.083615720E-1,2.455234528E0,5.985149860E0
1.818797969E1,7.121313363E-2,2.364532709E0,6.641324043E0
1.820798125E1,-1.932503879E-1,2.234843731E0,7.362132072E0
1.822798281E1,-4.504546821E-1,2.258393049E0,7.652251244E0
1.824997969E1,-1.764813960E-1,2.352676868E0,7.960538387E0
1.826997969E1,-1.297753155E-1,2.478391409E0,8.323250771E0
1.828997969E1,-3.459621668E-1,2.615243912E0,8.687839508E0
1.830997969E1,-3.841065764E-1,2.646684647E0,9.042747498E0
1.832997969E1,-3.741945922E-1,2.771125793E0,9.386055946E0
1.834997969E1,-5.090743303E-1,2.999053717E0,9.632237434E0
1.836997969E1,-3.055288792E-1,2.885693073E0,9.939145088E0
1.838997969E1,2.961435914E-1,2.619381189E0,1.027901649E1
1.840997969E1,3.190321624E-1,2.508922338E0,1.105152035E1
1.842997969E1,6.726749539E-1,1.681342483E0,1.337071609E1
1.844997969E1,5.259007812E-1,8.608878851E-1,1.513433266E1
1.846997969E1,-3.421601653E-1,6.180009246E-1,1.459865475E1
1.848997969E1,-1.085598111E0,1.330955982E0,1.225816917E1
1.850997969E1,-1.010420203E0,1.915361285E0,1.064729309E1
1.852997969E1,-1.775252670E-1,1.619457126E0,1.076507854E1
1.854997969E1,3.921319246E-1,4.981088936E-1,1.194105244E1
1.856997969E1,-4.706617296E-1,-5.782476068E-2,1.177210712E1
1.858997969E1,-9.474239349E-1,-1.530852467E-1,1.089025593E1
1.860997969E1,-1.056273937E0,-7.126101851E-2,1.011525249E1
1.862997969E1,-9.627946615E-1,1.774103343E-1,9.248551369E0
1.864997969E1,-7.746008635E-1,4.729889333E-1,8.198244095E0
1.866997969E1,-5.654816628E-1,8.200907111E-1,7.105224609E0
1.868997969E1,-2.240302414E-1,1.073502541E0,6.391733170E0
1.870997969E1,3.081624806E-1,1.180944800E0,6.265367031E0
1.872997969E1,6.318489909E-1,1.125140786E0,6.597615242E0
1.874997969E1,4.466526806E-1,1.089265943E0,7.067683697E0
1.876997969E1,5.004360080E-1,1.010439277E0,7.691171646E0
1.878997969E1,8.152352571E-1,9.931914806E-1,7.906037331E0
1.880997969E1,1.116626978E0,1.024440527E0,7.974137783E0
1.882997969E1,1.081001163E0,1.124527812E0,8.263941765E0
1.884997969E1,9.438326359E-1,1.196219683E0,9.218625069E0
1.886997969E1,1.094150186E0,1.231720924E0,1.000297451E1
1.888997969E1,1.814498425E0,1.079842448E0,1.075195789E1
1.890997969E1,2.197111130E0,1.002011776E0,1.181706142E1
1.892997969E1,1.658425212E0,1.086287618E0,1.208816147E1
1.894997969E1,1.420364976E0,1.372193575E0,1.121136665E1
1.896997969E1,2.729792118E0,3.043700755E-1,1.140142727E1
1.898997969E1,3.480230808E0,-1.616967201E0,1.498706055E1
1.900997969E1,2.008591652E0,-2.458193779E0,1.837451172E1
1.902997969E1,7.012808323E-1,-2.181261539E0,1.620652390E1
1.904997969E1,1.670357943E0,-1.532528520E0,1.145379353E1
1.906997969E1,2.940644741E0,-7.914560437E-1,8.631834984E0
1.909197812E1,3.289958715E0,-3.737253249E-1,8.520408630E0
1.911197812E1,1.916050911E0,-6.428910047E-2,9.080172539E0
1.913197969E1,8.384877443E-1,1.812506467E-1,9.858010292E0
1.915197969E1,6.803938150E-1,4.707192183E-1,1.039041424E1
1.917197969E1,5.701456070E-1,6.889650822E-1,9.459509850E0
1.919397812E1,7.376056910E-2,9.122195840E-1,7.829230785E0
1.921397969E1,-4.350647628E-1,1.034955978E0,6.755785942E0
1.923397969E1,-6.039804816E-1,1.022017598E0,6.290381908E0
1.925597969E1,-6.636152267E-1,1.043651700E0,6.234683037E0
1.927597969E1,-4.911178052E-1,9.471749067E-1,6.269514084E0
1.929597969E1,-3.080954552E-1,8.485434055E-1,6.551215649E0
1.931797969E1,-3.386646211E-1,8.282980323E-1,6.903029442E0
1.933798438E1,-3.838671446E-1,8.938608170E-1,7.560180187E0
1.935997969E1,-3.795097172E-1,1.126941204E0,8.635607719E0
1.937997969E1,-2.770186961E-1,1.334365249E0,9.567785263E0
1.939997969E1,-3.199323714E-1,1.572655320E0,1.007288551E1
1.941997969E1,-3.665522635E-1,1.629417062E0,1.044526100E1
1.943997969E1,-2.606711090E-1,1.620242476E0,1.090437222E1
1.945997969E1,2.515539825E-1,1.420230865E0,1.136857033E1
1.948197969E1,9.275041223E-1,1.130149364E0,1.223172760E1
1.950197969E1,1.171990514E0,9.549033642E-1,1.306568527E1
1.952397969E1,1.633362651E0,-5.770026147E-2,1.466733932E1
1.954597969E1,1.145999074E0,-1.419732928E0,1.571276283E1
1.956599844E1,1.118954122E-1,-1.840643048E0,1.543511200E1
1.958798125E1,-1.144792318E0,-9.922433496E-1,1.260136318E1
1.960997969E1,-1.513892055E0,1.077486500E-1,8.556628227E0
1.962997969E1,-1.041525602E0,2.749980092E-1,6.981923103E0
1.964997969E1,-2.223542929E-1,-3.539779484E-1,7.643488884E0
1.966997969E1,-1.659277529E-1,-8.664520383E-1,8.752501488E0
1.968997969E1,-2.988059521E-1,-1.005593419E0,9.192757607E0
1.970997969E1,-1.011981219E-1,-9.632926583E-1,9.280088425E0
1.972997969E1,4.618894160E-1,-7.837754488E-1,9.571032524E0
1.974997969E1,1.180887341E0,-3.864337504E-1,9.888636589E0
1.976997969E1,1.264550328E0,2.669439018E-1,9.186599731E0
1.978997969E1,9.730418921E-1,8.595088720E-1,7.627821445E0
1.980997969E1,8.826464415E-1,1.192456007E0,6.435652256E0
1.982997969E1,8.077653050E-1,1.344133496E0,6.224876404E0
1.984997969E1,7.811418176E-1,1.346460700E0,6.371564388E0
1.986997969E1,6.059628725E-1,1.355520368E0,6.689926147E0
1.988998750E1,4.669842422E-1,1.438953519E0,7.123611927E0
1.991197969E1,4.353520572E-1,1.463881969E0,7.979309082E0
1.993397813E1,5.303635597E-1,1.296469808E0,8.869971275E0
1.995397969E1,2.916233540E-1,1.164338589E0,9.994565964E0
1.997597969E1,-2.794895470E-1,1.171310544E0,1.053338528E1
1.999797969E1,-2.468517721E-1,1.167834163E0,1.072470188E1
2.001798125E1,2.790202498E-1,1.125830173E0,1.139930153E1
2.003997969E1,6.297995448E-1,1.252186656E0,1.210336876E1
2.006197969E1,4.580299258E-1,1.329088330E0,1.234398651E1
2.008197969E1,3.667916730E-2,1.549230456E0,1.238974476E1
2.010197969E1,6.762087345E-1,1.336203933E0,1.273520851E1
2.012397812E1,2.084306002E0,3.241557479E-1,1.401884556E1
2.014397812E1,2.760064363E0,-1.238874912E0,1.614784622E1
2.016397969E1,1.567895651E0,-2.557026625E0,1.583445549E1
2.018597969E1,3.640048504E-1,-2.924498320E0,1.301564693E1
2.020797969E1,7.506684065E-1,-2.587768078E0,1.018866920E1
2.022799375E1,1.813990831E0,-2.168648720E0,8.579679489E0
2.024997969E1,2.898956776E0,-1.913982272E0,7.679631710E0
2.026997969E1,2.387114763E0,-1.652985573E0,7.355725288E0
2.028997969E1,1.190253377E0,-1.429893970E0,7.510486126E0
2.030997969E1,4.739561677E-1,-1.158334017E0,8.518367767E0
2.032997969E1,4.484052360E-1,-7.217847705E-1,9.316040039E0
2.034997969E1,7.364659905E-1,-1.254753172E-1,9.122760773E0
2.036997969E1,7.437539697E-1,5.215625167E-1,8.178171158E0
2.038997969E1,7.531009316E-1,1.126672983E0,7.533508778E0
2.040997969E1,9.365925193E-1,1.524378657E0,7.393036366E0
2.042997969E1,1.037608743E0,1.767007113E0,7.537780285E0
2.044997969E1,1.031920075E0,1.850737095E0,7.840465069E0
2.046997969E1,8.945887089E-1,1.840489864E0,7.980554104E0
2.048997969E1,7.576978207E-1,1.855334044E0,7.985198498E0
2.050997969E1,6.626576185E-1,1.745612383E0,8.136292458E0
2.052997969E1,5.270595551E-1,1.554775357E0,8.085286140E0
2.054997969E1,2.824200392E-1,1.482700467E0,7.934049129E0
2.056997969E1,1.463431865E-1,1.456067204E0,8.123239517E0
2.058997969E1,-2.919010818E-2,1.438886523E0,8.710882187E0
2.060997969E1,-2.512858212E-1,1.483696461E0,9.968316078E0
2.063197812E1,5.261497572E-2,1.267787218E0,1.128193855E1
2.065197813E1,1.122018695E-1,1.322518706E0,1.201434422E1
2.067197969E1,-1.916319132E-2,1.763262630E0,1.246572781E1
2.069397812E1,1.015582085E0,9.606686234E-1,1.367438793E1
2.071397812E1,1.696914434E0,-9.324649572E-1,1.651233101E1
2.073397812E1,1.066252947E0,-1.911137938E0,1.768774033E1
2.075397812E1,-5.316277146E-1,-7.465408444E-1,1.389754581E1
2.077397813E1,-4.986068606E-1,7.144968510E-1,9.305889130E0
2.079397813E1,1.470806003E-1,1.169376016E0,8.052859306E0
2.081397813E1,1.095490977E-1,2.511996329E-1,9.102458000E0
2.083397812E1,-7.285746932E-1,-4.996315837E-1,9.392644882E0
2.085397812E1,-1.408192873E0,-7.558590770E-1,9.128124237E0
2.087397812E1,-9.871389270E-1,-7.833349109E-1,9.355840683E0
2.089397969E1,2.023579180E-1,-5.589407086E-1,9.554512024E0
2.091397969E1,7.343687415E-1,-4.626555368E-2,8.682074547E0
2.093597813E1,9.265560508E-1,5.009627938E-1,7.264524937E0
2.095597812E1,1.269501448E0,8.567028046E-1,6.318432331E0
2.097597969E1,1.544844270E0,1.068474770E0,6.207810402E0
2.099797969E1,1.609171748E0,1.183923244E0,6.657202244E0
2.101797969E1,1.425450206E0,1.287458062E0,6.879738808E0
2.103797969E1,1.231807232E0,1.407397985E0,6.905021667E0
2.105798125E1,1.195846319E0,1.495217323E0,7.304306984E0
2.107798125E1,1.036775470E0,1.628152966E0,7.665505886E0
2.109998125E1,6.324331760E-1,1.863962650E0,7.937257290E0
2.112197813E1,3.140139282E-1,2.033012390E0,8.461070061E0
2.114197969E1,3.295666575E-1,1.892137527E0,1.004205799E1
2.116397969E1,6.883425713E-1,1.568594694E0,1.208486748E1
2.118597969E1,1.276339412E0,1.060736656E0,1.344631577E1
2.120797812E1,1.405808210E0,8.878657818E-1,1.386411285E1
2.122798594E1,1.430861115E0,1.092167735E0,1.343999481E1
2.124997969E1,2.449479103E0,5.884373188E-1,1.317957306E1
2.127197812E1,3.112634420E0,-5.780177712E-1,1.378575611E1
2.129197812E1,2.774544716E0,-1.584032536E0,1.417312813E1
2.131197813E1,3.239297390E0,-2.469580889E0,1.459909439E1
2.133197813E1,4.542174339E0,-2.774199724E0,1.380338669E1
2.135197969E1,4.816166401E0,-2.334337234E0,1.154061699E1
2.137397969E1,3.625884295E0,-1.355884314E0,9.273125648E0
2.139597813E1,2.004626751E0,-7.035025954E-1,8.263606071E0
2.141597813E1,9.221124053E-1,-2.800066769E-1,7.591266632E0
2.143597813E1,1.187619790E-1,2.190694511E-1,6.711933613E0
2.145597812E1,1.585153043E-1,6.533201933E-1,6.067462444E0
2.147597812E1,-3.902069926E-1,1.344066501E0,5.281350613E0
2.149597812E1,-1.002423525E0,1.784590125E0,4.913217545E0
2.151597812E1,-1.456028938E0,2.094983816E0,5.395860195E0
2.153597812E1,-1.594480872E0,2.183569431E0,6.083819866E0
2.155598125E1,-1.549038887E0,1.982264876E0,7.023984432E0
2.157797969E1,-2.267012119E0,1.709498286E0,7.922614574E0
2.159798438E1,-2.977074862E0,1.445743561E0,8.099871635E0
2.161997813E1,-2.669908524E0,1.164156675E0,8.837525368E0
2.163997969E1,-2.055479765E0,9.702167511E-1,9.922816277E0
2.166197812E1,-1.857163072E0,1.063561916E0,1.049344158E1
2.168197812E1,-1.890892625E0,1.207414985E0,1.064043522E1
2.170197812E1,-1.380161524E0,1.229939699E0,1.096021461E1
2.172197812E1,-4.468154907E-1,1.061215520E0,1.123039532E1
2.174197969E1,-2.554709017E-1,8.055626750E-1,1.158648014E1
2.176397812E1,-5.864261985E-1,7.763438821E-1,1.232150936E1
2.178397812E1,-9.830975533E-1,-8.906430565E-3,1.351617908E1
2.180397812E1,-2.201133251E0,-7.643057704E-1,1.468427181E1
2.182397812E1,-3.043135643E0,-1.002308607E0,1.384937477E1
2.184397813E1,-2.633918762E0,-8.891777992E-1,1.164835644E1
2.186397813E1,-1.237428784E0,-7.899141908E-1,1.017548180E1
2.188397813E1,-1.512369365E-1,-1.424875617E0,1.111861515E1
2.190397813E1,-7.212005854E-1,-2.078914165E0,1.231805229E1
2.192397812E1,-1.702727556E0,-2.235705614E0,1.249294472E1
2.194397812E1,-2.202991247E0,-1.743170381E0,1.167171383E1
2.196397812E1,-1.668844700E0,-1.278283477E0,1.032454491E1
2.198397969E1,-9.756754637E-1,-8.634353280E-1,8.819808006E0
2.200397969E1,-4.992581010E-1,-4.111610353E-1,7.349720001E0
2.202597812E1,1.230619624E-1,1.998679526E-2,5.810861588E0
2.204597812E1,4.674343467E-1,3.865773976E-1,4.854722500E0
2.206599688E1,8.071045280E-1,6.715161204E-1,4.639579773E0
2.208797813E1,1.031843543E0,8.920795321E-1,5.003910065E0
2.210799531E1,7.996155024E-1,1.168810964E0,5.549156189E0
2.212997812E1,5.804694295E-1,1.283646464E0,6.231944561E0
2.214997812E1,3.975428045E-1,1.227526426E0,7.569536686E0
2.216997969E1,5.883990228E-2,1.309522986E0,8.588251114E0
2.219197813E1,-2.398702800E-1,1.509122849E0,9.063500404E0
2.221197812E1,-3.840299696E-2,1.502964973E0,9.812884331E0
2.223197812E1,5.358319283E-1,1.282650471E0,1.115432739E1
2.225197812E1,7.476900816E-1,9.180805683E-1,1.231078434E1
2.227197969E1,1.487086415E-1,7.604750991E-1,1.313008022E1
2.229397813E1,-1.005555153E0,1.311151028E0,1.282497311E1
2.231397969E1,-3.613520861E-1,1.284776449E0,1.236491203E1
2.233597812E1,1.175850034E0,-3.542556465E-1,1.408847809E1
2.235597812E1,5.187852383E-1,-1.827053547E0,1.759482574E1
2.237597813E1,-1.349755079E-1,-2.650486469E0,1.793986893E1
2.239597813E1,1.826335311E0,-2.558980227E0,1.573763371E1
2.241597813E1,3.929766178E0,-2.324913502E0,1.295313835E1
2.243597813E1,4.323813438E0,-1.879592061E0,1.100375080E1
2.245597812E1,3.209561586E0,-1.117335558E0,9.908767700E0
2.247597812E1,1.912593603E0,-5.243684649E-1,8.556110382E0
2.249597812E1,9.773610234E-1,-6.538085639E-2,7.060040951E0
2.251597812E1,5.423346162E-1,5.096393228E-1,6.116084099E0
2.253597812E1,9.795157611E-2,1.122219801E0,5.493754387E0
2.255597813E1,-3.841831684E-1,1.754873276E0,5.001621723E0
2.257597813E1,-7.352593541E-1,2.358509064E0,4.419083595E0
2.259597813E1,-8.809034228E-1,2.651358128E0,4.113487244E0
2.261597969E1,-1.036517024E0,2.658301353E0,4.464793682E0
2.263797969E1,-1.867544293E0,2.488925695E0,5.074989319E0
2.265797969E1,-2.846543074E0,2.324645281E0,5.789131641E0
2.267797969E1,-3.415338278E0,2.042819023E0,7.037152290E0
2.269797969E1,-3.945337772E0,1.748715281E0,7.661052704E0
2.271797969E1,-4.265835285E0,1.507781982E0,8.243112564E0
2.273797969E1,-4.329894543E0,1.258737206E0,9.209650993E0
2.275797969E1,-3.736371994E0,9.679278731E-1,1.072074699E1
2.277997813E1,-3.060096264E0,4.615637958E-1,1.209922218E1
2.279997813E1,-2.877945423E0,-1.453855038E-1,1.302481174E1
2.281997969E1,-2.939840317E0,-3.550696969E-1,1.381545353E1
2.284197812E1,-2.320556164E0,-1.091420770E0,1.424577808E1
2.286197812E1,-2.154130459E0,-1.954099536E0,1.514220524E1
2.288197812E1,-2.731573582E0,-2.065046787E0,1.522698784E1
2.290197813E1,-2.648197651E0,-1.608558893E0,1.315692425E1
2.292197813E1,-2.094763756E0,-1.113773108E0,1.067380142E1
2.294197813E1,-1.739492893E0,-1.239526153E0,1.009172249E1
2.296197812E1,-2.543331861E0,-1.776746750E0,1.139226246E1
2.298197812E1,-3.427060366E0,-1.935491800E0,1.191984940E1
2.300197812E1,-3.311870337E0,-1.701262236E0,1.104229832E1
2.302197812E1,-2.350157976E0,-1.257530570E0,9.730993271E0
2.304197812E1,-1.535401464E0,-8.204163313E-1,8.544569969E0
2.306197813E1,-8.827708960E-1,-3.967766762E-1,7.445296764E0
2.308197813E1,-1.815187931E-1,4.137180280E-3,6.163508415E0
2.310197813E1,4.090732932E-1,3.798736334E-1,5.129634857E0
2.312197813E1,8.954122663E-1,6.718800068E-1,4.783672333E0
2.314197812E1,1.020849347E0,8.987545967E-1,4.774402142E0
2.316197812E1,8.133486509E-1,1.044302821E0,4.988434315E0
2.318197812E1,4.134211838E-1,1.179680705E0,5.473738670E0
2.320197969E1,1.959989369E-1,1.100461245E0,6.510351658E0
2.322397813E1,-3.149620295E-1,1.037685275E0,7.890100956E0
2.324397969E1,-8.537531495E-1,1.201525450E0,8.550527573E0
2.326601250E1,-1.009529591E0,1.494604349E0,8.515542984E0
2.328797969E1,-4.129231870E-1,1.442611814E0,9.463159561E0
2.330797969E1,-8.248503506E-2,1.128138304E0,1.125910759E1
2.332797969E1,-4.713034034E-1,8.406808376E-1,1.282407188E1
2.334798594E1,-1.045442462E0,8.314679861E-1,1.366752052E1
2.336997969E1,-8.787390590E-1,7.790636420E-1,1.337356091E1
2.338997969E1,1.402044483E-2,3.572819233E-1,1.398173523E1
2.340997969E1,1.133223534E0,-8.938034177E-1,1.540694618E1
2.342997969E1,1.166196585E0,-1.952768326E0,1.693095207E1
2.344997969E1,1.051552534E0,-2.145951748E0,1.587152767E1
2.346997969E1,1.747307539E0,-1.789426446E0,1.297155476E1
2.348997969E1,3.801408291E0,-1.579952836E0,1.128584576E1
2.350997969E1,4.656549931E0,-1.252378225E0,1.047273636E1
2.352997969E1,3.592672110E0,-6.304890513E-1,9.181112289E0
2.354997969E1,1.840125918E0,-2.447448671E-1,8.043942451E0
2.356997969E1,8.859503865E-1,-1.554124206E-1,7.887218952E0
2.358997969E1,1.216350272E-1,2.206879407E-1,7.640702248E0
2.360997969E1,-5.540182590E-1,6.123985052E-1,6.832084656E0
2.362997969E1,-1.278925061E0,9.932776690E-1,6.274024963E0
2.364997969E1,-1.788430452E0,1.243443012E0,6.136147499E0
2.366997969E1,-1.913225651E0,1.257118702E0,6.329608440E0
2.368997969E1,-2.043834209E0,1.293692470E0,6.717861652E0
2.370997969E1,-2.271982431E0,1.090558887E0,7.240190506E0
2.373197812E1,-2.497583151E0,1.030924082E0,7.749772549E0
2.375197969E1,-2.603205919E0,8.733377457E-1,8.647492409E0
2.377197969E1,-2.479674816E0,9.483050108E-1,9.124561310E0
2.379397813E1,-2.031642914E0,1.182898402E0,9.184339523E0
2.381397969E1,-1.671660423E0,1.367721200E0,9.148253441E0
2.383597969E1,-1.378428102E0,1.469752550E0,9.543871880E0
2.385798281E1,-1.053420067E0,1.399573684E0,1.013368893E1
2.387997969E1,-9.138189256E-2,1.019096732E0,1.115322590E1
2.389997969E1,3.477051258E-1,9.276190996E-1,1.177067089E1
2.392197969E1,9.122866392E-2,8.456607461E-1,1.229325867E1
2.394397969E1,-2.101438791E-1,1.424645782E-1,1.364528275E1
2.396599844E1,-7.899237871E-1,-9.970030785E-1,1.546051979E1
2.398799063E1,-1.610273123E0,-1.119136095E0,1.449010181E1
2.400997969E1,-8.416193724E-1,-6.887352467E-1,1.148132706E1
2.402997969E1,1.936047226E-1,-4.837341011E-1,1.010880756E1
2.404997969E1,1.014001846E0,-1.063571453E0,1.087493324E1
2.406997969E1,2.280620784E-1,-1.453787923E0,1.155262661E1
2.408997969E1,-7.843021750E-1,-1.502668023E0,1.158509159E1
2.410997969E1,-9.460927844E-1,-1.338770509E0,1.088160801E1
2.412997969E1,-4.744350016E-1,-1.036593676E0,9.918536186E0
2.414997969E1,-2.227661014E-1,-5.810631514E-1,8.512938499E0
2.416997969E1,4.904282838E-2,-1.001446694E-1,6.856974602E0
2.418997969E1,3.856963217E-1,2.979344428E-1,5.539148331E0
2.420997969E1,6.480050683E-1,6.102532744E-1,4.880446434E0
2.422997969E1,6.560304165E-1,8.556493521E-1,4.708666801E0
2.424997969E1,6.960422993E-1,9.183487296E-1,4.809453011E0
2.426997969E1,8.096328378E-1,9.713659883E-1,5.236674786E0
2.428997969E1,8.005444407E-1,1.053496599E0,5.758236885E0
2.430997969E1,5.479465723E-1,1.076337337E0,6.591735363E0
2.432997969E1,5.067279935E-1,1.241345644E0,7.653659821E0
2.434997969E1,9.387568831E-1,1.463355184E0,8.490117073E0
2.436997969E1,1.377240658E0,1.503290534E0,9.284675598E0
2.438997969E1,1.611249924E0,1.224988580E0,1.132547474E1
2.440997969E1,1.703886390E0,5.632407069E-1,1.365866184E1
2.443197812E1,1.218466640E0,5.271553397E-1,1.517077255E1
2.445197812E1,1.056877255E0,9.743251801E-1,1.453659630E1
2.447197813E1,1.549115419E0,1.279442310E0,1.404634094E1
2.449197813E1,2.356009245E0,1.016731262E0,1.528477573E1
2.451197813E1,3.087782621E0,5.815037340E-2,1.639185333E1
2.453197813E1,3.451423883E0,-1.192197561E0,1.582330799E1
2.455197812E1,2.879104137E0,-1.688984752E0,1.284278488E1
2.457197812E1,2.850728035E0,-1.896734476E0,1.014181900E1
2.459197812E1,3.756875992E0,-2.276023865E0,9.369086266E0
2.461197812E1,4.733212471E0,-2.535162687E0,9.229149818E0
2.463197812E1,4.360933304E0,-2.546980381E0,8.686776161E0
2.465197813E1,2.807948589E0,-2.046937227E0,8.768552780E0
2.467197813E1,1.587604761E0,-1.541683912E0,8.578156471E0
2.469197813E1,7.127634287E-1,-9.625265598E-1,8.061085701E0
2.471197812E1,4.156334326E-2,-3.400819898E-1,7.232835293E0
2.473197812E1,-4.788499177E-1,1.716451049E-1,6.261268616E0
2.475197812E1,-9.510056376E-1,8.064724803E-1,5.333505630E0
2.477197969E1,-1.100566626E0,1.225352407E0,5.032372475E0
2.479397813E1,-1.279547572E0,1.488733768E0,5.124262333E0
2.481397969E1,-1.121807933E0,1.464964151E0,5.607823849E0
2.483597812E1,-9.735877514E-1,1.205729485E0,6.575445175E0
2.485597812E1,-1.059865236E0,9.549896121E-1,8.116152763E0
2.487597813E1,-1.248633623E0,8.121132255E-1,9.432982445E0
2.489597813E1,-1.114759564E0,7.932277918E-1,1.014600372E1
2.491597813E1,-7.748498321E-1,6.970000267E-1,1.093006706E1
2.493597813E1,-4.463845491E-1,5.650890470E-1,1.174869251E1
2.495597812E1,-1.508251280E-1,4.662564099E-1,1.231534290E1
2.497597969E1,2.853313982E-1,3.793564737E-1,1.249820232E1
2.499798125E1,9.361616373E-1,2.224692255E-1,1.262597561E1
2.501798125E1,1.382756829E0,4.970171154E-1,1.289774609E1
2.503798438E1,2.350157976E0,5.905058980E-2,1.358009338E1
2.505997812E1,1.766614437E0,-1.068177819E0,1.472442722E1
2.507997812E1,2.469475418E-1,-2.086537123E0,1.492877674E1
2.509997969E1,-6.494224072E-1,-2.184220791E0,1.312234211E1
2.512197813E1,-1.533821374E-1,-1.720712781E0,9.857541084E0
2.514197812E1,1.413843155E0,-1.514160156E0,9.146338463E0
2.516197812E1,2.406335354E0,-1.607332945E0,1.000031281E1
2.518197812E1,2.028013229E0,-1.569763184E0,1.072816849E1
2.520197969E1,1.240828514E0,-1.366782665E0,1.044296169E1
2.522397813E1,9.369277358E-1,-1.010726571E0,9.352670670E0
2.524397812E1,1.038757920E0,-5.615743995E-1,8.477953911E0
2.526397812E1,1.135148406E0,-1.873702258E-1,7.543478489E0
2.528397969E1,1.150864005E0,1.714152694E-1,6.455514431E0
2.530597813E1,1.172497988E0,4.185160100E-1,5.714978695E0
2.532597813E1,1.240464568E0,5.482817292E-1,5.510054111E0
2.534597813E1,1.241814971E0,5.182393193E-1,5.649300575E0
2.536599688E1,1.264061928E0,4.703744650E-1,5.929671288E0
2.538798906E1,1.179153919E0,3.160441816E-1,6.463779926E0
2.540997969E1,8.369075656E-1,1.060535610E-1,7.616281033E0
2.542997969E1,4.199430048E-1,1.566478312E-1,8.266029358E0
2.544997969E1,7.976522297E-2,2.851206958E-1,8.588853836E0
2.546997969E1,1.175648794E-1,2.735423148E-1,9.125786781E0
2.549197969E1,1.365470648E0,-2.623757720E-1,1.126546574E1
2.551397969E1,1.820282817E0,-6.309774518E-1,1.306570435E1
2.553397969E1,1.697508216E0,-9.197086096E-1,1.401762009E1
2.555597969E1,1.868827581E0,-7.397699952E-1,1.386869144E1
2.557797969E1,2.908638954E0,-5.160462856E-1,1.330253887E1
2.559797969E1,3.987600327E0,-1.255011797E0,1.393820858E1
2.561797969E1,3.796543121E0,-2.569955349E0,1.474560070E1
2.563798594E1,2.441070557E0,-3.250981092E0,1.421744061E1
2.565997969E1,2.000403404E0,-3.158842802E0,1.220539188E1
2.567997969E1,3.108037949E0,-2.964452744E0,1.047861576E1
2.569997969E1,4.571833611E0,-2.531868458E0,9.368817329E0
2.571997969E1,4.627829075E0,-1.997923017E0,9.165616989E0
2.573997969E1,2.393205881E0,-1.355510831E0,8.856162071E0
2.575997969E1,7.598046660E-1,-9.496936202E-1,8.722784996E0
2.578197969E1,-2.501845062E-1,-4.615446031E-1,8.840618134E0
2.580197969E1,-7.214016914E-1,-7.093541324E-2,8.361902237E0
2.582397812E1,-1.184526443E0,4.506174922E-1,7.222425461E0
2.584397813E1,-1.316016078E0,8.049880862E-1,6.335517406E0
2.586397813E1,-9.914293289E-1,9.574316740E-1,5.983885765E0
2.588397969E1,-3.298826814E-1,8.861418962E-1,5.901046276E0
2.590597969E1,-6.621403992E-2,6.943472028E-1,6.206115723E0
2.592797969E1,-1.682932228E-1,4.526381791E-1,6.980888844E0
2.594797969E1,-1.214339063E-1,1.606700867E-1,8.094144821E0
2.596797969E1,-7.694006711E-2,-4.531745240E-2,9.026130676E0
2.598799219E1,1.325430069E-2,1.235503852E-1,9.110856056E0
2.600997969E1,2.701042593E-1,4.506653845E-1,9.117263794E0
2.602997969E1,8.132720590E-1,5.331695676E-1,9.843358040E0
2.604998125E1,1.052270770E0,3.718003929E-1,1.083891487E1
2.607197969E1,1.603971481E0,-6.352295727E-2,1.253798485E1
2.609197969E1,2.343214750E0,-2.355798632E-1,1.341861916E1
2.611197969E1,2.825588942E0,1.669237316E-1,1.355775070E1
2.613197969E1,3.009013414E0,6.589226127E-1,1.342320728E1
2.615197969E1,2.710657597E0,-1.928960383E-1,1.363597488E1
2.617197969E1,2.177861691E0,-1.467233896E0,1.464640427E1
2.619397812E1,7.739112973E-1,-1.706481576E0,1.427911472E1
2.621397812E1,7.909963131E-1,-1.326368570E0,1.147909546E1
2.623397969E1,1.565855861E0,-1.218562484E0,9.255782127E0
2.625597813E1,1.805400491E0,-1.676171064E0,9.990428925E0
2.627597812E1,9.322351217E-1,-1.989006996E0,1.077274895E1
2.629597812E1,-2.047234029E-1,-1.734646916E0,1.017860317E1
2.631597812E1,-3.412694931E-1,-1.344267726E0,9.288956642E0
2.633597812E1,2.837991118E-1,-1.032781959E0,8.504510880E0
2.635597812E1,7.768609524E-1,-5.876041055E-1,7.872489929E0
2.637597813E1,6.734601855E-1,-1.371877640E-1,7.062339306E0
2.639597813E1,7.302698493E-1,1.320833117E-1,6.231973171E0
2.641597813E1,1.198642731E0,2.817975581E-1,5.927784443E0
2.643597813E1,1.589472175E0,3.526659310E-1,5.979892254E0
2.645597812E1,1.536263466E0,4.902462959E-1,6.125967503E0
2.647597969E1,1.485764980E0,5.228840709E-1,6.219781876E0
2.649797969E1,1.623489022E0,5.608752370E-1,6.673348427E0
2.651997812E1,1.482374787E0,5.876711607E-1,7.236656666E0
2.653997812E1,1.053525448E0,6.475549340E-1,7.895828247E0
2.655997812E1,7.763629556E-1,6.693421602E-1,8.847906113E0
2.657997812E1,1.102252245E0,5.395381451E-1,9.705001831E0
2.659997969E1,2.557524681E0,9.485826641E-2,1.031020832E1
2.662197813E1,4.602622986E0,-5.333610773E-1,1.032715893E1
2.664197812E1,4.200712681E0,-8.229349852E-1,1.109777641E1
2.666197812E1,1.526006699E0,-9.056977630E-1,1.189261246E1
2.668197812E1,9.713754803E-2,-7.198598385E-1,1.277980900E1
2.670197812E1,1.408384442E0,-1.089198947E0,1.405694199E1
2.672197813E1,2.469015598E0,-2.123570919E0,1.595903969E1
2.674197813E1,2.326206207E0,-3.220890760E0,1.693792343E1
2.676197813E1,2.655476093E0,-3.827131271E0,1.597632599E1
2.678197813E1,3.917613029E0,-3.880090952E0,1.344248390E1
2.680197812E1,5.137957096E0,-3.558703184E0,1.123400593E1
2.682197812E1,5.220173836E0,-2.836650133E0,9.664836884E0
2.684197812E1,3.543878078E0,-1.890040278E0,8.918564796E0
2.686197812E1,2.208517075E0,-1.180944800E0,8.494761467E0
2.688198281E1,1.610445380E0,-4.796639383E-1,7.806103230E0
2.690397813E1,9.155714512E-1,2.598858178E-1,6.422666550E0
2.692397969E1,3.940472901E-1,7.515207529E-1,5.192199707E0
2.694597813E1,1.924938150E-2,1.125629187E0,4.454105854E0
2.696599688E1,1.723921001E-1,1.191728234E0,4.254170895E0
2.698798594E1,3.496492207E-1,1.114788175E0,4.632607937E0
2.700798594E1,2.185810357E-1,1.002586246E0,5.534647465E0
2.702799688E1,1.177468449E-1,7.260081172E-1,6.677456856E0
2.704997813E1,-2.224692255E-1,2.926384807E-1,8.354145050E0
2.706997813E1,-6.747148037E-1,1.144141108E-1,9.864015579E0
2.708997813E1,-7.682226896E-1,1.094820574E-1,1.077805424E1
2.710997969E1,-4.204984307E-1,3.249219060E-1,1.104511356E1
2.713197813E1,-7.105033100E-2,4.935886264E-1,1.129557514E1
2.715197813E1,3.983951807E-1,5.187852383E-1,1.184381962E1
2.717197969E1,1.130005717E0,2.183128744E-1,1.207625771E1
2.719397812E1,2.316821098E0,-1.670961231E-1,1.245458984E1
2.721397812E1,2.838785887E0,-3.183330595E-2,1.279192257E1
2.723397812E1,3.125438690E0,-2.554421723E-1,1.339556789E1
2.725397813E1,2.892511606E0,-1.119710684E0,1.464991856E1
2.727397813E1,1.733296633E0,-1.656155467E0,1.471167946E1
2.729397813E1,7.103787661E-1,-1.353001714E0,1.297670746E1
2.731397813E1,9.456043243E-1,-1.001255155E0,1.077439690E1
2.733397812E1,1.976001740E0,-1.202818274E0,1.006422710E1
2.735397812E1,2.200213909E0,-1.692691088E0,1.073407841E1
2.737397969E1,1.016013026E0,-1.810217619E0,1.072023964E1
2.739597813E1,2.252081931E-1,-1.706280470E0,1.034942436E1
2.741597813E1,4.481945559E-2,-1.461171746E0,9.531335831E0
2.743597813E1,5.727409124E-1,-1.181959987E0,8.851890564E0
2.745597812E1,8.056775928E-1,-7.292355299E-1,7.930524826E0
2.747597969E1,9.279734492E-1,-3.220967352E-1,6.821770191E0
2.749798594E1,1.184794664E0,-1.819593308E-4,6.008680344E0
2.751997812E1,1.726755738E0,1.741542369E-1,5.939468861E0
2.753997969E1,2.003065825E0,3.679600954E-1,6.064263821E0
2.756197813E1,1.792567492E0,4.840213954E-1,5.973590851E0
2.758197813E1,1.668346763E0,5.503599048E-1,6.071370125E0
2.760197813E1,1.778259754E0,5.029259920E-1,6.796927929E0
2.762197813E1,1.435151458E0,5.595920086E-1,7.267809868E0
2.764197969E1,8.945025206E-1,7.298293114E-1,7.544665813E0
2.766397813E1,8.104851842E-1,7.569891214E-1,8.554348946E0
2.768397813E1,1.214434862E0,5.378621817E-1,1.000465012E1
2.770397969E1,1.846446633E0,2.036699504E-1,1.143266678E1
2.772597812E1,1.819267750E0,-1.653052717E-1,1.259895039E1
2.774597812E1,9.423194528E-1,-2.479626834E-1,1.349891090E1
2.776601250E1,7.244088054E-1,-3.048776686E-1,1.346025944E1
2.778798594E1,1.837166786E0,-6.448925734E-1,1.399580383E1
2.780997812E1,2.612457037E0,-1.701214314E0,1.493196583E1
2.782997969E1,2.204044580E0,-2.370604515E0,1.534297371E1
2.785197969E1,2.160977840E0,-2.656050682E0,1.426195335E1
2.787397812E1,3.855373621E0,-2.871701241E0,1.277029896E1
2.789397812E1,5.058028698E0,-2.768472910E0,1.124551773E1
2.791397813E1,5.253903389E0,-2.317730904E0,1.010165405E1
2.793397813E1,3.724544764E0,-1.471619964E0,8.853364944E0
2.795397813E1,2.277096510E0,-8.617498279E-1,8.040390015E0
2.797397813E1,1.393463731E0,-3.116005659E-1,7.926435471E0
2.799397812E1,7.247727513E-1,2.076060176E-1,7.344050884E0
2.801397812E1,2.280429304E-1,7.226849794E-1,6.291511536E0
2.803397812E1,4.687846825E-2,1.161570907E0,5.432721138E0
2.805397812E1,2.317204177E-1,1.433494806E0,5.086308956E0
2.807397812E1,4.407246411E-1,1.533763885E0,5.129739761E0
2.809397813E1,3.972842395E-1,1.613960028E0,5.054504395E0
2.811397813E1,2.088031173E-1,1.604392767E0,5.288580894E0
2.813397813E1,-8.489838988E-2,1.243682504E0,6.796669483E0
2.815397813E1,-4.581927359E-1,1.030119658E0,8.668264389E0
2.817397812E1,-7.240545154E-1,1.108170629E0,9.474535942E0
2.819397812E1,-7.811896801E-1,1.292993426E0,9.573483467E0
2.821397812E1,-8.320137858E-1,1.373812079E0,1.007070255E1
2.823397812E1,-7.402871847E-1,1.116406560E0,1.169253445E1
2.825397813E1,-1.819306016E-1,4.975055158E-1,1.345713806E1
2.827397813E1,4.207665622E-1,-2.588227987E-1,1.428660393E1
2.829397813E1,8.472409844E-1,-3.378506005E-1,1.404232788E1
2.831397969E1,1.781774521E0,2.305999249E-1,1.381080818E1
2.833597969E1,2.840413809E0,-2.211284637E-2,1.388940525E1
2.835797969E1,2.904846668E0,-6.322320700E-1,1.419195652E1
2.837797969E1,1.119375467E0,-5.746467113E-1,1.314361191E1
2.839797969E1,6.270222664E-1,-1.529320180E-1,1.031660557E1
2.841797969E1,1.423247576E0,1.405683756E-1,8.904859543E0
2.843797969E1,2.747806072E0,-2.754002512E-1,9.429706573E0
2.845797969E1,2.129125357E0,-8.040591478E-1,1.011540604E1
2.847797969E1,6.360723376E-1,-1.169443011E0,1.074202633E1
2.849797969E1,-5.726068616E-1,-1.154819250E0,1.067013359E1
2.851797969E1,-7.854514122E-1,-8.789401650E-1,9.939709663E0
2.853797969E1,-4.808227420E-1,-7.437061071E-1,1.011208344E1
2.855798438E1,-3.470443189E-1,-5.790616274E-1,1.035400295E1
2.857997969E1,-4.779401124E-1,-1.645486951E-1,8.305313110E0
2.860197813E1,-3.313862383E-1,2.919106483E-1,6.193579674E0
2.862197813E1,1.737807244E-1,5.523519516E-1,5.658618927E0
2.864197969E1,6.564613581E-1,7.225604653E-1,6.034566402E0
2.866397813E1,6.128007174E-1,9.189521074E-1,6.140245914E0
2.868397813E1,5.524285436E-1,1.073531389E0,6.262723923E0
2.870397813E1,5.872976780E-1,1.229307652E0,6.162177086E0
2.872397813E1,5.058852434E-1,1.610981703E0,6.170470715E0
2.874397812E1,5.459737778E-1,1.956723690E0,6.386705399E0
2.876397812E1,2.277939320E-1,2.194314718E0,7.336609840E0
2.878397812E1,4.183627963E-1,2.096506596E0,8.909504890E0
2.880397812E1,1.388081551E0,1.798811674E0,1.018591118E1
2.882397813E1,2.036287785E0,1.316130996E0,1.097140026E1
2.884397813E1,1.652410984E0,7.250409126E-1,1.277625465E1
2.886397813E1,8.998080492E-1,7.260560393E-1,1.400568771E1
2.888397813E1,1.330170512E0,6.322128773E-1,1.421505547E1
2.890397813E1,1.916299939E0,-2.535938472E-2,1.460284901E1
2.892397812E1,1.449507236E0,-8.468578458E-1,1.469578266E1
2.894397812E1,1.151017189E0,-1.571764708E0,1.477141953E1
2.896397812E1,1.727646351E0,-2.084573984E0,1.492132664E1
2.898397812E1,3.348587990E0,-2.446586847E0,1.370163250E1
2.900397813E1,4.371572971E0,-2.124298573E0,1.147925854E1
2.902397813E1,4.525634766E0,-1.590822458E0,9.803183556E0
2.904397813E1,3.404506922E0,-1.151467443E0,8.886596680E0
2.906397813E1,1.812448978E0,-8.395220041E-1,8.608802795E0
2.908397812E1,7.579851151E-1,-6.477847695E-1,8.601112366E0
2.910397812E1,6.709510833E-2,-3.005680740E-1,8.127596855E0
2.912397812E1,-4.119846523E-1,1.262127310E-1,7.140352249E0
2.914397812E1,-6.388304234E-1,5.158834457E-1,5.993644714E0
2.916397813E1,-7.059638500E-1,1.058572412E0,5.110116959E0
2.918397813E1,-5.226638317E-1,1.399047017E0,4.725962639E0
2.920397969E1,-2.125668079E-1,1.511497855E0,5.118640423E0
2.922597812E1,-2.868349254E-1,1.277201295E0,6.018429279E0
2.924597812E1,-3.727101684E-1,1.009194374E0,7.102964401E0
2.926601250E1,-4.767621756E-1,8.212973475E-1,8.484753609E0
2.928798438E1,-9.514461756E-1,8.988599181E-1,9.553573608E0
2.930997812E1,-1.032877803E0,1.074354887E0,9.514863968E0
2.932997969E1,-5.401127338E-1,1.135119796E0,9.940609932E0
2.935197969E1,-2.878979743E-1,1.139486790E0,1.105331993E1
2.937397812E1,1.071740389E-1,9.982480407E-1,1.194311142E1
2.939397812E1,5.836585164E-1,8.669883609E-1,1.227050400E1
2.941397813E1,1.058543563E0,9.564644098E-1,1.225403214E1
2.943397813E1,2.362943172E0,1.837980747E-1,1.316430759E1
2.945397813E1,3.047205925E0,-9.057744145E-1,1.588571930E1
2.947397813E1,2.265364885E0,-1.675845504E0,1.630672646E1
2.949397812E1,1.480181694E0,-1.219635129E0,1.332154846E1
2.951397812E1,2.008141518E0,-7.741507292E-1,1.115222931E1
2.953397812E1,2.149188757E0,-8.101117015E-1,1.083067894E1
2.955397812E1,1.023904324E0,-1.141028643E0,1.141371441E1
2.957397813E1,-1.280706376E-1,-1.225132227E0,1.090000629E1
2.959397813E1,-8.013010025E-1,-9.843137860E-1,9.657702446E0
2.961397813E1,-7.586842179E-1,-8.309890628E-1,8.868324280E0
2.963397813E1,-4.923053384E-1,-7.011563182E-1,8.315588951E0
2.965397813E1,-2.092340738E-1,-5.303444266E-1,7.808794022E0
2.967397812E1,1.288367808E-1,-2.905411720E-1,6.936922073E0
2.969397812E1,5.670139790E-1,-1.229087338E-1,6.028686047E0
2.971397812E1,9.285959601E-1,9.520303458E-2,5.574955940E0
2.973397812E1,1.234823823E0,2.772964537E-1,5.441311836E0
2.975397813E1,1.439154625E0,3.795288503E-1,5.474169731E0
2.977397813E1,1.428419113E0,4.334845841E-1,5.764567375E0
2.979397813E1,1.146200061E0,3.238971829E-1,6.405829906E0
2.981397969E1,9.298408628E-1,4.181042314E-1,7.700634003E0
2.983597812E1,5.931299329E-1,5.406586528E-1,9.306855202E0
2.985597813E1,4.563635886E-1,5.635184646E-1,1.026687336E1
2.987598125E1,1.308105588E0,3.380134106E-1,1.114324665E1
2.989797812E1,2.616623163E0,4.999093246E-3,1.254939938E1
2.991797812E1,2.978405952E0,-1.958361268E-1,1.341008663E1
2.993797969E1,2.858073473E0,-2.128062248E-1,1.313701344E1
2.995997969E1,3.069912434E0,-5.050041676E-1,1.308861256E1
2.998197812E1,3.703858614E0,-1.662150621E0,1.519251251E1
3.000197812E1,3.249199867E0,-2.633018494E0,1.703484917E1
3.002197812E1,2.981508970E0,-2.928252459E0,1.640145874E1
3.004197813E1,4.039104462E0,-2.689320564E0,1.363609982E1
3.006197813E1,5.232537746E0,-2.342649698E0,1.076686954E1
3.008197813E1,5.558378696E0,-1.637940407E0,8.358377457E0
3.010197813E1,4.674487114E0,-1.015447974E0,6.769768238E0
3.012197813E1,3.017402887E0,-6.725887656E-1,6.454116821E0
3.014197812E1,1.703273416E0,-2.885587811E-1,7.082057953E0
3.016197812E1,9.357306361E-1,6.630980968E-2,7.192775726E0
3.018197812E1,5.854685307E-1,4.510005414E-1,6.886758327E0
3.020197812E1,2.977429330E-1,8.040399551E-1,6.198750973E0
3.022197813E1,1.002404392E-1,1.057978630E0,5.654759884E0
3.024197813E1,6.538085639E-2,1.059817433E0,5.867058277E0
3.026197813E1,-8.197746240E-3,9.746316671E-1,6.394242287E0
3.028197813E1,-1.995902210E-1,9.610708356E-1,6.786326408E0
3.030197812E1,-2.146258205E-1,1.016759992E0,6.963200569E0
3.032197969E1,-9.390059114E-2,1.132342577E0,7.277635574E0
3.034397813E1,7.044699043E-2,1.113054752E0,8.032431602E0
3.036397813E1,2.438254952E-1,1.082294106E0,9.074349403E0
3.038397813E1,4.631152451E-1,1.144505024E0,9.940620422E0
3.040397813E1,6.147160530E-1,1.190330029E0,1.066571903E1
3.042397969E1,9.926934838E-1,1.284584999E0,1.174945927E1
3.044397969E1,1.951130748E0,1.350042462E0,1.289203930E1
3.046397969E1,2.882542133E0,1.239219546E0,1.341442490E1
3.048398281E1,3.049350977E0,1.495121479E0,1.291985893E1
3.050597813E1,3.305339098E0,1.265872002E0,1.212046432E1
3.052597969E1,3.707421303E0,4.523508847E-1,1.308292389E1
3.054798594E1,2.897194862E0,-5.669086576E-1,1.466670704E1
3.056997813E1,1.676065683E0,-5.984450579E-1,1.296493721E1
3.058997813E1,1.794396758E0,-4.994592071E-1,1.093345737E1
3.060997969E1,1.625749111E0,-7.794563174E-1,1.090093422E1
3.063197813E1,9.784144759E-1,-1.166196585E0,1.151854324E1
3.065197813E1,5.771462321E-1,-1.222498536E0,1.105377007E1
3.067197813E1,3.482127190E-1,-9.699198604E-1,9.921083450E0
3.069197813E1,6.101192236E-1,-6.941652894E-1,8.825506210E0
3.071197812E1,9.415629506E-1,-3.394978046E-1,8.070815086E0
3.073197812E1,1.154666066E0,3.964798059E-3,7.008900642E0
3.075197969E1,1.401872158E0,3.034985960E-1,6.051852703E0
3.077397813E1,1.771680593E0,5.580692887E-1,5.395046234E0
3.079397813E1,2.019652843E0,6.774154305E-1,5.196749210E0
3.081397813E1,1.932628274E0,7.929883599E-1,5.345150948E0
3.083397812E1,1.821719408E0,7.627447248E-1,5.628797054E0
3.085397969E1,1.725692749E0,6.512611508E-1,6.610142231E0
3.087397969E1,1.523210287E0,5.919041038E-1,7.493133068E0
3.089397969E1,1.603952408E0,5.975927711E-1,7.904878616E0
3.091397969E1,1.728642344E0,7.531296611E-1,8.055463791E0
3.093597813E1,1.606040001E0,9.679757953E-1,9.025728226E0
3.095597812E1,1.560626864E0,9.996366501E-1,1.005983162E1
3.097597812E1,2.105729103E0,8.467333913E-1,1.051620483E1
3.099597812E1,3.317338943E0,3.822965324E-1,1.169529152E1
3.101597812E1,3.538227797E0,1.901187748E-1,1.310691261E1
3.103597969E1,3.732914686E0,-4.190810770E-2,1.392338371E1
3.105597969E1,4.634571075E0,-7.459566593E-1,1.492953300E1
3.107597969E1,5.019836426E0,-1.870637655E0,1.598145866E1
3.109597969E1,4.350790977E0,-2.680011988E0,1.663392830E1
3.111597969E1,3.990502119E0,-2.550025940E0,1.473381138E1
3.113798750E1,4.994036674E0,-2.151008368E0,1.146457672E1
3.115997969E1,5.650210381E0,-1.490447998E0,8.615266800E0
3.117997969E1,5.741333961E0,-1.101926565E0,7.448160172E0
3.120197969E1,4.295676708E0,-8.995686173E-1,7.400074959E0
3.122397813E1,2.852451801E0,-6.884862185E-1,7.746765137E0
3.124397812E1,1.636953950E0,-3.360214233E-1,7.498994350E0
3.126397812E1,7.319170237E-1,-3.200568631E-2,7.546801090E0
3.128400312E1,-1.748725027E-2,3.200568855E-1,7.488124371E0
3.130597813E1,-3.322577178E-1,5.677035451E-1,7.315865993E0
3.132597813E1,-3.044754267E-1,7.119014859E-1,6.977718830E0
3.134597813E1,-2.613702118E-1,7.503045201E-1,6.927986145E0
3.136599688E1,-3.233608603E-1,7.719193697E-1,6.835493565E0
3.138798750E1,-1.906359047E-1,8.150245547E-1,6.737686157E0
3.140997969E1,-6.299623847E-2,9.473186135E-1,7.109246731E0
3.143197812E1,1.078348421E-2,8.890916109E-1,7.708956242E0
3.145197813E1,-1.044638082E-1,9.157630205E-1,8.314305305E0
3.147197813E1,-1.831659973E-1,9.304825664E-1,9.033821106E0
3.149197813E1,-5.876328796E-2,8.415140510E-1,9.603430748E0
3.151197813E1,3.862709403E-1,6.184414625E-1,9.909265518E0
3.153197813E1,9.011966586E-1,3.489596844E-1,1.048161411E1
3.155197812E1,1.281146884E0,1.905688792E-1,1.156731701E1
3.157197812E1,1.519800901E0,1.316619366E-1,1.273652077E1
3.159197812E1,2.681898355E0,-8.349251747E-1,1.389500809E1
3.161197812E1,2.721910477E0,-2.241346121E0,1.671739769E1
3.163197969E1,1.117230177E0,-2.686658144E0,1.776230431E1
3.165397813E1,6.287556887E-1,-1.597009182E0,1.510535336E1
3.167397812E1,1.372653365E0,-5.188809633E-1,1.130280590E1
3.169397812E1,1.583965540E0,9.816226549E-3,9.682055473E0
3.171397812E1,1.335447431E0,-6.046317220E-1,1.033441830E1
3.173397813E1,4.488362074E-1,-1.137312889E0,1.083392620E1
3.175397813E1,-9.922529757E-2,-1.273715377E0,1.081075001E1
3.177397969E1,4.345954955E-2,-1.137427688E0,1.030625248E1
3.179597812E1,4.767238796E-1,-7.589140534E-1,9.081686020E0
3.181597812E1,8.756744862E-1,-4.413471520E-1,7.913190842E0
3.183597812E1,1.206016898E0,-1.764239371E-1,6.839831829E0
3.185597813E1,1.471198559E0,1.373697221E-1,5.912021637E0
3.187597813E1,1.843880177E0,3.059789836E-1,5.380432129E0
3.189597813E1,2.130140305E0,5.266765356E-1,5.153097630E0
3.191597813E1,2.079584360E0,6.172634959E-1,5.494462967E0
3.193597813E1,1.525269270E0,5.728941560E-1,6.351175308E0
3.195597812E1,1.118753076E0,5.302007198E-1,7.198665619E0
3.197597969E1,8.646611571E-1,6.387251616E-1,7.205704689E0
3.199798125E1,6.114216447E-1,8.634831905E-1,7.693958282E0
3.201997969E1,3.884065449E-1,9.896768332E-1,8.563360214E0
3.203997969E1,1.426561177E-1,1.085770488E0,9.272350311E0
3.205997969E1,6.283438802E-1,8.191521764E-1,1.006852818E1
3.207997969E1,1.373783350E0,2.897175550E-1,1.129582405E1
3.209997969E1,1.236921310E0,2.708320916E-1,1.219622612E1
3.211997969E1,1.688563466E0,-1.422921866E-1,1.279359818E1
3.213997969E1,2.773548603E0,-1.369550467E0,1.525207996E1
3.215997969E1,2.772973776E0,-2.645276785E0,1.779990196E1
3.217997969E1,2.021070242E0,-2.757402182E0,1.701499748E1
3.219997969E1,2.600696802E0,-2.285399675E0,1.428579903E1
3.221997969E1,4.373899937E0,-1.992244005E0,1.157813835E1
3.223997969E1,5.941317081E0,-1.580115557E0,9.670706749E0
3.225997969E1,5.962424278E0,-1.204091907E0,8.286581039E0
3.227997969E1,4.036853790E0,-9.209153652E-1,7.649551392E0
3.229997969E1,2.234326363E0,-8.459193707E-1,8.284560204E0
3.231997969E1,1.169462204E0,-6.325097680E-1,8.890705109E0
3.233997969E1,7.470675707E-1,-2.720579207E-1,8.281591415E0
3.235997969E1,5.058661103E-1,2.651626170E-1,7.141836643E0
3.237997969E1,3.221446276E-1,7.387165427E-1,5.701896667E0
3.239997969E1,3.376016021E-1,1.034975052E0,5.086759090E0
3.242197969E1,3.413269520E-1,1.062661648E0,5.477703571E0
3.244397969E1,1.825052053E-1,8.433048725E-1,6.332854748E0
3.246397969E1,7.500555366E-2,7.820324898E-1,7.000731945E0
3.248397969E1,-2.955402620E-2,8.289684057E-1,7.174962997E0
3.250397969E1,-3.122039139E-3,7.587512136E-1,7.808286667E0
3.252597812E1,2.473306060E-1,7.532733083E-1,9.207678795E0
3.254597813E1,3.876499832E-1,8.169303536E-1,1.015121365E1
3.256599688E1,9.246311188E-1,8.622669578E-1,1.044963646E1
3.258798750E1,1.255892873E0,8.332109451E-1,1.104027748E1
3.260997969E1,1.876297593E0,3.320757747E-1,1.227704525E1
3.263197969E1,2.556633949E0,-3.577799499E-1,1.368004704E1
3.265397812E1,2.868588924E0,-7.902972698E-1,1.428693008E1
3.267397813E1,2.973253727E0,-1.321455717E0,1.390756321E1
3.269397812E1,1.421169400E0,-1.640420794E0,1.354261971E1
3.271397813E1,4.066790938E-1,-1.415097713E0,1.283464432E1
3.273397812E1,9.298600554E-1,-1.136489272E0,1.141903973E1
3.275398125E1,1.538121343E0,-1.064471722E0,1.011269665E1
3.277597812E1,1.369368434E0,-1.464341640E0,1.093192482E1
3.279597813E1,1.289325505E-1,-1.782770514E0,1.251862049E1
3.281597812E1,-7.823867798E-1,-1.686925769E0,1.265405464E1
3.283597813E1,-6.596696377E-1,-1.235398531E0,1.112824917E1
3.285597812E1,3.247495368E-2,-8.271967173E-1,9.560362816E0
3.287597812E1,4.711597264E-1,-3.400915563E-1,8.055645943E0
3.289597812E1,9.163950682E-1,6.127241254E-2,6.513234138E0
3.291597812E1,1.322777390E0,3.616776764E-1,5.690308571E0
3.293597813E1,1.656327844E0,5.081453323E-1,5.437346935E0
3.295597812E1,1.820713758E0,4.586236775E-1,5.630252361E0
3.297597969E1,1.557552695E0,3.088424504E-1,5.929527760E0
3.299797969E1,1.170831680E0,1.812793761E-1,6.456271648E0
3.301797969E1,1.080819249E0,5.690538883E-2,7.018898964E0
3.303797969E1,9.268338084E-1,2.311841212E-2,7.289013386E0
3.305797969E1,6.470378041E-1,4.574840516E-2,7.465264797E0
3.307797969E1,6.813802719E-1,-7.952580601E-2,8.192690849E0
3.309798125E1,1.320727944E0,-4.028292298E-1,9.457154274E0
3.311798125E1,1.929736257E0,-7.669968605E-1,1.102355576E1
3.313997969E1,2.548417091E0,-1.126625180E0,1.292445564E1
3.315997969E1,2.309628963E0,-8.672756553E-1,1.392130566E1
3.317997969E1,2.230160713E0,-6.476411223E-1,1.268136787E1
3.319997969E1,3.459008455E0,-1.225543976E0,1.338847160E1
3.322197812E1,2.839255095E0,-2.704471111E0,1.638072586E1
3.324197812E1,9.407871962E-1,-3.206765175E0,1.747514534E1
3.326197812E1,1.953802586E0,-3.124289513E0,1.595555401E1
3.328197969E1,4.469151020E0,-2.980292797E0,1.291167068E1
3.330197969E1,6.184682846E0,-2.517120123E0,1.049079800E1
3.332197969E1,5.955069542E0,-1.900996089E0,8.722047806E0
3.334397812E1,3.401624203E0,-1.347380161E0,7.708592415E0
3.336397812E1,1.541760445E0,-1.012258887E0,7.759061813E0
3.338397969E1,6.232202649E-1,-7.672937512E-1,8.086387634E0
3.340597969E1,1.244889125E-1,-3.534416258E-1,7.199000359E0
3.342798750E1,-2.102204859E-1,1.808196902E-1,5.728807449E0
3.344997969E1,-2.318928093E-1,5.964244008E-1,4.746514797E0
3.346997969E1,-2.216839343E-1,7.971446514E-1,4.693506718E0
3.348997969E1,-4.358500540E-1,8.571338058E-1,5.157445908E0
3.350997969E1,-5.336866975E-1,8.107246161E-1,5.973993301E0
3.352997969E1,-6.089317203E-1,7.682801485E-1,6.085802078E0
3.354997969E1,-6.280853152E-1,6.573137045E-1,6.617046833E0
3.356998125E1,-5.668224692E-1,5.740720630E-1,7.857990265E0
3.359197813E1,-1.952806711E-1,6.302784085E-1,9.118921280E0
3.361197969E1,4.571967423E-1,7.807300687E-1,1.003471184E1
3.363197969E1,7.726376057E-1,1.074211359E0,1.041724777E1
3.365197969E1,9.415533543E-1,1.191929340E0,1.088887691E1
3.367397969E1,1.654977560E0,8.393592238E-1,1.224012566E1
3.369397969E1,2.351527452E0,5.354967117E-1,1.319773006E1
3.371397969E1,2.759259939E0,4.422281981E-1,1.367643642E1
3.373397969E1,3.200300694E0,3.576171398E-1,1.387545204E1
3.375397969E1,2.734647751E0,-1.617522687E-1,1.424654388E1
3.377597969E1,1.660196900E0,-8.975574970E-1,1.486297417E1
3.379797969E1,7.923658490E-1,-1.143489838E0,1.432953644E1
3.381797969E1,1.005823255E0,-6.750499606E-1,1.117391205E1
3.383797969E1,1.546989560E0,-2.954923809E-1,8.841892242E0
3.385797969E1,1.904108644E0,-9.450871348E-1,9.724979401E0
3.387797969E1,1.124384165E0,-1.823941112E0,1.173547649E1
3.389797969E1,1.163581982E-1,-2.159933805E0,1.242945957E1
3.391798125E1,-5.762268901E-1,-1.753091931E0,1.097315311E1
3.393997969E1,-5.059427023E-2,-1.354495764E0,9.280490875E0
3.395997969E1,7.112407088E-1,-1.041401148E0,8.473491669E0
3.397997969E1,9.929425120E-1,-7.276648879E-1,7.324897289E0
3.399997969E1,1.069748402E0,-3.476763964E-1,5.996134281E0
3.401997969E1,1.237965107E0,-1.382220387E-1,5.201374531E0
3.403997969E1,1.905707836E0,2.339518070E-1,4.588487625E0
3.406197969E1,2.487029791E0,7.832199931E-1,4.039506435E0
3.408197969E1,2.093308210E0,1.033021331E0,3.722054720E0
3.410397969E1,1.308335423E0,1.017315388E0,4.210596085E0
3.412597969E1,7.574775219E-1,9.252057672E-1,5.875888348E0
3.414798594E1,9.081398249E-1,6.276255846E-1,7.911974430E0
3.416997969E1,7.436390519E-1,5.039219856E-1,1.020480537E1
3.418997969E1,2.180638909E-1,3.995252252E-1,1.113594913E1
3.421197969E1,-1.905784607E-1,2.450513244E-1,1.171717453E1
3.423197969E1,2.399756312E-1,-9.452308714E-2,1.275344372E1
3.425197969E1,2.960382402E-1,-6.769365668E-1,1.403505993E1
3.427397812E1,-8.130900264E-1,-9.405764937E-1,1.411070728E1
3.429397812E1,-1.007834435E0,-1.269262075E0,1.318097115E1
3.431397969E1,-1.781477630E-1,-1.615952015E0,1.339765644E1
3.433397969E1,1.351632237E0,-2.129661560E0,1.482989693E1
3.435397969E1,2.215393066E0,-2.734274149E0,1.560012054E1
3.437397969E1,2.832072496E0,-3.205912590E0,1.553640652E1
3.439397969E1,3.422578335E0,-2.856129408E0,1.408947468E1
3.441597969E1,5.201757431E0,-2.508175373E0,1.110714245E1
3.443797969E1,7.095254898E0,-1.924334884E0,8.075000763E0
3.445797969E1,7.201059341E0,-1.236298680E0,6.989603519E0
3.447797969E1,5.525022507E0,-8.448179960E-1,7.597060680E0
3.449798281E1,3.767831802E0,-6.608762741E-1,8.667547226E0
3.451798281E1,2.577884674E0,-3.244526386E-1,9.356645584E0
3.453798594E1,1.963954091E0,7.653784007E-2,8.767719269E0
3.455997969E1,1.514926434E0,3.040731847E-1,7.393141747E0
3.457997969E1,1.164491773E0,4.844619036E-1,6.246548653E0
3.459997969E1,9.118844271E-1,3.616489470E-1,6.056008816E0
3.461997969E1,6.456874609E-1,2.817687988E-1,6.426899433E0
3.463997969E1,2.903400660E-1,1.980579346E-1,6.801045895E0
3.465997969E1,-2.333580405E-1,2.879745662E-1,6.869903088E0
3.467997969E1,-5.422579050E-1,3.691284359E-1,7.291866779E0
3.469997969E1,-4.955614209E-1,5.748766065E-1,7.650317192E0
3.471997969E1,-1.752938628E-1,7.627256513E-1,7.857157230E0
3.473997969E1,-1.567914784E-1,9.565219283E-1,8.255686760E0
3.475997969E1,-2.725559175E-1,1.072123528E0,8.956027985E0
3.478197812E1,3.530010954E-2,1.316159725E0,1.028328800E1
3.480197969E1,1.297331691E0,1.525384188E0,1.130486488E1
3.482197969E1,3.395590782E0,1.287036657E0,1.193258572E1
3.484397812E1,3.893402815E0,1.286519527E0,1.210220146E1
3.486397969E1,3.455781221E0,1.060382366E0,1.273839855E1
3.488399844E1,3.543427944E0,-5.530606210E-2,1.389863777E1
3.490598125E1,2.869977474E0,-1.753465414E0,1.515612984E1
3.492797969E1,1.340973258E0,-2.447640419E0,1.465576077E1
3.494799375E1,8.165568709E-1,-2.145089865E0,1.247503567E1
3.496997969E1,1.124594808E0,-1.772207260E0,9.767481804E0
3.498997969E1,9.205322266E-1,-1.682740688E0,9.591315269E0
3.500997969E1,3.472550213E-2,-1.797509193E0,1.112436104E1
3.502997969E1,-1.012019515E0,-1.592785716E0,1.144436073E1
3.504997969E1,-8.766321540E-1,-1.281903386E0,1.070798016E1
3.506997969E1,3.242802322E-1,-7.975660563E-1,9.440854073E0
3.508997969E1,1.105920076E0,-3.462302983E-1,8.259153366E0
3.510997969E1,1.861338615E0,-5.941450968E-2,7.235488415E0
3.512997969E1,2.314225912E0,2.861837149E-1,6.229980946E0
3.515198125E1,2.506202459E0,6.081655025E-1,5.258145809E0
3.517397813E1,2.418507576E0,8.547491431E-1,4.274521351E0
3.519397812E1,2.323831320E0,8.189032078E-1,3.817056656E0
3.521397813E1,2.023196220E0,8.569614291E-1,4.153480530E0
3.523397812E1,1.516947031E0,6.687292457E-1,5.301452160E0
3.525397812E1,1.023808479E0,3.946506381E-1,7.001909733E0
3.527397812E1,4.200195968E-1,3.832637966E-1,8.711446762E0
3.529397969E1,1.154196784E-1,4.677312374E-1,9.017712593E0
3.531597812E1,6.110864878E-1,4.063726366E-1,9.220721245E0
3.533597813E1,1.861779213E0,1.877054200E-2,1.119929028E1
3.535597812E1,2.679935217E0,-5.697146654E-1,1.343341637E1
3.537597812E1,2.618730068E0,-4.538736045E-1,1.506081200E1
3.539597969E1,2.680854797E0,-2.155739069E-1,1.460690880E1
3.541597969E1,3.590986490E0,-5.961562321E-2,1.407706356E1
3.543797969E1,4.620062351E0,-8.318318725E-1,1.586389446E1
3.545798125E1,3.692098379E0,-1.926642776E0,1.769751740E1
3.547997969E1,2.437077045E0,-2.149686813E0,1.599860191E1
3.549997969E1,3.826365232E0,-1.941410303E0,1.291992664E1
3.551997969E1,5.606750965E0,-1.525575757E0,9.942583084E0
3.553997969E1,6.142036915E0,-1.101418972E0,8.220883369E0
3.555997969E1,5.424217224E0,-1.176481962E0,7.955989838E0
3.557997969E1,4.341003895E0,-9.182050824E-1,8.167119980E0
3.559997969E1,3.894542456E0,-3.347859979E-1,9.507883072E0
3.561997969E1,3.873578787E0,1.005756259E-1,9.843549728E0
3.563997969E1,3.270345449E0,5.640451908E-1,8.561589241E0
3.565997969E1,2.707765579E0,9.440146089E-1,7.234281540E0
3.567997969E1,2.157568455E0,1.098258615E0,6.854829311E0
3.569997969E1,1.782665133E0,1.133692861E0,7.208749771E0
3.571997969E1,1.414120793E0,8.705221415E-1,8.054650307E0
3.573997969E1,8.714894652E-1,8.673522472E-1,8.530569077E0
3.575997969E1,6.724163294E-1,9.172090888E-1,8.402345657E0
3.577997969E1,6.199354529E-1,1.031268954E0,7.882018566E0
3.579997969E1,5.693698525E-1,1.042349219E0,8.005568504E0
3.581997969E1,3.220201433E-1,1.083874226E0,8.620093346E0
3.583997969E1,5.450160429E-2,1.075772285E0,9.358263969E0
3.585997969E1,3.249889612E-1,1.079564691E0,9.462497711E0
3.587997969E1,8.449041843E-1,1.240110278E0,9.163434029E0
3.589997969E1,1.114855170E0,1.542861938E0,8.513369560E0
3.592197969E1,1.288224101E0,1.892635584E0,8.382741928E0
3.594397812E1,1.266149640E0,2.203910589E0,8.944880486E0
3.596397969E1,1.061483622E0,2.386147738E0,9.274764061E0
3.598597969E1,1.794846773E0,1.736533642E0,1.021302223E1
3.600597969E1,1.968550920E0,9.395231009E-1,1.213545227E1
3.602597969E1,5.435508490E-1,1.179125190E0,1.188996029E1
3.604597969E1,-4.219923913E-1,2.007221937E0,9.500796318E0
3.606599844E1,-3.200089931E-1,2.330937147E0,8.388362885E0
3.608797969E1,-1.015045792E-1,1.874047041E0,9.649005890E0
3.610797969E1,-2.772485614E-1,1.283780575E0,1.090300274E1
3.612797969E1,-4.474284053E-1,1.017095208E0,1.155139160E1
3.614799688E1,-7.186435908E-2,1.039026141E0,1.142868328E1
3.616997812E1,6.148884296E-1,1.309915662E0,1.038567352E1
3.618997969E1,8.999325633E-1,1.769889593E0,9.101327896E0
3.621197812E1,1.055957913E0,2.152138472E0,8.059429169E0
3.623197813E1,1.168380022E0,2.240637779E0,7.704790115E0
3.625197812E1,9.696038365E-1,2.234910727E0,7.509490013E0
3.627197969E1,8.168633580E-1,2.231769562E0,7.661464214E0
3.629397812E1,7.005147338E-1,2.212548733E0,7.901890278E0
3.631397813E1,6.239576936E-1,2.238444567E0,8.307333946E0
3.633397812E1,6.025822759E-1,2.211476326E0,8.819952011E0
3.635397813E1,3.865486383E-1,2.296317101E0,9.027165413E0
3.637397812E1,1.913924813E-1,2.544911861E0,9.041817665E0
3.639397813E1,2.829946391E-2,2.915859938E0,8.943014145E0
3.641397812E1,1.091755927E-2,3.126195431E0,8.840456009E0
3.643397812E1,4.666873813E-1,3.096028328E0,9.302651405E0
3.645397969E1,9.194596410E-1,2.870197773E0,1.040175247E1
3.647597969E1,7.368969917E-1,3.006600142E0,1.130642605E1
3.649598125E1,1.235676289E0,2.887215853E0,1.121621323E1
3.651797969E1,1.798629642E0,2.126644850E0,1.131666374E1
3.653797969E1,1.261926293E0,1.545074105E0,1.226336956E1
3.655797969E1,8.773217201E-1,8.409202099E-1,1.411901951E1
3.657797969E1,8.160492778E-1,4.188895226E-1,1.480877972E1
3.659797969E1,1.370728374E0,3.602124453E-1,1.283613873E1
3.661797969E1,2.979717970E0,4.782274067E-1,9.978334427E0
3.663797969E1,4.212999821E0,9.618370533E-1,7.989594936E0
3.665797969E1,3.973848104E0,1.329988599E0,7.111689091E0
3.667997969E1,2.933328152E0,1.490381002E0,7.044038296E0
3.669997969E1,2.460425377E0,1.265431404E0,8.287539482E0
3.671997969E1,2.253710032E0,1.248231411E0,9.603267670E0
3.673997969E1,1.659679770E0,1.532902002E0,9.614779472E0
3.675997969E1,1.315489411E0,1.863895655E0,8.747733116E0
3.677997969E1,1.530249238E0,2.120822191E0,8.426736832E0
3.679997969E1,1.244285822E0,2.287305355E0,8.530128479E0
3.681997969E1,7.802320719E-1,2.450724125E0,8.153367996E0
3.683997969E1,5.486265421E-1,2.736323595E0,7.280786514E0
3.686197969E1,4.648869336E-1,2.969327211E0,6.628271103E0
3.688197969E1,3.229778111E-1,3.119252205E0,6.651427746E0
3.690197969E1,2.195770293E-1,3.141326666E0,7.283171177E0
3.692197969E1,5.072834343E-2,3.224874735E0,7.898672581E0
3.694197969E1,-2.025494538E-2,3.407207489E0,8.583941460E0
3.696197969E1,7.422025315E-3,3.572043657E0,9.222972870E0
3.698397812E1,1.643284261E-1,3.628288031E0,1.020989132E1
3.700397812E1,3.587376177E-1,3.621584415E0,1.115087032E1
3.702397969E1,3.763684928E-1,3.831469774E0,1.163690281E1
3.704397969E1,-8.734047413E-2,4.510560989E0,1.112824059E1
3.706397969E1,1.452724934E0,3.105538130E0,1.104357147E1
3.708397969E1,2.021194696E0,1.483792067E0,1.299074745E1
3.710397969E1,1.982686371E-1,9.230509400E-1,1.501905632E1
3.712597969E1,-1.693256140E0,1.183042169E0,1.338242912E1
3.714597969E1,-1.333905458E0,1.448951602E0,1.085870075E1
3.716599844E1,-1.481790543E0,1.807028532E0,1.003183842E1
3.718797969E1,-1.725960851E0,1.708109736E0,1.060393810E1
3.720797969E1,-1.622062087E0,1.735384345E0,1.051025772E1
3.722997969E1,-1.227459311E0,1.821566105E0,9.810394287E0
3.724997969E1,-1.083634853E0,1.996505618E0,9.202985764E0
3.726997969E1,-1.205049515E0,2.255970001E0,8.493813515E0
3.728997969E1,-9.039739370E-1,2.446194172E0,8.032748222E0
3.730997969E1,-5.149640441E-1,2.342841387E0,7.868390560E0
3.732997969E1,-3.776134849E-1,2.292457819E0,7.918170929E0
3.734997969E1,-4.752011299E-1,2.375919580E0,7.195744514E0
3.736997969E1,-4.036336541E-1,2.392688513E0,6.458885670E0
3.738997969E1,-2.531054318E-1,2.390964746E0,6.495555401E0
3.740997969E1,-2.965649664E-1,2.477586985E0,6.934661388E0
3.743197969E1,-5.483296514E-1,2.562121391E0,7.437846184E0
3.745197969E1,-7.591343522E-1,2.511910200E0,8.154086113E0
3.747197969E1,-9.805309176E-1,2.746896267E0,8.496954918E0
3.749197969E1,-1.127649903E0,3.119089365E0,8.131188393E0
3.751197969E1,-6.856035590E-1,3.117030382E0,8.334791183E0
3.753397969E1,2.625002712E-2,3.121004581E0,9.405027390E0
3.755397969E1,2.454344034E-1,3.375403166E0,1.037129879E1
3.757397969E1,-9.640684128E-1,4.459334850E0,1.081457996E1
3.759397969E1,-1.096956134E0,4.760534763E0,1.045330429E1
3.761597813E1,4.788403213E-1,4.097168446E0,1.056356239E1
3.763597969E1,1.577731133E0,2.610570669E0,1.135446262E1
3.765797969E1,1.211494803E0,1.811864853E0,1.386890125E1
3.767797969E1,1.112738729E0,1.304811120E0,1.486088657E1
3.769797969E1,1.584817886E0,1.462186933E0,1.322697735E1
3.771797969E1,2.281502008E0,1.757248282E0,1.066884041E1
3.773798438E1,2.092225790E0,2.142226219E0,9.397595406E0
3.775997969E1,1.166598797E0,2.533611298E0,8.956287384E0
3.778197812E1,6.827114224E-1,2.644635201E0,8.440739632E0
3.780197813E1,2.114654630E-1,2.754423857E0,7.801199913E0
3.782197812E1,-1.640890092E-1,2.699309111E0,7.058460712E0
3.784197813E1,-5.722716451E-1,3.055757999E0,7.009887218E0
3.786197812E1,-5.565273762E-1,3.148557186E0,6.835139275E0
3.788197812E1,-4.739657640E-1,3.269617558E0,6.661808491E0
3.790197812E1,-4.731612802E-1,3.488074303E0,6.415646553E0
3.792197969E1,-5.175785422E-1,3.571248770E0,6.642118454E0
3.794397812E1,-5.593429804E-1,3.460243940E0,7.167531013E0
3.796397813E1,-4.874020219E-1,3.432681799E0,7.677831650E0
3.798397812E1,-2.913647890E-1,3.508415222E0,8.236274719E0
3.800397812E1,-2.217413783E-1,3.740260363E0,8.671607018E0
3.802397812E1,-1.302924454E-1,3.996353626E0,8.728110313E0
3.804397812E1,5.508100390E-1,4.044610977E0,8.821004868E0
3.806397813E1,8.945695162E-1,4.176943302E0,9.408121109E0
3.808397969E1,5.026770234E-1,4.211764812E0,9.676491737E0
3.810597812E1,1.414494365E-1,4.396434307E0,9.868535042E0
3.812597812E1,3.692433834E-1,4.017700195E0,1.026346397E1
3.814597812E1,7.043358088E-1,3.242314100E0,1.152771664E1
3.816599844E1,2.547239065E-1,2.439375401E0,1.266474342E1
3.818797969E1,-8.795339465E-1,2.372787952E0,1.308403397E1
3.820797969E1,-2.248998165E0,3.026692390E0,1.107779884E1
3.822798594E1,-2.372720957E0,3.184173346E0,9.103789330E0
3.824997969E1,-1.431225061E0,2.702536583E0,8.924215317E0
3.826997969E1,-1.314378381E0,2.059291363E0,1.031290913E1
3.829197969E1,-1.901886821E0,1.761720657E0,1.055476189E1
3.831197969E1,-1.330831409E0,1.660761952E0,1.012238789E1
3.833397812E1,-5.265328288E-1,1.466017604E0,9.809073448E0
3.835397969E1,-4.937514365E-1,1.444172859E0,1.010780239E1
3.837597812E1,-4.506749511E-1,1.614927411E0,9.639468193E0
3.839597812E1,-1.798428446E-1,1.914815426E0,8.508705139E0
3.841597969E1,5.889736116E-3,2.104637384E0,7.612584591E0
3.843797969E1,-2.305137366E-2,2.345225811E0,6.821655273E0
3.845797969E1,-7.353072613E-2,2.575174570E0,6.375634670E0
3.847797969E1,9.963709861E-2,2.700764894E0,6.422637463E0
3.849797969E1,1.755045652E-1,2.795853138E0,6.751715660E0
3.851797969E1,1.451173574E-1,2.785874128E0,7.385776997E0
3.853797969E1,9.571061283E-2,2.784925699E0,7.996806145E0
3.855798594E1,5.214571208E-2,2.963878155E0,8.097324371E0
3.857997969E1,-3.504728079E-1,3.273620605E0,8.781367302E0
3.859997969E1,-6.870592833E-1,3.187084675E0,1.027144146E1
3.861997969E1,-2.068590373E-2,2.965276480E0,1.073305321E1
3.863997969E1,1.774773896E-1,3.412886620E0,9.811180115E0
3.865997969E1,-3.979929388E-1,3.819192171E0,9.641785622E0
3.867997969E1,-1.023233891E0,4.249382496E0,1.083507538E1
3.869997969E1,-7.820802927E-1,4.050443172E0,1.142513084E1
3.871997969E1,2.275736481E-1,3.735433578E0,1.135633087E1
3.873997969E1,1.720052004E0,2.738813400E0,1.186223507E1
3.875997969E1,1.841035724E0,1.974316120E0,1.316903782E1
3.877997969E1,1.751971483E0,1.235120773E0,1.407070446E1
3.879997969E1,1.660790682E0,1.269223809E0,1.315310287E1
3.881997969E1,2.693266153E0,1.205854058E0,1.139594078E1
3.883997969E1,3.474609137E0,1.176146865E0,1.013957787E1
3.885997969E1,2.920638561E0,1.301698685E0,9.563168526E0
3.887997969E1,2.240838528E0,1.392122984E0,9.712874413E0
3.889997969E1,1.386865258E0,1.689865828E0,9.563811302E0
3.891997969E1,8.377886415E-1,2.011991262E0,8.768342972E0
3.893997969E1,6.130401492E-1,2.267165184E0,7.998606682E0
3.895997969E1,2.470145673E-1,2.579570293E0,7.646591663E0
3.897997969E1,2.026643902E-1,2.871557713E0,7.121476650E0
3.899997969E1,2.781775296E-1,3.107022762E0,6.612210274E0
3.901997969E1,3.960296810E-1,3.193491459E0,6.790157318E0
3.903997969E1,2.521956265E-1,3.245263577E0,7.216344357E0
3.905997969E1,1.322939992E-1,3.310184956E0,7.163642883E0
3.907997969E1,2.226607502E-1,3.369523048E0,7.343284607E0
3.909997969E1,3.183905482E-1,3.434530258E0,7.771952152E0
3.911997969E1,2.787425518E-1,3.582568645E0,8.185268402E0
3.913997969E1,5.105395988E-2,3.837100744E0,8.495173454E0
3.915997969E1,-9.409212321E-2,3.978128910E0,8.797206879E0
3.917997969E1,2.190503031E-1,3.868024349E0,9.413914680E0
3.919997969E1,4.797980189E-3,3.877706528E0,1.021764851E1
3.921997969E1,-5.335621834E-1,4.143999100E0,1.087117958E1
3.924197812E1,-1.260212064E-1,3.727168798E0,1.083939362E1
3.926197813E1,1.388780594E0,2.449249268E0,1.167106247E1
3.928197969E1,9.313540459E-1,1.414159179E0,1.360311604E1
3.930197969E1,-1.423113495E-1,9.348591566E-1,1.459829998E1
3.932397969E1,-1.399506688E0,1.661250353E0,1.233166122E1
3.934597969E1,-1.487680316E0,2.317261696E0,9.124015808E0
3.936599844E1,-1.809212089E0,2.800698757E0,7.632600307E0
3.938798594E1,-1.487996340E0,2.688707829E0,8.247143745E0
3.940997969E1,-8.318701982E-1,2.394804955E0,9.221813202E0
3.942997969E1,-8.787582517E-1,2.389307976E0,9.113021851E0
3.944997969E1,-7.862558365E-1,2.311802626E0,8.965845108E0
3.946997969E1,-5.836009979E-1,2.104713917E0,9.444455147E0
3.948997969E1,-5.210644603E-1,1.962699413E0,1.007611275E1
3.950997969E1,-8.061659932E-1,2.009472609E0,1.009620476E1
3.953197812E1,-1.035731673E0,2.280505896E0,8.873074532E0
3.955197813E1,-8.550364375E-1,2.531676769E0,7.836844921E0
3.957197812E1,-6.049764156E-1,2.767850399E0,7.360733986E0
3.959197813E1,-5.506567955E-1,2.969461441E0,7.058710098E0
3.961197812E1,-3.617734611E-1,3.077497244E0,7.181886673E0
3.963197812E1,-3.244334757E-1,3.108009100E0,7.475693703E0
3.965197812E1,-2.408183962E-1,3.042225838E0,7.680321217E0
3.967197812E1,-3.563434184E-1,3.048671246E0,7.944507122E0
3.969197813E1,-4.845289588E-1,3.074260235E0,8.286973953E0
3.971197812E1,-4.577043056E-1,3.024623871E0,8.989709854E0
3.973197813E1,-8.429504931E-2,2.757737398E0,9.976897240E0
3.975197969E1,1.950891316E-1,2.829027176E0,1.111474609E1
3.977397969E1,2.535268068E-1,3.166647673E0,1.151820660E1
3.979397969E1,-4.053575099E-1,4.126243591E0,1.083865643E1
3.981397969E1,-2.486522049E-1,4.197916508E0,1.026177788E1
3.983597969E1,1.109904051E0,3.355981112E0,1.046420288E1
3.985597969E1,1.623709202E0,2.339872599E0,1.118254948E1
3.987797969E1,1.599729061E0,1.539653659E0,1.281489754E1
3.989797969E1,1.636724114E0,9.041942358E-1,1.264392281E1
3.991798125E1,2.048383236E0,9.927126169E-1,1.106761932E1
3.993798594E1,2.629063129E0,1.307281971E0,9.985535622E0
3.995997969E1,2.345034361E0,1.691867471E0,1.018210793E1
3.997997969E1,1.683210015E0,2.028338909E0,1.023368931E1
3.999997969E1,9.862387180E-1,2.380889893E0,9.064849854E0
4.001997969E1,7.452096343E-1,2.540200233E0,7.577734470E0
4.003997969E1,3.363853395E-1,2.791964769E0,6.892293930E0
4.005997969E1,-1.858762354E-1,2.964778423E0,6.797847271E0
4.007997969E1,-5.224914551E-1,3.111054420E0,6.646083355E0
4.009997969E1,-4.526381791E-1,3.056332588E0,6.512065887E0
4.011997969E1,-3.276225626E-1,2.966597795E0,6.555257320E0
4.013997969E1,-3.143299520E-1,2.893325567E0,7.114303112E0
4.015997969E1,-5.134987831E-1,2.923569441E0,7.598822594E0
4.017997969E1,-5.586822033E-1,2.926222086E0,8.079261780E0
4.019997969E1,-1.497716755E-1,2.877121925E0,8.744505882E0
4.021997969E1,8.358637244E-2,3.127191305E0,9.301732063E0
4.023997969E1,-1.717887521E-1,3.460205555E0,9.384245872E0
4.025997969E1,-3.556538820E-1,3.757163286E0,9.837564468E0
4.027997969E1,-2.879075408E-1,3.603129864E0,1.075097179E1
4.029997969E1,2.056715041E-1,3.077104807E0,1.140688705E1
4.031997969E1,8.803287745E-1,2.736505508E0,1.180925560E1
4.033997969E1,5.123782754E-1,3.157233953E0,1.187523079E1
4.035997969E1,-3.943729028E-2,3.414543390E0,1.183859921E1
4.037997969E1,-4.687272310E-1,3.269905090E0,1.237501526E1
4.039997969E1,-5.416163206E-1,2.675041437E0,1.290896130E1
4.042197969E1,-7.964838743E-1,2.291538239E0,1.239649582E1
4.044397812E1,-1.398146749E0,2.280036688E0,1.046144485E1
4.046397969E1,-1.686724782E0,2.031192780E0,8.860691071E0
4.048397969E1,-1.145979881E0,1.471380591E0,9.031331062E0
4.050397969E1,-6.093435287E-1,8.661264181E-1,1.032577038E1
4.052397969E1,-7.809215784E-1,6.719087362E-1,1.102184200E1
4.054397969E1,-8.034558296E-1,7.695059776E-1,1.068673897E1
4.056397969E1,-4.884171486E-1,1.021366477E0,9.883848190E0
4.058397969E1,-7.048530132E-2,1.366754055E0,9.031197548E0
4.060397969E1,7.884585112E-2,1.762697458E0,8.233965874E0
4.062597969E1,2.059205025E-1,2.227048159E0,6.988540649E0
4.064597969E1,3.952539563E-1,2.482653141E0,5.982755661E0
4.066599844E1,7.202811837E-1,2.568892241E0,5.569315434E0
4.068797969E1,6.848949194E-1,2.509975910E0,6.249747753E0
4.070798281E1,7.524018288E-1,2.385764599E0,7.305475712E0
4.072997969E1,1.149446607E0,2.142044544E0,7.788165569E0
4.074998125E1,9.552289844E-1,2.058055639E0,7.551532269E0
4.077198281E1,2.247963846E-1,2.161667347E0,7.963363647E0
4.079397812E1,-2.371792048E-1,2.280630350E0,9.041874886E0
4.081397969E1,1.532576382E-1,2.414092779E0,1.003272057E1
4.083397969E1,7.837754488E-1,2.537518501E0,1.030557346E1
4.085397969E1,7.132326365E-1,2.955852747E0,1.083602238E1
4.087597812E1,-2.680643797E-1,3.988701582E0,1.127745628E1
4.089597812E1,-1.011042714E0,4.648333073E0,1.054951382E1
4.091597969E1,-9.656773210E-1,4.923867226E0,9.838416100E0
4.093797969E1,-3.314628601E-1,4.611395359E0,1.084512138E1
4.095798281E1,4.477348626E-1,3.695708990E0,1.231229687E1
4.097997969E1,5.734974742E-1,2.832225561E0,1.286435223E1
4.100197969E1,8.308742046E-1,2.251497746E0,1.291066647E1
4.102397969E1,1.810447335E0,1.910592198E0,1.258429813E1
4.104597813E1,2.107452869E0,1.502189159E0,1.220484543E1
4.106600000E1,1.504391789E0,1.490007401E0,1.197266483E1
4.108600938E1,9.381343722E-1,1.738698006E0,1.138670826E1
4.110799062E1,3.187544346E-1,2.105805635E0,9.732812881E0
4.112997969E1,-3.998221159E-1,2.556614637E0,7.812088490E0
4.114997969E1,-9.448190331E-1,2.933768511E0,6.095350266E0
4.116997969E1,-1.217106819E0,3.255721569E0,5.001947403E0
4.118997969E1,-1.201812625E0,3.594941616E0,4.277777672E0
4.120997969E1,-1.057988167E0,3.779850721E0,4.307436943E0
4.122997969E1,-8.821388483E-1,3.703849077E0,5.128332138E0
4.124997969E1,-8.913708329E-1,3.633842707E0,5.552575111E0
4.126997969E1,-1.090683341E0,3.378783703E0,6.050262928E0
4.128997969E1,-1.299888730E0,3.173648357E0,6.996000767E0
4.130997969E1,-1.492123842E0,3.194698334E0,8.050981522E0
4.132997969E1,-1.446346760E0,3.389538288E0,9.185182571E0
4.134997969E1,-1.248231411E0,3.740183592E0,1.029654217E1
4.136997969E1,-9.858652353E-1,3.860630989E0,1.103273010E1
4.138997969E1,-6.900663972E-1,3.895576954E0,1.115642452E1
4.140997969E1,5.169560388E-2,3.823770046E0,1.076955986E1
4.142997969E1,7.155311108E-1,3.930139542E0,1.093675232E1
4.144997969E1,4.346721172E-1,4.504939556E0,1.102893829E1
4.146997969E1,1.421198100E-1,4.654203415E0,1.038378716E1
4.148997969E1,-5.474102497E-1,4.798497677E0,9.626960754E0
4.150997969E1,-1.063868284E0,4.327184677E0,9.234493256E0
4.152997969E1,-1.946505070E0,4.009368420E0,9.535655022E0
4.154997969E1,-2.212548733E0,3.416870594E0,1.006297398E1
4.156997969E1,-1.934036136E0,2.659891129E0,1.072764301E1
4.158997969E1,-1.208114147E0,1.722034335E0,1.179776382E1
4.160998125E1,-3.978876173E-1,9.313731790E-1,1.321413612E1
4.163197812E1,-1.699595898E-1,7.135678530E-1,1.291555977E1
4.165197969E1,-4.130572379E-1,9.255408645E-1,1.150635147E1
4.167397969E1,-3.348530531E-1,1.077936649E0,9.771990776E0
4.169597969E1,4.631343856E-2,1.460367322E0,8.409183502E0
4.171797969E1,6.952761672E-3,2.005507708E0,7.092525959E0
4.173797969E1,1.735604703E-1,2.321743727E0,5.755928993E0
4.175797969E1,5.161802769E-1,2.750621796E0,4.876126766E0
4.177997969E1,9.286725521E-1,2.993058681E0,4.225201130E0
4.179997969E1,1.072334170E0,3.198567390E0,4.412638187E0
4.181997969E1,1.135598660E0,3.091853142E0,4.896678925E0
4.183997969E1,8.953069448E-1,2.865897655E0,6.244671822E0
4.185997969E1,-3.055959195E-2,2.793535471E0,7.892677307E0
4.187997969E1,-8.297345638E-1,2.982121944E0,8.271076202E0
4.189997969E1,-5.203749537E-1,3.208086729E0,7.748211384E0
4.191997969E1,3.369599581E-1,3.313575268E0,7.533624172E0
4.193997969E1,4.076654911E-1,3.405503035E0,8.200869560E0
4.195997969E1,1.704863161E-1,3.327978849E0,8.994057655E0
4.197997969E1,-2.543312609E-1,3.288388252E0,9.638758659E0
4.199997969E1,-7.541831136E-1,3.474829435E0,9.403705597E0
4.201997969E1,-3.427347839E-1,3.480709553E0,9.271679878E0
4.203998125E1,1.431349516E0,3.175142288E0,1.045362091E1
4.206197812E1,3.052588224E0,2.483773708E0,1.209140778E1
4.208197969E1,2.900029659E0,2.372433662E0,1.313510704E1
4.210397969E1,2.823127747E0,1.645199537E0,1.294367695E1
4.212397969E1,4.007510662E0,4.610657990E-1,1.418324089E1
4.214397969E1,4.195675850E0,-4.887906611E-1,1.528297424E1
4.216397969E1,3.429952383E0,-1.076691628E0,1.499923325E1
4.218397969E1,2.419216394E0,-7.211143970E-1,1.361688805E1
4.220597969E1,1.667044282E0,-2.313756496E-1,1.095093441E1
4.222799375E1,7.135487199E-1,4.261200130E-1,9.185114861E0
4.224998125E1,-3.927927315E-1,1.113389969E0,7.789717197E0
4.226998125E1,-1.224997997E0,1.610215545E0,6.305197239E0
4.229197812E1,-1.676458359E0,2.267720699E0,5.104753971E0
4.231197812E1,-1.872208238E0,2.567723989E0,4.516958714E0
4.233197812E1,-1.705026031E0,2.603272915E0,4.874700069E0
4.235197969E1,-1.619198561E0,2.381445408E0,6.152935505E0
4.237198281E1,-1.714506984E0,2.088969707E0,7.417572498E0
4.239397813E1,-1.747240424E0,1.711385012E0,8.179033279E0
4.241397812E1,-1.717600346E0,1.597622037E0,8.884862900E0
4.243397812E1,-8.680513501E-1,1.272307515E0,9.864705086E0
4.245397813E1,2.247676551E-1,9.057839513E-1,1.080455399E1
4.247397812E1,6.327491999E-1,8.017894030E-1,1.160632324E1
4.249397969E1,5.497661829E-1,6.578786969E-1,1.222149944E1
4.251597813E1,6.558867693E-1,2.146066576E-1,1.247761250E1
4.253597812E1,7.242746949E-1,2.141469717E-1,1.247896194E1
4.255597969E1,6.281810999E-1,6.904973984E-1,1.256788254E1
4.257797969E1,4.397861362E-1,1.249505162E0,1.266593933E1
4.259797969E1,6.445190907E-1,1.258612633E0,1.261833382E1
