"Time (s)","Gyroscope x (rad/s)","Gyroscope y (rad/s)","Gyroscope z (rad/s)"
1.528291250E-1,-2.300867587E-1,-5.459913611E-1,6.724928021E-1
1.728291250E-1,-1.357517093E-1,-7.925016284E-1,6.933669448E-1
1.928306870E-1,1.307251584E-2,-5.602506995E-1,6.232571006E-1
2.148306870E-1,1.613556892E-1,-7.819075137E-2,4.368384480E-1
2.348306870E-1,2.790781483E-2,5.150466785E-2,1.624203324E-1
2.548369370E-1,-2.445729822E-1,-1.999449134E-1,-3.448770568E-2
2.748385000E-1,-5.167047381E-1,-6.318091750E-1,-2.063328177E-1
2.968306870E-1,-5.752255917E-1,-6.655464172E-1,-2.842268646E-1
3.168306870E-1,-4.048291147E-1,-5.669178367E-1,-1.646369100E-1
3.368306870E-1,-2.533519864E-1,-4.949055612E-1,8.438666910E-2
3.568353750E-1,-2.524967790E-1,-6.127153039E-1,1.409876943E-1
3.788306870E-1,-4.428423941E-1,-4.183030725E-1,-8.936085552E-2
3.988338120E-1,-5.711066127E-1,-1.401499361E-1,-5.366538167E-1
4.208306870E-1,-5.448394418E-1,-1.314058453E-1,-3.602708578E-1
4.408353750E-1,-2.174505740E-1,1.886526346E-1,-8.395033889E-3
4.628291250E-1,2.464404888E-2,6.758089662E-1,1.092925146E-1
4.828338120E-1,2.676113248E-1,8.724377155E-1,3.036174774E-1
5.048306870E-1,4.394215345E-1,6.787760258E-1,5.971120596E-1
5.268291250E-1,3.850021660E-1,2.274513096E-1,6.117728353E-1
5.468306870E-1,3.919835091E-1,-6.150540337E-2,3.177895546E-1
5.668494370E-1,5.375788808E-1,-1.691049486E-1,9.154251963E-2
5.888306870E-1,6.597693563E-1,-2.273989469E-1,5.656611919E-2
6.088306870E-1,7.441560030E-1,-3.491356671E-1,-1.509709805E-1
6.288306870E-1,7.203322649E-1,-4.195771515E-1,-4.269075394E-1
6.488306870E-1,4.385663271E-1,-1.301317513E-1,-1.434660703E-1
6.708306870E-1,2.265088260E-1,1.895602047E-1,1.500983140E-3
6.928306870E-1,6.124360487E-2,1.879021525E-1,1.743583940E-2
7.128306870E-1,-1.006182283E-1,-2.195624262E-2,6.841690838E-2
7.328306870E-1,-2.725855112E-1,-3.838677108E-1,5.976007506E-2
7.528306870E-1,-2.491632104E-1,-5.056917071E-1,-3.164282069E-2
7.728306870E-1,1.226442829E-1,-1.266759932E-1,-1.438151300E-2
7.948306870E-1,3.459067941E-1,1.488416791E-1,1.365894675E-1
8.168306870E-1,9.278170019E-2,-4.180063680E-2,2.332108915E-1
8.388306870E-1,-2.086890191E-1,-1.989326328E-1,1.343030781E-1
8.588306870E-1,-3.277553916E-1,-1.752659678E-1,5.806710571E-2
8.788306870E-1,-3.449643254E-1,-1.133765876E-1,7.298967242E-2
8.988306870E-1,-3.083647788E-1,-1.607448235E-2,1.350535750E-1
9.188306870E-1,-2.691995800E-1,1.408655196E-1,2.313433886E-1
9.388306870E-1,-1.778315902E-1,2.313608378E-1,3.371627033E-1
9.588306870E-1,1.705186628E-2,-9.232791513E-2,3.223448694E-1
9.788306870E-1,2.125985622E-1,-5.597794652E-1,1.434660703E-1
9.988306870E-1,1.562244147E-1,-8.078780174E-1,5.393067375E-3
1.018830687E0,-1.406037211E-1,-7.022157907E-1,6.154030934E-2
1.038830687E0,-6.625793576E-1,-5.939878821E-1,-3.389429301E-2
1.058832250E0,-1.643052936E0,-4.060333967E-1,-5.677381754E-1
1.080830687E0,-2.546627283E0,1.632999897E0,-1.740669250E0
1.100830687E0,-2.446270943E0,2.076488018E0,-2.041214943E0
1.120830687E0,-1.470108271E0,6.139544845E-1,-1.169318199E0
1.140830687E0,9.585348517E-2,-8.249124289E-1,-4.455127418E-1
1.160830687E0,1.741192818E0,-1.064807892E0,-6.008121371E-1
1.182829125E0,3.140772343E0,1.376384139E0,-1.176596284E0
1.202829125E0,3.189048052E0,8.232718110E-1,-1.274753571E0
1.222829125E0,1.828057885E0,-5.929406881E-1,-5.474573970E-1
1.242829125E0,4.116882682E-1,1.189948082E0,1.205498874E-1
1.262830687E0,-6.569942832E-1,2.078163624E0,9.076235890E-1
1.284835375E0,-1.370100856E0,1.656683922E0,1.616820693E0
1.306829125E0,-1.242011189E0,1.258190393E0,1.803972363E0
1.326829125E0,-4.285481572E-1,5.083445907E-1,1.310497880E0
1.346829125E0,5.815088153E-1,-2.245540619E-1,2.588148713E-1
1.366847875E0,1.354148626E0,-4.931776822E-1,-1.085245758E-1
1.388830687E0,1.376558661E0,-1.054178834E0,9.332275391E-2
1.408830687E0,9.282533526E-1,-1.297983885E0,2.324080467E-1
1.428846312E0,4.740139842E-1,-6.924942732E-1,2.027897984E-1
1.450832250E0,-1.942551509E-2,4.203276336E-1,-1.664520502E-1
1.472830687E0,-4.195073247E-1,7.563558817E-1,-5.610011816E-1
1.492830687E0,-4.914672673E-1,5.621705577E-2,-4.086164832E-1
1.514830687E0,-2.091602534E-1,-1.178585887E0,-3.201457560E-1
1.536830687E0,-5.126031861E-2,-1.571983099E0,-8.960345984E-1
1.558830687E0,-3.819304109E-1,-5.481380820E-1,-1.231120348E0
1.578830687E0,-6.786363721E-1,8.429939859E-3,-1.061456919E0
1.600830687E0,-8.652818799E-1,-2.734930813E-1,-6.913074851E-1
1.620830687E0,-6.403089166E-1,8.848819137E-2,-4.346916974E-1
1.640830687E0,-1.455080956E-1,8.480554819E-2,-3.716154993E-1
1.660830687E0,3.718947470E-1,-1.475675851E-1,-3.639186025E-1
1.682829125E0,8.145626187E-1,-4.023682177E-1,-3.127804399E-1
1.702829125E0,6.774669886E-1,1.905725002E-1,-4.884129465E-1
1.722829125E0,-4.874879122E-1,1.807113886E0,-6.694908738E-1
1.742829125E0,-6.375862360E-1,1.897469640E0,-3.094294071E-1
1.762829125E0,4.232423380E-2,5.482428074E-1,-2.863561809E-1
1.782829125E0,6.382669210E-1,2.343278974E-1,-4.848349988E-1
1.802829125E0,1.192653298E0,-1.586678773E-1,-9.044994116E-1
1.822829125E0,1.406787753E0,3.366914690E-1,-1.132125258E0
1.842830687E0,1.682724237E0,1.234558702E0,-7.764446139E-1
1.864829125E0,1.724943757E0,1.549433470E0,-8.843583614E-2
1.884838500E0,1.035817981E0,9.699143767E-1,3.322059810E-1
1.906829125E0,-7.894124091E-2,1.476373971E-1,3.441091180E-1
1.926829125E0,-9.350950718E-1,-4.864581525E-1,5.451884866E-1
1.946829125E0,-1.276865482E0,-5.830447078E-1,5.637413263E-1
1.966847875E0,-1.060723901E0,-3.003886044E-1,3.970449567E-1
1.988847875E0,-6.248627901E-1,2.009222955E-1,3.205995262E-1
2.010830687E0,-3.404090106E-1,3.209137022E-1,2.720793784E-1
2.030830687E0,-1.517389268E-1,1.826836169E-1,2.110452056E-1
2.050830687E0,1.982693933E-2,9.094911069E-2,2.034181207E-1
2.070830687E0,1.213178337E-1,9.313076735E-2,2.374869436E-1
2.090830687E0,7.948229462E-2,2.084097713E-1,2.390228361E-1
2.110872875E0,-5.084143952E-2,3.130946159E-1,2.275560200E-1
2.132829125E0,-1.832595766E-1,2.547657192E-1,2.537708580E-1
2.152832250E0,-1.941504180E-1,2.143438905E-1,3.370754421E-1
2.174836937E0,-3.843215108E-1,1.844638437E-1,5.404237509E-1
2.196829125E0,-5.352401137E-1,-1.634500772E-1,4.347091615E-1
2.216830687E0,-5.551543236E-1,-5.728519559E-1,3.242472708E-1
2.238829125E0,-1.680403054E-1,-5.853136182E-1,1.024682820E-1
2.258835375E0,4.430169165E-1,1.580046564E-1,4.265584797E-2
2.280829125E0,5.991366506E-1,3.555933833E-1,1.222254038E-1
2.300835375E0,1.450717598E-1,-6.588792205E-1,2.036275566E-1
2.322829125E0,-8.471827954E-2,-9.771051407E-1,1.647590846E-1
2.342830687E0,-1.009672955E-1,-8.264133930E-1,1.599594206E-1
2.364830687E0,-1.553866565E-1,-4.822344780E-1,6.250023842E-2
2.386830687E0,-2.561270595E-1,-2.722539008E-1,-5.693263933E-2
2.406830687E0,-2.367364615E-1,-8.155923337E-2,-1.159945801E-1
2.428836937E0,-2.080432475E-1,-1.883559376E-1,-1.122770309E-1
2.450830687E0,-2.173458487E-1,-4.515864849E-1,-1.592438370E-1
2.470830687E0,-1.746201962E-1,-5.454677343E-1,-3.226241171E-1
2.490830687E0,-1.038296372E-1,-5.051157475E-1,-4.710294604E-1
2.510830687E0,-1.162389293E-1,-4.469788074E-1,-4.625820518E-1
2.530830687E0,-3.083996847E-2,-3.641978502E-1,-2.403143793E-1
2.550830687E0,2.393369973E-1,-1.756499410E-1,-6.040584669E-2
2.570830687E0,3.098308444E-1,-1.410400569E-1,-4.440117627E-2
2.590833812E0,2.104867063E-2,-1.414065808E-1,-2.168222517E-1
2.612830687E0,-4.045847654E-1,-3.143337965E-1,-4.003087282E-1
2.632830687E0,-5.370029211E-1,-5.359207988E-1,-4.999321103E-1
2.652830687E0,-3.347890675E-1,-4.862836301E-1,-5.220977664E-1
2.672841625E0,1.727875904E-3,-1.914975196E-1,-4.877497256E-1
2.694830687E0,2.755176723E-1,-2.574360557E-2,-4.182681441E-1
2.714833812E0,4.114788175E-1,-8.929104358E-2,-3.426081240E-1
2.736829125E0,4.360530674E-1,-2.023883760E-1,-2.743483186E-1
2.756833812E0,3.900810778E-1,-1.901885271E-1,-2.195449620E-1
2.778830687E0,2.724808156E-1,-1.091877967E-1,-1.056273282E-1
2.800830687E0,7.876671106E-2,-1.930334233E-2,1.884955540E-2
2.820832250E0,-6.174974889E-2,9.517280012E-2,5.750859901E-2
2.842830687E0,-1.836609989E-1,2.253569067E-1,1.366592757E-2
2.862830687E0,-2.480636388E-1,2.668433785E-1,-1.609193534E-2
2.884829125E0,-1.793849468E-1,3.284535110E-1,4.262094200E-2
2.904829125E0,2.151990868E-2,4.099254906E-1,9.559167922E-2
2.924829125E0,2.126858234E-1,5.074370503E-1,1.453335732E-1
2.944829125E0,3.259925842E-1,6.738891006E-1,1.839053482E-1
2.964829125E0,2.996730208E-1,8.139168620E-1,1.621061862E-1
2.984829125E0,9.161233157E-2,7.209082246E-1,8.792968839E-2
3.004829125E0,-2.409252524E-1,3.996803984E-2,4.153883550E-3
3.024832250E0,-1.299397647E-1,-1.705186665E-1,-8.820894361E-2
3.046829125E0,1.372876018E-1,1.203753576E-1,-1.282118857E-1
3.066847875E0,-7.679448463E-3,5.082398653E-2,-1.604655683E-1
3.088829125E0,-4.762479961E-1,-4.049862027E-1,-1.156978756E-1
3.108877562E0,-5.683839321E-1,-6.443930268E-1,1.435184181E-1
3.130829125E0,-2.706656456E-1,-3.270048797E-1,4.693190455E-1
3.150829125E0,-7.693411410E-2,-7.173303049E-3,4.798433781E-1
3.170830687E0,-2.101899981E-1,6.862634420E-2,3.851941526E-1
3.192829125E0,-4.616395831E-1,-1.698903441E-1,3.555061221E-1
3.212829125E0,-4.641354084E-1,-3.995407820E-1,3.752632439E-1
3.232829125E0,-2.072578520E-1,-3.808657527E-1,3.759264648E-1
3.252829125E0,6.743951887E-2,-7.962191850E-2,3.715282381E-1
3.272836937E0,1.436755061E-1,5.391322076E-2,3.934670389E-1
3.294829125E0,7.737044245E-2,3.555235639E-2,4.013384581E-1
3.314832250E0,-2.392846346E-2,-2.324778587E-2,3.866602480E-1
3.336829125E0,-9.635962546E-2,-9.531243145E-2,3.295181692E-1
3.356829125E0,-7.586946338E-2,-1.869073063E-1,2.577153146E-1
3.376829125E0,-5.323254038E-3,-2.291442752E-1,2.041511685E-1
3.396829125E0,5.030038953E-2,-2.394940853E-1,2.204699963E-1
3.416829125E0,1.032187715E-1,-2.224945724E-1,2.329665422E-1
3.436829125E0,1.405164599E-1,-1.886875480E-1,2.264564633E-1
3.456833812E0,1.610764414E-1,-1.348790377E-1,1.869247556E-1
3.478829125E0,1.778490543E-1,-9.534733742E-2,1.478293836E-1
3.498835375E0,1.136383861E-1,-1.396612525E-1,6.147049740E-2
3.520830687E0,-1.642354764E-2,-2.705260217E-1,-5.194099993E-2
3.542829125E0,-1.520007253E-1,-3.534291685E-1,-1.299572140E-1
3.562829125E0,-1.952499896E-1,-2.167175263E-1,-1.288052946E-1
3.582829125E0,-1.616698503E-1,7.888887823E-2,-3.040363453E-2
3.602829125E0,-9.093165398E-2,1.408655196E-1,7.435102481E-3
3.622836937E0,-5.064945295E-2,-1.329940856E-1,-9.601055831E-2
3.644830687E0,-4.206243530E-2,-2.832494974E-1,-2.486745119E-1
3.664830687E0,-2.569124661E-2,-3.149621189E-1,-2.595653534E-1
3.686829125E0,2.772630155E-1,-2.188119292E-1,-6.853908300E-2
3.706829125E0,6.777637005E-1,1.080533341E-1,4.218460619E-2
3.726829125E0,6.983062029E-1,2.522873282E-1,-7.766715437E-2
3.746829125E0,2.227389216E-1,1.623156108E-2,-2.419724464E-1
3.766861937E0,-2.627069652E-1,-2.495646328E-1,-2.853613198E-1
3.788829125E0,-3.582637310E-1,-2.372426093E-1,-2.453932911E-1
3.808829125E0,-1.464505792E-1,3.352777660E-2,-1.693492979E-1
3.828843187E0,3.940953314E-2,1.869247556E-1,-9.559167922E-2
3.850830687E0,1.014734432E-1,1.219461560E-1,-4.537856206E-2
3.872829125E0,1.356818974E-1,3.675663471E-2,-3.728023171E-2
3.892829125E0,1.657364666E-1,6.852162629E-2,-2.611012571E-2
3.912829125E0,1.759990007E-1,1.005309671E-1,-1.883210242E-2
3.932829125E0,7.649777830E-2,1.478817463E-1,-1.726130582E-2
3.952829125E0,-1.223126724E-1,1.169370562E-1,4.468042869E-3
3.972829125E0,-3.134436905E-1,3.775146976E-2,7.330382941E-4
3.992829125E0,-4.022460282E-1,6.213372108E-3,-9.354964830E-3
4.012829125E0,-3.792774975E-1,-7.033676840E-3,1.176351868E-2
4.032830687E0,-2.515892088E-1,1.799434423E-2,8.815658092E-2
4.052830687E0,-5.351179466E-2,1.602735817E-1,1.701696068E-1
4.074830687E0,1.287005842E-1,3.683517277E-1,2.239082903E-1
4.094830687E0,1.566781998E-1,5.180311799E-1,2.258106917E-1
4.116830687E0,8.342673630E-2,5.843013525E-1,1.594009250E-1
4.138830687E0,3.541272879E-2,5.649805069E-1,2.082177810E-2
4.160830687E0,1.075646430E-1,5.747020245E-1,-7.330382615E-2
4.182829125E0,2.874033749E-1,7.863057256E-1,-2.227040194E-2
4.202829125E0,3.199886680E-1,9.400343299E-1,3.352777660E-2
4.222829125E0,1.293812543E-1,8.739910722E-1,-4.017747939E-2
4.242829125E0,-1.054702476E-1,5.078384280E-1,-9.508553892E-2
4.262829125E0,-1.112996489E-1,7.583455741E-2,4.007275775E-2
4.282829125E0,1.960528344E-1,6.611306965E-2,2.551147640E-1
4.302829125E0,4.884653091E-1,4.433310926E-1,3.182607889E-1
4.322829125E0,5.663768053E-1,6.538177729E-1,2.843839526E-1
4.342829125E0,3.849672675E-1,6.098878384E-1,2.822372019E-1
4.362829125E0,-3.347541392E-2,3.435331583E-1,2.918713987E-1
4.382829125E0,-4.138699174E-1,2.094394993E-3,3.096039593E-1
4.402829125E0,-4.660901725E-1,-1.371479779E-1,2.773328125E-1
4.422830687E0,-2.827607989E-1,-1.027300805E-1,2.191435397E-1
4.444829125E0,-7.885397226E-2,3.279473633E-2,1.568701863E-1
4.464829125E0,-3.366042078E-1,-2.894977629E-1,9.930923581E-2
4.484829125E0,-4.066268206E-1,-6.026796699E-1,-3.319616243E-2
4.504829125E0,-2.273989469E-1,-5.897118449E-1,-9.098401666E-2
4.524833812E0,1.823345423E-1,-2.623404264E-1,-1.766796857E-1
4.546829125E0,5.038241744E-1,-9.183922410E-2,-2.119527906E-1
4.566854125E0,4.866327047E-1,-2.040638924E-1,-3.736575246E-1
4.588838500E0,1.831897646E-1,-5.716651678E-1,-2.362826765E-1
4.608844750E0,-1.492780149E-1,-5.564807653E-1,-1.399230510E-1
4.630829125E0,-3.367089033E-1,-4.392993748E-1,-1.857903004E-1
4.650829125E0,-3.719471097E-1,-3.333753347E-1,-2.166826278E-1
4.670830687E0,-3.407929838E-1,-2.293711752E-1,-1.808335632E-1
4.690833812E0,-3.191159964E-1,-2.750289738E-1,-1.351931989E-1
4.712829125E0,-3.049788177E-1,-2.903355062E-1,-1.705012172E-1
4.732829125E0,-2.613804936E-1,-4.893903062E-2,-1.485275179E-1
4.752829125E0,-1.884257495E-1,1.785297245E-1,-5.047492310E-2
4.772830687E0,-1.086118370E-1,4.906120524E-2,-8.107054234E-2
4.792830687E0,-9.990264475E-2,-1.673596203E-1,-2.652900517E-1
4.814829125E0,-9.245008975E-2,-3.684913516E-1,-3.977256417E-1
4.834830687E0,1.337969452E-1,-3.846705556E-1,-3.378259242E-1
4.856833812E0,7.644541860E-1,-1.502728462E-2,-1.394343525E-1
4.878832250E0,1.227018833E0,3.165154457E-1,-1.498888731E-1
4.898858812E0,1.099592328E0,3.565533161E-1,-2.946464717E-1
4.920830687E0,5.501278043E-1,1.201659217E-1,-3.283662498E-1
4.940832250E0,1.137605608E-1,-1.059763953E-1,-3.138974607E-1
4.962830687E0,-9.323548526E-2,-8.368853480E-2,-3.203377426E-1
4.982830687E0,-1.501855850E-1,2.923426405E-2,-3.782128394E-1
5.004830687E0,-1.489464045E-1,-4.153883550E-3,-4.296302497E-1
5.026829125E0,-2.925171889E-2,-1.265363693E-1,-3.856654167E-1
5.046830687E0,1.148426607E-1,-8.600982279E-2,-3.667460382E-1
5.066849437E0,1.917767823E-1,6.888814270E-2,-3.215245605E-1
5.088832250E0,8.761552721E-2,2.194577008E-1,-2.278876454E-1
5.108841625E0,-1.050688177E-1,2.299994826E-1,-1.226268336E-1
5.130830687E0,-2.801602483E-1,2.806838453E-1,-5.427974090E-2
5.150830687E0,-3.247010410E-1,3.677408695E-1,1.213003788E-2
5.170830687E0,-2.027199864E-1,5.305277109E-1,1.241452694E-1
5.190830687E0,3.450515866E-2,7.837750316E-1,2.470338941E-1
5.210830687E0,2.375218570E-1,1.089451909E0,3.676187098E-1
5.230830687E0,3.626968563E-1,1.396595001E0,3.815115094E-1
5.250830687E0,4.495618939E-1,1.725572109E0,3.279997110E-1
5.272830687E0,3.763104379E-1,1.651814461E0,2.110103071E-1
5.292830687E0,1.443910897E-1,1.064144731E0,-9.400343150E-2
5.312830687E0,5.265658349E-2,7.465645671E-1,-3.243345320E-1
5.332830687E0,-2.446253449E-1,1.969604045E-1,-4.248131514E-1
5.352835375E0,-3.189763725E-1,1.255589873E-1,-5.872509480E-1
5.374830687E0,-2.256536186E-1,1.895427555E-1,-5.504419208E-1
5.396832250E0,-2.339090258E-1,-5.496216416E-1,-1.756673902E-1
5.418830687E0,-2.134537697E-1,-1.060217738E0,3.437426090E-1
5.438843187E0,7.489208132E-2,-8.708843589E-1,6.358234286E-1
5.460830687E0,3.696781993E-1,-2.443460971E-1,5.301437378E-1
5.480833812E0,2.572440803E-1,-3.258529678E-2,3.076666296E-1
5.502829125E0,-1.752834171E-1,-4.346219003E-1,1.998052895E-1
5.522829125E0,-5.276828408E-1,-9.428443313E-1,2.527934909E-1
5.542829125E0,-5.755921602E-1,-1.408882141E0,5.055869818E-1
5.562830687E0,-4.147076905E-1,-1.701608777E0,9.880657792E-1
5.584830687E0,-2.236988544E-1,-1.662583232E0,1.243843794E0
5.604835375E0,-1.303760987E-2,-1.574810624E0,1.259865880E0
5.626830687E0,1.736777127E-1,-1.215551972E0,1.058210611E0
5.646830687E0,2.626720369E-1,-6.840643287E-1,7.633721232E-1
5.666849437E0,1.189267337E-1,-8.143706620E-2,4.171162248E-1
5.688830687E0,-1.396263391E-1,4.221427739E-1,1.992642432E-1
5.708836937E0,-3.040538132E-1,4.558450878E-1,-6.654940546E-2
5.728838500E0,-5.910382867E-1,-4.180936217E-1,-3.961024582E-1
5.748843187E0,-8.588241339E-1,2.350958437E-2,-1.710946262E-1
5.770835375E0,-8.025547266E-1,8.799950033E-2,-8.339183033E-2
5.792830687E0,-2.279923558E-1,3.546683490E-1,-3.560471535E-2
5.812838500E0,3.797836602E-2,4.256159961E-1,5.899212882E-2
5.834830687E0,-4.823741019E-1,-2.686236203E-1,-6.574655324E-2
5.856829125E0,-8.900306225E-1,-5.653296113E-1,-1.577952206E-1
5.876830687E0,-6.911329031E-1,5.897467583E-2,-1.009672955E-1
5.896830687E0,-4.288448393E-1,3.826459944E-1,1.661553420E-2
5.918833812E0,-5.337914824E-1,4.241499007E-1,1.301143020E-1
5.940830687E0,-7.443829179E-1,2.142042518E-1,1.244419739E-1
5.960838500E0,-4.447098970E-1,4.889365435E-1,7.197737694E-2
5.982830687E0,2.212379426E-1,8.533089161E-1,1.071981192E-1
6.002830687E0,4.762305319E-1,5.931676030E-1,1.528908405E-2
6.022830687E0,3.113318384E-1,-1.234122291E-1,-2.508387268E-1
6.042830687E0,2.015680820E-1,-4.878893495E-1,-7.858519554E-1
6.062830687E0,3.880390525E-1,-5.328839421E-1,-1.181553006E0
6.084830687E0,5.950525403E-1,-4.026125371E-1,-1.097567797E0
6.104830687E0,5.816309452E-1,-4.772951901E-1,-7.844033241E-1
6.124830687E0,4.151090980E-1,-5.218185186E-1,-5.688202381E-1
6.146829125E0,2.164033800E-1,-2.868448496E-1,-4.980122447E-1
6.166849437E0,2.301391214E-1,-1.953372508E-1,-3.131120801E-1
6.188836937E0,4.368908107E-1,-4.562814236E-1,-1.990548074E-1
6.210830687E0,4.732460380E-1,-5.154830217E-1,-2.099281996E-1
6.230830687E0,2.247111350E-1,-1.072504818E-1,-1.465203911E-1
6.250830687E0,-6.724753231E-2,2.873161137E-1,-3.380702808E-2
6.270830687E0,-6.035348400E-2,3.545112908E-1,1.919862255E-2
6.290830687E0,4.286528751E-2,2.362477630E-1,7.841764390E-2
6.310830687E0,3.356268257E-2,1.359960586E-1,1.299746633E-1
6.330830687E0,5.930628628E-2,-5.696754530E-2,8.482300490E-2
6.350830687E0,8.489281684E-2,-1.363800317E-1,4.000294581E-2
6.370830687E0,5.211552978E-2,8.204792440E-2,3.888593614E-2
6.390830687E0,1.167625282E-2,2.946464717E-1,6.393141299E-2
6.412830687E0,-1.820378378E-2,1.559102684E-1,9.248499572E-2
6.432830687E0,-2.909463830E-2,-9.313076735E-2,1.110029370E-1
6.452830687E0,-1.041961536E-1,-3.971496820E-1,2.090729922E-1
6.474829125E0,-2.509608865E-1,-6.565230489E-1,1.551946700E-1
6.494830687E0,-1.736777127E-1,-8.017344475E-1,7.970918715E-2
6.514830687E0,3.364994749E-2,-4.482878149E-1,1.896649301E-1
6.536830687E0,2.686934471E-1,8.333947510E-2,3.326772153E-1
6.556830687E0,1.773429066E-1,-8.051203936E-2,3.690673113E-1
6.576830687E0,-3.768165782E-2,-3.686135411E-1,3.344923556E-1
6.598830687E0,-2.941228747E-1,2.851868048E-2,3.229033649E-1
6.618830687E0,-4.420046210E-1,4.764923453E-1,3.404613733E-1
6.638838500E0,-4.872610271E-1,6.081250906E-1,4.081103504E-1
6.660830687E0,-3.648087084E-1,2.973866463E-1,4.738045335E-1
6.680830687E0,-1.271297783E-1,-9.988519549E-2,4.711516201E-1
6.702830687E0,6.272713095E-2,-3.135483861E-1,4.919210374E-1
6.724830687E0,8.902924508E-2,-3.259925842E-1,4.944866896E-1
6.746830687E0,-2.836159989E-2,-8.981464058E-2,4.055970609E-1
6.766863500E0,-1.798038185E-1,1.033583954E-1,3.244392574E-1
6.788841625E0,-1.933650225E-1,6.455972791E-2,3.290818334E-1
6.810830687E0,-6.679374725E-2,-1.296779662E-1,2.597748041E-1
6.830830687E0,4.305727407E-2,-1.608669907E-1,1.322436035E-1
6.850830687E0,9.738937020E-2,5.600761622E-2,4.361577705E-2
6.870830687E0,1.214749143E-1,2.481509149E-1,-2.809980139E-2
6.890830687E0,1.476897597E-1,2.011841089E-1,-1.023112014E-1
6.912830687E0,1.015781611E-1,-1.802925020E-2,-2.180788964E-1
6.932830687E0,3.272492439E-2,-1.286656708E-1,-2.791130543E-1
6.952830687E0,4.579744115E-2,-1.032711342E-1,-2.439795732E-1
6.974829125E0,1.644798219E-1,4.904375412E-3,-2.419549972E-1
6.994830687E0,1.776919663E-1,1.799085438E-1,-2.118131518E-1
7.014830687E0,-3.991568089E-2,1.299223155E-1,-1.225744709E-1
7.036830687E0,-5.235289335E-1,-4.103792608E-1,-1.714960486E-1
7.058832250E0,-7.567747831E-1,-5.625894070E-1,-3.145257831E-1
7.078832250E0,-3.485073447E-1,-1.660157144E-1,-3.003537059E-1
7.100872875E0,2.838603556E-1,7.965682447E-2,-7.782422751E-2
7.122830687E0,5.395510793E-1,-3.004409671E-1,4.731587693E-2
7.142830687E0,5.944765806E-1,-6.115982533E-1,-1.044754088E-1
7.162830687E0,4.548502564E-1,-4.995830357E-1,-3.322234154E-1
7.182830687E0,2.354449183E-1,-2.075196430E-2,-4.382521808E-1
7.202830687E0,8.787732571E-2,4.119675159E-1,-4.931427836E-1
7.224830687E0,7.113961875E-2,4.314628541E-1,-5.532519221E-1
7.246830687E0,1.257858723E-1,1.780061275E-1,-5.591860414E-1
7.266863500E0,1.896998286E-1,3.988077492E-2,-4.555833042E-1
7.288830687E0,1.333606094E-1,4.153883550E-3,-3.165852726E-1
7.308830687E0,-8.484045416E-2,-4.656538367E-2,-2.597922683E-1
7.328830687E0,-3.694163859E-1,-7.068583276E-3,-2.504896522E-1
7.348846312E0,-5.343325734E-1,2.437875867E-1,-2.023883760E-1
7.370830687E0,-3.894702196E-1,5.954539776E-1,-1.241278127E-1
7.390830687E0,-2.812598050E-1,5.720316768E-1,-1.984439418E-2
7.410830687E0,-3.065147102E-1,4.425631464E-1,1.355073601E-1
7.430830687E0,-3.161664009E-1,4.593532085E-1,3.823492825E-1
7.450830687E0,-1.312836707E-1,5.027246475E-1,4.764399827E-1
7.470830687E0,9.478883445E-2,3.376688361E-1,4.611334503E-1
7.490830687E0,2.432116270E-1,1.066396199E-2,4.405210912E-1
7.510830687E0,3.366391063E-1,-3.524692357E-1,4.140444696E-1
7.530830687E0,3.200235665E-1,-7.394087315E-1,2.960253060E-1
7.550830687E0,1.262047589E-1,-9.418843985E-1,1.626821458E-1
7.570830687E0,-4.101523664E-3,-8.999441266E-1,1.314407438E-1
7.590830687E0,-1.309171468E-1,-8.219453692E-1,8.885471523E-2
7.610830687E0,-4.009195864E-1,-7.758861184E-1,6.679374725E-2
7.630830687E0,-7.183077335E-1,-2.947860956E-1,1.092227027E-1
7.650830687E0,-7.397927046E-1,1.136732921E-1,-2.247984149E-2
7.670830687E0,-7.634244561E-1,4.721115530E-1,-4.850269854E-2
7.690830687E0,-8.585798144E-1,7.750832438E-1,1.401499361E-1
7.710830687E0,-7.411889434E-1,6.511998177E-1,1.828930527E-1
7.730830687E0,-2.492679209E-1,4.436801374E-1,1.333955079E-1
7.750830687E0,1.769763827E-1,2.248682231E-1,1.804146916E-1
7.770830687E0,3.198141456E-1,3.961897455E-3,2.709099948E-1
7.790830687E0,3.481233716E-1,-1.193456128E-1,3.219957948E-1
7.810830687E0,3.392221928E-1,-1.871516556E-1,3.044028878E-1
7.830830687E0,2.699675262E-1,-1.733461022E-1,2.166128159E-1
7.850830687E0,2.108357698E-1,-1.737126261E-1,1.465203911E-1
7.870830687E0,1.903281510E-1,-1.636595279E-1,1.288576573E-1
7.890830687E0,1.498190612E-1,-1.654048562E-1,9.133307636E-2
7.910830687E0,8.895943314E-2,-2.259503305E-1,4.956734926E-2
7.930830687E0,-3.527310491E-2,-2.943672240E-1,-3.794345632E-2
7.950830687E0,-1.470789015E-1,-5.278050303E-1,-1.372876018E-1
7.970830687E0,-1.070584953E-1,-6.001139879E-1,-1.168672442E-1
7.990830687E0,-2.785545401E-2,-5.040860176E-1,-1.634151787E-1
8.010830687E0,-8.833111078E-2,-4.122991264E-1,-2.021440268E-1
8.030830687E0,-2.903006077E-1,-3.498512506E-1,-1.921956539E-1
8.050830687E0,-4.938409030E-1,-3.601661325E-1,-2.250078470E-1
8.070830687E0,-6.653892994E-1,-3.114714622E-1,-3.193254471E-1
8.090830687E0,-6.508332491E-1,1.401499379E-2,-3.264812827E-1
8.110830687E0,-5.586100817E-1,3.368136287E-1,-2.022138536E-1
8.130830687E0,-6.325247884E-1,2.286206782E-1,-2.114640921E-1
8.150830687E0,-7.653268576E-1,5.846852809E-2,-3.934844732E-1
8.170830687E0,-7.345741987E-1,3.173357546E-1,-4.196120501E-1
8.190830687E0,-3.837455511E-1,5.201604962E-1,-2.564761341E-1
8.210830687E0,1.201135591E-1,2.574709654E-1,-1.507615447E-1
8.230830687E0,4.164355695E-1,-2.919586897E-1,-1.006356850E-1
8.250830687E0,5.290092826E-1,-4.913450778E-1,-8.859290928E-2
8.272830687E0,5.171061754E-1,-1.867502332E-1,-1.560847908E-1
8.294830687E0,3.005980551E-1,2.369284481E-1,-2.357416153E-1
8.316829125E0,2.044653147E-1,3.658559024E-1,-3.069859743E-1
8.336830687E0,2.778215110E-1,2.666164935E-1,-2.924124599E-1
8.358830687E0,3.824016452E-1,1.710422635E-1,-2.103470862E-1
8.378830687E0,4.613079727E-1,1.747947186E-1,-1.685115397E-1
8.398830687E0,4.965985417E-1,2.004859746E-1,-1.354724616E-1
8.418830687E0,3.968355060E-1,1.586504281E-1,-9.555677325E-2
8.438830687E0,2.184628546E-1,9.248499572E-2,-8.190830052E-2
8.458840062E0,1.366941929E-1,1.273915768E-1,-6.789331138E-2
8.480829125E0,5.119050667E-2,1.666614860E-1,-1.057669520E-2
8.500829125E0,-3.139847144E-2,1.006880477E-1,5.490805954E-2
8.520830687E0,-8.946557343E-2,3.705333918E-2,1.298001409E-1
8.540830687E0,-1.140572652E-1,8.169886470E-2,1.837133616E-1
8.560830687E0,-1.495747175E-2,1.811826229E-1,2.255488932E-1
8.582829125E0,1.070934013E-1,2.260375917E-1,2.750813365E-1
8.602829125E0,1.541998386E-1,2.172585875E-1,2.745926380E-1
8.622830687E0,2.138551921E-1,1.056622341E-1,2.299296707E-1
8.644829125E0,2.646617293E-1,6.625270098E-2,1.928239763E-1
8.664830687E0,1.613556892E-1,2.330014557E-1,1.512153298E-1
8.684844750E0,-5.087634921E-2,2.780832946E-1,6.272713095E-2
8.706830687E0,-1.891936958E-1,1.090481728E-1,-4.188790172E-2
8.726830687E0,-9.461429715E-2,1.434660610E-2,-2.286381274E-2
8.746830687E0,2.236813903E-1,4.169591516E-2,1.059414819E-1
8.766863500E0,3.080680668E-1,-1.280897111E-1,1.947787404E-1
8.788836937E0,1.156106070E-1,-3.204075396E-1,2.077290863E-1
8.810830687E0,-7.791149616E-2,-2.981720567E-1,1.548979729E-1
8.832829125E0,-1.472534239E-1,-6.855653226E-2,1.456477195E-1
8.852829125E0,-1.040041670E-1,1.192583442E-1,1.961226463E-1
8.872829125E0,-3.490658492E-5,1.654397547E-1,2.531774640E-1
8.892829125E0,6.789331138E-2,1.514073163E-1,3.028844297E-1
8.912829125E0,1.324181259E-1,1.428028345E-1,3.291865587E-1
8.932829125E0,2.639112473E-1,1.150171980E-1,3.413340449E-1
8.952829125E0,2.981371284E-1,2.014109865E-2,3.015928864E-1
8.972829125E0,2.500707805E-1,-5.911429971E-2,2.255663574E-1
8.992830687E0,2.534218132E-1,-7.065092772E-2,1.421221644E-1
9.012830687E0,2.232101560E-1,-7.396705449E-2,1.121374071E-1
9.034829125E0,1.878672391E-1,-1.035154760E-1,6.916739792E-2
9.054830687E0,1.772730947E-1,-9.861110151E-2,-4.904375412E-3
9.074830687E0,1.469916254E-1,3.529055789E-2,-6.658431143E-2
9.094830687E0,1.257509738E-1,1.442863643E-1,-1.064650863E-1
9.116830687E0,1.059240326E-1,-2.881538495E-2,-1.122770309E-1
9.138830687E0,2.268928103E-3,-2.872637510E-1,-1.369210780E-1
9.158832250E0,-7.199483365E-2,-3.108431399E-1,-1.635722518E-1
9.180830687E0,-8.342673630E-2,-8.710937947E-2,-9.786061198E-2
9.200830687E0,-1.270774156E-1,1.219636053E-1,-4.492477328E-2
9.220830687E0,-3.276332021E-1,-2.696533687E-2,-6.058037654E-2
9.240830687E0,-7.996400595E-1,-2.179392576E-1,-2.400176823E-1
9.260830687E0,-1.146681309E0,-8.466592431E-2,-3.878296018E-1
9.280830687E0,-6.968052387E-1,3.654370308E-1,-2.354798168E-1
9.300830687E0,1.807463020E-1,4.867548645E-1,7.740534842E-2
9.320830687E0,6.627538800E-1,-2.363175713E-2,2.105041593E-1
9.340830687E0,6.703634858E-1,-4.158596098E-1,9.724974632E-2
9.360830687E0,4.023682177E-1,-2.833716571E-1,-1.382998824E-1
9.380830687E0,-5.881759524E-2,1.592089385E-1,-2.855882347E-1
9.400830687E0,-3.295356035E-1,4.051956236E-1,-3.495370746E-1
9.420830687E0,-2.778738737E-1,3.502526879E-1,-3.891386092E-1
9.440830687E0,-7.843509316E-2,1.785297245E-1,-3.551745117E-1
9.460830687E0,1.306553483E-1,5.583308265E-2,-3.074048460E-1
9.482830687E0,2.464928478E-1,1.114043668E-1,-2.240130156E-1
9.504830687E0,2.041686177E-1,1.272170544E-1,-1.604655683E-1
9.524830687E0,1.248434037E-1,7.843509316E-2,-1.410575062E-1
9.546830687E0,6.223843992E-2,2.204350755E-2,-9.669124335E-2
9.566847875E0,1.246165112E-2,4.548327997E-2,-4.832816496E-2
9.588830687E0,-6.977826357E-2,2.192133479E-2,9.791296907E-3
9.608830687E0,-1.387885809E-1,-3.988077492E-2,6.078981608E-2
9.628836937E0,-1.215621829E-1,-6.037093699E-2,1.010196581E-1
9.648836937E0,-6.344271451E-2,-5.759586580E-3,1.252797395E-1
9.668855687E0,5.358160939E-3,1.157851443E-1,1.153139025E-1
9.690830687E0,5.000368133E-2,1.899267286E-1,5.433209985E-2
9.712829125E0,9.300859272E-2,1.423141509E-1,1.710422686E-3
9.732829125E0,1.688955128E-1,3.066543490E-2,-4.087560996E-2
9.752829125E0,1.042659655E-1,1.766273193E-2,-1.015432552E-1
9.772829125E0,-2.855009437E-1,-4.968952388E-2,-1.800656170E-1
9.792829125E0,-5.894675255E-1,-1.572367102E-1,-2.516590357E-1
9.812829125E0,-2.164033800E-1,-3.886848316E-2,-2.001368999E-1
9.832829125E0,4.287575781E-1,2.822022736E-1,-3.996803891E-3
9.852829125E0,4.827929735E-1,2.299994826E-1,1.503601074E-1
9.872829125E0,5.544910952E-2,-2.242922634E-1,1.833119243E-1
9.892829125E0,-1.784773618E-1,-4.764748812E-1,1.105666086E-1
9.912829125E0,-1.689827740E-1,-2.652725875E-1,1.149648353E-1
9.932829125E0,-1.360658705E-1,5.230751634E-2,2.247634977E-1
9.952829125E0,-1.130449772E-1,1.456826329E-1,2.973168492E-1
9.972829125E0,-6.428047270E-2,1.134813055E-1,3.281742632E-1
9.992830687E0,-4.368559271E-2,6.843435764E-2,3.457671702E-1
1.001483069E1,-5.272639543E-2,1.005309671E-1,3.404090106E-1
1.003483069E1,-1.570796303E-4,1.202357337E-1,3.312809467E-1
1.005483069E1,9.506808221E-2,1.689478755E-2,3.223274052E-1
1.007682913E1,1.048768312E-1,-1.752834171E-1,2.722015381E-1
1.009683069E1,3.141592606E-4,-2.204874456E-1,1.883210242E-1
1.011683069E1,-1.206720620E-1,-1.345997900E-1,1.401150376E-1
1.013883069E1,-3.230429888E-1,-1.164134592E-2,1.444783509E-1
1.015883069E1,-3.724707067E-1,-5.103342608E-2,1.363974810E-1
1.018082912E1,8.290314116E-3,-1.686511636E-1,1.380380839E-1
1.020082912E1,2.691123188E-1,-3.082775176E-1,1.532573551E-1
1.022082912E1,1.456826329E-1,-3.597647250E-1,1.518959999E-1
1.024083069E1,-3.490658477E-2,-3.329564631E-1,1.151917279E-1
1.026282913E1,-1.059938446E-1,-1.673945338E-1,3.305653483E-2
1.028282913E1,-6.407103688E-2,3.385938704E-2,2.441715635E-2
1.030282912E1,1.355946362E-1,1.930508614E-1,2.050761878E-2
1.032282912E1,2.826735377E-1,1.582664549E-1,-3.501130641E-2
1.034282913E1,1.418603659E-1,-8.922123164E-2,-2.564761341E-1
1.036282913E1,6.141813472E-2,-1.692620367E-1,-5.215741992E-1
1.038282912E1,1.192234382E-1,-2.380629070E-2,-4.929333329E-1
1.040282912E1,2.183755934E-1,-6.595598906E-2,-3.285233378E-1
1.042282912E1,3.781430423E-1,-1.828756034E-1,-2.916619778E-1
1.044282913E1,4.705582261E-1,-2.539803088E-1,-3.860842884E-1
1.046282912E1,4.015304446E-1,-1.834864616E-1,-4.325973094E-1
1.048283069E1,2.142391652E-1,3.724532574E-2,-4.683241844E-1
1.050482912E1,1.260127686E-2,2.284810543E-1,-4.937711060E-1
1.052482912E1,-3.581415489E-2,2.002765238E-1,-4.832816720E-1
1.054482913E1,-9.145525284E-3,3.495894372E-2,-4.687081575E-1
1.056482913E1,8.133234084E-2,-4.605923966E-2,-4.555833042E-1
1.058483069E1,1.185253114E-1,9.930923581E-3,-4.195596874E-1
1.060683069E1,6.314601004E-2,1.003738865E-1,-3.300068676E-1
1.062683069E1,1.216494478E-2,1.165879965E-1,-2.883283794E-1
1.064883069E1,-1.371828746E-2,1.244594306E-1,-2.390403003E-1
1.066883694E1,-5.040510744E-2,1.118057892E-1,-1.890540570E-1
1.069083069E1,-5.420992523E-2,8.625417203E-2,-1.056796834E-1
1.071083069E1,8.237954229E-3,6.504841894E-2,-3.766420484E-2
1.073083069E1,1.300095767E-1,3.553490341E-2,3.628539667E-2
1.075083069E1,2.458121777E-1,-5.246459693E-2,3.518583626E-2
1.077083069E1,3.820176721E-1,-1.843765825E-1,1.186823845E-2
1.079083069E1,5.108404160E-1,-3.412293196E-1,3.342305496E-2
1.081083069E1,5.701466799E-1,-4.605574906E-1,1.254368126E-1
1.083083069E1,5.604601502E-1,-3.900461793E-1,1.684417278E-1
1.085083225E1,4.218809903E-1,-7.140141726E-2,1.834515631E-1
1.087282912E1,8.121016622E-2,2.787639797E-1,1.229409948E-1
1.089283069E1,-6.740461290E-2,2.106612474E-1,-1.499237865E-2
1.091283069E1,4.707851112E-1,-2.837905288E-2,-2.689552307E-2
1.093483069E1,9.458811879E-1,-2.220756859E-1,5.693263933E-2
1.095483069E1,5.834635496E-1,-3.971845806E-1,1.373748630E-1
1.097683069E1,-1.618792862E-1,-4.136081338E-1,1.073901057E-1
1.099883069E1,-5.213647485E-1,-1.642354876E-1,6.178465672E-3
1.101883069E1,-5.269148946E-1,1.273741275E-1,5.298819765E-2
1.103884788E1,-4.935092926E-1,3.298323154E-1,1.734333634E-1
1.106083069E1,-3.500955999E-1,3.508460820E-1,2.868099511E-1
1.108083069E1,-1.563465893E-1,2.558478117E-1,3.635520935E-1
1.110083069E1,-3.569198400E-2,1.787042618E-1,4.054050744E-1
1.112083069E1,-8.656833321E-3,1.163261905E-1,4.101000130E-1
1.114083069E1,-1.958259381E-2,5.443681777E-2,3.991218805E-1
1.116083069E1,-6.517059356E-2,-3.181735054E-2,3.500781357E-1
1.118083069E1,-1.016130671E-1,-1.087165624E-1,2.654994726E-1
1.120083069E1,-1.441467404E-1,-1.267458051E-1,1.861393601E-1
1.122083069E1,-1.561720669E-1,-6.871361285E-2,1.307600737E-1
1.124083069E1,-1.577254087E-1,-1.919862116E-4,8.246680349E-2
1.126083069E1,-6.576400250E-2,4.333652556E-2,4.523893446E-2
1.128083069E1,-9.215338156E-3,1.308996975E-2,9.325294197E-2
1.130083069E1,-1.632057428E-1,-1.847431064E-1,1.489114910E-1
1.132282912E1,-4.365243018E-1,-3.867649734E-1,1.393819898E-1
1.134282913E1,-5.854532719E-1,-2.867052257E-1,1.312313080E-1
1.136282913E1,-4.427376688E-1,-5.660102889E-2,1.037598252E-1
1.138282912E1,-1.736427993E-1,9.998991340E-2,1.892460436E-1
1.140282912E1,-1.722290963E-1,2.464404888E-2,1.747249067E-1
1.142282913E1,-4.453731179E-1,-3.434807956E-1,-7.489208132E-2
1.144282913E1,-3.714758754E-1,-4.066442549E-1,-3.406533599E-1
1.146282912E1,1.543220133E-1,-6.763150543E-2,-2.428102046E-1
1.148283069E1,6.351776719E-1,4.705407470E-2,-8.150687441E-3
1.150283069E1,7.841938734E-1,-1.231155246E-1,-1.192059834E-2
1.152482912E1,5.970247984E-1,-2.825338840E-1,-2.990621626E-1
1.154482913E1,2.807013094E-1,-1.124341115E-1,-5.353448391E-1
1.156482913E1,1.103048120E-2,2.595653534E-1,-6.395933628E-1
1.158482912E1,-1.368163526E-1,4.835783839E-1,-6.374117136E-1
1.160482912E1,-1.898045540E-1,3.908664882E-1,-6.241471767E-1
1.162482913E1,-1.943249553E-1,1.275312006E-1,-5.961869955E-1
1.164482913E1,-1.703790426E-1,-8.779006451E-2,-5.603728890E-1
1.166483069E1,-2.007128596E-1,-1.474279612E-1,-4.878544211E-1
1.168483069E1,-2.994112372E-1,-7.279768586E-2,-3.724707067E-1
1.170682912E1,-3.788237274E-1,-8.555603772E-2,-2.519033849E-1
1.172683069E1,-3.687706292E-1,-1.792976707E-1,-1.674294323E-1
1.174882912E1,-3.504446447E-1,-1.840449721E-1,-1.518436428E-2
1.176883069E1,-3.671823740E-1,-5.377359316E-2,1.411273181E-1
1.178883069E1,-3.337593079E-1,1.281769872E-1,2.737199962E-1
1.180883069E1,-2.473655194E-1,1.441816539E-1,3.204599023E-1
1.182884944E1,-1.900314540E-1,1.145459563E-1,3.462384045E-1
1.185083069E1,-1.344252527E-1,1.387536824E-1,3.709871769E-1
1.187282912E1,-2.556034625E-1,2.683967352E-1,3.612831533E-1
1.189282912E1,-4.472755194E-1,2.519906461E-1,3.087312877E-1
1.191282912E1,-6.684262156E-1,3.548254445E-2,1.987580955E-1
1.193282913E1,-7.294428945E-1,6.312856078E-2,1.632057428E-1
1.195282913E1,-6.061179638E-1,3.647214472E-1,1.965938807E-1
1.197282912E1,-3.994360566E-1,4.364370406E-1,3.098308444E-1
1.199282912E1,-1.947962046E-1,3.686484396E-1,4.590041339E-1
1.201282913E1,3.715806082E-2,2.656390965E-1,5.762029886E-1
1.203283069E1,3.755948693E-2,6.073745713E-2,6.116506457E-1
1.205283069E1,-3.201806545E-1,-6.792821735E-2,5.915095210E-1
1.207283069E1,-6.113364697E-1,-4.157374427E-2,4.980471432E-1
1.209483069E1,-5.210855007E-1,1.376366615E-1,5.203350186E-1
1.211483069E1,-2.516939342E-1,3.070034087E-1,6.372022629E-1
1.213483069E1,5.602506921E-3,2.340660989E-1,7.354642749E-1
1.215483069E1,2.625498772E-1,5.969025940E-2,7.889412045E-1
1.217483069E1,4.306250811E-1,-5.443681777E-2,7.810173631E-1
1.219483069E1,4.582361877E-1,-2.117084339E-2,7.463900447E-1
1.221483069E1,3.341083825E-1,1.344427168E-1,6.524040699E-1
1.223483069E1,1.808684766E-1,2.188468277E-1,5.725901723E-1
1.225483069E1,1.385616958E-1,1.937315464E-1,4.428249300E-1
1.227683069E1,1.658237278E-1,4.181808978E-2,2.734407187E-1
1.229683069E1,1.156280637E-1,-6.920230389E-2,1.684068143E-1
1.231883069E1,-9.573131055E-2,-5.958554149E-2,2.345722541E-2
1.233883069E1,-2.301216573E-1,5.415756628E-2,-1.466949284E-1
1.235883069E1,-9.782570601E-2,1.202706397E-1,-1.987755448E-1
1.237883069E1,-1.656317525E-2,-1.094670519E-1,-2.133839577E-1
1.239883225E1,-1.600117832E-1,-4.466646612E-1,-2.686410844E-1
1.242083069E1,-4.296127856E-1,-6.647784710E-1,-3.688055277E-1
1.244282913E1,-7.056016922E-1,-5.778436065E-1,-4.350582063E-1
1.246282912E1,-8.305673003E-1,-3.966958821E-1,-4.071678519E-1
1.248283069E1,-8.858243823E-1,-3.153286278E-1,-3.306875229E-1
1.250482912E1,-9.428966641E-1,-4.033281207E-1,-3.903254271E-1
1.252482912E1,-7.508057356E-1,-4.269075394E-1,-4.501204193E-1
1.254482913E1,-2.939134538E-1,-2.498089820E-1,-3.466747403E-1
1.256482913E1,1.907295734E-1,-4.441862926E-2,-1.201310083E-1
1.258482912E1,5.082049966E-1,-7.459536940E-2,-1.551597659E-2
1.260482912E1,6.560343504E-1,-2.715383172E-1,-8.346164227E-2
1.262482913E1,5.426403284E-1,-4.176747501E-1,-2.625149786E-1
1.264482913E1,2.890614271E-1,-1.714087874E-1,-3.700272441E-1
1.266483069E1,6.592108309E-2,3.305653632E-1,-4.016700685E-1
1.268483850E1,7.150614262E-2,6.392268538E-1,-3.598345220E-1
1.270683069E1,2.280796319E-1,5.631479621E-1,-2.847679257E-1
1.272683069E1,3.283487856E-1,3.367438316E-1,-2.153387219E-1
1.274883538E1,3.287676573E-1,1.020319462E-1,-1.839926094E-1
1.277083069E1,2.157576084E-1,-1.919862116E-3,-1.479166597E-1
1.279083069E1,5.578072369E-2,-1.174606569E-2,-1.307077110E-1
1.281083069E1,-7.471754402E-2,-2.211332135E-2,-1.286307722E-1
1.283282912E1,-7.545058429E-2,-1.703266799E-1,-1.112821922E-1
1.285283069E1,-6.300638616E-2,-3.174404800E-1,-4.192280769E-2
1.287482913E1,-1.648812592E-1,-3.934495747E-1,3.665191308E-2
1.289482913E1,-1.585631669E-1,-3.398156166E-1,9.574875981E-2
1.291482912E1,-6.951646507E-2,-1.728399545E-1,2.464404851E-1
1.293482912E1,-5.204571784E-2,7.504915702E-4,4.722337425E-1
1.295482913E1,-1.013163626E-1,-8.283332735E-2,6.063972116E-1
1.297482913E1,-7.232644409E-2,-4.394564629E-1,5.549798012E-1
1.299482912E1,1.244943365E-1,-6.066764593E-1,4.236088693E-1
1.301482912E1,3.525914252E-1,-1.738696992E-1,3.032684028E-1
1.303482913E1,1.618967354E-1,3.662922382E-1,2.266659141E-1
1.305482913E1,-3.450166881E-1,5.332853794E-1,1.003738865E-1
1.307482912E1,-4.972791970E-1,5.346990824E-1,-1.792453043E-2
1.309482912E1,-1.019970402E-1,6.703111529E-1,2.268928103E-2
1.311482912E1,3.222052455E-1,6.317743063E-1,2.535265386E-1
1.313482913E1,3.213674724E-1,8.913396299E-2,3.924547434E-1
1.315482913E1,5.106833205E-2,-7.356737256E-1,3.328866363E-1
1.317482912E1,-1.623505205E-1,-1.312016368E0,1.579697430E-1
1.319482912E1,-1.598023474E-1,-1.261960268E0,3.289945796E-2
1.321482913E1,-9.494590759E-2,-6.644817591E-1,6.679374725E-2
1.323482913E1,-8.548622578E-2,3.141592722E-3,2.056870461E-1
1.325482912E1,4.164355621E-2,3.279299140E-1,3.444581926E-1
1.327482912E1,3.149621189E-1,3.704112172E-1,4.030663371E-1
1.329482913E1,5.462182164E-1,2.310292274E-1,4.021413028E-1
1.331482913E1,6.465572119E-1,9.477137774E-2,3.979525268E-1
1.333483069E1,6.227160096E-1,4.750786349E-2,3.648959994E-1
1.335483069E1,5.429545045E-1,-7.988371700E-2,2.675240636E-1
1.337483069E1,4.794419408E-1,-2.120400518E-1,1.532050073E-1
1.339683069E1,3.262543976E-1,-2.829178572E-1,2.146754973E-2
1.341883069E1,6.351253390E-2,-3.584033549E-1,-9.409070015E-2
1.343883069E1,-2.701595128E-1,-4.901233613E-1,-1.399753988E-1
1.345883069E1,-5.231973529E-1,-6.306223869E-1,-9.855873883E-2
1.348082913E1,-4.088782966E-1,-6.780953407E-1,-1.428551972E-1
1.350083069E1,-8.667305112E-2,-6.252816319E-1,-2.075720131E-1
1.352083069E1,-6.885323673E-2,-6.429094672E-1,-1.992467940E-1
1.354083069E1,-3.382098973E-1,-5.193052888E-1,-1.934871972E-1
1.356283069E1,-6.079505086E-1,-8.038986474E-2,-1.989849806E-1
1.358483069E1,-9.165247679E-1,2.338566631E-1,-2.463357747E-1
1.360683069E1,-1.307094574E0,1.740791351E-1,-4.943470657E-1
1.362683069E1,-1.117429614E0,2.492679209E-1,-5.708797574E-1
1.364883069E1,-4.136081338E-1,1.974316388E-1,-3.879168928E-1
1.366883069E1,2.840348780E-1,-2.209237814E-1,-2.085493952E-1
1.368883069E1,5.669876337E-1,-7.250970602E-1,-2.573837042E-1
1.370883069E1,5.155004263E-1,-8.090648055E-1,-4.516737461E-1
1.373082913E1,1.860171854E-1,-1.682148278E-1,-7.017445564E-1
1.375083069E1,-1.433962435E-1,6.843785048E-1,-7.701789141E-1
1.377282913E1,-1.673770696E-1,1.181762457E0,-6.508507133E-1
1.379282912E1,4.647811875E-2,1.114218235E0,-5.431290269E-1
1.381282912E1,3.061830997E-1,7.984008789E-1,-4.399800599E-1
1.383282913E1,4.374667704E-1,4.222300649E-1,-3.418751061E-1
1.385283069E1,4.438895881E-1,1.346696019E-1,-2.444508076E-1
1.387482913E1,3.271096051E-1,2.083923109E-2,-1.654921174E-1
1.389483381E1,1.432391703E-1,2.471386269E-2,-1.306727976E-1
1.391682913E1,-1.043706909E-1,4.298745841E-2,-7.251843065E-2
1.393682913E1,-3.573386967E-1,-1.035329327E-1,-3.979350626E-2
1.395682912E1,-5.438271165E-1,-3.532895446E-1,-1.507964451E-2
1.397683069E1,-4.812570810E-1,-5.178566575E-1,6.443755329E-2
1.399883069E1,-1.965415329E-1,-4.996702969E-1,1.823869050E-1
1.401883069E1,3.391174600E-2,-3.845309317E-1,2.157576084E-1
1.403883069E1,3.450515866E-1,-1.585282534E-1,2.544341087E-1
1.405883069E1,6.135530472E-1,5.422737822E-2,2.617644668E-1
1.407883069E1,6.920055747E-1,9.728465229E-2,5.761331692E-2
1.410083069E1,4.812745452E-1,1.468345523E-1,-3.431142867E-1
1.412282912E1,4.572762642E-3,4.102571011E-1,-5.515938401E-1
1.414282912E1,-2.956936955E-1,6.625793576E-1,-5.652946830E-1
1.416282912E1,-9.622000158E-2,8.151036501E-1,-5.002986193E-1
1.418283069E1,2.363350391E-1,7.009242177E-1,-2.952049971E-1
1.420482913E1,1.345997900E-1,5.794493109E-2,-8.190830052E-2
1.422482913E1,-4.792674258E-2,-4.208686948E-1,-2.914699912E-2
1.424482912E1,-1.400103122E-1,-3.231477141E-1,2.413790300E-2
1.426482912E1,-1.748121828E-1,1.423490494E-1,1.639911383E-1
1.428483225E1,-1.088910922E-1,5.328664780E-1,3.415085673E-1
1.430682912E1,3.923500329E-2,6.176022291E-1,5.064247251E-1
1.432682913E1,1.611113399E-1,4.774522781E-1,5.730614066E-1
1.434682913E1,2.387784868E-1,2.742784917E-1,5.690471530E-1
1.436684788E1,2.801427841E-1,7.819075137E-2,5.279446244E-1
1.438884944E1,2.747148275E-1,-7.785914093E-2,4.614301324E-1
1.441083069E1,2.045874894E-1,-1.747947186E-1,3.399377763E-1
1.443282913E1,8.595746756E-2,-1.896998286E-1,2.034704834E-1
1.445282913E1,-8.297295123E-2,-1.873087287E-1,1.120501384E-1
1.447282912E1,-2.328269184E-1,-2.235417664E-1,8.482300490E-2
1.449282912E1,-3.189938366E-1,-3.123441339E-1,4.544837400E-2
1.451282913E1,-4.139048159E-1,-3.663795292E-1,1.919862255E-2
1.453282913E1,-5.533042550E-1,-4.053352773E-1,5.426228791E-2
1.455283069E1,-6.761580110E-1,-5.024802685E-1,1.167276204E-1
1.457482912E1,-7.163354754E-1,-7.134556770E-1,9.482374042E-2
1.459482912E1,-6.775717139E-1,-8.646535873E-1,1.518436475E-3
1.461482913E1,-5.110149384E-1,-6.484072804E-1,-5.263913050E-2
1.463482913E1,-3.054151535E-1,-4.415682983E-3,3.193952516E-2
1.465482913E1,-3.290294707E-1,4.229107201E-1,1.696809083E-1
1.467482912E1,-4.700869918E-1,4.668755829E-1,4.085815698E-2
1.469482912E1,-2.124763876E-1,5.066167116E-1,-1.773254573E-1
1.471482913E1,4.234692454E-1,5.059185624E-1,-1.399230510E-1
1.473482913E1,9.044470787E-1,1.393121779E-1,2.324778587E-2
1.475482912E1,1.118825912E0,-3.124139309E-1,7.845254987E-2
1.477482912E1,1.100220680E0,-4.771730304E-1,-2.872288227E-1
1.479483069E1,7.241894603E-1,-1.834340990E-1,-6.558947563E-1
1.481682913E1,1.531700939E-1,4.249876738E-1,-8.908334970E-1
1.483682913E1,3.211405827E-3,7.263711095E-1,-9.317963719E-1
1.485682912E1,1.575683206E-1,7.271914482E-1,-8.243888021E-1
1.487682912E1,3.753505051E-1,5.854008794E-1,-6.882007718E-1
1.489682913E1,4.587597847E-1,6.075142026E-1,-5.778436065E-1
1.491682913E1,3.360107839E-1,8.838521838E-1,-5.221501589E-1
1.493682913E1,1.261349469E-1,1.263443828E0,-4.601036906E-1
1.495682912E1,-1.225570217E-1,1.395198703E0,-3.778986931E-1
1.497682912E1,-3.017150760E-1,1.114183307E0,-3.804817796E-1
1.499682913E1,-2.901086211E-1,6.106732488E-1,-4.179888964E-1
1.501683069E1,-2.269277126E-1,1.958782971E-1,-4.148822129E-1
1.503683069E1,-2.106612474E-1,4.759512842E-2,-2.996730208E-1
1.505683069E1,-1.512327790E-1,1.669930965E-1,-7.627088577E-2
1.507883069E1,-5.600761622E-2,2.778738737E-1,7.171557844E-2
1.509883069E1,2.396337129E-2,2.810154557E-1,1.422094256E-1
1.511883069E1,1.857030392E-1,2.454631031E-1,2.080432475E-1
1.513883069E1,3.180164397E-1,1.533446312E-1,2.696184516E-1
1.515883069E1,2.879444063E-1,4.850269854E-2,2.132966816E-1
1.518083069E1,-8.506734669E-2,-2.047096640E-1,5.967280641E-2
1.520083069E1,-6.966656446E-1,-7.260046005E-1,-2.091428041E-1
1.522083069E1,-6.760009527E-1,-9.325817823E-1,-4.041833580E-1
1.524083069E1,2.148500234E-1,-3.040887117E-1,-1.814444214E-1
1.526083069E1,5.249252319E-1,4.942772537E-2,2.410474271E-1
1.528083069E1,2.062106431E-1,-1.769065708E-1,4.429994822E-1
1.530083069E1,2.797762863E-2,-4.341332018E-1,2.769488394E-1
1.532083069E1,9.232792072E-3,-3.663795292E-1,6.880088151E-2
1.534283069E1,-5.441936478E-2,-2.422516979E-2,1.188743785E-1
1.536483069E1,-7.920303941E-2,2.302089334E-1,2.041337043E-1
1.538483069E1,-3.195697814E-2,2.427054793E-1,2.562143207E-1
1.540682913E1,4.349360615E-2,1.214749180E-2,2.780309618E-1
1.542682913E1,1.189790964E-1,-2.368237227E-1,2.833891213E-1
1.544682912E1,1.869596690E-1,-3.763104379E-1,2.968979478E-1
1.546684788E1,1.833817512E-1,-4.074296653E-1,2.876651585E-1
1.548882912E1,1.362229437E-1,-4.109726846E-1,2.342231870E-1
1.550882912E1,9.981537610E-2,-4.141491652E-1,1.203229949E-1
1.552882913E1,9.028588235E-2,-3.639883995E-1,2.624975145E-2
1.554883538E1,9.632471949E-2,-2.696533799E-1,-3.410373256E-2
1.557082913E1,4.813618213E-2,-2.042558789E-1,-1.195201501E-1
1.559083069E1,4.649557173E-2,-1.542696506E-1,-1.839751601E-1
1.561083069E1,2.307325229E-2,-1.925272644E-1,-1.430646330E-1
1.563282912E1,-2.509783395E-2,-3.670252860E-1,-7.274532318E-2
1.565282912E1,-2.939134464E-2,-5.111545920E-1,-9.752900153E-2
1.567282913E1,-4.370304570E-2,-4.978900850E-1,-1.269377917E-1
1.569282913E1,-5.265658349E-2,-1.884431988E-1,-1.244245246E-1
1.571282912E1,-9.602801502E-2,1.780584902E-1,2.356194519E-2
1.573282912E1,-2.184628546E-1,1.770461947E-1,1.811651736E-1
1.575282913E1,-2.325651199E-1,-5.429719388E-2,1.228188202E-1
1.577283069E1,-1.322959512E-1,-2.627767622E-1,-4.111995548E-2
1.579482913E1,4.043927789E-2,-2.129301727E-1,-6.944665313E-2
1.581482913E1,4.101349115E-1,-5.152212083E-2,2.905973233E-2
1.583482912E1,5.860641003E-1,-1.083849445E-1,1.089085452E-2
1.585482912E1,3.756821156E-1,-2.731963992E-1,-1.649859697E-1
1.587482913E1,9.346237779E-2,-1.588424146E-1,-3.837455511E-1
1.589483538E1,-1.281420738E-1,1.477072090E-1,-4.406607151E-1
1.591682913E1,-1.529606581E-1,4.659156501E-1,-3.698701859E-1
1.593682913E1,-1.679006778E-2,5.995729566E-1,-2.842443287E-1
1.595682912E1,1.219985113E-1,5.130569935E-1,-1.672025472E-1
1.597683069E1,2.175378352E-1,3.240378201E-1,-7.117452472E-2
1.599883069E1,2.881189585E-1,1.810953617E-1,7.871435024E-3
1.601883538E1,2.273291349E-1,1.165356338E-1,6.852162629E-2
1.604083225E1,4.293509945E-2,6.689847261E-2,8.286823332E-2
1.606283069E1,-1.586853415E-1,8.019787818E-2,9.800023586E-2
1.608287131E1,-2.425833046E-1,1.382300705E-1,1.440769285E-1
1.610483069E1,-2.477843910E-1,1.564513147E-1,2.362128645E-1
1.612483069E1,-2.405063659E-1,7.480481267E-2,3.144385219E-1
1.614682912E1,-2.277654707E-1,-5.710717291E-2,3.825761676E-1
1.616684944E1,-8.030259609E-2,-8.824384958E-2,4.356341660E-1
1.618883069E1,1.510757059E-1,1.349139493E-2,4.761956334E-1
1.620883069E1,9.117600322E-2,-5.459389836E-2,2.615550458E-1
1.622883069E1,-1.417556405E-1,-1.577777565E-1,-1.569400132E-1
1.625083069E1,-2.268404365E-1,1.045103148E-1,-3.468841910E-1
1.627283069E1,3.871140257E-2,7.473499775E-1,-1.631708294E-1
1.629483069E1,1.200611964E-1,7.557799220E-1,-1.094321441E-2
1.631682912E1,4.544837400E-2,2.910161912E-1,-4.975933582E-2
1.633682912E1,1.809033751E-1,9.773843735E-2,-1.521927118E-1
1.635682912E1,2.447824329E-1,2.028072625E-2,-6.012659147E-2
1.637682912E1,-6.967354566E-2,-1.494176388E-1,1.840798706E-1
1.639682912E1,-3.154857159E-1,-2.537185252E-1,3.677059710E-1
1.641682912E1,-3.378433883E-1,-2.748544514E-1,3.869045973E-1
1.643682913E1,-1.928763390E-1,-1.929112375E-1,4.320737123E-1
1.645682913E1,-2.324778587E-2,-7.539822254E-3,5.219232440E-1
1.647682913E1,1.736777127E-1,1.470265388E-1,6.128025651E-1
1.649682912E1,3.211580217E-1,2.185501307E-1,6.443755627E-1
1.651682912E1,3.920707703E-1,2.006954104E-1,5.860990286E-1
1.653682912E1,3.788760602E-1,8.262388408E-2,5.063549280E-1
1.655682912E1,3.243868947E-1,-4.022983834E-2,4.166973531E-1
1.657682912E1,2.411172390E-1,-1.460666060E-1,3.161489367E-1
1.659682912E1,1.188743785E-1,-2.082701325E-1,1.352979243E-1
1.661683069E1,4.974188283E-2,-1.304808110E-1,-1.612684131E-2
1.663683069E1,4.658283666E-2,3.033382259E-2,-7.094763219E-2
1.665683069E1,2.220058814E-2,1.268854290E-1,-7.853981853E-2
1.667883069E1,1.972222002E-3,1.610066295E-1,-1.076519042E-1
1.669883069E1,7.661995478E-3,1.006531343E-1,-1.293463558E-1
1.671883538E1,4.066617228E-3,-3.714060783E-2,-1.047372073E-1
1.674083069E1,5.551892146E-2,-1.940282583E-1,3.707079217E-2
1.676282912E1,-7.195992768E-2,-3.455577493E-1,2.857103944E-2
1.678282913E1,-1.198866665E-1,-3.139847219E-1,-1.198343039E-1
1.680282913E1,-1.015781611E-2,-7.873180509E-2,-1.530130208E-1
1.682282913E1,-8.683013171E-2,2.534218132E-2,-4.277801886E-2
1.684282912E1,-3.101450205E-1,-1.427853853E-1,-1.265363693E-1
1.686282912E1,-3.568674624E-1,-1.567829251E-1,-3.458195329E-1
1.688283069E1,7.033676840E-3,3.949680179E-2,-3.501130342E-1
1.690482913E1,5.401619673E-1,-8.639379591E-2,-1.668011099E-1
1.692482913E1,6.527705789E-1,-4.469439089E-1,-2.458296269E-1
1.694483069E1,3.251548409E-1,-5.606172085E-1,-5.548750758E-1
1.696684944E1,-5.447172746E-2,-1.553866565E-1,-7.644018531E-1
1.698883225E1,-1.404291838E-1,2.992716134E-1,-7.602828741E-1
1.701083069E1,7.916813344E-2,3.850196302E-1,-6.764721870E-1
1.703083069E1,3.609515429E-1,1.895078421E-1,-6.189286709E-1
1.705083069E1,5.200208426E-1,1.605702913E-3,-6.019640565E-1
1.707083069E1,4.695808291E-1,-5.255186185E-2,-5.701466799E-1
1.709282912E1,2.566332221E-1,-4.211479425E-2,-5.522221923E-1
1.711282912E1,4.066617042E-2,1.509709843E-2,-5.503721237E-1
1.713283069E1,-8.150687814E-2,6.176720187E-2,-5.400747061E-1
1.715482913E1,-1.160818487E-1,7.457792014E-2,-4.802098870E-1
1.717482913E1,-1.200437471E-1,1.169545129E-1,-3.831695914E-1
1.719482913E1,-9.683086723E-2,2.393369973E-1,-2.572091818E-1
1.721482912E1,-9.634217247E-3,3.490833044E-1,-1.054004356E-1
1.723482912E1,1.513200440E-2,2.864085436E-1,-3.523819894E-2
1.725482912E1,2.157226950E-2,2.129650712E-1,-6.059783325E-2
1.727482912E1,7.016223390E-3,1.673596203E-1,-8.820894361E-2
1.729482912E1,8.230973035E-2,1.307949722E-1,2.330014482E-2
1.731482913E1,1.497318000E-1,1.544092745E-1,1.630137563E-1
1.733482913E1,-2.583087189E-3,1.449670494E-1,1.577777565E-1
1.735482913E1,-3.935193717E-1,-1.044055969E-1,-5.272639543E-2
1.737482912E1,-3.566056788E-1,-7.552039623E-2,-1.863837093E-1
1.739482912E1,2.254267186E-1,5.290790796E-1,2.822197415E-2
1.741482912E1,4.411494136E-1,8.083841205E-1,3.578099608E-1
1.743482912E1,9.965829551E-3,4.831594825E-1,4.354771078E-1
1.745482912E1,-4.365940988E-1,-5.820672959E-2,2.110103071E-1
1.747482912E1,-5.403713584E-1,-2.224073112E-1,7.572983950E-2
1.749482913E1,-5.289569497E-1,4.085815698E-2,2.248856723E-1
1.751482913E1,-5.219581723E-1,2.379930913E-1,4.506265521E-1
1.753482912E1,-5.021486878E-1,1.561546028E-1,5.553986430E-1
1.755482912E1,-3.700447083E-1,-2.350958437E-2,5.603728890E-1
1.757482912E1,-1.761037260E-1,-1.367116421E-1,5.497263670E-1
1.759482912E1,-6.349507719E-2,-2.117608041E-1,5.203524828E-1
1.761482912E1,-3.865904361E-2,-2.918016016E-1,4.524416924E-1
1.763482912E1,-1.269901544E-1,-3.500781357E-1,3.485422432E-1
1.765482913E1,-1.659808159E-1,-3.440392911E-1,2.594955564E-1
1.767482913E1,-1.148426607E-1,-3.379481137E-1,2.006430477E-1
1.769482913E1,-5.909684673E-2,-3.330960870E-1,1.630312055E-1
1.771482912E1,-2.944370359E-2,-2.979277074E-1,9.782570601E-2
1.773482912E1,-4.363323096E-4,-3.610213399E-1,6.068509817E-2
1.775482912E1,2.881538495E-2,-4.955862463E-1,3.380702808E-2
1.777482912E1,1.391027402E-2,-5.494121909E-1,9.232792072E-3
1.779482912E1,-9.477137588E-3,-4.479736686E-1,-3.717551241E-3
1.781483069E1,-5.455899239E-2,-1.827883273E-1,-4.867723212E-2
1.783683069E1,-1.083674952E-1,7.152359188E-2,-9.196139872E-2
1.785883069E1,-2.471386194E-1,1.029046103E-1,-4.101523757E-2
1.787883069E1,-5.640031695E-1,-1.636944264E-1,-8.955284208E-2
1.789883069E1,-9.127373695E-1,-3.262892962E-1,-2.494599074E-1
1.791883069E1,-8.207934499E-1,-2.437875867E-1,-3.290643692E-1
1.793883069E1,2.481858246E-2,5.066690966E-2,-1.338143945E-1
1.795883069E1,6.807132959E-1,2.103121765E-2,2.113768309E-1
1.797883694E1,1.003546834E0,-2.772979140E-1,2.360208780E-1
1.800083069E1,1.051334023E0,-4.039564431E-1,-3.748967126E-2
1.802282912E1,7.850840092E-1,-2.003812492E-1,-2.484825253E-1
1.804283069E1,4.636990726E-1,2.035926580E-1,-2.825862467E-1
1.806283069E1,2.360906899E-1,5.200033784E-1,-2.651329637E-1
1.808483069E1,1.375319511E-1,5.186071396E-1,-2.540152073E-1
1.810483069E1,1.443387270E-1,3.448944986E-1,-1.978505254E-1
1.812483069E1,1.488940418E-1,1.004262418E-1,-1.259080470E-1
1.814682912E1,5.780530348E-2,-1.230108067E-1,-5.227261037E-2
1.816684944E1,-1.099382862E-1,-1.649510711E-1,-4.070107639E-2
1.818883069E1,-2.622357309E-1,-6.497860700E-2,-3.958406672E-2
1.820883225E1,-2.875081003E-1,3.888593614E-2,7.033676840E-3
1.822883381E1,-2.703863978E-1,4.665265232E-2,1.164309159E-1
1.825083069E1,-2.920983136E-1,-1.041961554E-2,1.944994926E-1
1.827083069E1,-3.481757343E-1,-6.625270098E-2,1.968556792E-1
1.829083069E1,-3.400599360E-1,3.371975943E-2,2.433861643E-1
1.831083069E1,-2.614503205E-1,1.760339141E-1,3.338116705E-1
1.833083069E1,-1.551597714E-1,2.428276539E-1,3.805865049E-1
1.835083069E1,-4.911356419E-2,2.629862130E-1,4.241848290E-1
1.837083069E1,-3.209660575E-2,1.278279126E-1,4.156676233E-1
1.839083069E1,-1.818458587E-1,-6.258750707E-2,3.066368997E-1
1.841083069E1,-6.165724397E-1,-2.384992391E-1,1.737649739E-1
1.843083069E1,-8.995776176E-1,-3.204948008E-1,8.136724681E-2
1.845083069E1,-6.514965296E-1,-1.987231821E-1,4.303981736E-2
1.847083069E1,-1.118756011E-1,1.306553483E-1,1.827185154E-1
1.849083069E1,1.964018941E-1,3.867649734E-1,4.188964665E-1
1.851083069E1,5.286602303E-2,3.274237812E-1,5.520302057E-1
1.853083069E1,-3.069859743E-1,-8.210028708E-2,5.013807416E-1
1.855083069E1,-3.867649734E-1,-3.257831633E-1,2.969677746E-1
1.857083069E1,-2.540152073E-1,-2.996381223E-1,3.042457998E-1
1.859083069E1,-1.599768847E-1,-3.754203022E-2,4.986231029E-1
1.861083069E1,-8.337438107E-2,1.811651736E-1,7.046417594E-1
1.863083069E1,6.047565863E-2,2.115513533E-1,8.254011273E-1
1.865083069E1,1.894380301E-1,1.421047002E-1,8.890881538E-1
1.867083069E1,2.188991904E-1,1.879719645E-2,9.173974395E-1
1.869083069E1,1.250353903E-1,-1.109680310E-1,8.943067193E-1
1.871083069E1,-4.159119725E-2,-2.701944113E-1,7.812442780E-1
1.873083069E1,-1.804321408E-1,-3.514395058E-1,6.082646847E-1
1.875083069E1,-2.447649688E-1,-3.285582364E-1,5.222024918E-1
1.877083069E1,-2.253918201E-1,-2.800031602E-1,5.133537054E-1
1.879083069E1,-1.817411333E-1,-2.597049773E-1,4.862312675E-1
1.881083069E1,-1.923178285E-1,-2.140297294E-1,4.131543338E-1
1.883083069E1,-2.258979678E-1,-1.411796808E-1,3.482629955E-1
1.885083069E1,-1.800132543E-1,-1.303935498E-1,3.005805910E-1
1.887083069E1,-1.485100687E-1,-2.446427941E-1,2.761808932E-1
1.889083069E1,-2.624451518E-1,-3.836582601E-1,1.867676824E-1
1.891083069E1,-3.691022396E-1,-3.100402951E-1,3.677408770E-2
1.893083069E1,-3.466398418E-1,1.947787404E-2,-4.502949305E-3
1.895083069E1,-6.004106998E-1,2.010793835E-1,7.230898738E-2
1.897083069E1,-1.423071623E0,7.478735596E-2,-7.955210656E-2
1.899083069E1,-1.806660056E0,1.322785020E-1,-4.347091615E-1
1.901083069E1,-7.269819975E-1,4.822693765E-1,-4.980995059E-1
1.903083069E1,8.321904540E-1,6.266255379E-1,-1.420348883E-1
1.905083069E1,1.346853137E0,3.147177696E-1,1.640609466E-3
1.907083069E1,8.882329464E-1,-6.480407715E-2,-2.717128694E-1
1.909282912E1,2.489712238E-1,-1.809557378E-1,-8.451582193E-1
1.911282912E1,-7.517132908E-2,9.639453143E-2,-1.102943420E0
1.913283069E1,-1.222079545E-1,3.746174574E-1,-9.802292585E-1
1.915283069E1,1.352630109E-1,3.624176085E-1,-8.207236528E-1
1.917283069E1,3.891560733E-1,1.453859210E-1,-7.638433576E-1
1.919482913E1,4.554262161E-1,7.770206034E-2,-7.232295275E-1
1.921483069E1,3.730466664E-1,1.671501845E-1,-6.189635396E-1
1.923483069E1,2.526189685E-1,2.142217159E-1,-5.096710324E-1
1.925683069E1,1.060985625E-1,1.110902056E-1,-4.253018200E-1
1.927683069E1,-4.827580601E-2,-4.122467712E-2,-3.728197813E-1
1.929683069E1,-2.012015581E-1,-7.372270525E-2,-3.341781795E-1
1.931883069E1,-3.677408695E-1,-6.213372108E-3,-2.641206682E-1
1.933883538E1,-5.096186996E-1,-1.024508290E-2,-1.869247556E-1
1.936083069E1,-5.476668477E-1,-1.115963534E-1,-8.306021988E-2
1.938083069E1,-4.354596436E-1,-1.435184181E-1,1.855284907E-2
1.940083069E1,-2.643301189E-1,-6.216862798E-2,1.166752577E-1
1.942083069E1,-1.495398134E-1,7.311183959E-2,2.238908410E-1
1.944083069E1,-6.389650702E-2,1.875007153E-1,3.309493363E-1
1.946083069E1,-7.880161703E-2,1.359611452E-1,3.400774002E-1
1.948283069E1,-2.101899981E-1,-2.511528693E-2,2.308197916E-1
1.950283069E1,-3.964166343E-1,-9.985028952E-2,1.143539697E-1
1.952483069E1,-5.388180614E-1,-1.422443390E-1,-6.178465486E-2
1.954683069E1,-3.748967350E-1,-5.153957382E-2,-1.388583928E-1
1.956684944E1,1.194328815E-1,3.582637310E-1,4.377285764E-2
1.958883225E1,9.129817486E-1,8.118224740E-1,4.270820618E-1
1.961083069E1,1.046097994E0,7.720289230E-1,6.842388511E-1
1.963083069E1,5.174552202E-1,2.121447772E-1,6.507983804E-1
1.965083069E1,-7.714355364E-3,-4.590913951E-1,4.318991899E-1
1.967083069E1,-1.846732944E-1,-7.925714850E-1,2.805791199E-1
1.969083069E1,-2.103645355E-1,-7.615395188E-1,3.180164397E-1
1.971083069E1,-2.128603607E-1,-4.580790997E-1,4.619886577E-1
1.973083069E1,-2.366491854E-1,-1.969429553E-1,5.841267705E-1
1.975083069E1,-8.908160776E-2,-8.525933325E-2,5.853136182E-1
1.977083069E1,1.743583977E-1,-8.038986474E-2,5.009269714E-1
1.979083069E1,2.618691921E-1,-1.150171980E-1,4.226140380E-1
1.981083069E1,1.134638563E-1,-1.083500385E-1,3.453308344E-1
1.983083069E1,-8.051203936E-2,-8.747590333E-2,2.614154220E-1
1.985083069E1,-2.257583439E-1,-1.246688664E-1,1.588424146E-1
1.987083069E1,-3.074048460E-1,-2.315353751E-1,6.433283538E-2
1.989083850E1,-4.052829146E-1,-3.290992677E-1,-4.956734832E-3
1.991283069E1,-4.846604764E-1,-3.414213061E-1,-7.752752304E-2
1.993482912E1,-5.465673208E-1,-3.062005639E-1,-1.713564247E-1
1.995483069E1,-4.365243018E-1,-1.656317413E-1,-2.385516018E-1
1.997683069E1,-2.505943775E-1,-1.830850355E-2,-1.600117832E-1
1.999883069E1,-2.486919612E-1,2.321287990E-2,-1.232202444E-2
2.001883225E1,-3.407755494E-1,1.361356769E-2,7.499679923E-2
2.004083069E1,-3.570420146E-1,-3.291691095E-2,8.066911995E-2
2.006283069E1,-3.721041977E-1,-4.354596511E-2,7.682939619E-2
2.008283069E1,-4.006927013E-1,-9.354964830E-3,1.617920250E-1
2.010283069E1,-5.825734735E-1,-7.522369176E-2,2.656914592E-1
2.012482912E1,-7.946484089E-1,-2.554289401E-1,1.694889218E-1
2.014482912E1,-5.660626292E-1,-3.366740048E-1,-9.438740462E-2
2.016483069E1,2.098409384E-1,-4.445353523E-2,-2.330538183E-1
2.018683069E1,9.686751962E-1,4.809080064E-1,3.961897269E-2
2.020883069E1,1.262012720E0,6.490705013E-1,2.646617293E-1
2.022884475E1,1.137954712E0,3.336196840E-1,1.890540570E-1
2.025083069E1,7.532317638E-1,-1.323657632E-1,-2.155830711E-1
2.027083069E1,3.387334943E-1,-1.495398134E-1,-6.240948439E-1
2.029083069E1,-4.153883550E-3,2.095442265E-1,-6.976953745E-1
2.031083069E1,-9.171704948E-2,4.922875762E-1,-5.589416623E-1
2.033083069E1,4.633849114E-2,3.687357008E-1,-3.908839524E-1
2.035083069E1,2.323731333E-1,9.457939118E-2,-3.258005977E-1
2.037083069E1,3.195697963E-1,-4.520402756E-3,-2.734058201E-1
2.039083069E1,2.612932324E-1,4.241150245E-2,-2.005557865E-1
2.041083069E1,1.692445725E-1,1.017526984E-1,-1.517738253E-1
2.043083069E1,8.250171691E-2,2.467895485E-2,-1.515818387E-1
2.045083069E1,2.600540593E-2,-1.237089336E-1,-1.625076085E-1
2.047083069E1,1.249655709E-2,-1.797863692E-1,-1.525766850E-1
2.049083069E1,2.199114766E-3,-1.308473349E-1,-1.081406027E-1
2.051083069E1,7.627088577E-3,-9.309586138E-2,-8.009316027E-2
2.053083069E1,4.326671362E-2,-6.866125017E-2,-3.307398781E-2
2.055083069E1,5.510004610E-2,-2.881538495E-2,3.516838327E-2
2.057083069E1,3.953170776E-2,-3.490658419E-4,1.091528907E-1
2.059083069E1,1.953023486E-2,2.179916203E-2,1.701346934E-1
2.061083069E1,5.222025141E-2,-4.263839498E-2,2.411696017E-1
2.063282912E1,1.214400083E-1,-2.009921223E-1,2.521477044E-1
2.065282912E1,1.345125288E-1,-1.732413769E-1,2.397907823E-1
2.067283069E1,2.897246508E-3,-7.435102761E-2,2.441017479E-1
2.069482913E1,-4.675388038E-1,-3.570420146E-1,9.679596126E-2
2.071482912E1,-6.441486478E-1,-6.925989985E-1,-7.787659019E-2
2.073482912E1,1.630486548E-1,-1.801005304E-1,-1.989675453E-3
2.075482912E1,1.180819988E0,6.606594920E-1,4.364195764E-1
2.077482912E1,1.060217738E0,1.015816569E0,7.836703062E-1
2.079482912E1,3.505668342E-1,6.592806578E-1,6.702587605E-1
2.081482913E1,-5.213298276E-2,-5.585053470E-3,3.918438554E-1
2.083482913E1,-9.993755072E-2,-2.606474757E-1,3.685088158E-1
2.085482913E1,-1.026428118E-1,-7.667231560E-2,6.317568421E-1
2.087482912E1,-8.141960949E-2,7.754497975E-2,9.398598075E-1
2.089483069E1,8.258897811E-2,-3.031636961E-2,1.009009719E0
2.091483069E1,3.005456924E-1,-1.958608478E-1,9.343271255E-1
2.093682913E1,3.406533599E-1,-2.140820920E-1,8.464323282E-1
2.095682913E1,2.031563222E-1,-1.225570217E-1,7.347312570E-1
2.097683069E1,1.494001877E-2,-3.689625859E-2,5.559746027E-1
2.099883069E1,-9.351474047E-2,-3.015928902E-2,3.519456387E-1
2.101883069E1,-8.810421824E-2,-3.424336016E-2,2.068564296E-1
2.103883069E1,-1.357866228E-1,-9.983283468E-3,1.025904566E-1
2.105883225E1,-1.967160553E-1,3.782128543E-2,1.596976258E-2
2.107883225E1,-2.309419662E-1,1.033758521E-1,-4.686209187E-2
2.110083225E1,-2.451664060E-1,1.951976269E-1,-8.080874383E-2
2.112282913E1,-3.201282918E-1,1.842194945E-1,-7.527604699E-2
2.114283069E1,-3.934321105E-1,5.150466785E-2,-6.169738993E-2
2.116483069E1,-3.342131078E-1,-2.412394136E-1,-3.567453101E-2
2.118683069E1,-2.080956101E-1,-3.963991702E-1,-2.623229846E-2
2.120882912E1,-3.612831607E-2,-1.641133130E-1,3.101450019E-2
2.122883694E1,1.103048101E-1,1.337096691E-1,1.066919789E-1
2.125083069E1,4.190535471E-2,1.546361744E-1,7.103490178E-3
2.127282912E1,5.148721393E-3,-4.914847016E-2,-3.459591568E-1
2.129282912E1,1.413018554E-1,-2.136632055E-1,-5.043478012E-1
2.131282912E1,3.599217832E-1,-3.623129129E-1,-4.993386865E-1
2.133282912E1,5.455724597E-1,-3.943396807E-1,-5.925741792E-1
2.135283069E1,4.516737461E-1,-1.600117832E-1,-8.542165160E-1
2.137483069E1,1.564513147E-1,4.181808829E-1,-1.125981688E0
2.139682912E1,-7.925540209E-2,8.323125839E-1,-1.207540989E0
2.141682912E1,-9.079203010E-2,8.713032603E-1,-1.209059358E0
2.143682913E1,-7.138396800E-2,7.066140175E-1,-1.160259962E0
2.145682913E1,-8.082620054E-2,5.470385551E-1,-1.176927924E0
2.147682913E1,-1.660506278E-1,5.712985992E-1,-1.209670305E0
2.149682912E1,-3.617892861E-1,9.497034550E-1,-1.100901365E0
2.151682912E1,-4.625995159E-1,1.291526198E0,-9.549918175E-1
2.153682912E1,-4.641005099E-1,1.308281302E0,-8.799426556E-1
2.155683225E1,-4.136953950E-1,9.521818161E-1,-9.251117706E-1
2.157883069E1,-2.691472173E-1,3.162885606E-1,-9.708045125E-1
2.159883538E1,-1.882162988E-1,-4.031710327E-3,-7.146948576E-1
2.162082912E1,-1.692445725E-1,-7.253587991E-2,-3.563438654E-1
2.164083069E1,-1.052957103E-1,-1.004087925E-1,-1.567480266E-1
2.166282913E1,1.096066739E-2,-8.922123164E-2,-9.791296907E-3
2.168282912E1,7.829546928E-2,9.546951391E-3,1.522450745E-1
2.170282912E1,1.309171468E-1,5.197590590E-2,2.680127621E-1
2.172282912E1,5.972516537E-2,-1.734857261E-2,1.351931989E-1
2.174283069E1,-1.337096691E-1,-7.723081857E-2,-8.054694533E-2
2.176482913E1,-4.123165905E-1,-2.050761878E-2,-2.359336019E-1
2.178482912E1,-5.620309114E-1,1.384569705E-1,-3.327295780E-1
2.180482912E1,-2.341184616E-1,3.559249938E-1,-1.947787404E-1
2.182482912E1,3.733084798E-1,4.829151630E-1,1.898220032E-1
2.184482912E1,6.633647680E-1,1.457698941E-1,4.447098970E-1
2.186482912E1,2.822372019E-1,-4.338888526E-1,4.277802110E-1
2.188482913E1,-2.384643406E-1,-7.585724592E-1,1.101128235E-1
2.190482913E1,-4.609414637E-1,-6.632600427E-1,-6.321582198E-2
2.192482913E1,-3.212103844E-1,-2.020742148E-1,7.937757671E-2
2.194482913E1,-3.326597437E-2,1.205324382E-1,4.100651145E-1
2.196482912E1,2.460041642E-1,5.590289459E-2,6.598217487E-1
2.198483069E1,5.279970169E-1,-8.864527196E-2,7.716449499E-1
2.200483069E1,7.216063738E-1,-2.398082316E-1,7.923969030E-1
2.202682913E1,7.672641873E-1,-3.136705756E-1,7.275754213E-1
2.204682913E1,6.285628676E-1,-3.676361442E-1,5.852961540E-1
2.206684788E1,4.229630828E-1,-4.083023369E-1,4.240626395E-1
2.208882912E1,2.145533264E-1,-4.236612320E-1,1.854412258E-1
2.210884631E1,4.605923966E-2,-4.827057123E-1,-1.331686229E-2
2.213082912E1,-1.292241812E-1,-5.564633012E-1,-1.652652323E-1
2.215082912E1,-2.013935447E-1,-6.820572019E-1,-2.530029416E-1
2.217083069E1,-1.131671518E-1,-6.848322749E-1,-2.463881224E-1
2.219282913E1,-7.880161703E-2,-5.252917409E-1,-1.744282097E-1
2.221282913E1,-2.557780147E-1,-4.481481910E-1,-1.531526446E-1
2.223282913E1,-4.681496620E-1,-4.875577390E-1,-2.367888242E-1
2.225282912E1,-6.352300048E-1,-4.950102866E-1,-3.742160499E-1
2.227283069E1,-5.645616651E-1,-1.229933500E-1,-3.908315897E-1
2.229482912E1,-3.704810441E-1,3.598345220E-1,-1.872563809E-1
2.231483069E1,-5.697103739E-1,4.619537592E-1,-9.719738364E-2
2.233682912E1,-1.000091076E0,4.961098433E-1,-3.493625522E-1
2.235682912E1,-6.260495782E-1,5.963091850E-1,-5.058138967E-1
2.237682912E1,3.849498332E-1,6.057339907E-1,-1.509011686E-1
2.239682912E1,1.105962753E0,2.729345858E-1,9.737192094E-2
2.241682913E1,1.256026149E0,-1.968731433E-1,-1.470439881E-1
2.243682913E1,1.038837433E0,-3.495196402E-1,-6.198886037E-1
2.245682913E1,9.205738902E-1,-1.466076542E-2,-9.247801304E-1
2.247682913E1,9.170832634E-1,4.561243355E-1,-1.004105330E0
2.249682912E1,8.048411012E-1,6.928433776E-1,-9.399470687E-1
2.251682912E1,6.902951598E-1,7.213445902E-1,-8.780402541E-1
2.253682912E1,5.898340344E-1,5.582610369E-1,-8.315272331E-1
2.255682912E1,4.892157912E-1,2.918190360E-1,-7.680321336E-1
2.257682912E1,3.215943575E-1,8.126252890E-2,-7.019539475E-1
2.259682913E1,2.391101094E-3,1.600466855E-2,-6.559121609E-1
2.261683069E1,-3.579495847E-1,1.692445725E-1,-6.428920031E-1
2.263883069E1,-6.595424414E-1,5.563935041E-1,-5.871112943E-1
2.265883069E1,-8.486314416E-1,8.782147765E-1,-4.346742630E-1
2.267883069E1,-8.468512297E-1,9.171530604E-1,-2.962347269E-1
2.269883069E1,-7.559544444E-1,6.768735647E-1,-1.346870512E-1
2.271883069E1,-6.766117811E-1,4.832816720E-1,7.749261707E-2
2.273883069E1,-6.389999390E-1,3.027971685E-1,3.275983036E-1
2.275883069E1,-5.996951461E-1,6.962118298E-2,4.720591903E-1
2.278082912E1,-5.381897092E-1,-2.177996337E-1,4.634721875E-1
2.280082912E1,-5.104913712E-1,-2.703689635E-1,4.488812387E-1
2.282083069E1,-4.102571011E-1,7.489208132E-2,5.547878146E-1
2.284282912E1,-4.033630490E-1,3.615449667E-1,6.462256312E-1
2.286282912E1,-3.331135511E-1,3.190461993E-1,6.237283349E-1
2.288282912E1,9.826203436E-2,2.383945286E-1,7.504566908E-1
2.290282912E1,4.975933731E-1,1.990548074E-1,9.301208854E-1
2.292282912E1,3.430269957E-1,1.127657220E-1,9.036616683E-1
2.294282913E1,-2.381850779E-1,-3.122393973E-2,6.454227567E-1
2.296282913E1,-5.300390124E-1,-1.841322333E-2,5.468116403E-1
2.298282913E1,-3.223448694E-1,7.827802002E-2,7.707374096E-1
2.300282912E1,-3.035127558E-2,1.373748630E-1,1.135249376E0
2.302282912E1,2.121971250E-1,8.573057503E-2,1.342769027E0
2.304282912E1,4.257207215E-1,-3.846705705E-2,1.421378732E0
2.306282912E1,6.235188842E-1,-2.236639410E-1,1.413786530E0
2.308282912E1,7.077484727E-1,-3.210882246E-1,1.337602854E0
2.310282913E1,6.234664917E-1,-3.610388041E-1,1.162895441E0
2.312282913E1,4.524242580E-1,-3.788760602E-1,9.249023199E-1
2.314282913E1,2.490933836E-1,-3.999771178E-1,6.417924762E-1
2.316282913E1,4.075343907E-2,-4.316024780E-1,3.998723924E-1
2.318282912E1,-1.740442365E-1,-5.211378336E-1,2.146056890E-1
2.320283069E1,-3.514744043E-1,-6.189286709E-1,8.375835419E-2
2.322482913E1,-3.739018738E-1,-5.956110358E-1,1.078613475E-2
2.324483069E1,-2.750988007E-1,-4.353200197E-1,7.813838869E-2
2.326686350E1,-3.503923118E-1,-3.306351602E-1,1.657539159E-1
2.328883069E1,-6.705554724E-1,-4.316722751E-1,1.048244759E-1
2.330883069E1,-9.289515018E-1,-5.776865482E-1,-6.773623079E-2
2.332883069E1,-9.919579029E-1,-5.174028277E-1,-1.464854777E-1
2.334883694E1,-8.283157945E-1,-1.693667471E-1,-8.026769012E-2
2.337083069E1,-7.632673979E-1,1.007229537E-1,5.143485218E-2
2.339083069E1,-8.507956266E-1,1.471312530E-2,1.576032303E-2
2.341083069E1,-8.213519454E-1,-2.321462482E-1,-1.665218621E-1
2.343083069E1,-2.500533164E-1,-2.994810343E-1,-2.437875867E-1
2.345083069E1,7.214493155E-1,-5.576327071E-2,-1.172686741E-1
2.347083069E1,1.122927427E0,-1.043706909E-1,2.263692021E-2
2.349083069E1,1.015345335E0,-3.528008461E-1,-1.648288965E-1
2.351083069E1,7.847523689E-1,-5.459564328E-1,-7.023728490E-1
2.353083069E1,5.557128191E-1,-3.146305084E-1,-1.128198266E0
2.355083069E1,2.768092155E-1,1.690874994E-1,-1.240649819E0
2.357083069E1,1.194852367E-1,4.869119525E-1,-1.183996439E0
2.359083069E1,1.893158704E-1,4.838925302E-1,-1.127604842E0
2.361083069E1,2.231228948E-1,3.125186563E-1,-1.100028634E0
2.363083069E1,1.518261880E-1,8.168140799E-2,-1.052468419E0
2.365083069E1,4.487241432E-2,-7.892379165E-2,-9.271538258E-1
2.367083069E1,-9.763371944E-2,-1.265538186E-1,-7.877194285E-1
2.369083069E1,-2.213252038E-1,-5.923647434E-2,-6.444278955E-1
2.371083069E1,-3.357315361E-1,6.682865322E-2,-4.715355933E-1
2.373282913E1,-3.956137896E-1,1.520181745E-1,-2.327571064E-1
2.375283069E1,-3.270223439E-1,1.002691686E-1,6.143558770E-3
2.377283069E1,-1.530828327E-1,-1.951278187E-2,2.598969638E-1
2.379482913E1,7.888888009E-3,-9.819222242E-2,4.695284665E-1
2.381483069E1,6.539748609E-2,1.361356769E-2,6.034999490E-1
2.383683069E1,1.095019579E-1,1.594532728E-1,6.885149479E-1
2.385883381E1,1.193805188E-1,1.152789965E-1,7.358307838E-1
2.388083069E1,7.553785294E-2,-3.975860029E-2,6.645166278E-1
2.390083069E1,-2.617993858E-3,-1.017177850E-1,4.500855207E-1
2.392283069E1,-2.823768258E-1,1.745329238E-3,2.489712238E-1
2.394483069E1,-5.944067836E-1,1.248957589E-1,1.355771720E-1
2.396684944E1,-3.323630393E-1,2.186548412E-1,1.969429553E-1
2.398884163E1,4.646066427E-1,4.328241944E-1,5.518207550E-1
2.401083069E1,7.012209296E-1,2.637366951E-1,8.078430891E-1
2.403083069E1,2.798810005E-1,-1.516167521E-1,7.153580785E-1
2.405083069E1,-1.697507203E-1,-4.349535108E-1,4.313232303E-1
2.407083069E1,-3.054675162E-1,-3.826459944E-1,2.792526782E-1
2.409083069E1,-1.853365153E-1,-1.301317513E-1,4.120024145E-1
2.411083069E1,3.286454827E-2,2.157226950E-2,6.545333862E-1
2.413083069E1,2.683967352E-1,-1.190314535E-2,7.815235257E-1
2.415083069E1,5.050284863E-1,-6.681120396E-2,8.374613523E-1
2.417083069E1,6.153507233E-1,-1.019970402E-1,8.469384909E-1
2.419083069E1,5.444205403E-1,-1.249830276E-1,7.879463434E-1
2.421083069E1,3.774798214E-1,-1.941504180E-1,6.560168862E-1
2.423083069E1,2.442239225E-1,-2.797762752E-1,5.160589218E-1
2.425083069E1,1.204277202E-1,-4.080405235E-1,4.130147099E-1
2.427083069E1,-4.293509759E-3,-6.493322849E-1,2.544864714E-1
2.429083069E1,-1.391376406E-1,-8.930675387E-1,9.384635091E-2
2.431083069E1,-2.797413766E-1,-1.004629016E0,1.569050923E-2
2.433083069E1,-3.387334943E-1,-9.212895036E-1,1.099557430E-2
2.435083069E1,-3.969925940E-1,-7.477688789E-1,-6.883578748E-2
2.437083069E1,-7.569667697E-1,-7.308217287E-1,-2.600366175E-1
2.439083069E1,-1.223301291E0,-8.654389381E-1,-4.271693230E-1
2.441083069E1,-1.334286809E0,-7.171034217E-1,-4.743281305E-1
2.443282912E1,-9.915215373E-1,-2.426182181E-1,-3.731339276E-1
2.445282912E1,-7.407351732E-1,2.591290474E-1,-1.727352291E-1
2.447282912E1,-7.583455443E-1,4.981693327E-1,-5.948081985E-2
2.449282912E1,-6.794217825E-1,3.530626595E-1,-1.412145942E-1
2.451282913E1,-3.056420684E-1,-7.693411410E-2,-3.297275901E-1
2.453282913E1,3.575656116E-1,-2.912081778E-1,-5.275257826E-1
2.455282913E1,8.846550584E-1,-1.994911395E-2,-5.892929435E-1
2.457282913E1,9.256353378E-1,2.623753548E-1,-5.708099008E-1
2.459282912E1,7.207162380E-1,1.876752526E-1,-6.714980006E-1
2.461282912E1,4.802447855E-1,-9.313076735E-2,-9.744521976E-1
2.463282912E1,1.880243123E-1,-1.216669008E-1,-1.329329967E0
2.465282912E1,1.579522900E-2,1.304633617E-1,-1.447698236E0
2.467282912E1,1.066396199E-2,4.074122012E-1,-1.355859041E0
2.469282913E1,1.011069268E-1,4.735427201E-1,-1.214295387E0
2.471282913E1,1.835562736E-1,3.824540079E-1,-1.085996270E0
2.473282913E1,2.610139847E-1,2.877698839E-1,-9.497383833E-1
2.475282912E1,2.003114372E-1,2.115339041E-1,-8.040557504E-1
2.477283069E1,2.761110850E-2,1.229933500E-1,-6.881658435E-1
2.479482913E1,-1.820552945E-1,-2.647664398E-2,-5.573709011E-1
2.481483069E1,-4.038342834E-1,-1.837657094E-1,-4.700171649E-1
2.483682912E1,-6.601533294E-1,-2.940356135E-1,-3.752807081E-1
2.485682912E1,-7.580662966E-1,-3.183480501E-1,-2.516415715E-1
2.487682912E1,-6.325596571E-1,-2.792177796E-1,-1.853539608E-2
2.489682912E1,-4.668406546E-1,-1.650557816E-1,2.656216621E-1
2.491682913E1,-3.324328661E-1,-3.652974218E-2,4.641354084E-1
2.493682913E1,-1.733461022E-1,4.070107639E-2,6.074444056E-1
2.495682913E1,2.384119667E-2,1.000248194E-1,6.992138028E-1
2.497683069E1,1.813397110E-1,1.367989033E-1,7.431960702E-1
2.499883225E1,1.982344985E-1,1.596103609E-1,7.233691812E-1
2.501883225E1,6.785839796E-2,1.939933449E-1,6.910631061E-1
2.503883538E1,-1.488067657E-1,1.396787018E-1,4.868072271E-1
2.506082912E1,-1.579173952E-1,1.040041670E-1,1.352630109E-1
2.508082912E1,1.741838604E-1,3.094817698E-1,2.220756859E-1
2.510083069E1,7.955734134E-1,5.896595120E-1,5.875476599E-1
2.512282913E1,7.845255136E-1,6.359979510E-1,9.564229846E-1
2.514282913E1,2.549577057E-1,1.587726027E-1,9.713280797E-1
2.516282913E1,-1.476024985E-1,-3.711268008E-1,7.162831426E-1
2.518282912E1,-2.390053868E-1,-5.057091713E-1,5.081351399E-1
2.520283069E1,-1.304982603E-1,-3.560297191E-1,5.236511230E-1
2.522482913E1,-4.979424179E-2,-1.052258983E-1,6.423160434E-1
2.524482913E1,4.764748737E-3,-2.637192421E-2,6.774321198E-1
2.526482913E1,9.866346419E-2,-3.666936606E-2,6.347239017E-1
2.528483069E1,1.149299294E-1,-4.996877536E-2,5.400223136E-1
2.530682912E1,3.717551380E-2,-8.936085552E-2,4.005007148E-1
2.532682913E1,-6.075491011E-2,-1.433264315E-1,2.504896522E-1
2.534682913E1,-1.509360671E-1,-1.977109015E-1,1.007753089E-1
2.536684788E1,-2.205398083E-1,-2.288301140E-1,-4.518657550E-2
2.538884006E1,-3.150493801E-1,-2.163684666E-1,-2.104692608E-1
2.541083069E1,-3.173357546E-1,-1.634500772E-1,-3.153984547E-1
2.543083069E1,-2.271895111E-1,-1.066047102E-1,-3.433760703E-1
2.545083069E1,-2.081130594E-1,-1.042659655E-1,-3.591538668E-1
2.547083069E1,-4.160341322E-1,-3.012263775E-1,-3.411420584E-1
2.549283069E1,-7.246606946E-1,-5.915444493E-1,-4.117580652E-1
2.551483069E1,-8.233416080E-1,-6.920928359E-1,-5.325872302E-1
2.553483069E1,-7.078008056E-1,-3.670252860E-1,-4.649906158E-1
2.555683069E1,-4.506614506E-1,2.056695968E-1,-2.004161626E-1
2.557883069E1,-4.288274050E-1,3.403042853E-1,-1.157851443E-1
2.559883069E1,-4.895474017E-1,5.037020147E-2,-3.891560733E-1
2.561883069E1,-2.707878351E-1,-1.982519478E-1,-6.848148108E-1
2.563883694E1,3.093596101E-1,-4.276056774E-3,-6.630156636E-1
2.566083069E1,8.673937321E-1,1.762259007E-1,-4.425631464E-1
2.568083069E1,9.537002444E-1,-3.597123548E-2,-3.743033111E-1
2.570083069E1,6.634868979E-1,-3.239505589E-1,-6.424207687E-1
2.572083069E1,2.659881711E-1,-2.712416053E-1,-1.147937894E0
2.574083069E1,2.275909297E-2,7.805112749E-2,-1.386175394E0
2.576083069E1,-1.045103148E-1,4.707851112E-1,-1.303918004E0
2.578283069E1,-4.234168679E-2,5.644569397E-1,-1.111146450E0
2.580283069E1,1.779712290E-1,4.419173598E-1,-9.412211776E-1
2.582482912E1,3.372150660E-1,2.643650174E-1,-7.367733121E-1
2.584482912E1,3.183480501E-1,1.140049100E-1,-5.181359053E-1
2.586482912E1,2.092998773E-1,3.124139272E-3,-3.297625184E-1
2.588483069E1,3.555235639E-2,-6.072000414E-2,-2.497217059E-1
2.590683069E1,-1.886002719E-1,-7.229153812E-2,-2.048318386E-1
2.592883069E1,-3.900287151E-1,-3.146828711E-2,-1.147204936E-1
2.594883069E1,-4.493001103E-1,-7.567747682E-2,-6.684611086E-3
2.596883069E1,-3.060958385E-1,-1.298175901E-1,1.399405003E-1
2.598884319E1,-1.573588848E-1,-1.477944851E-1,3.079284430E-1
2.601083069E1,-1.537111402E-1,-8.614945412E-2,4.587947130E-1
2.603083069E1,-1.951801628E-1,-4.914847016E-2,4.915545285E-1
2.605083225E1,-2.292838991E-1,-9.367182106E-2,4.718846679E-1
2.607283069E1,-1.170941368E-1,-2.702642381E-1,4.610636234E-1
2.609283069E1,3.743731230E-2,-4.253192842E-1,4.368733764E-1
2.611283069E1,1.892809570E-1,-2.328618318E-1,3.682295680E-1
2.613283069E1,1.942725927E-1,5.824163556E-2,2.390926480E-1
2.615283069E1,-2.087413706E-2,6.033603102E-2,3.679154068E-2
2.617283069E1,3.803072497E-2,2.312561311E-2,-2.242748067E-2
2.619482913E1,7.141014338E-1,2.259677798E-1,1.461189687E-1
2.621482912E1,1.033583999E0,1.775523424E-1,3.652276099E-1
2.623483069E1,5.803568959E-1,-6.798057258E-2,3.435331583E-1
2.625682913E1,1.087340154E-2,-2.425658554E-1,1.502379477E-1
2.627682913E1,1.658062800E-3,-1.339540184E-1,1.154709831E-1
2.629682913E1,1.443736404E-1,8.908160776E-2,3.367263675E-1
2.631682912E1,2.432814389E-1,1.805717647E-1,6.237632036E-1
2.633682912E1,2.768441141E-1,1.222603172E-1,7.750309110E-1
2.635682912E1,3.475823104E-1,4.848524556E-2,7.566525936E-1
2.637682912E1,3.994709551E-1,-3.392919898E-2,7.245734334E-1
2.639682912E1,3.593458235E-1,-1.144936010E-1,7.146773934E-1
2.641682913E1,2.191086262E-1,-1.826312542E-1,6.491228342E-1
2.643682913E1,7.187265903E-2,-1.968382299E-1,5.081002712E-1
2.645682913E1,-2.176425606E-2,-1.244594306E-1,3.813544512E-1
2.647683069E1,-1.274788529E-1,-7.997098565E-2,2.901086211E-1
2.649883069E1,-2.442762852E-1,-1.309520602E-1,1.751961559E-1
2.652082913E1,-3.219783306E-1,-1.288925707E-1,6.538003683E-2
2.654082913E1,-3.763802648E-1,-5.396557972E-2,2.872812003E-2
2.656082912E1,-3.471809030E-1,-2.869321220E-2,5.469861999E-2
2.658082912E1,-3.035127521E-1,-1.469218135E-1,8.841837943E-2
2.660083069E1,-3.062703907E-1,-3.491531014E-1,9.944885969E-2
2.662282913E1,-7.226884961E-1,-4.926017225E-1,-2.559001744E-1
2.664282913E1,-1.130344987E0,-3.232349828E-2,-7.699345350E-1
2.666282913E1,-1.233685970E0,6.484072804E-1,-8.692612052E-1
2.668282912E1,-1.190174937E0,8.659625649E-1,-6.059085131E-1
2.670282912E1,-1.135930061E0,4.139048159E-1,-4.731413126E-1
2.672282912E1,-8.085761070E-1,-1.378111988E-1,-6.604849696E-1
2.674282912E1,-1.117708832E-1,-4.074296653E-1,-6.387556195E-1
2.676282913E1,7.467914820E-1,-2.685014606E-1,-3.607595563E-1
2.678282913E1,1.125353336E0,-1.350884885E-1,-2.167698890E-1
2.680282913E1,1.017509460E0,-1.699950732E-2,-3.051708043E-1
2.682282913E1,6.736971140E-1,1.909215599E-1,-6.538701653E-1
2.684282912E1,3.774798214E-1,4.987801909E-1,-8.637983799E-1
2.686282912E1,3.307224512E-1,7.018492222E-1,-7.835830450E-1
2.688283381E1,4.534365237E-1,6.996675730E-1,-6.913772821E-1
2.690482913E1,5.871985555E-1,5.088507533E-1,-6.457718015E-1
2.692483069E1,5.651201606E-1,2.511005104E-1,-6.109175682E-1
2.694682912E1,4.314453900E-1,-5.419247225E-2,-5.394987464E-1
2.696684788E1,2.310641408E-1,-2.785370946E-1,-4.945564866E-1
2.698883694E1,-6.298892945E-2,-3.627492189E-1,-4.968952239E-1
2.700883694E1,-3.412642181E-1,-3.508984447E-1,-4.655316770E-1
2.702884788E1,-6.042853594E-1,-3.817034960E-1,-4.593532085E-1
2.705082912E1,-7.118150592E-1,-4.729842246E-1,-3.862588108E-1
2.707082913E1,-6.226811409E-1,-4.355294704E-1,-1.314756572E-1
2.709082913E1,-3.802897930E-1,-2.209237814E-1,2.238733768E-1
2.711083069E1,-1.833817512E-1,6.382668763E-2,5.219756365E-1
2.713282912E1,-3.518583626E-2,1.789835095E-1,6.990392804E-1
2.715282912E1,1.194677874E-1,8.888962120E-2,7.813490033E-1
2.717283069E1,2.215520889E-1,-5.478588492E-2,8.010712266E-1
2.719482913E1,1.930683255E-1,-1.296430528E-1,7.123386860E-1
2.721482912E1,6.874851882E-2,-8.403760195E-2,5.167047381E-1
2.723482912E1,-1.374795884E-1,2.059488557E-3,3.153111935E-1
2.725482912E1,-1.540602148E-1,7.304202765E-2,1.249830276E-1
2.727482912E1,2.327396572E-1,3.872187436E-1,1.164309159E-1
2.729482913E1,7.304726243E-1,6.764895916E-1,3.338814974E-1
2.731482913E1,7.377332449E-1,4.800004363E-1,5.121145248E-1
2.733482913E1,3.182258904E-1,-2.160717547E-2,4.417602718E-1
2.735482913E1,4.476769641E-2,-1.920036674E-1,2.190737277E-1
2.737483069E1,-3.555235639E-2,1.303760987E-2,2.186373919E-1
2.739682912E1,4.625122622E-2,3.286803961E-1,4.226140380E-1
2.741682913E1,1.416509151E-1,3.142639697E-1,6.073222160E-1
2.743682913E1,2.777691483E-1,1.935919225E-1,7.134906054E-1
2.745682913E1,4.155279994E-1,1.257858723E-1,7.199657559E-1
2.747683069E1,4.791975915E-1,1.278802752E-1,7.031407952E-1
2.749883694E1,4.209210575E-1,9.395107627E-2,6.518106461E-1
2.752082913E1,2.922903001E-1,-5.017821491E-2,5.215567350E-1
2.754083069E1,2.111673802E-1,-1.743932962E-1,3.089407384E-1
2.756282912E1,1.176526472E-1,-2.187595665E-1,1.145459563E-1
2.758282912E1,-4.038691893E-2,-2.397035211E-1,1.546361670E-2
2.760282913E1,-1.416334659E-1,-2.366491854E-1,-9.438740462E-2
2.762282913E1,-1.699078083E-1,-1.540602148E-1,-1.791580468E-1
2.764283069E1,-2.421644330E-1,-9.698794782E-2,-1.846383810E-1
2.766482912E1,-3.997676671E-1,-2.439795732E-1,-1.860869974E-1
2.768482912E1,-5.427973866E-1,-5.271418095E-1,-2.282192558E-1
2.770483069E1,-7.223568559E-1,-7.726572752E-1,-3.214198351E-1
2.772682913E1,-8.837299943E-1,-6.201154590E-1,-4.200832844E-1
2.774682912E1,-7.924318314E-1,-1.183682308E-1,-3.332182467E-1
2.776686350E1,-6.727545857E-1,2.723062634E-1,-9.232791513E-2
2.778883694E1,-6.259099841E-1,3.189763725E-1,-6.192428246E-2
2.781082912E1,-4.441513717E-1,2.117957026E-1,-2.490410358E-1
2.783083069E1,6.068509817E-2,2.460565120E-1,-2.877000868E-1
2.785283069E1,6.891781688E-1,3.168645203E-1,-1.092401594E-1
2.787482912E1,9.951867461E-1,9.210102260E-2,-7.450810820E-2
2.789482912E1,9.160011411E-1,-9.311331809E-2,-2.758318484E-1
2.791482912E1,6.498035192E-1,7.716100663E-2,-6.233094335E-1
2.793482912E1,4.032234251E-1,5.133187771E-1,-8.382118344E-1
2.795482913E1,1.704837680E-1,8.640601635E-1,-8.210203052E-1
2.797482913E1,1.867676824E-1,8.355589509E-1,-7.591309547E-1
2.799482913E1,3.394490778E-1,6.060830355E-1,-6.976255774E-1
2.801482913E1,4.577649534E-1,3.275808394E-1,-6.190333962E-1
2.803482912E1,4.387234151E-1,1.001295373E-1,-5.085016489E-1
2.805482912E1,3.385764062E-1,-1.181762442E-1,-4.314628541E-1
2.807482912E1,2.057743222E-1,-2.965838015E-1,-4.146029651E-1
2.809482912E1,3.455751808E-3,-3.705857694E-1,-4.085292220E-1
2.811482912E1,-3.600090742E-1,-2.499136925E-1,-4.129972458E-1
2.813482913E1,-6.299417019E-1,-1.578650326E-1,-3.664842248E-1
2.815482913E1,-6.013182998E-1,-2.249729335E-1,-2.276083827E-1
2.817482913E1,-4.069060683E-1,-2.275036722E-1,-8.028514567E-4
2.819482913E1,-3.088011146E-1,-7.784168236E-3,2.391275615E-1
2.821482912E1,-3.123266697E-1,2.398256958E-1,4.233994186E-1
2.823482912E1,-2.299471349E-1,2.695835531E-1,5.742307901E-1
2.825482912E1,6.841690838E-2,9.250245243E-2,6.533116698E-1
2.827482912E1,3.963468075E-1,-1.138652787E-1,6.566103101E-1
2.829482913E1,5.340881944E-1,-3.036872856E-2,7.704930305E-1
2.831483069E1,4.757069349E-1,2.709274590E-1,8.443902731E-1
2.833683069E1,2.147278637E-1,3.328342736E-1,6.940476298E-1
2.835883069E1,2.256885320E-1,3.087312877E-1,3.500432372E-1
2.837883069E1,6.856526136E-1,5.169490576E-1,3.695734739E-1
2.839883069E1,8.874475360E-1,6.692814231E-1,5.763949752E-1
2.841883069E1,4.297349751E-1,2.601936758E-1,6.156998277E-1
2.843883069E1,-1.772730947E-1,-3.277728260E-1,2.732312977E-1
2.845883069E1,-5.621880293E-1,-4.776791632E-1,-9.374163300E-2
2.847883069E1,-6.305525303E-1,-1.764527857E-1,-1.332558841E-1
2.849883069E1,-4.756196737E-1,1.785122752E-1,9.880308807E-2
2.851883069E1,-3.082775176E-1,3.471983373E-1,4.045673311E-1
2.853883069E1,-4.591961205E-2,2.206270695E-1,5.695533156E-1
2.855883538E1,5.484697223E-1,-2.289872058E-2,6.583207250E-1
2.858083069E1,1.036324143E0,-9.969320893E-2,7.577521205E-1
2.860282913E1,1.023164392E0,-5.099852011E-2,8.770453930E-1
2.862282913E1,7.814885974E-1,2.513274178E-2,9.025272131E-1
2.864283069E1,6.684960127E-1,2.131047100E-2,7.970918417E-1
2.866482912E1,6.209706664E-1,-1.319468915E-1,6.189984679E-1
2.868482912E1,5.697453022E-1,-2.998824716E-1,5.311385989E-1
2.870482913E1,4.867199659E-1,-3.207391500E-1,4.747819006E-1
2.872482913E1,2.941927016E-1,-1.864884347E-1,4.135557711E-1
2.874482913E1,4.457570985E-2,2.178170905E-2,3.231477141E-1
2.876482913E1,-2.868274152E-1,5.504768342E-2,2.384992391E-1
2.878482912E1,-5.590638518E-1,-1.861219108E-1,2.168571651E-1
2.880482912E1,-8.408297896E-1,-3.387683928E-1,1.212654784E-1
2.882482912E1,-1.298594713E0,-1.854412258E-1,-5.099852011E-2
2.884482912E1,-1.524475336E0,2.808583677E-1,-1.521228999E-1
2.886482913E1,-1.372073174E0,5.820847750E-1,-6.944665313E-2
2.888482913E1,-1.267318487E0,5.352226496E-1,-3.975860029E-2
2.890482913E1,-1.164693117E0,4.393866360E-1,-2.267880887E-1
2.892482913E1,-8.759284019E-1,5.050808191E-1,-2.923949957E-1
2.894482913E1,-3.864158988E-1,5.455375910E-1,-1.660855263E-1
2.896482912E1,2.806663811E-1,2.144311517E-1,-1.658062823E-2
2.898482912E1,9.302779436E-1,-3.669554591E-1,-3.939208016E-2
2.900482912E1,1.086292982E0,-7.706850171E-1,-3.031287789E-1
2.902482912E1,7.917162776E-1,-7.740011811E-1,-7.077833414E-1
2.904482913E1,4.123340249E-1,-2.835636437E-1,-9.898983836E-1
2.906482913E1,1.561022550E-1,2.975611687E-1,-1.040635109E0
2.908482913E1,1.455953717E-1,5.495518446E-1,-9.435250163E-1
2.910482913E1,3.033731282E-1,4.210432172E-1,-8.148069382E-1
2.912482912E1,4.754276872E-1,2.317797244E-1,-6.861413121E-1
2.914482912E1,5.331980586E-1,8.391542733E-2,-5.320636034E-1
2.916482912E1,4.336968660E-1,-2.490584925E-2,-3.937986493E-1
2.918482912E1,1.765924096E-1,-1.433264315E-1,-3.141767085E-1
2.920483069E1,-1.208989546E-1,-2.589544952E-1,-2.890439630E-1
2.922682913E1,-3.967482448E-1,-2.761110961E-1,-2.835985422E-1
2.924682912E1,-5.648059845E-1,-2.695835531E-1,-2.081654221E-1
2.926686350E1,-5.789605975E-1,-2.598097026E-1,-9.389871359E-2
2.928883538E1,-3.978827000E-1,-1.653873920E-1,1.589471400E-1
2.931082912E1,-3.059562147E-1,7.005751878E-2,4.881336689E-1
2.933083069E1,-2.912605405E-1,2.206096202E-1,6.853907704E-1
2.935283069E1,-1.745503843E-1,1.412494928E-1,7.884525061E-1
2.937482912E1,3.289945796E-2,-2.672099136E-2,8.733278513E-1
2.939482912E1,1.680403054E-1,-1.069886796E-2,8.952317238E-1
2.941482912E1,1.078438908E-1,1.872738265E-2,8.679871559E-1
2.943482912E1,-2.731614709E-1,-2.467197478E-1,7.183600664E-1
2.945482913E1,-2.680651248E-1,-5.266181827E-1,3.796789348E-1
2.947482913E1,3.741113245E-1,-2.940356135E-1,2.398955077E-1
2.949482913E1,7.595323920E-1,1.380555481E-1,3.556108475E-1
2.951482913E1,4.746248424E-1,2.904402316E-1,3.076317310E-1
2.953482912E1,-3.612831607E-2,1.317199916E-1,1.954768784E-2
2.955482912E1,-2.785894573E-1,8.625417203E-2,-1.716705859E-1
2.957482912E1,-2.807711065E-1,2.798984647E-1,-9.531243145E-2
2.959482912E1,-2.715732455E-1,5.166174769E-1,9.622000158E-2
2.961482913E1,-2.649235129E-1,5.628163218E-1,3.017150760E-1
2.963482913E1,-1.580570191E-1,4.137477577E-1,4.302934706E-1
2.965482913E1,6.892304868E-2,1.061858311E-1,5.120097995E-1
2.967482913E1,2.780832946E-1,-1.866629571E-1,5.548052788E-1
2.969482913E1,3.597297966E-1,-3.341258168E-1,5.482253432E-1
2.971482912E1,3.184702396E-1,-4.118278921E-1,4.856727719E-1
2.973482912E1,2.440842986E-1,-4.527733028E-1,3.739717007E-1
2.975482912E1,1.249830276E-1,-4.524591565E-1,2.609616220E-1
2.977482912E1,-4.576253146E-2,-3.974463642E-1,1.241801754E-1
2.979482913E1,-2.112197429E-1,-3.021339476E-1,4.757767543E-2
2.981483069E1,-3.022386730E-1,-3.203551769E-1,1.209513191E-2
2.983682912E1,-2.081828713E-1,-5.585576892E-1,1.207767799E-2
2.985682912E1,-1.078962535E-1,-8.295724392E-1,9.758135676E-2
2.987683225E1,-2.472258806E-1,-1.086397648E0,1.712168008E-1
2.989882913E1,-4.932649434E-1,-1.188080549E0,6.967354566E-2
2.991882913E1,-5.844409466E-1,-9.358280897E-1,-3.324852139E-2
2.993883069E1,-6.370451450E-1,-3.299370408E-1,-5.951572582E-2
2.996083069E1,-9.291434884E-1,1.169021502E-1,-1.063254550E-1
2.998282913E1,-9.664935470E-1,1.917069703E-1,-3.151541054E-1
3.000282912E1,-3.690324128E-1,8.264134079E-2,-4.563512504E-1
3.002282912E1,6.251245737E-1,-6.161012221E-3,-3.138800263E-1
3.004282912E1,1.253094077E0,-1.538507789E-1,-1.952848881E-1
3.006282912E1,1.353729725E0,-2.803696990E-1,-3.332008123E-1
3.008282913E1,1.070026398E0,-1.528035700E-1,-6.728244424E-1
3.010282913E1,5.408949852E-1,2.115862668E-1,-1.010039449E0
3.012282913E1,9.365436435E-2,6.649879217E-1,-1.117743731E0
3.014282913E1,-3.190461919E-2,7.794640660E-1,-1.055348277E0
3.016282913E1,5.895722285E-2,5.971295238E-1,-9.063844085E-1
3.018282912E1,1.791056842E-1,3.391872942E-1,-7.609460950E-1
3.020282912E1,2.177472711E-1,1.325577497E-1,-6.450911164E-1
3.022282912E1,8.319984376E-2,3.073524870E-2,-5.194972754E-1
3.024282913E1,-9.599310905E-2,1.774999872E-2,-3.896098435E-1
3.026282913E1,-1.896474808E-1,8.175121993E-2,-2.459343374E-1
3.028282913E1,-2.150769234E-1,1.389456540E-1,-7.773696631E-2
3.030282913E1,-2.445031703E-1,1.260302216E-1,8.532914519E-2
3.032283069E1,-3.069685102E-1,6.600835174E-2,2.164731920E-1
3.034482912E1,-3.471809030E-1,-1.900663599E-2,3.328517377E-1
3.036482913E1,-2.963918149E-1,-7.113961875E-2,4.442037344E-1
3.038482913E1,-1.549677849E-1,-9.662142396E-2,5.464276671E-1
3.040482913E1,-1.364847459E-2,-1.215621829E-1,6.614623070E-1
3.042483069E1,1.233773232E-1,-2.630734742E-1,8.133583069E-1
3.044483069E1,3.473379612E-1,-4.375191331E-1,8.396080732E-1
3.046483069E1,6.633996367E-1,-5.004208088E-1,6.644642949E-1
3.048483381E1,8.421911597E-1,-3.703588545E-1,4.270471632E-1
3.050682913E1,4.584456384E-1,-3.078760803E-1,2.979451418E-1
3.052683069E1,-8.028514683E-3,-1.262222081E-1,1.276882887E-1
3.054883694E1,1.581442803E-1,2.542421222E-1,3.762929887E-2
3.057082913E1,5.724156499E-1,4.218460917E-1,2.194751501E-1
3.059082913E1,3.445803523E-1,2.550449669E-1,2.774899006E-1
3.061083069E1,-9.773843735E-2,-1.424188633E-2,2.189515531E-1
3.063282912E1,-2.678731382E-1,-1.107236892E-1,2.802475095E-1
3.065282912E1,-1.956688613E-1,1.802925020E-2,4.484798014E-1
3.067282913E1,-9.276425093E-2,1.629962921E-1,6.553536654E-1
3.069282913E1,7.539822254E-3,2.228610963E-1,8.135502934E-1
3.071282913E1,1.776745170E-1,1.568527371E-1,8.697324991E-1
3.073282913E1,3.389080465E-1,-4.197516665E-2,8.459436297E-1
3.075283069E1,3.963293731E-1,-2.149721980E-1,7.815060616E-1
3.077482913E1,3.383320868E-1,-2.813645303E-1,6.726847887E-1
3.079482913E1,2.192133516E-1,-2.806314826E-1,5.163207650E-1
3.081482913E1,9.131562710E-2,-2.653249502E-1,3.504621089E-1
3.083482913E1,-6.653194875E-2,-2.452362180E-1,2.217266262E-1
3.085483069E1,-1.446703374E-1,-2.217440754E-1,1.412669420E-1
3.087483069E1,-1.302713752E-1,-2.196496874E-1,1.162563786E-1
3.089483069E1,-8.473573625E-2,-1.764876992E-1,1.362404078E-1
3.091483069E1,-1.511629671E-1,-1.140223593E-1,9.272934496E-2
3.093682913E1,-2.460041642E-1,-7.204718888E-2,5.241223797E-2
3.095682913E1,-3.128328025E-1,-9.527752548E-2,9.023351967E-2
3.097682913E1,-5.125159621E-1,-1.773429066E-1,1.734857261E-1
3.099682912E1,-8.702037334E-1,-2.343628109E-1,1.089783609E-1
3.101682912E1,-1.016846299E0,-1.388758421E-1,-5.445427261E-3
3.103683069E1,-1.032432079E0,4.066617228E-3,-4.199262336E-2
3.105683069E1,-9.987646341E-1,4.206243530E-2,-1.835039109E-1
3.107683069E1,-7.383615375E-1,1.794372946E-1,-4.335746765E-1
3.109683069E1,3.286454827E-2,4.065918922E-1,-5.187467337E-1
3.111683069E1,8.607439995E-1,4.986405671E-1,-3.944967687E-1
3.113883850E1,1.293917298E0,3.119601607E-1,-4.355294704E-1
3.116083069E1,1.019638777E0,5.180137232E-2,-7.406129837E-1
3.118083069E1,4.505916536E-1,8.775515109E-2,-1.176805735E0
3.120283069E1,-1.336224079E-1,4.720591903E-1,-1.557165265E0
3.122482913E1,-4.193677008E-1,8.277747631E-1,-1.682462454E0
3.124482913E1,-5.615247488E-1,9.944885969E-1,-1.628270030E0
3.126482913E1,-5.757317543E-1,1.032920718E0,-1.477264166E0
3.128485413E1,-4.463854134E-1,9.155124426E-1,-1.253512859E0
3.130682913E1,-2.679080367E-1,6.029763222E-1,-9.919579029E-1
3.132682913E1,-1.513200402E-1,2.681698501E-1,-7.877368927E-1
3.134682913E1,-7.449065149E-2,-9.424777818E-4,-6.467666626E-1
3.136684788E1,-4.152138159E-2,-1.874483675E-1,-4.853236973E-1
3.138883850E1,-9.779080003E-2,-2.258630544E-1,-2.938959897E-1
3.141083069E1,-2.000496387E-1,-1.494700015E-1,-1.401499361E-1
3.143282912E1,-2.733883858E-1,-8.154178411E-2,-2.628465928E-2
3.145282912E1,-2.720619142E-1,-4.338888451E-2,8.730136603E-2
3.147282912E1,-1.571494490E-1,1.349139493E-2,2.294060737E-1
3.149282913E1,1.457349956E-2,-2.408554312E-3,3.790680468E-1
3.151282913E1,9.204866737E-2,-9.210102260E-2,4.276056588E-1
3.153282913E1,3.337069601E-2,-1.948136538E-1,3.608991802E-1
3.155282913E1,-1.301317513E-1,-1.965938807E-1,2.293013632E-1
3.157282913E1,-2.762507200E-1,-2.384468764E-1,1.553692073E-1
3.159282912E1,-6.785491109E-1,-4.177096486E-1,-2.467895485E-2
3.161282912E1,-7.353246808E-1,-4.365766644E-1,-3.024830222E-1
3.163283069E1,-7.086036727E-3,1.663298719E-2,-1.359611452E-1
3.165482913E1,8.875522614E-1,5.724679828E-1,3.665540516E-1
3.167482913E1,9.217432737E-1,6.148969531E-1,4.582536519E-1
3.169482913E1,3.262020350E-1,2.650631666E-1,2.769837379E-1
3.171482912E1,-1.007927656E-1,-7.478735596E-2,5.461135134E-2
3.173482912E1,-1.354375482E-1,-1.232376993E-1,6.670648605E-2
3.175482912E1,-3.755948693E-2,-4.190535471E-2,2.696359158E-1
3.177483069E1,1.811128110E-1,3.063052893E-2,5.020439625E-1
3.179682913E1,4.014955461E-1,3.200933710E-2,6.457020044E-1
3.181682912E1,5.341231227E-1,8.429939859E-3,6.912550926E-1
3.183682912E1,6.188239455E-1,-3.963642567E-2,6.426651478E-1
3.185682912E1,6.159092188E-1,-1.435184181E-1,5.592907667E-1
3.187682912E1,5.053775311E-1,-3.127455413E-1,4.033979475E-1
3.189682913E1,3.408802450E-1,-4.419871867E-1,2.135235816E-1
3.191682913E1,1.453335732E-1,-4.673119187E-1,-3.616322204E-2
3.193682913E1,6.321582198E-2,-4.047418535E-1,-1.428202987E-1
3.195682913E1,9.466665983E-2,-3.242821693E-1,-1.503077596E-1
3.197683069E1,5.953317881E-2,-2.241351753E-1,-9.889035672E-2
3.199883225E1,-7.546803355E-2,-1.030965969E-1,-8.812167495E-2
3.202083069E1,-1.768193096E-1,-1.025380939E-1,-1.055400595E-1
3.204083069E1,-3.589444160E-1,-2.797937393E-1,-7.752752304E-2
3.206083069E1,-6.535210609E-1,-4.728794992E-1,-1.527163107E-2
3.208083069E1,-9.527228475E-1,-4.690921307E-1,2.495820867E-3
3.210083069E1,-1.117761254E0,-2.246587873E-1,1.841322333E-2
3.212083069E1,-1.359698772E0,-8.032005280E-2,4.398229718E-2
3.214083069E1,-1.523585200E0,-1.661204398E-1,-1.009149402E-1
3.216083069E1,-9.311854839E-1,-1.657539159E-1,-2.178694457E-1
3.218083069E1,1.201135591E-1,1.615127623E-1,1.104793418E-2
3.220083069E1,8.738514185E-1,3.667635024E-1,3.115936220E-1
3.222083069E1,1.103170276E0,1.443910897E-1,3.224146664E-1
3.224083069E1,8.557349443E-1,-1.720894575E-1,-6.436774135E-2
3.226083069E1,3.917740583E-1,-1.143714264E-1,-6.541494131E-1
3.228083069E1,-4.562290758E-2,4.020191431E-1,-9.969844222E-1
3.230083069E1,-1.941155195E-1,8.346164227E-1,-9.861633778E-1
3.232083069E1,1.413716655E-2,8.336041570E-1,-8.271813393E-1
3.234083069E1,3.079982400E-1,5.568822026E-1,-6.723182797E-1
3.236083069E1,5.214345455E-1,2.827607989E-1,-5.686806440E-1
3.238083069E1,4.686557949E-1,1.675516069E-1,-4.490732253E-1
3.240083069E1,1.929985136E-1,1.417905539E-1,-3.528008461E-1
3.242283069E1,-1.001819000E-1,9.346237779E-2,-2.810329199E-1
3.244483069E1,-2.539454103E-1,-2.391101047E-2,-1.726305187E-1
3.246483069E1,-2.842617631E-1,-1.431519091E-1,-3.740240633E-2
3.248483069E1,-3.520328999E-1,-1.945343912E-1,7.344345748E-2
3.250483069E1,-4.608716369E-1,-2.115862668E-1,2.267008126E-1
3.252682912E1,-4.316373765E-1,-2.149721980E-1,3.983016014E-1
3.254682912E1,-2.299645841E-1,-1.575683206E-1,5.739864111E-1
3.256684788E1,-8.686503768E-2,-7.653268427E-2,6.843435764E-1
3.258883850E1,-3.621558100E-2,4.101523664E-3,6.983760595E-1
3.261083069E1,6.422811653E-3,-5.942846090E-2,6.357710958E-1
3.263283069E1,9.875072539E-2,-1.756848395E-1,4.742583036E-1
3.265482912E1,2.172062248E-1,-1.350186765E-1,3.761009872E-1
3.267482912E1,1.581966430E-1,-3.675663471E-2,1.640783995E-1
3.269482913E1,1.609019041E-1,2.860245705E-1,1.104618907E-1
3.271482912E1,4.205370843E-1,5.750336051E-1,3.255388141E-1
3.273482913E1,5.062676668E-1,3.735353649E-1,3.986681104E-1
3.275483225E1,6.993534416E-2,-1.350884885E-1,2.359336019E-1
3.277682912E1,-5.340009332E-1,-2.432116270E-1,3.612831468E-3
3.279682912E1,-6.073571444E-1,3.057816811E-2,5.504768342E-2
3.281682913E1,-2.104517967E-1,3.345970809E-1,3.959628344E-1
3.283682912E1,1.439373046E-1,3.338116705E-1,7.276975513E-1
3.285682913E1,3.792949617E-1,2.111673802E-1,8.718617558E-1
3.287682912E1,5.339486003E-1,1.054178849E-1,9.182526469E-1
3.289682913E1,5.213647485E-1,6.164502725E-2,8.863829374E-1
3.291682912E1,3.429920971E-1,2.476622164E-2,7.613126040E-1
3.293682912E1,1.051386371E-1,-4.630358517E-2,5.530773997E-1
3.295682912E1,-6.485643238E-2,-1.090307161E-1,3.131644130E-1
3.297683069E1,-1.807113886E-1,-7.131415606E-2,1.289972812E-1
3.299883069E1,-2.216568142E-1,2.284635976E-2,6.803293526E-2
3.301883069E1,-1.906597614E-1,5.110324174E-2,3.722787276E-2
3.303883069E1,-1.497492492E-1,5.464625731E-2,5.689773243E-3
3.305883069E1,-1.416858286E-1,-4.206243437E-3,9.424777701E-3
3.307883069E1,-1.886351854E-1,-2.102598101E-1,9.302604944E-3
3.309883225E1,-3.318220079E-1,-5.485569835E-1,-6.045820564E-2
3.311883225E1,-5.158320665E-1,-8.350527883E-1,-1.489813030E-1
3.314083069E1,-6.236934066E-1,-7.926936150E-1,-2.391275615E-1
3.316083069E1,-3.759788275E-1,-3.839899004E-1,-3.134611249E-1
3.318083069E1,-4.841717780E-1,-1.074599251E-1,-2.694788277E-1
3.320083069E1,-9.913470149E-1,-2.050761878E-2,-4.484623373E-1
3.322282913E1,-9.216734767E-1,2.042209804E-1,-7.098253965E-1
3.324282912E1,6.689847261E-2,3.109827638E-1,-4.418999255E-1
3.326282912E1,1.035870314E0,-9.449212253E-2,2.825688012E-2
3.328283069E1,1.370432496E0,-5.284333229E-1,3.441789374E-2
3.330283069E1,1.123363733E0,-6.329087615E-1,-3.574259877E-1
3.332283069E1,6.399075389E-1,-1.494525373E-1,-9.004502892E-1
3.334482913E1,1.806939393E-1,5.910557508E-1,-1.202339888E0
3.336482912E1,1.928588748E-2,8.854928017E-1,-1.127971411E0
3.338483069E1,2.173982114E-1,7.713831663E-1,-9.617811441E-1
3.340683069E1,5.188689232E-1,3.771307468E-1,-7.958526611E-1
3.342883850E1,5.823290944E-1,4.448844120E-2,-6.571862698E-1
3.345083069E1,3.967482448E-1,-2.111848444E-3,-5.295503736E-1
3.347083069E1,1.428551972E-1,6.983062625E-2,-4.331732690E-1
3.349083069E1,-4.324925691E-2,1.002866179E-1,-3.357140720E-1
3.351083069E1,-1.329591870E-1,2.944370359E-2,-2.170666009E-1
3.353083069E1,-2.374520451E-1,-1.572541706E-2,-1.173733920E-1
3.355083069E1,-4.449542463E-1,-3.647738136E-3,6.178465672E-3
3.357083225E1,-5.148546696E-1,-1.546361670E-2,1.698205322E-1
3.359282912E1,-4.158596098E-1,-5.867796764E-2,3.809355497E-1
3.361283069E1,-2.713637948E-1,-9.929177910E-2,4.696331918E-1
3.363283069E1,-1.506044567E-1,-6.370452046E-2,4.940852523E-1
3.365283069E1,-1.253844500E-1,7.190756500E-3,5.332329869E-1
3.367483069E1,-8.573057503E-2,-3.324852139E-2,5.255709887E-1
3.369483069E1,-5.049237609E-2,-1.372177899E-1,4.150393009E-1
3.371483069E1,-3.855432197E-2,-9.848892689E-2,3.102322817E-1
3.373483069E1,-7.789404690E-2,9.293878078E-2,2.013237327E-1
3.375483069E1,-1.293463558E-1,2.534741759E-1,1.450368576E-2
3.377683069E1,6.003932562E-3,3.331833482E-1,6.155776232E-2
3.379883069E1,7.119547129E-1,3.817558587E-1,3.060958385E-1
3.381883069E1,9.754295945E-1,2.651678622E-1,4.896171987E-1
3.383883069E1,4.233819544E-1,-1.907644793E-2,4.202752709E-1
3.385883069E1,-3.900810778E-1,-2.804918587E-1,1.387885809E-1
3.387883069E1,-6.790901423E-1,-3.528706729E-1,1.052433532E-2
3.389883069E1,-4.048465788E-1,-7.492698729E-2,1.880592257E-1
3.391883225E1,-4.277801886E-2,2.646442652E-1,5.314876437E-1
3.394083069E1,2.062106431E-1,3.472507000E-1,8.451233506E-1
3.396083069E1,4.270296991E-1,2.008175850E-1,8.813563585E-1
3.398083069E1,6.484072804E-1,-3.214896470E-2,8.228005767E-1
3.400083069E1,7.763573527E-1,-1.282293350E-1,7.354119420E-1
3.402083069E1,7.686604261E-1,-9.686577320E-2,6.616019607E-1
3.404083069E1,7.027742863E-1,-8.979719132E-2,4.920432270E-1
3.406283069E1,4.833340347E-1,-1.373399645E-1,1.280373484E-1
3.408283069E1,1.892635077E-1,-1.109680310E-1,-1.933475733E-1
3.410483069E1,-1.851096153E-1,-4.387757555E-2,-3.467271030E-1
3.412683069E1,-4.673293531E-1,-1.205149814E-1,-3.582811952E-1
3.414883694E1,-6.872757673E-1,-4.106061459E-1,-4.056668878E-1
3.417083069E1,-7.164576650E-1,-6.469411850E-1,-4.911530912E-1
3.419083069E1,-6.402915120E-1,-5.725377798E-1,-4.301887453E-1
3.421283069E1,-7.400021553E-1,-2.797762752E-1,-2.161764801E-1
3.423283069E1,-9.565277100E-1,-6.108652428E-2,-5.839871615E-2
3.425283069E1,-9.790948033E-1,3.087487444E-2,-8.801695704E-2
3.427482913E1,-8.270591497E-1,7.054620981E-2,1.596976258E-2
3.429482912E1,-8.479332924E-1,8.634144068E-2,2.387784868E-1
3.431483069E1,-1.021506310E0,-8.237954229E-3,4.429994822E-1
3.433483069E1,-9.456194043E-1,-1.232027933E-1,4.956909716E-1
3.435483069E1,-5.978800058E-1,-1.596452594E-1,4.998448491E-1
3.437483069E1,4.810127243E-2,6.983062625E-2,5.637937188E-1
3.439483069E1,8.649153709E-1,2.336297780E-1,6.649355292E-1
3.441683069E1,1.386192799E0,-1.776745170E-2,6.384414434E-1
3.443883069E1,1.150276661E0,-2.154085338E-1,1.502553970E-1
3.445883069E1,4.962494671E-1,-1.193630695E-1,-5.131617188E-1
3.447883069E1,1.593485661E-2,2.301042080E-1,-9.518502355E-1
3.449883381E1,-1.115614474E-1,5.110847354E-1,-1.023810148E0
3.451883381E1,1.247735843E-1,4.087910056E-1,-9.409244657E-1
3.453883694E1,4.177096486E-1,9.084438533E-2,-8.686329126E-1
3.456083069E1,5.502150655E-1,-1.665044129E-1,-8.477413058E-1
3.458083069E1,4.078834355E-1,-1.882512122E-1,-8.087332249E-1
3.460083069E1,1.663473248E-1,-1.191361770E-1,-7.756068707E-1
3.462083069E1,-1.661553420E-2,-9.791296721E-2,-7.532491684E-1
3.464083069E1,-9.738937020E-2,-7.347836345E-2,-7.064394951E-1
3.466083069E1,-1.553866565E-1,-4.016002640E-2,-5.852612853E-1
3.468083069E1,-1.956863105E-1,-1.247910410E-2,-3.947236538E-1
3.470083069E1,-1.702743173E-1,1.151917269E-3,-1.854237765E-1
3.472083069E1,-1.733984649E-1,5.270894151E-3,-6.236061454E-2
3.474083069E1,-1.993515044E-1,2.989749052E-2,1.932079531E-2
3.476083069E1,-2.301740199E-1,8.669050038E-2,1.463109553E-1
3.478282912E1,-1.191885322E-1,1.293463558E-1,3.622430861E-1
3.480283069E1,9.880308807E-2,4.363323096E-4,5.091997981E-1
3.482283069E1,2.153387219E-1,-2.738421559E-1,2.957285941E-1
3.484482913E1,1.690002382E-1,-2.053205371E-1,-1.219112501E-1
3.486483069E1,6.180210784E-2,1.254717261E-1,-2.418851852E-1
3.488484944E1,-4.743804783E-2,2.009746581E-1,-3.588396907E-1
3.490683225E1,1.168323383E-1,6.091199070E-2,-4.922352135E-1
3.492883069E1,6.326818466E-1,1.702917814E-1,-3.232698739E-1
3.494884475E1,9.423556328E-1,2.868972123E-1,-3.691371530E-2
3.497083069E1,5.740911365E-1,2.223898470E-1,5.253440887E-2
3.499083069E1,-9.019861370E-2,4.300491139E-2,-2.242748067E-2
3.501083069E1,-3.218910694E-1,-5.874778330E-2,-1.146681327E-2
3.503083069E1,-1.251226515E-1,-6.410594285E-2,2.797762752E-1
3.505083069E1,1.570098251E-1,-8.487536013E-2,7.004529834E-1
3.507083069E1,3.479139209E-1,-1.034805700E-1,9.145699739E-1
3.509083069E1,4.365766644E-1,-2.583087236E-2,9.838770032E-1
3.511083069E1,5.163556337E-1,9.115854651E-2,9.218654633E-1
3.513083069E1,5.592035055E-1,1.664171368E-1,7.526906729E-1
3.515283225E1,5.561840534E-1,1.822821796E-1,4.865978062E-1
3.517482912E1,4.130321741E-1,1.076868176E-1,1.917593181E-1
3.519482913E1,9.978047013E-2,4.471533373E-2,-5.249950290E-2
3.521482912E1,-2.956587672E-1,-1.190314535E-2,-2.731091082E-1
3.523482913E1,-6.004106998E-1,-8.194320649E-2,-4.249527752E-1
3.525482912E1,-7.104362845E-1,-1.568527371E-1,-4.548327923E-1
3.527482913E1,-5.266356468E-1,-2.318146378E-1,-3.686309755E-1
3.529483069E1,-4.077089131E-1,-3.042109013E-1,-1.409004331E-1
3.531682913E1,-6.480931044E-1,-3.345272541E-1,1.366941929E-1
3.533682912E1,-9.724102020E-1,-4.894950390E-1,2.308197916E-1
3.535682913E1,-1.106172204E0,-7.796036601E-1,2.084621191E-1
3.537682912E1,-8.736943603E-1,-8.370599151E-1,2.331585288E-1
3.539683069E1,-6.015975475E-1,-6.837850809E-1,3.410547972E-1
3.541683069E1,-7.446796298E-1,-5.263389349E-1,3.584906161E-1
3.543883069E1,-8.801171780E-1,-4.020540416E-1,3.188716620E-2
3.545883225E1,-2.154259831E-1,-9.142034501E-2,-1.902932525E-1
3.548083069E1,9.221621752E-1,2.989749014E-1,5.422737822E-2
3.550083069E1,1.558596492E0,2.652551532E-1,2.099456489E-1
3.552083069E1,1.547356606E0,-1.228711754E-1,-1.212829277E-1
3.554083069E1,1.049571157E0,-4.535936117E-1,-7.219903469E-1
3.556083069E1,4.586027265E-1,-2.416059226E-1,-1.220595956E0
3.558083069E1,2.809980139E-2,2.495646328E-1,-1.437173963E0
3.560083069E1,-6.475171540E-3,4.282339811E-1,-1.432409167E0
3.562083069E1,3.518932760E-1,2.872811854E-1,-1.497335434E0
3.564083069E1,5.932723284E-1,1.092750654E-1,-1.559434175E0
3.566083069E1,5.289394855E-1,9.883799404E-2,-1.557270050E0
3.568083069E1,2.900911868E-1,1.848129183E-1,-1.504369140E0
3.570083069E1,8.100073040E-2,2.381327152E-1,-1.411953926E0
3.572083069E1,6.455972791E-2,2.446777076E-1,-1.299659371E0
3.574083069E1,2.251823843E-1,1.756673902E-1,-1.101512194E0
3.576083069E1,3.853861392E-1,1.054353416E-1,-8.788779974E-1
3.578083069E1,4.251098335E-1,1.163436472E-1,-6.898064613E-1
3.580083069E1,4.082848728E-1,1.622283608E-1,-5.405633450E-1
3.582083069E1,5.172457695E-1,1.496619880E-1,-3.912853599E-1
3.584083069E1,7.320957780E-1,1.358913332E-1,-2.117782533E-1
3.586083069E1,9.571211338E-1,1.100779176E-1,-6.894050539E-2
3.588083069E1,1.050618410E0,1.186998412E-1,-3.748967126E-2
3.590083069E1,9.528974295E-1,2.746799290E-1,-8.129743487E-2
3.592283069E1,6.948155761E-1,5.326395631E-1,-1.449670494E-1
3.594482913E1,4.449542463E-1,7.061601877E-1,-2.418153733E-1
3.596483069E1,1.859299242E-1,6.419146657E-1,-3.271619678E-1
3.598683069E1,-3.964166343E-1,1.166054457E-1,-4.841717780E-1
3.600683069E1,-5.193052888E-1,-4.759512842E-2,-6.513743401E-1
3.602683069E1,-3.693116829E-2,5.831145048E-1,-5.704085231E-1
3.604683069E1,6.557202339E-2,1.028382897E0,-3.141243458E-1
3.606684944E1,-3.427826762E-1,8.426623940E-1,-2.102772743E-1
3.608883069E1,-7.734426260E-1,3.491007686E-1,-2.665117681E-1
3.610883069E1,-7.805112600E-1,6.469935179E-2,-1.942725927E-1
3.612883069E1,-5.730614066E-1,-3.214896470E-2,4.464552179E-2
3.614884788E1,-2.404365540E-1,-5.986479111E-3,3.105115294E-1
3.617082913E1,3.956661373E-2,5.155702680E-2,4.735601842E-1
3.619083069E1,1.545488983E-1,3.892084211E-2,4.973664880E-1
3.621282912E1,1.670978218E-1,1.083849464E-2,4.451811314E-1
3.623282912E1,1.490685642E-1,-7.780677825E-2,3.221703172E-1
3.625282913E1,1.262222081E-1,-2.174680233E-1,1.936093718E-1
3.627283069E1,8.669050038E-2,-2.853962481E-1,9.192649275E-2
3.629482912E1,7.518878579E-2,-2.864085436E-1,4.061381146E-2
3.631482912E1,5.656611919E-2,-2.839650810E-1,-6.946410518E-3
3.633482912E1,9.642943740E-2,-2.403492928E-1,-4.590215907E-2
3.635482912E1,1.744631082E-1,-1.724908948E-1,-6.113888323E-2
3.637482913E1,2.292315364E-1,-1.064650863E-1,-5.942846090E-2
3.639482912E1,2.792875767E-1,-6.675884128E-2,-6.485643238E-2
3.641482913E1,1.992467940E-1,-9.044296294E-2,-8.696975559E-2
3.643482912E1,-3.099704720E-2,-2.017949671E-1,-1.180889755E-1
3.645483069E1,-2.017251551E-1,-2.154957950E-1,-1.904154271E-1
3.647683069E1,-2.632130980E-1,-7.525859773E-2,-1.659633517E-1
3.649683225E1,-4.105712473E-1,-6.503096968E-2,-1.647241712E-1
3.651883069E1,-7.119197845E-1,6.487388909E-2,-3.018895984E-1
3.653883069E1,-8.574278951E-1,3.060085773E-1,-3.148922920E-1
3.655883069E1,-5.350655913E-1,4.033455849E-1,-1.574112475E-1
3.657883069E1,3.153984547E-1,3.687357008E-1,7.960446924E-2
3.659883069E1,1.126173735E0,1.123119369E-1,2.842966914E-1
3.661883069E1,1.358756304E0,-2.294235229E-1,2.838079929E-1
3.663883069E1,9.995849729E-1,-5.403539538E-1,-4.858996719E-2
3.665883069E1,4.505916536E-1,-3.827856183E-1,-4.101872742E-1
3.668083069E1,-2.885029279E-2,6.955137104E-2,-5.551543236E-1
3.670083069E1,-2.930582464E-1,5.640904233E-2,-5.888042450E-1
3.672083069E1,-2.546086311E-1,-1.511280537E-1,-6.217560768E-1
3.674083069E1,-3.103195317E-2,-2.077116370E-1,-5.812644362E-1
3.676083069E1,6.536258012E-2,-7.508406043E-2,-4.521799088E-1
3.678083069E1,4.016002640E-2,4.256857932E-2,-3.951948881E-1
3.680083069E1,6.384414434E-2,1.183507740E-1,-3.876550794E-1
3.682083069E1,1.363276690E-1,1.559277177E-1,-3.129375279E-1
3.684083069E1,1.742187589E-1,1.992118806E-1,-2.277131081E-1
3.686283069E1,4.710643739E-2,1.995434910E-1,-1.981821358E-1
3.688283069E1,-1.457873583E-1,1.655793786E-1,-1.812175363E-1
3.690283069E1,-2.268229872E-1,1.971349418E-1,-1.466949284E-1
3.692283069E1,-2.194402516E-1,2.494773567E-1,-7.953465730E-2
3.694283069E1,-1.231853366E-1,2.911383808E-1,-1.623156108E-2
3.696283069E1,-3.836233541E-2,2.878047824E-1,2.241002768E-2
3.698482913E1,1.004960611E-1,2.380978167E-1,3.291691095E-2
3.700482912E1,2.404191047E-1,1.864360720E-1,3.185226023E-2
3.702483069E1,3.986157477E-1,3.029193580E-1,2.026327327E-2
3.704483069E1,4.043753445E-1,4.850619137E-1,-2.771582827E-2
3.706483069E1,-7.471754402E-2,6.440264732E-2,-2.096489519E-1
3.708483069E1,-6.453005672E-1,-3.781779408E-1,-5.864306092E-1
3.710483069E1,-3.028844297E-1,7.068583369E-2,-5.567949414E-1
3.712683069E1,4.387583137E-1,6.951297522E-1,-1.283864230E-1
3.714683069E1,4.550946057E-1,5.947558284E-1,5.508258939E-2
3.716684944E1,1.038645431E-1,2.395813465E-1,2.813470736E-2
3.718883069E1,-5.838126317E-2,2.021091245E-2,9.735446423E-2
3.720883069E1,5.969026126E-3,1.154709831E-1,2.453234792E-1
3.723083069E1,5.674065277E-2,2.482905388E-1,3.316823840E-1
3.725083069E1,6.496115774E-2,3.028669953E-1,3.498337865E-1
3.727083069E1,8.431685716E-2,3.497465253E-1,3.880739510E-1
3.729083069E1,9.751154482E-2,3.454006612E-1,4.029616117E-1
3.731083069E1,1.622108966E-1,2.508736253E-1,3.644945621E-1
3.733083069E1,3.066717982E-1,1.383347958E-1,3.007725775E-1
3.735083069E1,4.041135311E-1,1.060462072E-1,2.687981427E-1
3.737083069E1,3.168470860E-1,1.018050537E-1,2.497566193E-1
3.739083069E1,1.498016119E-1,1.110727564E-1,1.881988496E-1
3.741083069E1,3.913028166E-2,7.297221571E-2,9.800023586E-2
3.743283069E1,4.534365237E-2,1.404990070E-2,5.338962004E-2
3.745283069E1,1.614604145E-1,-9.993755072E-2,4.183554277E-2
3.747283069E1,3.979350626E-1,-3.174230158E-1,4.525638744E-2
3.749283069E1,4.621806443E-1,-4.341157377E-1,9.061749279E-2
3.751283069E1,2.777342498E-1,-4.413588643E-1,1.524545103E-1
3.753483069E1,2.508038096E-2,-3.520154655E-1,1.612335145E-1
3.755483069E1,-6.806784123E-2,-2.007826716E-1,8.253662288E-2
3.757483069E1,5.534439161E-2,-5.759586347E-4,8.016297221E-2
3.759483069E1,3.157300502E-2,-1.020319462E-1,1.872912794E-1
3.761682912E1,-2.690250576E-1,-3.146828711E-1,1.066047102E-1
3.763683069E1,-6.548126340E-1,-4.025776386E-1,-4.412192479E-2
3.765883069E1,-5.898689032E-1,-2.329316437E-1,-1.768018492E-2
3.767883069E1,8.356636763E-2,1.874483563E-2,1.827534288E-1
3.769883069E1,6.034999490E-1,-5.391322076E-2,3.067066967E-1
3.771883069E1,6.144082546E-1,-1.702394187E-1,2.144835144E-1
3.773883538E1,3.546683490E-1,-6.504841894E-2,-4.345869645E-3
3.776083069E1,1.635199040E-1,1.033758521E-1,-1.103397161E-1
3.778282912E1,1.305680871E-1,1.774476171E-1,-1.825614423E-1
3.780282912E1,1.277231872E-1,1.371828765E-1,-2.326000333E-1
3.782282913E1,1.101302728E-1,1.308473349E-1,-2.348165959E-1
3.784282912E1,1.048942879E-1,1.661728024E-1,-1.583362669E-1
3.786282913E1,1.212131158E-1,1.826661527E-1,-7.260569930E-2
3.788282912E1,1.064650863E-1,1.702568680E-1,-3.417354822E-2
3.790282913E1,6.684611086E-3,1.526290476E-1,-1.570796303E-4
3.792283069E1,-1.262571216E-1,1.630137563E-1,4.260348529E-2
3.794482913E1,-2.058266848E-1,1.378111988E-1,1.129751652E-1
3.796482912E1,-2.087239176E-1,5.829399824E-2,1.809731871E-1
3.798482913E1,-1.502030343E-1,1.734857261E-2,2.461437881E-1
3.800482912E1,8.761553094E-3,1.049990058E-1,3.146828711E-1
3.802482913E1,1.658237278E-1,1.984962970E-1,3.775670826E-1
3.804482912E1,2.065248042E-1,1.273043156E-1,3.145606816E-1
3.806482912E1,1.965415329E-1,5.017821491E-2,1.258905977E-1
3.808483069E1,1.200611964E-1,4.553563893E-2,1.755801216E-2
3.810682913E1,-5.372123420E-2,2.210983038E-1,2.593559213E-2
3.812682912E1,-3.478790224E-1,2.732836604E-1,5.358160939E-3
3.814682913E1,-6.394363046E-1,6.443755329E-2,-1.153488085E-1
3.816684944E1,-6.475346088E-1,-5.855579674E-2,-1.478817463E-1
3.818883069E1,-1.648288965E-1,1.564164013E-1,3.682644805E-3
3.820883069E1,2.721841037E-1,3.805690408E-1,2.391973734E-1
3.822883694E1,1.746900082E-1,2.090729922E-1,4.530874789E-1
3.825083069E1,-3.246836066E-1,-1.641307622E-1,4.488812387E-1
3.827083069E1,-4.332256317E-1,-2.303136438E-1,3.774274588E-1
3.829283069E1,-2.740341425E-1,-1.327846497E-1,5.133187771E-1
3.831283069E1,-1.682322919E-1,-5.777039751E-2,6.496464610E-1
3.833482912E1,-1.977981627E-1,-3.221877664E-2,6.012484431E-1
3.835483069E1,-1.440594792E-1,4.904375412E-3,5.581911802E-1
3.837682912E1,8.618436009E-2,1.110203937E-1,5.869193077E-1
3.839682913E1,2.338217646E-1,1.690002382E-1,5.780181289E-1
3.841683069E1,2.896722853E-1,1.976410896E-1,5.139994621E-1
3.843883069E1,2.463706732E-1,1.247212291E-1,4.263664782E-1
3.845883069E1,1.056622341E-1,5.703736097E-2,3.581764698E-1
3.847883069E1,-3.244566917E-2,1.329940930E-2,2.924997211E-1
3.849883069E1,-1.475501359E-1,-3.054326167E-3,2.202430964E-1
3.851883069E1,-2.062281072E-1,-1.504473854E-2,1.652303189E-1
3.853883069E1,-1.580395699E-1,-1.134464052E-2,1.353677362E-1
3.855883694E1,-1.186823919E-1,-1.745329238E-2,1.116487086E-1
3.858083069E1,-4.134684801E-2,-4.916592315E-2,9.747663885E-2
3.860083069E1,1.704139411E-1,-1.758768260E-1,1.521927118E-1
3.862083069E1,4.608541727E-1,-1.728399545E-1,1.925272644E-1
3.864083069E1,3.156951666E-1,-4.852015153E-2,1.059938446E-1
3.866083069E1,-1.414938420E-1,1.899616420E-1,1.247212291E-1
3.868083069E1,-3.091152608E-1,3.986157477E-1,2.231054306E-1
3.870083069E1,-3.076666296E-1,1.262920201E-1,3.056595027E-1
3.872083069E1,-5.088507533E-1,-3.280346394E-1,2.638937831E-1
3.874083069E1,-8.166220784E-1,-6.264859438E-1,8.925613761E-2
3.876083069E1,-8.411090970E-1,-4.787961841E-1,-5.934119225E-3
3.878083069E1,-2.668084800E-1,1.256637042E-3,7.007496804E-2
3.880083069E1,3.674616218E-1,1.823520064E-1,1.703092307E-1
3.882083069E1,5.508957505E-1,-9.810495377E-2,1.062730998E-1
3.884083069E1,4.233470559E-1,-2.340312004E-1,-2.032435834E-1
3.886083069E1,1.646543592E-1,-1.282467991E-1,-4.523718953E-1
3.888083069E1,2.054252476E-2,7.939502597E-2,-5.593605638E-1
3.890083069E1,1.019446775E-1,2.423913330E-1,-5.834635496E-1
3.892083069E1,2.096489519E-1,2.244668007E-1,-5.403015614E-1
3.894083069E1,2.772804499E-1,1.389456540E-1,-5.070530772E-1
3.896083069E1,3.106860518E-1,9.951867163E-2,-4.317944646E-1
3.898083069E1,3.349635899E-1,4.792674258E-2,-3.401472270E-1
3.900083069E1,2.056172341E-1,1.616174914E-2,-2.889916301E-1
3.902083069E1,4.937536269E-2,-3.572688997E-2,-2.785021961E-1
3.904083069E1,8.290314116E-3,-4.309218004E-2,-2.488490492E-1
3.906083069E1,-1.542871073E-2,-3.618067503E-2,-2.025105506E-1
3.908083069E1,-9.047786891E-2,-7.229153812E-2,-1.616349369E-1
3.910083069E1,-1.151393726E-1,-8.614945412E-2,-1.582664549E-1
3.912083069E1,-1.141968891E-1,-2.926917188E-2,-1.557706296E-1
3.914083069E1,-5.920156837E-2,1.223126724E-1,-1.452113986E-1
3.916083069E1,-2.635447122E-2,1.406909972E-1,-1.300793886E-1
3.918083069E1,-3.237585723E-2,1.082802266E-1,-2.026850879E-1
3.920083069E1,2.356194425E-3,1.241801754E-1,-2.711543441E-1
3.922083069E1,4.427900165E-2,1.120152324E-1,-2.592861056E-1
3.924282912E1,-1.503252089E-1,-4.897394031E-2,-2.656041980E-1
3.926282912E1,-7.318165302E-1,-4.660901725E-1,-4.829151630E-1
3.928283069E1,-9.379922748E-1,-4.059286714E-1,-6.076363921E-1
3.930283069E1,-4.294207990E-1,1.537460536E-1,-4.207639694E-1
3.932483069E1,3.224670291E-1,6.602755189E-1,-3.804817796E-2
3.934683069E1,5.542293191E-1,6.934716702E-1,1.426108479E-1
3.936684944E1,2.578549385E-1,1.644274741E-1,1.528908461E-1
3.938883694E1,-5.112069473E-2,-4.598768055E-1,1.554215699E-1
3.941083069E1,-1.155408006E-2,-6.190857291E-1,9.663888067E-2
3.943083069E1,3.703588620E-2,-4.359832406E-1,1.038470864E-1
3.945083069E1,-7.677703351E-2,-1.575159580E-1,1.390678287E-1
3.947083069E1,-2.150245607E-1,-1.717403904E-2,1.350186765E-1
3.949083069E1,-1.911484599E-1,5.309291556E-2,1.084722131E-1
3.951083069E1,4.354596511E-2,1.129402518E-1,1.346347034E-1
3.953282912E1,2.462659627E-1,1.183333248E-1,2.205572575E-1
3.955282912E1,2.602460384E-1,1.372352391E-1,2.555336654E-1
3.957282913E1,2.102249116E-1,1.394169033E-1,2.304532677E-1
3.959282912E1,1.209687665E-1,9.777334332E-2,1.901187152E-1
3.961282913E1,2.296853252E-2,5.892231688E-2,1.256637126E-1
3.963282912E1,-5.777040031E-3,6.614797562E-2,6.550220400E-2
3.965282913E1,-2.410299703E-2,6.147049740E-2,2.129301615E-2
3.967282912E1,-1.640609466E-2,3.038618155E-2,-1.199041214E-2
3.969282912E1,-3.693116829E-2,-4.314453900E-2,-4.009021446E-2
3.971282912E1,-1.033758521E-1,-2.071007639E-1,-5.318018049E-2
3.973282912E1,-1.568527371E-1,-3.332706094E-1,-1.895427518E-2
3.975283069E1,-7.197737694E-2,-3.247534037E-1,1.029744279E-2
3.977483069E1,1.560149789E-1,-5.235987902E-2,3.181735054E-2
3.979483069E1,3.433237076E-1,1.866629571E-1,3.700098023E-2
3.981483069E1,2.610139847E-1,8.468337357E-2,-2.443460980E-4
3.983683069E1,-8.485791087E-2,-3.312634826E-1,-2.187770158E-1
3.985683069E1,-3.649483323E-1,-6.906268001E-1,-3.996105790E-1
3.987883069E1,-3.007202148E-1,-7.753624916E-1,-4.471533597E-1
3.989883069E1,-6.925466657E-2,-7.005751729E-1,-3.214198351E-1
3.991883225E1,-1.334827840E-1,-5.803568959E-1,-1.462062299E-1
3.993883694E1,-4.129274487E-1,-4.294731617E-1,-1.283864230E-1
3.996083069E1,-5.309640765E-1,-3.167772591E-1,-2.186373919E-1
3.998083069E1,-2.941228747E-1,-3.177720904E-1,-2.982593179E-1
4.000083069E1,-4.728097096E-2,-2.782578468E-1,-3.326422870E-1
4.002083069E1,-1.867502346E-3,-1.170243248E-1,-3.247708678E-1
4.004083069E1,-1.125562862E-1,1.606401056E-1,-3.105638921E-1
4.006083069E1,-1.125562862E-1,3.738844395E-1,-2.549577057E-1
4.008083069E1,-4.968952388E-2,4.370653629E-1,-1.737475246E-1
4.010083069E1,-8.360126987E-3,3.950552642E-1,-1.141619831E-1
4.012083069E1,-6.246533245E-2,2.837556303E-1,-8.395033330E-2
4.014083069E1,-1.458048075E-1,2.011317462E-1,-6.934192777E-2
4.016083069E1,-1.592961997E-1,2.170666009E-1,-4.660028964E-3
4.018083069E1,-1.553866565E-1,2.551671267E-1,1.204975322E-1
4.020083069E1,-1.043357849E-1,2.681872845E-1,2.076243609E-1
4.022083069E1,-1.300270297E-2,3.492403924E-1,2.114291787E-1
4.024083069E1,2.335250564E-2,4.425805807E-1,2.065073550E-1
4.026083069E1,2.268928103E-2,4.791975915E-1,1.939409822E-1
4.028083069E1,8.328711241E-2,3.770434856E-1,1.887748092E-1
4.030083069E1,1.426457614E-1,2.195973247E-1,1.936791837E-1
4.032083069E1,1.385442317E-1,2.270673364E-1,1.179842576E-1
4.034083069E1,9.014625847E-2,4.290891886E-1,5.750859901E-2
4.036083069E1,-5.455899239E-2,5.878967047E-1,8.524188399E-2
4.038083069E1,-1.345823407E-1,5.009443760E-1,1.112123802E-1
4.040083069E1,1.406735368E-2,2.559350729E-1,1.902059764E-1
4.042283069E1,4.135557711E-1,1.558229923E-1,2.724982500E-1
4.044482913E1,6.677455306E-1,2.020393163E-1,3.346145153E-1
4.046483069E1,4.168544412E-1,7.517132908E-2,3.806563020E-1
4.048483069E1,-9.564404190E-2,-2.054950595E-1,3.943746090E-1
4.050483069E1,-3.371103406E-1,-3.068812490E-1,3.249977529E-1
4.052483069E1,-3.140719831E-1,-2.481683642E-1,3.433760703E-1
4.054483069E1,-1.679879427E-1,-6.169738993E-2,4.512199759E-1
4.056483069E1,-6.258750707E-2,1.443736404E-1,5.682094097E-1
4.058483069E1,4.022983834E-2,2.811900079E-1,6.077236533E-1
4.060483069E1,2.164731920E-1,3.467271030E-1,5.784021020E-1
4.062683069E1,3.552094102E-1,3.874805570E-1,5.407204628E-1
4.064683069E1,2.988527119E-1,3.141767085E-1,4.599815309E-1
4.066684944E1,9.595820308E-2,2.143787891E-1,3.149970174E-1
4.068883069E1,-6.702063978E-2,5.426228791E-2,1.278453618E-1
4.070883381E1,-1.888446324E-2,-5.660102889E-2,2.132792398E-2
