"Time (s)","Linear Acceleration x (m/s^2)","Linear Acceleration y (m/s^2)","Linear Acceleration z (m/s^2)"
5.979687000E-3,-3.998000026E-1,7.834999561E-1,1.102499962E0
2.597968700E-2,5.329999700E-2,1.229799986E0,1.572899938E0
4.597968700E-2,8.552999496E-1,1.308300018E0,1.918699980E0
6.600156200E-2,1.073699951E0,9.416999817E-1,2.231799841E0
9.597812500E-2,2.666999996E-1,1.131299973E0,1.771999955E0
1.159859370E-1,2.351999879E-1,2.788999975E-1,1.798999906E0
1.459796870E-1,1.645900011E0,-2.113600016E0,3.315399885E0
1.659984370E-1,2.436899900E0,-2.872400045E0,2.885999918E0
1.959781250E-1,2.688899994E0,-3.562599897E0,1.613600016E0
2.159812500E-1,2.774399996E0,-3.841399908E0,1.417999983E0
2.459796870E-1,2.135299921E0,-3.053299904E0,9.088999629E-1
2.660187500E-1,2.038899899E0,-2.896299839E0,1.051900029E0
2.959796870E-1,1.045899987E0,-1.417099953E0,-6.030000001E-2
3.159796870E-1,1.037999988E-1,-2.317999899E-1,-1.039499998E0
3.359796870E-1,-1.481999904E-1,3.048999906E-1,-2.256999969E0
3.559843750E-1,7.251999974E-1,-2.228999883E-1,-2.649499893E0
3.859796870E-1,-1.200999990E-1,3.587999940E-1,-3.095199823E0
4.059828120E-1,-1.600600004E0,1.783100009E0,-2.248600006E0
4.359796870E-1,-1.341399908E0,6.696000099E-1,-3.148999810E-1
4.559859370E-1,-2.234999985E-1,6.093999743E-1,-6.229000092E-1
4.859796870E-1,-6.904999614E-1,1.220899940E0,2.451999933E-1
5.059812500E-1,-6.746000051E-1,1.459499955E0,-7.369999588E-2
5.359796870E-1,4.177999794E-1,1.813599944E0,2.109999955E-2
5.659984370E-1,-1.919000000E-1,2.128299952E0,2.090999931E-1
5.959781250E-1,-4.255999923E-1,2.118700027E0,1.604000032E-1
6.159796870E-1,9.655999541E-1,2.087399960E0,2.918999791E-1
6.459796870E-1,-6.094999909E-1,1.973399997E0,-2.038999945E-1
6.659984370E-1,-5.214999914E-1,2.236700058E0,-6.300000008E-3
6.959796870E-1,-6.513000131E-1,2.118999958E0,7.290999889E-1
7.159796870E-1,-4.745000005E-1,1.473099947E0,1.107299924E0
7.459796870E-1,3.971999884E-1,-1.361999959E-1,2.271299839E0
7.660125000E-1,-9.059999883E-2,-7.684999704E-1,2.521899939E0
7.959781250E-1,-1.314000010E0,-7.832999825E-1,7.020999789E-1
8.159796870E-1,-1.080500007E0,-8.580999970E-1,-1.296000034E-1
8.459781250E-1,-6.938999891E-1,-1.148899913E0,1.735000014E-1
8.659984370E-1,-9.684000015E-1,-1.178300023E0,4.093999863E-1
8.959796870E-1,-1.132599950E0,-1.153999925E0,3.109999895E-1
9.259781250E-1,-9.645999670E-1,-9.264000058E-1,-2.597999871E-1
9.459796870E-1,-6.341999769E-1,-7.116000056E-1,-3.533000052E-1
9.660000000E-1,-2.002999932E-1,-5.270999670E-1,-1.015599966E0
9.959781250E-1,-3.402999938E-1,8.060000092E-2,-2.767299891E0
1.015978125E0,-5.870000124E-1,-8.810000122E-2,-3.158900023E0
1.035979687E0,-4.594999850E-1,4.027999938E-1,-3.429899931E0
1.065996875E0,7.979999781E-1,-1.082199931E0,-3.289799929E0
1.095978125E0,-1.208999977E-1,-1.102699995E0,-6.151999831E-1
1.115979687E0,-1.181200027E0,2.903100014E0,3.565099955E0
1.145979687E0,3.118000031E-1,7.026999593E-1,2.491699934E0
1.165998437E0,1.799799919E0,8.379999548E-2,-1.588999987E0
1.195978125E0,-1.909999967E0,-4.562999904E-1,1.455399990E0
1.215978125E0,-8.327999711E-1,1.591999978E-1,1.286399961E0
1.235978125E0,-1.671999991E-1,1.664600015E0,-5.094699860E0
1.255978125E0,-1.931399941E0,3.110899925E0,-1.240100026E0
1.275978125E0,-3.266899824E0,2.355700016E0,6.959999800E-1
1.295978125E0,-2.408999920E0,-7.279999554E-2,1.860700011E0
1.315978125E0,-3.154999912E-1,2.361999899E-1,4.845599651E0
1.335978125E0,1.460500002E0,-6.107000113E-1,5.394000053E0
1.355978125E0,2.095099926E0,-9.842000008E-1,4.254399776E0
1.375978125E0,5.827000141E-1,-1.582499981E0,1.701900005E0
1.395978125E0,-6.227999926E-1,-5.928999782E-1,2.479999959E-1
1.415978125E0,2.073999941E-1,-8.999999762E-1,-4.600000102E-3
1.435978125E0,1.316499949E0,-1.270499945E0,-1.859000027E-1
1.455979687E0,1.390999913E0,-8.646000028E-1,-9.011999965E-1
1.475979687E0,3.830000013E-2,-6.969999522E-2,-9.192999601E-1
1.505979687E0,-2.800000012E-1,6.771000028E-1,4.235000014E-1
1.535979687E0,9.738999605E-1,-5.938000083E-1,-7.839999795E-1
1.565996875E0,2.836000025E-1,-4.416999817E-1,-2.144099951E0
1.595978125E0,-5.873999596E-1,-1.708000004E-1,-5.399000049E-1
1.615979687E0,-2.407999933E-1,1.009999961E-2,-1.205500007E0
1.645979687E0,-1.334999949E-1,-1.119999960E-1,-5.598999858E-1
1.665998437E0,-1.109999977E-2,1.889999956E-1,-1.052500010E0
1.695978125E0,1.935999990E-1,-4.948000014E-1,-3.137199879E0
1.715978125E0,1.697499990E0,1.900999993E-1,-5.770400047E0
1.735978125E0,-7.639999688E-2,1.237699986E0,7.970000058E-2
1.755978125E0,6.816999912E-1,5.875999928E-1,4.148699760E0
1.775978125E0,-4.078999758E-1,-2.063699961E0,2.184200048E0
1.795978125E0,1.477399945E0,-1.133199930E0,1.341199994E0
1.815978125E0,1.091400027E0,-9.860000014E-2,-1.566499949E0
1.835978125E0,-9.788999557E-1,1.009099960E0,-1.057500005E0
1.855978125E0,-2.357199907E0,2.056099892E0,-5.486999750E-1
1.875978125E0,-3.112999916E0,1.931599975E0,8.219999820E-2
1.895978125E0,-2.172800064E0,1.641299963E0,-5.975999832E-1
1.915978125E0,-2.813099861E0,2.013200045E0,-7.123000026E-1
1.935978125E0,-1.439700007E0,8.588999510E-1,-4.283999801E-1
1.955978125E0,2.955999970E-1,-7.277999520E-1,1.079900026E0
1.975981250E0,3.673999906E-1,-1.396600008E0,1.165300012E0
2.005979687E0,7.869999856E-2,-1.963199973E0,1.468299985E0
2.035979687E0,5.599999800E-2,-1.698099971E0,1.699999928E0
2.065998437E0,2.723000050E-1,-9.170999527E-1,5.762000084E-1
2.095978125E0,6.256999969E-1,-5.393999815E-1,-1.270900011E0
2.115979687E0,3.647999763E-1,-8.899999410E-2,-2.072099924E0
2.145978125E0,8.460000157E-2,3.107999861E-1,-2.294600010E0
2.165998437E0,-5.805999637E-1,7.451999784E-1,-3.729599953E0
2.195978125E0,4.720999897E-1,1.433999985E-1,-2.344399929E0
2.215979687E0,7.265999913E-1,1.905999929E-1,-1.440199971E0
2.245978125E0,6.129999757E-1,2.736999989E-1,-1.188999936E-1
2.266014062E0,1.802999973E-1,2.365999967E-1,-7.757999897E-1
2.295978125E0,-1.474900007E0,1.159299970E0,-5.202000141E-1
2.315985937E0,-8.768000007E-1,9.453999996E-1,-7.901999950E-1
2.345979687E0,-5.241999626E-1,6.575999856E-1,-1.027999967E-1
2.366004687E0,1.107999980E-1,7.069999725E-2,-8.229999989E-2
2.395979687E0,-7.050000131E-2,1.336999983E-1,4.989999831E-1
2.415985937E0,-6.417999864E-1,9.624999762E-1,4.018999934E-1
2.445978125E0,-4.488999844E-1,1.783299923E0,7.387999892E-1
2.466003125E0,4.320999980E-1,1.528199911E0,1.478500009E0
2.495978125E0,7.601999640E-1,2.520999908E-1,2.348299980E0
2.515978125E0,9.286999702E-1,-7.590000033E-1,2.555999994E0
2.535979687E0,1.188799977E0,-1.027599931E0,2.157599926E0
2.555987500E0,9.588999748E-1,-6.696999669E-1,1.578599930E0
2.585978125E0,1.230999976E-1,-1.408499956E0,7.785999775E-1
2.605985937E0,9.079999477E-2,-1.490299940E0,1.559299946E0
2.635978125E0,3.953000009E-1,-1.382200003E0,1.853299975E0
2.655978125E0,2.536999881E-1,-8.755999804E-1,8.398999572E-1
2.675979687E0,-1.583999991E-1,-3.932999969E-1,-4.649999738E-1
2.695979687E0,-3.276000023E-1,-2.329999954E-2,-1.362499952E0
2.725978125E0,-3.680000082E-2,1.448999941E-1,-2.434200048E0
2.745979687E0,3.261999786E-1,5.370000005E-2,-3.036499977E0
2.766012500E0,3.233999908E-1,5.279999971E-2,-3.181399822E0
2.795979687E0,1.739999950E-1,3.709999844E-2,-2.549199820E0
2.815979687E0,3.070999980E-1,-3.559999913E-2,-2.230799913E0
2.835979687E0,4.962999821E-1,-5.579999834E-2,-2.252500057E0
2.865998437E0,-3.204999864E-1,4.795999825E-1,-1.657499909E0
2.895978125E0,-1.460999995E-1,7.550999522E-1,-6.076999903E-1
2.915978125E0,-1.303000003E-1,9.408999681E-1,-1.674000025E-1
2.935978125E0,-1.759999990E-1,1.037699938E0,3.273999989E-1
2.955978125E0,-2.559999824E-1,1.138800025E0,6.789000034E-1
2.975981250E0,-7.119999826E-2,1.133700013E0,1.006699920E0
3.005981250E0,-7.829999924E-2,7.723999619E-1,2.649699926E0
3.035978125E0,-3.506999910E-1,1.202700019E0,1.842799902E0
3.055978125E0,-1.434599996E0,1.363799930E0,2.037299871E0
3.075978125E0,-1.619899988E0,4.799999893E-1,2.350699902E0
3.095978125E0,-1.583099961E0,5.669999868E-2,2.242199898E0
3.115978125E0,-1.748999953E0,-1.254999936E-1,1.133999944E0
3.135978125E0,-1.646499991E0,-8.774999976E-1,1.207999945E0
3.155978125E0,-1.617399931E0,-1.699099898E0,1.500800014E0
3.175978125E0,-1.744099975E0,-2.029999971E0,1.769999981E0
3.195978125E0,-1.179000020E0,-2.034100056E0,1.513099909E0
3.215978125E0,-3.919999897E-1,-1.831499934E0,1.035400033E0
3.235978125E0,7.949999720E-2,-1.467399955E0,-1.176999956E-1
3.255981250E0,1.138999984E-1,-9.862999916E-1,-1.354099989E0
3.285978125E0,1.428000033E-1,-4.746999741E-1,-2.286000013E0
3.305984375E0,1.970999986E-1,-3.414999843E-1,-2.593899965E0
3.335978125E0,1.498999894E-1,-2.610999942E-1,-2.392599821E0
3.355978125E0,1.650999933E-1,-3.175999820E-1,-1.997799993E0
3.375978125E0,5.700000003E-2,-3.879999816E-1,-1.857999921E0
3.395978125E0,-2.399999881E-3,-3.237999976E-1,-1.812999964E0
3.415978125E0,-4.769999906E-2,-3.191999793E-1,-1.655999899E0
3.435978125E0,-1.336999983E-1,-1.935999990E-1,-1.348999977E0
3.455982812E0,-4.235000014E-1,2.865000069E-1,-1.107399940E0
3.485979687E0,-4.429000020E-1,8.105999827E-1,-8.087999821E-1
3.515978125E0,-7.999999798E-4,7.960999608E-1,5.299999937E-2
3.535978125E0,2.328999937E-1,6.245999932E-1,8.229999542E-1
3.555979687E0,1.483999938E-1,1.612000018E-1,1.389699936E0
3.585979687E0,-1.037099957E0,1.351499915E0,1.155399919E0
3.605985937E0,-1.177699924E0,2.166499853E0,1.522799969E0
3.635978125E0,-4.435999990E-1,1.319199920E0,2.400300026E0
3.655978125E0,1.300000004E-3,-1.630999893E-1,3.013799906E0
3.675978125E0,6.129999757E-1,-1.048699975E0,3.206199884E0
3.695978125E0,1.272899985E0,-1.057099938E0,1.627599955E0
3.715978125E0,1.460199952E0,-1.202099919E0,7.369999886E-1
3.735978125E0,1.043799996E0,-1.641199946E0,6.570999622E-1
3.755978125E0,7.419999838E-1,-1.728899956E0,1.172799945E0
3.775978125E0,7.434999943E-1,-1.560499907E0,9.843999743E-1
3.795978125E0,4.627999961E-1,-1.162599921E0,1.137999967E-1
3.815978125E0,-1.500000013E-3,-8.379999995E-1,-1.031000018E0
3.835978125E0,-2.875999808E-1,-5.842999816E-1,-1.934499979E0
3.855978125E0,-3.145000041E-1,-3.030999899E-1,-2.693500042E0
3.875978125E0,-1.340000033E-1,-1.849000007E-1,-3.176800013E0
3.895978125E0,3.399999812E-2,-2.106999904E-1,-3.167399883E0
3.915978125E0,7.019999623E-2,-2.030999959E-1,-2.969300032E0
3.935979687E0,2.599999867E-2,-2.281999886E-1,-2.606199980E0
3.965996875E0,1.288999915E-1,-2.034000009E-1,-1.922999978E0
3.995978125E0,2.268999964E-1,1.299999934E-2,-1.050699949E0
4.015979687E0,2.071999907E-1,4.504999816E-1,-6.144999862E-1
4.035979687E0,2.921999991E-1,9.240999818E-1,-4.287999868E-1
4.065998437E0,2.237999886E-1,1.384999990E0,-1.330000013E-1
4.095979687E0,1.089999974E-1,1.503999949E0,6.590999961E-1
4.115979687E0,1.465999931E-1,1.511299968E0,9.121999741E-1
4.145978125E0,2.307999879E-1,1.522300005E0,1.539899945E0
4.165996875E0,1.200000010E-2,1.571299911E0,1.582299948E0
4.195978125E0,-6.365000010E-1,1.710099936E0,1.120599985E0
4.215978125E0,-7.605999708E-1,9.853999615E-1,1.801899910E0
4.235978125E0,-1.274899960E0,2.944000065E-1,3.277999878E0
4.255978125E0,-1.568199992E0,-1.650999933E-1,4.141200066E0
4.275978125E0,-4.827999771E-1,-7.150999904E-1,2.176300049E0
4.295978125E0,2.708999813E-1,-1.175099969E0,2.868999839E-1
4.315978125E0,-4.518999755E-1,-1.290399909E0,6.250000000E-1
4.335978125E0,-1.217999935E0,-1.146399975E0,8.713999987E-1
4.355978125E0,-6.848999858E-1,-1.396899939E0,2.556999922E-1
4.375978125E0,-3.979999945E-2,-1.185099959E0,-2.778999805E-1
4.395978125E0,3.540999889E-1,-9.947999716E-1,-1.982000023E-1
4.415978125E0,5.310999751E-1,-7.428999543E-1,-2.215999961E-1
4.435978125E0,5.643000007E-1,-4.809999764E-1,-9.717999697E-1
4.455978125E0,6.915999651E-1,-2.809999883E-1,-3.685599804E0
4.475978125E0,8.222000003E-1,8.469999582E-2,-2.410599947E0
4.495978125E0,4.824000001E-1,6.759999692E-2,-2.119600058E0
4.515982812E0,9.781999588E-1,-1.468999982E-1,-1.969299912E0
4.545978125E0,9.483000040E-1,-2.208999991E-1,-2.076699972E0
4.566003125E0,1.297999978E0,-3.962000012E-1,-1.794799924E0
4.595978125E0,-3.393999934E-1,2.083999962E-1,-2.488699913E0
4.615984375E0,1.429999992E-2,2.275999933E-1,-2.290299892E0
4.645978125E0,-4.445999861E-1,8.726999760E-1,-1.783100009E0
4.665996875E0,-7.651000023E-1,1.249599934E0,-1.020699978E0
4.695978125E0,-5.198999643E-1,7.330999970E-1,7.066999674E-1
4.715981250E0,-6.653000116E-1,3.041000068E-1,1.690400004E0
4.745978125E0,-1.756699920E0,1.882599950E0,1.914199948E0
4.766015625E0,-1.586300015E0,2.605799913E0,2.465699911E0
4.795978125E0,-1.262999922E-1,8.062999845E-1,4.113299847E0
4.815979687E0,4.914999902E-1,-5.874999762E-1,5.385799885E0
4.835979687E0,1.174700022E0,-1.060699940E0,4.933099747E0
4.855982812E0,1.851300001E0,-9.863999486E-1,2.728600025E0
4.885979687E0,2.237799883E0,-1.280499935E0,7.943999767E-1
4.905982812E0,1.518599987E0,-1.424499989E0,5.864999890E-1
4.935979687E0,1.227599978E0,-1.488199949E0,-7.189999521E-2
4.955981250E0,9.473999739E-1,-1.315500021E0,-8.798999786E-1
4.985978125E0,5.166999698E-1,-9.215999842E-1,-2.059999943E0
5.005985937E0,1.278000027E-1,-5.597999692E-1,-2.403399944E0
5.035979687E0,2.368999869E-1,-3.443000019E-1,-2.944700003E0
5.055982812E0,3.696999848E-1,-4.255999923E-1,-3.403800011E0
5.085979687E0,2.252999991E-1,-3.719999790E-1,-3.167099953E0
5.105982812E0,2.029999904E-2,-1.726000011E-1,-2.939599991E0
5.135978125E0,1.084999964E-1,-3.119999915E-2,-2.407599926E0
5.155982812E0,-1.753000021E-1,2.430999875E-1,-1.752499938E0
5.185979687E0,-2.653000057E-1,8.298999667E-1,-9.759999514E-1
5.205979687E0,-2.388999909E-1,1.276799917E0,-1.026999950E0
5.235978125E0,2.845000029E-1,1.341799974E0,-2.568999827E-1
5.255979687E0,-1.210999936E-1,1.565099955E0,7.346999645E-1
5.285979687E0,-4.470000044E-2,1.480299950E0,2.695999861E0
5.305979687E0,3.143000007E-1,1.479900002E0,3.043499947E0
5.325979687E0,-5.331000090E-1,1.686199903E0,1.897499919E0
5.355978125E0,-2.261100054E0,1.245199919E0,4.255499840E0
5.375978125E0,-2.661999941E0,6.146999598E-1,4.957099915E0
5.395981250E0,-1.892699957E0,1.468999982E-1,3.582499981E0
5.425978125E0,-1.162899971E0,-9.800000116E-3,7.685999870E-1
5.445978125E0,-1.311599970E0,-7.014999986E-1,8.077999949E-1
5.465998437E0,-1.295699954E0,-1.217299938E0,1.140999913E0
5.495984375E0,-8.605999947E-1,-1.434000015E0,4.087999761E-1
5.525978125E0,-7.755999565E-1,-6.266999841E-1,-1.065599918E0
5.545979687E0,-2.126600027E0,1.018399954E0,-2.386000007E-1
5.565996875E0,-1.447099924E0,5.095999837E-1,-1.478099942E0
5.595985937E0,4.895999730E-1,-5.376999974E-1,-2.371000051E0
5.625979687E0,1.646199942E0,-8.096999526E-1,-3.820099831E0
5.645979687E0,1.864499927E0,-1.235999942E0,-4.556799889E0
5.665998437E0,2.876099825E0,-1.640499949E0,-5.153899670E0
5.695979687E0,1.834399939E0,-1.360399961E0,-3.945699930E0
5.725978125E0,1.772599936E0,-1.380999923E0,-2.295500040E0
5.745979687E0,-8.198999763E-1,4.171999991E-1,-2.644999981E0
5.766012500E0,-5.722999573E-1,4.757999778E-1,-1.253600001E0
5.795978125E0,-6.785999537E-1,1.270599961E0,4.702000022E-1
5.815979687E0,-4.098999798E-1,1.248600006E0,2.382999957E-1
5.835987500E0,-4.765999913E-1,1.099399924E0,1.167599916E0
5.865998437E0,-1.476999998E0,1.222499967E0,1.699699998E0
5.895979687E0,-1.622499943E0,2.503499985E0,3.493799925E0
5.925978125E0,2.737999856E-1,6.976000071E-1,3.977399826E0
5.945982812E0,7.084999681E-1,-8.203999996E-1,5.430900097E0
5.965998437E0,6.410999894E-1,-1.470099926E0,5.497900009E0
5.995978125E0,1.402099967E0,-1.240199924E0,2.684099913E0
6.015979687E0,2.424099922E0,-1.141899943E0,1.305899978E0
6.035979687E0,3.307699919E0,-1.160599947E0,1.319800019E0
6.055979687E0,2.286999941E0,-1.567899942E0,1.642300010E0
6.075979687E0,1.810999960E-1,-1.574699998E0,8.050000072E-1
6.105979687E0,-1.420599937E0,-9.732999802E-1,-1.224699974E0
6.125979687E0,-1.016399980E0,-6.690999866E-1,-2.651199818E0
6.155978125E0,-8.306999803E-1,-2.177999914E-1,-3.078599930E0
6.175979687E0,-8.064000010E-1,-1.783999950E-1,-2.659799814E0
6.205978125E0,-2.979999967E-2,1.349999905E-1,-3.399600029E0
6.225978125E0,-1.984999925E-1,1.991999894E-1,-4.145599842E0
6.245979687E0,-2.128999978E-1,6.669999659E-2,-3.840999842E0
6.266012500E0,-1.367999911E-1,4.160000011E-2,-2.144700050E0
6.295979687E0,-2.035999894E-1,2.822999954E-1,-1.737699986E0
6.325979687E0,-7.019999623E-2,8.639000058E-1,-9.448999763E-1
6.355978125E0,-3.482999802E-1,1.361500025E0,-3.720999956E-1
6.375978125E0,-5.705999732E-1,1.348999977E0,-9.409999847E-2
6.395979687E0,-6.603999734E-1,1.136099935E0,4.113999903E-1
6.425978125E0,-2.368999869E-1,4.801999927E-1,1.700500011E0
6.445979687E0,-2.951000035E-1,9.146999717E-1,1.962499976E0
6.465998437E0,-1.572999954E-1,1.373399973E0,2.282599926E0
6.495978125E0,2.230999917E-1,3.358999789E-1,3.454900026E0
6.515979687E0,-6.146999598E-1,-7.789999992E-2,2.619099855E0
6.535979687E0,-1.236599922E0,-3.061999977E-1,1.701200008E0
6.555979687E0,-9.770999551E-1,-4.657000005E-1,1.295300007E0
6.575979687E0,-3.202999830E-1,-9.261999726E-1,9.493999481E-1
6.605979687E0,-2.089999914E-1,-1.499300003E0,7.559999824E-1
6.625979687E0,-5.430999994E-1,-1.561199903E0,7.833999991E-1
6.645979687E0,-8.456999660E-1,-1.561599970E0,6.845999956E-1
6.665998437E0,-6.205999851E-1,-1.446599960E0,6.334999800E-1
6.695979687E0,-3.786000013E-1,-1.120100021E0,-9.784999490E-1
6.725979687E0,1.190999970E-1,-7.594999671E-1,-2.624199867E0
6.745979687E0,3.215000033E-1,-5.695999861E-1,-3.347499847E0
6.766012500E0,1.982999891E-1,-4.027999938E-1,-3.272300005E0
6.795979687E0,2.795999944E-1,-2.078999877E-1,-2.091799974E0
6.825979687E0,8.682000041E-1,-8.619999886E-2,-1.481199980E0
6.845979687E0,8.253999949E-1,1.219999976E-2,-1.469200015E0
6.865998437E0,5.051000118E-1,1.604000032E-1,-1.326699972E0
6.895982812E0,1.700000018E-1,4.887000024E-1,-8.748999834E-1
6.925978125E0,-1.129999980E-1,9.151999950E-1,-2.958000004E-1
6.945978125E0,-4.948000014E-1,1.213599920E0,5.194000006E-1
6.965998437E0,-4.714999795E-1,1.334299922E0,1.246899962E0
6.995978125E0,-1.266600013E0,1.992999911E0,7.511000037E-1
7.015978125E0,-1.199999928E0,2.139799833E0,7.777000070E-1
7.035979687E0,1.453000009E-1,1.410200000E0,1.875699997E0
7.065998437E0,1.180999994E0,-1.054999948E0,4.751999855E0
7.095979687E0,2.709999979E-1,-2.010400057E0,5.156099796E0
7.115979687E0,7.164999843E-1,-1.822600007E0,3.864199877E0
7.145978125E0,2.358799934E0,-1.537899971E0,1.838999987E0
7.165998437E0,1.953299999E0,-1.199199915E0,2.996999919E-1
7.195979687E0,8.159999847E-1,-8.414999843E-1,-1.058200002E0
7.225979687E0,-1.008999944E-1,-6.022999883E-1,-1.766999960E0
7.245979687E0,-6.916999817E-1,-3.716000021E-1,-2.291199923E0
7.266012500E0,-1.030699968E0,-1.520999968E-1,-3.115999937E0
7.295979687E0,-1.013899922E0,2.356999964E-1,-4.160799980E0
7.325979687E0,-4.897999763E-1,1.819999963E-1,-3.919899940E0
7.345979687E0,-3.911999762E-1,-9.499999695E-3,-3.150399923E0
7.365998437E0,-4.875999987E-1,-1.264999956E-1,-1.899899960E0
7.395979687E0,-5.547999740E-1,-6.599999964E-2,-1.363699913E0
7.425978125E0,-9.879999757E-1,8.402999640E-1,-8.197000027E-1
7.445979687E0,-4.354999959E-1,8.375999928E-1,-1.607999951E-1
7.465998437E0,-2.320999950E-1,1.108699918E0,6.639999896E-2
7.495978125E0,-2.089999914E-1,1.481099963E0,2.275999933E-1
7.515978125E0,3.666999936E-1,1.467099905E0,7.991999984E-1
7.535979687E0,8.824999928E-1,1.308599949E0,1.221499920E0
7.555979687E0,6.875999570E-1,1.792199969E0,1.577099919E0
7.575979687E0,4.746999741E-1,1.761699915E0,1.827799916E0
7.605979687E0,5.022999644E-1,5.246999860E-1,1.217299938E0
7.635978125E0,5.412999988E-1,-3.836999834E-1,1.961499929E0
7.655979687E0,5.291000009E-1,-7.214999795E-1,2.630599976E0
7.675979687E0,-5.952000022E-1,-1.014099956E0,2.419600010E0
7.695979687E0,-4.993999898E-1,-1.553399920E0,3.599399805E0
7.725979687E0,-4.924999774E-1,-1.896600008E0,5.059199810E0
7.745979687E0,-1.072000027E0,-1.444899917E0,3.375000000E0
7.766012500E0,-1.275900006E0,-9.860999584E-1,8.616999984E-1
7.795979687E0,-8.194999695E-1,-4.847999811E-1,-1.639899969E0
7.825979687E0,-1.555999964E-1,-2.092999965E-1,-3.462999821E0
7.855978125E0,-2.125999928E-1,-1.596999913E-1,-3.998399973E0
7.875979687E0,7.349999994E-2,-1.489000022E-1,-4.049200058E0
7.895979687E0,7.449999452E-2,-1.763999909E-1,-3.982299805E0
7.925996875E0,3.474999964E-1,-2.329999954E-1,-3.809599876E0
7.955978125E0,2.133999914E-1,-6.920999885E-1,-1.882499933E0
7.975979687E0,-1.189999953E-1,-4.493999779E-1,-7.497999668E-1
8.005978125E0,-4.977999926E-1,1.212999970E-1,-9.156999588E-1
8.025978125E0,-6.825000048E-1,3.655999899E-1,-5.543999672E-1
8.045979687E0,-4.903999865E-1,4.047999978E-1,4.370999932E-1
8.065998437E0,-2.532999814E-1,5.180999637E-1,1.222299933E0
8.095978125E0,-1.067199945E0,6.531999707E-1,2.601699829E0
8.115979687E0,-1.243700027E0,1.147400022E0,2.627399921E0
8.145978125E0,1.967999935E-1,9.223999977E-1,3.150699854E0
8.165998437E0,-1.377999932E-1,1.652999967E-1,3.735499859E0
8.195979687E0,-6.480999589E-1,-3.490999937E-1,4.963699818E0
8.225979687E0,4.329999909E-2,-7.364999652E-1,3.942199945E0
8.245979687E0,9.734999537E-1,-1.191799998E0,3.140199900E0
8.266012500E0,1.708099961E0,-1.236299992E0,1.911700010E0
8.295979687E0,1.425699949E0,-8.822000027E-1,1.099999994E-2
8.325979687E0,4.168999791E-1,-4.881999791E-1,-6.574999690E-1
8.345979687E0,-9.659999609E-2,-3.958999813E-1,-1.463599920E0
8.365998437E0,-2.129999995E-1,-2.316999882E-1,-2.208499908E0
8.395979687E0,-4.579999745E-1,8.889999986E-2,-3.263399839E0
8.425978125E0,-4.918999970E-1,2.213999927E-1,-3.960699797E0
8.445978125E0,-4.472000003E-1,2.769999802E-1,-3.576900005E0
8.465998437E0,-6.692999601E-1,2.566999793E-1,-3.177999973E0
8.486015625E0,-8.527999520E-1,2.566999793E-1,-2.908699989E0
8.515978125E0,-6.967999935E-1,2.900999784E-1,-1.918799996E0
8.535979687E0,-5.180999637E-1,5.419999957E-1,-1.265399933E0
8.565996875E0,-4.494999945E-1,8.608999848E-1,2.201000005E-1
8.595978125E0,-3.321000040E-1,1.149199963E0,7.265999913E-1
8.615979687E0,1.090000011E-2,1.069599986E0,1.332099915E0
8.645978125E0,4.055999815E-1,1.036999941E0,1.640499949E0
8.665998437E0,5.487999916E-1,1.396699905E0,1.505800009E0
8.695979687E0,5.354999900E-1,1.259400010E0,2.402400017E0
8.725979687E0,-1.334999949E-1,8.639999479E-2,3.636899948E0
8.745979687E0,-6.184999943E-1,-4.995999932E-1,3.548300028E0
8.766012500E0,-7.319999933E-1,-7.099999785E-1,2.324899912E0
8.795978125E0,-9.879999608E-2,-1.019299984E0,1.563099980E0
8.815978125E0,4.519999772E-2,-1.166599989E0,1.502499938E0
8.835978125E0,-2.360000014E-1,-1.221599936E0,1.152699947E0
8.855978125E0,-4.922999740E-1,-1.176299930E0,6.660999656E-1
8.875978125E0,-5.505999923E-1,-1.036800027E0,-3.071999848E-1
8.895978125E0,-4.937999845E-1,-8.779000044E-1,-1.383700013E0
8.915978125E0,-3.129999936E-1,-6.807999611E-1,-1.918399930E0
8.935978125E0,-1.063999981E-1,-4.751999974E-1,-2.585299969E0
8.955978125E0,9.839999676E-2,-2.876999974E-1,-3.306699991E0
8.975979687E0,2.097999901E-1,-1.937000006E-1,-3.264199972E0
9.005979687E0,-1.669999957E-2,-1.239999980E-1,-3.080600023E0
9.025979687E0,-7.869999856E-2,-6.359999627E-2,-2.656499863E0
9.045979687E0,3.549999744E-2,-3.150000051E-2,-2.137099981E0
9.065998437E0,-7.149999589E-2,7.209999859E-2,-1.794699907E0
9.096020312E0,-5.433999896E-1,2.694999874E-1,-1.195500016E0
9.125978125E0,-6.029999852E-1,3.428999782E-1,-3.713999987E-1
9.145978125E0,-1.783999950E-1,2.291999906E-1,3.748999834E-1
9.165998437E0,-1.815000027E-1,9.160000086E-2,9.796999693E-1
9.195979687E0,-6.998999715E-1,1.028200030E0,1.090299964E0
9.215979687E0,-8.140999675E-1,1.564000010E0,1.044000030E0
9.245979687E0,8.380999565E-1,3.692999780E-1,1.717700005E0
9.266012500E0,8.269000053E-1,-1.279299974E0,4.193599701E0
9.295979687E0,-1.352999955E-1,-1.864599943E0,6.007699966E0
9.325979687E0,1.228799939E0,-1.180099964E0,2.567199945E0
9.355978125E0,2.351399899E0,-6.776999831E-1,-3.989999890E-1
9.375978125E0,1.776699901E0,-3.795000017E-1,-1.635899901E0
9.395979687E0,1.044899940E0,-3.583999872E-1,-1.138299942E0
9.425978125E0,1.905999929E-1,-3.100000024E-1,-5.225999951E-1
9.445978125E0,-7.599999756E-2,-2.361999899E-1,-9.310999513E-1
9.465998437E0,-2.206999958E-1,-8.619999886E-2,-1.644299984E0
9.495979687E0,-3.482999802E-1,1.444000006E-1,-2.845700026E0
9.525978125E0,-2.912999988E-1,2.081999928E-1,-3.026399851E0
9.545979687E0,-2.238999903E-1,1.785999984E-1,-2.893100023E0
9.565996875E0,-2.151999921E-1,1.507000029E-1,-2.802299976E0
9.595978125E0,-2.701999843E-1,2.752999961E-1,-2.421000004E0
9.615979687E0,-1.294000000E-1,4.840999842E-1,-1.750299931E0
9.645978125E0,-3.999999724E-3,1.115299940E0,-7.886999846E-1
9.665998437E0,1.307999939E-1,1.407199979E0,-2.316999882E-1
9.695979687E0,2.659999952E-2,1.583400011E0,3.507999778E-1
9.725978125E0,2.513000071E-1,1.294899940E0,1.604699969E0
9.745978125E0,3.177999854E-1,1.391799927E0,1.740399957E0
9.766012500E0,4.334999919E-1,1.159600019E0,1.568499923E0
9.795978125E0,4.959999919E-1,-2.136999965E-1,4.210999966E0
9.815978125E0,-1.858000010E-1,-9.914999604E-1,5.579899788E0
9.835978125E0,-9.788999557E-1,-8.625999689E-1,3.830499887E0
9.855978125E0,-1.181200027E0,-6.979999542E-1,1.367100000E0
9.875978125E0,-6.532999873E-1,-8.452000022E-1,1.136699915E0
9.895978125E0,-1.296000034E-1,-1.298900008E0,1.862999916E0
9.915978125E0,-5.756999850E-1,-1.294299960E0,1.615000010E0
9.935978125E0,-8.385999799E-1,-1.119599938E0,7.537999749E-1
9.955978125E0,-8.111999631E-1,-9.030999541E-1,-1.235999987E-1
9.975979687E0,-7.019999623E-1,-6.441000104E-1,-1.107200027E0
1.000597969E1,-3.388999999E-1,-3.881999850E-1,-2.453299999E0
1.003597969E1,-1.465999931E-1,-2.515999973E-1,-2.827800035E0
1.006599688E1,4.449999705E-2,-3.219999969E-1,-3.175899982E0
1.009597969E1,2.377000004E-1,-1.735000014E-1,-3.455999851E0
1.011597969E1,-3.559999913E-2,6.480000168E-2,-3.399600029E0
1.014597813E1,-4.820000008E-2,1.366000026E-1,-2.709499836E0
1.016599688E1,-1.261999905E-1,2.317999899E-1,-7.834999561E-1
1.019597812E1,-4.851000011E-1,4.071999788E-1,-2.520000041E-1
1.021597813E1,-6.094999909E-1,6.226999760E-1,-6.536999941E-1
1.023597812E1,-2.824999988E-1,6.067999601E-1,4.693000019E-1
1.025597812E1,-2.449999936E-2,4.971999824E-1,1.653800011E0
1.027597812E1,-1.472999901E-1,5.267999768E-1,2.492499828E0
1.029597813E1,-2.408999950E-1,7.822999954E-1,3.382499933E0
1.031597812E1,7.799999788E-3,8.987999558E-1,3.426599979E0
1.033597812E1,1.228399992E0,2.593999803E-1,2.958299875E0
1.035597812E1,1.757399917E0,-4.289000034E-1,3.456199884E0
1.037597813E1,1.012400031E0,-9.023000002E-1,3.763199806E0
1.039597813E1,1.018199921E0,-1.502900004E0,4.043299675E0
1.041597812E1,1.955299973E0,-1.939099908E0,3.995399952E0
1.043597812E1,2.320999861E0,-1.882900000E0,2.883299828E0
1.045597813E1,1.818899989E0,-1.361299992E0,1.143499970E0
1.047597813E1,1.265299916E0,-7.524999976E-1,-5.358999968E-1
1.049597812E1,5.931999683E-1,-3.671999872E-1,-1.616899967E0
1.051597812E1,8.020000160E-2,-2.267999947E-1,-2.036399841E0
1.053597813E1,-1.292999983E-1,-1.803999990E-1,-2.380899906E0
1.055597813E1,-2.002999932E-1,-8.749999851E-2,-2.626699924E0
1.057597812E1,-3.121999800E-1,-3.859999776E-2,-3.123699903E0
1.059597812E1,-5.252999663E-1,2.939999849E-2,-3.627399921E0
1.061597812E1,-4.217000008E-1,-1.279999968E-2,-3.554199934E0
1.063597813E1,-4.924999774E-1,4.999999888E-3,-3.238799810E0
1.065597969E1,-6.222000122E-1,4.559999704E-2,-3.159499884E0
1.067597969E1,-6.966999769E-1,3.379999846E-2,-2.699599981E0
1.069597969E1,-6.876999736E-1,1.838999987E-1,-2.054899931E0
1.072597969E1,-7.522999644E-1,6.168000102E-1,-7.401999831E-1
1.075597969E1,-5.271999836E-1,1.083599925E0,3.606999815E-1
1.078597813E1,-7.232999802E-1,1.243399978E0,1.546999931E0
1.080597969E1,-5.572999716E-1,1.117599964E0,2.042299986E0
1.082597969E1,2.624000013E-1,9.413999915E-1,2.528300047E0
1.085597812E1,5.299000144E-1,1.640100002E0,2.241799831E0
1.087597813E1,7.293999791E-1,1.728599906E0,2.327600002E0
1.089597969E1,6.567999721E-1,8.032000065E-1,4.071700096E0
1.092597812E1,-7.897999883E-1,1.098999977E-1,3.278499842E0
1.094597812E1,-1.291499972E0,-7.849999517E-2,4.669999778E-1
1.096599844E1,-8.105999827E-1,-4.689999819E-1,-6.067000031E-1
1.099597812E1,-1.482999921E-1,-1.488600016E0,6.856999993E-1
1.101597812E1,-7.423999906E-1,-1.599099994E0,5.607999563E-1
1.103597969E1,-1.020200014E0,-1.581699967E0,-2.043999881E-1
1.105597969E1,-8.676999807E-1,-1.550699949E0,-6.158999801E-1
1.108597969E1,-5.433999896E-1,-1.282499909E0,-1.664499998E0
1.110598125E1,-2.631999850E-1,-1.070099950E0,-2.582000017E0
1.113597813E1,-7.059999555E-2,-7.044999599E-1,-3.289099932E0
1.115597969E1,1.286000013E-1,-5.730999708E-1,-3.329799891E0
1.117597969E1,2.751999795E-1,-4.037999809E-1,-2.951699972E0
1.119597969E1,2.072999924E-1,-2.470999956E-1,-2.595499992E0
1.122597969E1,1.040999964E-1,-1.363999993E-1,-1.981899977E0
1.125597969E1,-8.460000157E-2,-1.521999985E-1,-1.231199980E0
1.128597813E1,-7.947999835E-1,2.603999972E-1,-1.136699915E0
1.130597813E1,-6.747999787E-1,4.233999848E-1,-6.807000041E-1
1.132597812E1,-3.111999929E-1,4.447000027E-1,4.675999880E-1
1.134597812E1,-3.845999837E-1,7.498999834E-1,1.967799902E0
1.136599688E1,-6.692000031E-1,1.059199929E0,3.281100035E0
1.139597813E1,-7.231999636E-1,1.806599975E0,2.779799938E0
1.141597812E1,9.172999859E-1,1.058099985E0,2.955999851E0
1.143597812E1,2.106999874E0,-4.023000002E-1,4.642099857E0
1.145597813E1,1.402499914E0,-1.416000009E0,5.646499634E0
1.147597969E1,1.056299925E0,-1.766899943E0,5.068199635E0
1.150597812E1,2.841199875E0,-1.811499953E0,2.400300026E0
1.152597812E1,3.106400013E0,-1.613499999E0,5.464000106E-1
1.154597813E1,2.353600025E0,-1.346899986E0,-8.704999685E-1
1.156599688E1,1.315999985E0,-9.896000028E-1,-1.773199916E0
1.159597812E1,2.111999989E-1,-4.924999774E-1,-2.500099897E0
1.161597969E1,-1.334999949E-1,-1.371999979E-1,-3.012699842E0
1.163597969E1,-2.899999917E-1,2.116999924E-1,-3.485399961E0
1.165597969E1,-6.294999719E-1,5.866999626E-1,-4.064199924E0
1.167597969E1,-9.114999771E-1,8.519999981E-1,-4.419600010E0
1.169597969E1,-1.022899985E0,9.003999829E-1,-3.992899895E0
1.172597969E1,-1.064599991E0,7.189999819E-1,-2.708999872E0
1.175597969E1,-1.357499957E0,6.304000020E-1,-2.081799984E0
1.178597813E1,-1.305599928E0,6.750999689E-1,-1.344499946E0
1.180597969E1,-1.148299932E0,7.017999887E-1,-8.883999586E-1
1.182597969E1,-1.136199951E0,8.213999867E-1,-6.071999669E-1
1.185597812E1,-1.029699922E0,8.759999871E-1,-2.653999925E-1
1.187597813E1,-8.824999928E-1,7.913999557E-1,4.010000080E-2
1.189598594E1,-2.942000031E-1,4.034000039E-1,1.103600025E0
1.192597812E1,-1.292999983E-1,6.650000066E-2,2.955099821E0
1.194597812E1,-2.687999904E-1,-1.573999971E-1,3.946199894E0
1.196599688E1,-7.398999929E-1,-4.414999783E-1,4.266799927E0
1.199597812E1,-1.221400023E0,-6.471999884E-1,3.700899839E0
1.201597812E1,-1.449399948E0,-3.581999838E-1,3.110899925E0
1.203597969E1,-1.403999925E0,-2.973999977E-1,2.006199837E0
1.206599844E1,-9.544000030E-1,-1.003000021E0,2.524499893E0
1.209597812E1,-1.391600013E0,-1.577999949E0,3.790999889E0
1.211597969E1,-1.651499987E0,-1.516199946E0,3.141999960E0
1.213597969E1,-1.308099985E0,-1.372299910E0,1.864199996E0
1.216599844E1,-5.004000068E-1,-1.171800017E0,-5.401999950E-1
1.219597969E1,3.662000000E-1,-9.894999862E-1,-2.993799925E0
1.222597969E1,9.307999611E-1,-8.773999810E-1,-4.297399998E0
1.225597969E1,1.520299911E0,-7.631999850E-1,-4.081599712E0
1.227597969E1,1.517899990E0,-6.268000007E-1,-3.889499903E0
1.229597969E1,1.326099992E0,-4.138999879E-1,-3.883699894E0
1.232597969E1,1.602899909E0,-3.941999972E-1,-3.411700010E0
1.235597812E1,4.759999812E-1,-2.515999973E-1,-1.422500014E0
1.237597813E1,7.840000093E-2,-2.300000051E-3,-1.326399922E0
1.239597969E1,3.579999879E-2,3.296000063E-1,-1.014599919E0
1.242597812E1,9.099999443E-3,8.957999945E-1,-2.157000005E-1
1.244597812E1,-5.532000065E-1,1.106199980E0,7.759999633E-1
1.246599688E1,-9.698999524E-1,1.108399987E0,1.715499997E0
1.249597969E1,-3.145999908E-1,7.132999897E-1,3.207000017E0
1.252597812E1,-1.520999968E-1,-9.219999611E-2,6.015299797E0
1.254597813E1,-3.950999975E-1,-6.775000095E-1,6.459699631E0
1.256599688E1,-3.615999818E-1,-9.363999963E-1,5.753499985E0
1.259597812E1,1.252699971E0,-1.396699905E0,3.997499943E0
1.261597813E1,1.974799991E0,-1.512300014E0,2.363600016E0
1.263597813E1,1.763799906E0,-1.313099980E0,7.024999857E-1
1.265597969E1,1.040300012E0,-9.162999988E-1,-5.518000126E-1
1.267597969E1,2.753999829E-1,-6.838999987E-1,-1.170300007E0
1.269597969E1,-3.316999972E-1,-3.759000003E-1,-1.919799924E0
1.272597969E1,-5.327999592E-1,3.619999811E-2,-3.819299936E0
1.275597969E1,-5.374999642E-1,3.795999885E-1,-5.013799667E0
1.278597813E1,-6.453999877E-1,6.729999781E-1,-5.327600002E0
1.280597813E1,-7.519999743E-1,7.519999743E-1,-4.865299702E0
1.282597812E1,-1.017899990E0,7.667999864E-1,-3.612200022E0
1.284597812E1,-1.253199935E0,7.317999601E-1,-2.623299837E0
1.286599688E1,-1.294099927E0,8.039000034E-1,-1.996299982E0
1.289597813E1,-1.262599945E0,6.521999836E-1,-2.146999985E-1
1.291597812E1,-1.529500008E0,7.572000027E-1,4.016999900E-1
1.293597812E1,-1.482399940E0,8.799999952E-1,9.894999862E-1
1.295597813E1,-5.918999910E-1,7.785999775E-1,2.301899910E0
1.297597969E1,6.513000131E-1,6.600999832E-1,3.889799833E0
1.300597812E1,1.433699965E0,7.947999835E-1,3.979599953E0
1.302597812E1,1.149099946E0,1.492399931E0,2.422499895E0
1.304597813E1,7.321000099E-1,1.819199920E0,1.521999955E0
1.306599688E1,5.939999819E-1,1.218400002E0,2.507499933E0
1.309597812E1,-7.651999593E-1,3.147999942E-1,2.935600042E0
1.311597813E1,-1.513599992E0,2.563999891E-1,1.892099977E0
1.313597813E1,-1.193699956E0,1.694999933E-1,1.143199921E0
1.315597812E1,-5.749999732E-2,-3.075999916E-1,1.817099929E0
1.317597812E1,4.972999990E-1,-9.189999700E-1,2.843199968E0
1.319597813E1,6.247999668E-1,-1.441399932E0,2.864099979E0
1.321597813E1,1.163999960E-1,-1.588799953E0,1.664499998E0
1.323597812E1,-4.698999822E-1,-1.424099922E0,6.403999925E-1
1.325597812E1,-5.203999877E-1,-1.328299999E0,-1.079999935E-2
1.327597812E1,-3.515999913E-1,-1.167999983E0,-9.171999693E-1
1.329597813E1,-1.939999908E-1,-9.898999929E-1,-2.207299948E0
1.331597812E1,-6.269999593E-2,-8.127999902E-1,-3.479199886E0
1.333597969E1,1.661999971E-1,-7.155999541E-1,-4.412799835E0
1.335597969E1,4.125999808E-1,-6.377999783E-1,-4.659100056E0
1.338597813E1,5.121999979E-1,-4.538999796E-1,-4.962500095E0
1.340597969E1,3.463999927E-1,-2.617000043E-1,-5.034199715E0
1.343597969E1,-9.219999611E-2,-2.216999978E-1,-4.076999664E0
1.346599844E1,2.399999881E-3,-4.625999928E-1,-9.994999766E-1
1.349597969E1,4.159999788E-1,-5.557000041E-1,1.544199944E0
1.352597812E1,2.538999915E-1,-1.116999984E-1,1.363199949E0
1.354597969E1,4.120999873E-1,5.089999735E-2,1.444399953E0
1.356599844E1,-9.999999747E-5,6.590999961E-1,1.890199900E0
1.359597812E1,5.069999695E-1,4.980999827E-1,2.656699896E0
1.361597969E1,1.668999940E-1,-1.300000004E-3,4.314300060E0
1.364597813E1,-9.522999525E-1,-4.357999861E-1,6.070499897E0
1.366599844E1,-2.861000001E-1,-4.404999912E-1,6.011099815E0
1.369597969E1,2.040899992E0,-7.975999713E-1,4.110399723E0
1.372597813E1,2.558399916E0,-7.721999884E-1,1.416399956E0
1.374597812E1,1.348199964E0,-6.475999951E-1,1.097999960E-1
1.376601250E1,1.728999913E-1,-5.862999558E-1,-3.120999932E-1
1.379597813E1,-5.738999844E-1,-1.375000030E-1,-1.395499945E0
1.381597812E1,-7.427999973E-1,2.522000074E-1,-2.672799826E0
1.383597812E1,-7.356999516E-1,4.855999947E-1,-3.855399847E0
1.385597812E1,-6.416999698E-1,6.667999625E-1,-4.781799793E0
1.387597813E1,-5.618000031E-1,7.206000090E-1,-5.360899925E0
1.389597969E1,-7.414000034E-1,6.863999963E-1,-5.491199970E0
1.392597812E1,-1.098099947E0,7.152000070E-1,-4.941999912E0
1.394597813E1,-1.079100013E0,6.779999733E-1,-3.782799959E0
1.396599688E1,-1.078199983E0,5.097000003E-1,-1.838299990E0
1.399597812E1,-7.644000053E-1,6.187999845E-1,3.766999841E-1
1.401597812E1,-2.447999865E-1,5.742999911E-1,1.237999916E0
1.403597813E1,5.299999844E-3,5.455999970E-1,2.356799841E0
1.405597813E1,6.158999801E-1,5.913999677E-1,2.692600012E0
1.407597812E1,1.572799921E0,6.747999787E-1,2.724499941E0
1.409597812E1,1.817499995E0,7.213000059E-1,2.338000059E0
1.411597813E1,9.648000002E-1,6.802999973E-1,2.180999994E0
1.413597813E1,2.405999899E-1,1.266999990E-1,2.840199947E0
1.415597812E1,-3.646999896E-1,-7.071999907E-1,4.132100105E0
1.417597969E1,-1.450799942E0,-9.186999798E-1,3.887599945E0
1.419597969E1,-1.338299990E0,-9.291999936E-1,3.009299994E0
1.422597813E1,1.057999954E-1,-1.303099990E0,3.093199968E0
1.424597812E1,3.161999881E-1,-1.377399921E0,2.674999952E0
1.426601250E1,-1.068999991E-1,-1.107299924E0,1.858999968E0
1.429597813E1,-7.303000093E-1,-6.205999851E-1,2.648999989E-1
1.431597812E1,-6.139999628E-1,-3.414999843E-1,-9.983999729E-1
1.433597812E1,-3.643999994E-1,-2.644000053E-1,-2.196599960E0
1.435597812E1,-2.690999806E-1,-3.217999935E-1,-3.105299950E0
1.437597813E1,-1.160999984E-1,-5.116999745E-1,-3.834299803E0
1.439597969E1,5.109999701E-2,-6.297000051E-1,-4.305699825E0
1.442597812E1,1.206999943E-1,-7.289999723E-1,-4.831099987E0
1.444597813E1,-1.092000008E-1,-5.859000087E-1,-5.100500107E0
1.446599688E1,-4.718999863E-1,-3.621000051E-1,-4.738199711E0
1.449597812E1,-5.975999832E-1,-9.160000086E-2,-3.685199976E0
1.451597812E1,-8.804999590E-1,2.324999869E-1,-2.877199888E0
1.453597813E1,-1.112200022E0,5.404999852E-1,-1.502299905E0
1.455597813E1,-9.430999756E-1,8.380999565E-1,4.298000038E-1
1.457597812E1,-3.234999776E-1,9.368000031E-1,2.365999937E0
1.459597812E1,1.314000040E-1,7.132999897E-1,4.192500114E0
1.461597813E1,2.360000014E-1,6.949999928E-1,5.143699646E0
1.463597813E1,-4.944999814E-1,1.337000012E0,4.991600037E0
1.465597812E1,-9.259999543E-2,1.651199937E0,4.549399853E0
1.467597812E1,1.407699943E0,1.054899931E0,5.277999878E0
1.469597813E1,1.587799907E0,2.657999992E-1,6.358200073E0
1.471597813E1,9.271999598E-1,-6.444000006E-1,6.021399975E0
1.473597812E1,1.226899981E0,-1.183399916E0,4.833300114E0
1.475597812E1,3.053599834E0,-1.679099917E0,3.263700008E0
1.477597813E1,3.798499823E0,-1.543599963E0,1.155099988E0
1.479597813E1,2.913199902E0,-1.299199939E0,-1.427699924E0
1.481597812E1,1.723799944E0,-1.197199941E0,-1.970699906E0
1.483597812E1,2.392999977E-1,-1.071099997E0,-1.567299962E0
1.485597813E1,-6.879999638E-1,-9.483000040E-1,-1.836199999E0
1.487597813E1,-1.023399949E0,-7.428999543E-1,-2.773099899E0
1.489597813E1,-8.920999765E-1,-4.899999797E-1,-4.247699738E0
1.491597812E1,-6.571999788E-1,-2.370999902E-1,-5.230099678E0
1.493597812E1,-6.513999701E-1,-5.999999703E-4,-5.619299889E0
1.495597813E1,-7.235999703E-1,2.316000015E-1,-5.227799892E0
1.497597813E1,-2.543999851E-1,1.683000028E-1,-3.984499931E0
1.499597812E1,-2.536999881E-1,2.343999892E-1,-2.457499981E0
1.501597969E1,-4.578000009E-1,2.630999982E-1,-1.579199910E0
1.503597969E1,-8.043999672E-1,3.253999949E-1,-1.065699935E0
1.505597969E1,-8.338999748E-1,4.897999763E-1,-4.037999809E-1
1.508597969E1,-4.113000035E-1,9.056999683E-1,6.940000057E-1
1.511597969E1,-3.694999814E-1,1.073400021E0,1.485599995E0
1.514597813E1,-1.607999951E-1,1.140299916E0,1.405399919E0
1.516599844E1,-2.217999995E-1,1.473199964E0,1.043900013E0
1.519597969E1,6.785999537E-1,3.537999988E-1,2.079299927E0
1.522597813E1,1.017000005E-1,-1.723599911E0,6.429999828E0
1.524597812E1,-1.650900006E0,-1.747900009E0,5.014599800E0
1.526601250E1,-1.921999931E0,-1.116299987E0,2.381199837E0
1.529597813E1,2.474000007E-1,-1.220700026E0,2.108299971E0
1.531597812E1,3.716000021E-1,-1.267799973E0,1.615899920E0
1.533597969E1,-4.742999971E-1,-1.121999979E0,2.903999984E-1
1.536599844E1,-7.670999765E-1,-9.276999831E-1,-1.222700000E0
1.539597969E1,-6.219999790E-1,-6.798999906E-1,-2.390100002E0
1.542597812E1,-4.172999859E-1,-5.188999772E-1,-2.897799969E0
1.544597813E1,-2.672999799E-1,-4.394999743E-1,-3.071300030E0
1.546599688E1,-9.730000049E-2,-3.601999879E-1,-3.184000015E0
1.549597812E1,1.435000002E-1,-1.926999986E-1,-2.627199888E0
1.551597812E1,4.839999974E-2,-1.799999923E-2,-2.240599871E0
1.553597813E1,-3.025999963E-1,1.805000007E-1,-1.961999893E0
1.555597813E1,-3.990999758E-1,2.496999949E-1,-1.908399940E0
1.557597812E1,-6.647999883E-1,2.569999993E-1,-1.503099918E0
1.559597812E1,-1.329199910E0,3.658999801E-1,-1.049600005E0
1.561597813E1,-1.756699920E0,5.346999764E-1,-4.099999964E-1
1.563597813E1,-1.191200018E0,5.144000053E-1,7.584999800E-1
1.565597812E1,-7.044000030E-1,4.899999797E-1,1.829699993E0
1.567597812E1,-5.471999645E-1,4.845999777E-1,2.127799988E0
1.569597813E1,-1.145399928E0,9.143999815E-1,1.835999966E0
1.571597813E1,-1.746399999E0,1.395599961E0,1.441900015E0
1.573597812E1,-9.508999586E-1,1.359899998E0,1.904099941E0
1.575597812E1,3.242000043E-1,9.725999832E-1,3.082099915E0
1.577597813E1,1.089200020E0,-1.767999977E-1,3.400799990E0
1.579597813E1,1.352199912E0,-1.317899942E0,3.861999989E0
1.581597812E1,1.508099914E0,-1.655200005E0,3.899299860E0
1.583597812E1,1.859999895E0,-1.536099911E0,2.662499905E0
1.585597813E1,2.157799959E0,-1.491199970E0,1.586499929E0
1.587597813E1,1.608899951E0,-1.429499984E0,1.071099997E0
1.589597813E1,4.896999896E-1,-1.257900000E0,5.812000036E-1
1.591597812E1,-1.498000026E-1,-1.145200014E0,1.006999984E-1
1.593597812E1,-7.240999937E-1,-9.416999817E-1,-8.800999522E-1
1.595597813E1,-1.021999955E0,-6.715999842E-1,-2.023099899E0
1.597597969E1,-1.054000020E0,-3.971999884E-1,-3.040799856E0
1.600597813E1,-9.629999995E-1,-3.460000083E-2,-4.213500023E0
1.602597812E1,-8.309999704E-1,1.418000013E-1,-4.625199795E0
1.604597969E1,-6.614999771E-1,2.076999992E-1,-4.640199661E0
1.606599844E1,-7.013999820E-1,1.745999902E-1,-3.947699785E0
1.609597969E1,-9.214999676E-1,4.789999872E-2,-2.882299900E0
1.611597969E1,-9.192999601E-1,1.756999940E-1,-2.294899940E0
1.614597813E1,-6.650999784E-1,7.914999723E-1,-1.035599947E0
1.616599844E1,-4.360999763E-1,1.151799917E0,2.128999978E-1
1.619597969E1,5.242999792E-1,1.479699969E0,9.600999951E-1
1.622597812E1,2.044699907E0,7.412999868E-1,2.043999910E0
1.624597812E1,1.094799995E0,3.467999995E-1,3.274799824E0
1.626601250E1,-2.996000051E-1,8.984999657E-1,3.785300016E0
1.629597812E1,-7.554999590E-1,1.711099982E0,3.099999905E0
1.631597812E1,-6.782000065E-1,9.797999859E-1,2.966300011E0
1.633597812E1,-7.567999959E-1,-1.506000012E-1,2.881199837E0
1.635597812E1,-1.833499908E0,-1.004699945E0,1.751899958E0
1.637597812E1,-1.669299960E0,-1.560999990E0,1.337599993E0
1.639597813E1,-6.036999822E-1,-2.026900053E0,2.234200001E0
1.641597813E1,7.589999586E-2,-2.197799921E0,2.691400051E0
1.643597813E1,-5.469999835E-2,-1.740599990E0,1.953099966E0
1.645597812E1,-2.064999938E-1,-1.300400019E0,1.016299963E0
1.647597812E1,-1.709999889E-1,-9.562000036E-1,-6.059999764E-2
1.649597812E1,8.139999956E-2,-6.929999590E-1,-1.182600021E0
1.651597812E1,2.280999869E-1,-4.249999821E-1,-2.180199862E0
1.653597812E1,2.874999940E-1,-2.942000031E-1,-2.949699879E0
1.655597812E1,3.662999868E-1,-1.583999991E-1,-3.307699919E0
1.657597813E1,6.601999998E-1,-1.479000002E-1,-3.393199921E0
1.659597813E1,1.003199935E0,-1.846999973E-1,-3.247399807E0
1.661597969E1,7.547999620E-1,-2.329999954E-1,-2.791499853E0
1.663597969E1,3.551000059E-1,-1.833999902E-1,-2.661700010E0
1.665597969E1,1.428999901E-1,-1.621999890E-1,-2.473700047E0
1.668597969E1,-2.469999939E-1,8.760000020E-2,-1.933899999E0
1.671597812E1,-8.470999599E-1,4.593999982E-1,-6.886000037E-1
1.673597813E1,-9.907999635E-1,6.324999928E-1,3.418000042E-1
1.675597813E1,-1.601999998E-1,5.044000149E-1,9.526000023E-1
1.677597812E1,3.339000046E-1,5.076999664E-1,2.098000050E0
1.679597812E1,-3.287000060E-1,1.049399972E0,2.878700018E0
1.681597812E1,-8.185999990E-1,1.307199955E0,2.603799820E0
1.683597812E1,4.813999832E-1,7.246999741E-1,2.874699831E0
1.685597812E1,1.824000001E0,-4.327999949E-1,3.754799843E0
1.687597969E1,1.356899977E0,-8.477999568E-1,4.565099716E0
1.689597969E1,9.617999792E-1,-1.114400029E0,4.702300072E0
1.692597812E1,2.666899920E0,-1.201099992E0,2.483700037E0
1.694597969E1,2.974200010E0,-1.109599948E0,1.138000011E0
1.696599844E1,2.111999989E0,-8.815000057E-1,4.725999832E-1
1.699597812E1,7.038999796E-1,-7.226999998E-1,5.260000005E-2
1.701597969E1,2.013999969E-1,-6.020999551E-1,-5.002999902E-1
1.703597969E1,-6.340000033E-2,-4.213999808E-1,-1.746599913E0
1.705597969E1,-3.743999898E-1,-1.982000023E-1,-3.234899998E0
1.708597812E1,-4.202999771E-1,5.309999734E-2,-4.443699837E0
1.710597812E1,-3.102999926E-1,6.469999999E-2,-4.271299839E0
1.712597812E1,-2.820999920E-1,2.479999885E-2,-3.562500000E0
1.714597813E1,-3.956999779E-1,-5.849999934E-2,-3.017499924E0
1.716599688E1,-4.190999866E-1,-8.819999546E-2,-2.571699858E0
1.719597969E1,-5.602999926E-1,2.208999991E-1,-1.913800001E0
1.722597812E1,-7.279999852E-1,9.225999713E-1,-1.337700009E0
1.724597812E1,-4.350000024E-1,1.185099959E0,-8.648999929E-1
1.726601250E1,-4.591999948E-1,1.132200003E0,-2.348999977E-1
1.729597812E1,-8.511999846E-1,8.341000080E-1,1.591799974E0
1.731597812E1,-4.763999879E-1,1.018700004E0,2.216300011E0
1.733597812E1,-2.088999897E-1,1.640199900E0,2.420399904E0
1.735597812E1,5.846999884E-1,5.051000118E-1,3.483599901E0
1.737597812E1,-1.021999940E-1,-7.242999673E-1,4.862400055E0
1.739597813E1,-1.838799953E0,-8.628000021E-1,3.696499825E0
1.741597813E1,-2.321699858E0,-3.367999792E-1,1.309399962E0
1.743597813E1,-1.528199911E0,-2.576999962E-1,-3.749999776E-2
1.745597812E1,-5.874999762E-1,-1.009099960E0,9.556999803E-1
1.747597969E1,-1.000800014E0,-1.623799920E0,1.292699933E0
1.750597813E1,-1.784599900E0,-1.838400006E0,6.143999696E-1
1.752597812E1,-1.263700008E0,-1.694899917E0,1.834999919E-1
1.754597812E1,-5.776000023E-1,-1.419699907E0,-1.424999982E-1
1.756599688E1,-1.395999938E-1,-9.690999985E-1,-7.866999507E-1
1.759597813E1,2.710999846E-1,-4.822999835E-1,-2.073499918E0
1.761597812E1,4.602999985E-1,-3.118999898E-1,-2.764400005E0
1.763597812E1,6.284999847E-1,-2.347999960E-1,-2.956099987E0
1.765597812E1,6.165999770E-1,-2.188999951E-1,-2.729300022E0
1.767597812E1,4.628999829E-1,-2.484999895E-1,-2.394399881E0
1.769597812E1,4.611999989E-1,-3.087999821E-1,-2.331300020E0
1.771597812E1,1.887999922E-1,-2.014999986E-1,-2.167500019E0
1.773597813E1,-9.989999980E-2,-1.579999924E-1,-1.678499937E0
1.775597813E1,-1.991999894E-1,-6.269999593E-2,-1.089599967E0
1.777597812E1,-1.436000019E-1,2.089999989E-2,-2.869999968E-2
1.779597812E1,-1.970999986E-1,3.537999988E-1,8.362999558E-1
1.781597812E1,-3.598999977E-1,8.493999839E-1,1.180199981E0
1.783597969E1,-9.059000015E-1,1.411999941E0,1.344799995E0
1.786599844E1,-1.378199935E0,2.223599911E0,1.648099899E0
1.789597969E1,3.543999791E-1,9.979999661E-1,3.298399925E0
1.791597969E1,6.248999834E-1,-7.971000075E-1,5.555099964E0
1.794597969E1,-1.859000027E-1,-2.091500044E0,6.504399776E0
1.796599844E1,8.549000025E-1,-2.220399857E0,5.077399731E0
1.799597969E1,2.537299871E0,-1.777499914E0,2.161999941E0
1.801597969E1,1.885199904E0,-1.241799951E0,-9.009999782E-2
1.804597969E1,4.908999801E-1,-5.564999580E-1,-2.148000002E0
1.806599844E1,-7.329999655E-2,-4.779999852E-1,-2.675699949E0
1.809597813E1,-7.569999695E-1,-2.037999928E-1,-3.161000013E0
1.811597969E1,-1.038999915E0,-5.559999868E-2,-3.538699865E0
1.814597813E1,-7.849000096E-1,8.039999753E-2,-3.872499943E0
1.816599844E1,-3.079999983E-1,6.870000064E-2,-3.538100004E0
1.819597969E1,-2.331999987E-1,-3.790000081E-2,-2.578899860E0
1.822597969E1,-6.590999961E-1,-1.989999972E-2,-1.923199892E0
1.825597969E1,-3.175999820E-1,1.964999884E-1,-1.509999990E0
1.828597969E1,-5.798999667E-1,5.207999945E-1,-9.818999767E-1
1.831597969E1,-5.830999613E-1,6.766999960E-1,-4.807999730E-1
1.833597969E1,-6.308000088E-1,9.079999924E-1,-1.572999954E-1
1.836599844E1,-5.738999844E-1,1.027999997E0,2.392999977E-1
1.839597969E1,1.326999962E-1,7.260000110E-1,7.350999713E-1
1.842597812E1,3.847000003E-1,1.175999939E-1,3.247200012E0
1.844597969E1,2.295999974E-1,-5.134999752E-1,5.291699886E0
1.846599844E1,-4.487999976E-1,-9.177999496E-1,5.154299736E0
1.849597969E1,-1.393100023E0,9.539999813E-2,1.933099985E0
1.851597969E1,-1.075500011E0,4.882999957E-1,8.077999949E-1
1.854597969E1,1.546999961E-1,-6.697999835E-1,2.073199987E0
1.856599844E1,-6.225000024E-1,-1.312699914E0,2.182899952E0
1.859597969E1,-1.401000023E0,-1.414799929E0,9.023000002E-1
1.861597969E1,-1.438399911E0,-1.218500018E0,1.532000005E-1
1.864597813E1,-1.161000013E0,-8.235999942E-1,-1.299700022E0
1.866599844E1,-9.693999887E-1,-4.835999906E-1,-2.413699865E0
1.869597969E1,-4.706999958E-1,-1.846999973E-1,-3.396799803E0
1.872597969E1,1.039000005E-1,-1.639000028E-1,-3.197799921E0
1.875597969E1,-2.222999930E-1,-1.403999925E-1,-2.444299936E0
1.878597812E1,9.300000034E-3,-1.516000032E-1,-1.828599930E0
1.880597969E1,2.891999781E-1,-8.320000023E-2,-1.769999981E0
1.882597969E1,2.342000008E-1,5.399999768E-2,-1.545300007E0
1.885597812E1,2.129999921E-2,2.481999993E-1,-2.143999934E-1
1.887597969E1,3.349999785E-1,2.829000056E-1,5.212999582E-1
1.889597969E1,1.003700018E0,9.820000082E-2,1.298699975E0
1.891597969E1,1.106199980E0,-2.129999921E-2,2.310799837E0
1.894597812E1,1.955999881E-1,6.409999728E-1,1.725099921E0
1.896599844E1,1.287400007E0,1.750000007E-2,1.350999951E0
1.899597969E1,2.228399992E0,-2.159999847E0,6.419299603E0
1.901597969E1,3.707000017E-1,-2.349900007E0,8.638599396E0
1.904597969E1,6.609999537E-1,-1.656399965E0,2.494099855E0
1.906599844E1,1.991099954E0,-1.183599949E0,-8.600999713E-1
1.909597969E1,2.336099863E0,-8.149999976E-1,-1.123899937E0
1.911597969E1,8.209999800E-1,-5.507000089E-1,-5.922999978E-1
1.913597969E1,3.309999779E-2,-2.969000041E-1,3.050999939E-1
1.915597969E1,6.229999661E-2,-2.740000002E-2,5.052999854E-1
1.918597969E1,-2.386000007E-1,1.648999900E-1,-1.385399938E0
1.920597969E1,-7.917000055E-1,2.353999913E-1,-2.684200048E0
1.922597969E1,-1.035400033E0,1.638000011E-1,-3.356299877E0
1.925597969E1,-1.066399932E0,1.305999905E-1,-3.529500008E0
1.927597969E1,-8.664000034E-1,1.370000001E-2,-3.499300003E0
1.929597969E1,-6.958999634E-1,-6.769999862E-2,-3.216199875E0
1.932597969E1,-7.498999834E-1,7.090000063E-2,-2.663199902E0
1.934597969E1,-7.565000057E-1,2.075999975E-1,-1.837599993E0
1.936599688E1,-7.555999756E-1,5.670999885E-1,-8.240000010E-1
1.939597969E1,-7.489999533E-1,1.015699983E0,2.088999897E-1
1.941597969E1,-8.177999854E-1,1.179499984E0,5.600999594E-1
1.944597969E1,-5.805999637E-1,1.183499932E0,1.213899970E0
1.946599844E1,3.929999843E-2,9.533999562E-1,1.751299977E0
1.949597812E1,6.347000003E-1,7.551999688E-1,2.975100040E0
1.951597812E1,1.104300022E0,1.215000004E-1,4.248300076E0
1.953597812E1,1.079900026E0,-1.011799932E0,5.620199680E0
1.955597969E1,2.278999984E-1,-1.887199998E0,5.884799957E0
1.958597812E1,-1.404999971E0,-1.198400021E0,3.105499983E0
1.960597812E1,-1.691299915E0,-3.382999897E-1,-5.525000095E-1
1.962597969E1,-1.223799944E0,-1.925999969E-1,-2.741899967E0
1.965597969E1,-1.436000019E-1,-1.132599950E0,-1.716399908E0
1.968597969E1,-5.407999754E-1,-1.580699921E0,-6.565999985E-1
1.970597969E1,-5.971999764E-1,-1.494300008E0,-5.162999630E-1
1.972597969E1,-1.688999981E-1,-1.290599942E0,-2.985999882E-1
1.975597969E1,6.923999786E-1,-5.986999869E-1,3.460000083E-2
1.978597812E1,4.057999849E-1,2.974999845E-1,-1.845199943E0
1.980597813E1,2.621999979E-1,6.455999613E-1,-3.175199986E0
1.982597969E1,1.689999998E-1,8.084999919E-1,-3.545599937E0
1.985597812E1,5.189999938E-2,9.060999751E-1,-3.270900011E0
1.987597969E1,-1.788999885E-1,9.790999889E-1,-3.006099939E0
1.989597969E1,-3.631999791E-1,1.128099918E0,-2.415999889E0
1.991597969E1,-4.153999984E-1,1.193599939E0,-1.657799959E0
1.994597969E1,-4.888999760E-1,1.139099956E0,-1.906999946E-1
1.996599844E1,-1.082000017E0,1.226899981E0,6.162999868E-1
1.999597812E1,-1.247299910E0,1.217499971E0,9.213999510E-1
2.001597969E1,-7.719999552E-1,1.220099926E0,1.519599915E0
2.004597969E1,-3.416000009E-1,1.474099994E0,2.423599958E0
2.006599844E1,-6.355999708E-1,1.631899953E0,2.632599831E0
2.009597813E1,-6.502000093E-1,1.910899997E0,2.764699936E0
2.011597969E1,6.240999699E-1,1.289399981E0,3.722399950E0
2.014597813E1,1.662799954E0,-6.277999878E-1,6.561299801E0
2.016599844E1,3.055000007E-1,-1.815999985E0,5.894499779E0
2.019597969E1,-6.578999758E-1,-2.219599962E0,1.853099942E0
2.022597969E1,8.330999613E-1,-1.946900010E0,-1.086199999E0
2.025597969E1,2.121099949E0,-1.873299956E0,-2.260200024E0
2.027597969E1,1.132900000E0,-1.678900003E0,-2.442499876E0
2.030597813E1,-2.757000029E-1,-1.401399970E0,-1.464900017E0
2.032597969E1,-3.459999859E-1,-9.723999500E-1,-5.401999950E-1
2.034597969E1,6.599999964E-2,-4.394999743E-1,-6.042999625E-1
2.036599844E1,1.235999987E-1,1.727000028E-1,-1.438099980E0
2.039597969E1,1.864999980E-1,9.117999673E-1,-2.347699881E0
2.041597969E1,3.304999769E-1,1.230999947E0,-2.396199942E0
2.044597969E1,4.341000021E-1,1.432099938E0,-2.013399839E0
2.046599844E1,3.206999898E-1,1.415799975E0,-1.825199962E0
2.049597969E1,4.769999906E-2,1.439999938E0,-1.763000011E0
2.052597812E1,-1.350999922E-1,1.190899968E0,-1.643399954E0
2.054597969E1,-3.831000030E-1,1.033800006E0,-1.847999930E0
2.056599844E1,-5.557999611E-1,1.043499947E0,-1.739199996E0
2.059597813E1,-8.004999757E-1,9.975000024E-1,-7.778999805E-1
2.061597812E1,-9.210000038E-1,9.846999645E-1,5.855000019E-1
2.063597812E1,-6.446999907E-1,7.651000023E-1,1.657099962E0
2.065597812E1,-7.566999793E-1,9.097999930E-1,2.338199854E0
2.067597812E1,-7.105000019E-1,1.238099933E0,2.860499859E0
2.069597812E1,2.766999900E-1,3.325999975E-1,4.097199917E0
2.071597813E1,7.518000007E-1,-1.417400002E0,7.003799915E0
2.073597813E1,-1.428000033E-1,-2.100999832E0,7.846699715E0
2.075597813E1,-1.623799920E0,-9.273999929E-1,3.660399914E0
2.077597812E1,-1.265799999E0,1.847999990E-1,-8.155999780E-1
2.079597812E1,-5.099999905E-1,3.428999782E-1,-1.642599940E0
2.081597812E1,-6.262999773E-1,-6.380000114E-1,-5.669999719E-1
2.083597812E1,-1.499599934E0,-1.274799943E0,-4.096999764E-1
2.085597812E1,-2.118399858E0,-1.494899988E0,-6.434999704E-1
2.087597812E1,-1.591699958E0,-1.470999956E0,-3.703999817E-1
2.089597969E1,-4.472000003E-1,-1.176399946E0,-2.342999876E-1
2.092597812E1,2.919999883E-2,-4.482999742E-1,-1.894799948E0
2.094597812E1,2.538000047E-1,-8.509999514E-2,-3.072000027E0
2.096599688E1,5.295999646E-1,1.768999994E-1,-3.595599890E0
2.099597812E1,7.080999613E-1,3.783999979E-1,-3.122799873E0
2.101597812E1,5.203999877E-1,5.001999736E-1,-2.868700027E0
2.103597969E1,3.048000038E-1,6.297000051E-1,-2.859699965E0
2.106599844E1,2.368999869E-1,8.190000057E-1,-2.314499855E0
2.109597969E1,-1.959999949E-1,1.193099976E0,-1.860299945E0
2.111597969E1,-5.205999613E-1,1.426499963E0,-1.503899932E0
2.113597969E1,-4.926999807E-1,1.397400022E0,-3.436000049E-1
2.115597969E1,-3.615999818E-1,1.266099930E0,1.632399917E0
2.118597969E1,3.814999759E-1,6.887999773E-1,3.684799910E0
2.121597813E1,4.104999900E-1,6.284999847E-1,4.025300026E0
2.123597813E1,7.912999988E-1,6.254000068E-1,3.495399952E0
2.125597813E1,1.798099995E0,-5.570000038E-2,3.521799803E0
2.127597812E1,2.144999981E0,-1.148499966E0,4.138499737E0
2.129597812E1,1.837099910E0,-2.121000051E0,4.514199734E0
2.131597812E1,2.498399973E0,-3.012099981E0,4.814699650E0
2.133597812E1,3.615499973E0,-3.250099897E0,3.651700020E0
2.135597812E1,3.585399866E0,-2.779299974E0,1.339599967E0
2.137597812E1,2.370800018E0,-2.005300045E0,-6.275999546E-1
2.139597813E1,1.036800027E0,-1.465099931E0,-1.481400013E0
2.141597813E1,1.327999979E-1,-1.047600031E0,-2.164399862E0
2.143597813E1,-4.874999821E-1,-5.672000051E-1,-3.059999943E0
2.145597812E1,-2.996000051E-1,-1.239999980E-1,-3.705499887E0
2.147597812E1,-6.588000059E-1,5.748000145E-1,-4.497299671E0
2.149597812E1,-1.159899950E0,1.044399977E0,-4.874599934E0
2.151597812E1,-1.401099920E0,1.424399972E0,-4.400799751E0
2.153597812E1,-1.267799973E0,1.617200017E0,-3.705199957E0
2.155598125E1,-9.657999873E-1,1.508399963E0,-2.767099857E0
2.158597812E1,-1.874899983E0,1.267699957E0,-1.758099914E0
2.160597812E1,-2.198299885E0,1.042099953E0,-1.542400002E0
2.162597812E1,-1.667199969E0,8.342999816E-1,-5.931000113E-1
2.164597813E1,-1.141899943E0,7.249000072E-1,4.052999914E-1
2.166599688E1,-1.104599953E0,8.825999498E-1,6.976000071E-1
2.169597812E1,-8.959999681E-1,1.001199961E0,1.099499941E0
2.171597813E1,8.299999684E-2,8.546999693E-1,1.306800008E0
2.173597813E1,5.018999577E-1,5.647999644E-1,1.689499974E0
2.175597813E1,2.413999885E-1,6.003999710E-1,2.226999998E0
2.177597812E1,4.999999655E-4,1.771000028E-1,3.186199903E0
2.179597812E1,-9.021999836E-1,-5.647999644E-1,4.618000031E0
2.181597812E1,-2.008599997E0,-9.986999631E-1,4.633299828E0
2.183597812E1,-1.954699993E0,-9.770999551E-1,2.895999908E0
2.185597812E1,-1.066100001E0,-8.156999946E-1,7.436000109E-1
2.187597812E1,5.022999644E-1,-1.374400020E0,8.271999955E-1
2.189597813E1,3.382999897E-1,-2.025300026E0,2.157999992E0
2.191597813E1,-6.791999936E-1,-2.408799887E0,2.833600044E0
2.193597813E1,-1.540300012E0,-2.034399986E0,2.310400009E0
2.195597812E1,-1.397300005E0,-1.520200014E0,1.016700029E0
2.197597969E1,-6.270999908E-1,-1.130200028E0,-3.743999898E-1
2.200597969E1,1.098999977E-1,-6.671000123E-1,-2.579299927E0
2.203597812E1,7.524999976E-1,-3.332999945E-1,-4.564899921E0
2.205597813E1,9.779999852E-1,-1.140999943E-1,-5.119299889E0
2.207597813E1,1.236999989E0,-2.689999901E-2,-5.036599636E0
2.209597813E1,1.161000013E0,1.807999909E-1,-4.583199978E0
2.211597812E1,7.962999940E-1,3.942999840E-1,-4.082699776E0
2.213597812E1,5.185999870E-1,4.474999905E-1,-3.221599817E0
2.215597812E1,2.120999992E-1,4.441999793E-1,-1.860799909E0
2.217597812E1,-2.741000056E-1,6.100000143E-1,-1.026999950E0
2.219597812E1,-5.769999623E-1,7.999999523E-1,-6.223999858E-1
2.221597813E1,-4.319999814E-1,7.601999640E-1,2.322999984E-1
2.223597813E1,1.083999947E-1,5.627999902E-1,1.624599934E0
2.225597813E1,6.129999831E-2,2.927999794E-1,2.712599993E0
2.227597812E1,-7.651999593E-1,3.626999855E-1,3.407699823E0
2.229597812E1,-1.671800017E0,9.875999689E-1,2.961299896E0
2.231597812E1,-8.172999620E-1,9.656999707E-1,2.589999914E0
2.233597812E1,6.671000123E-1,-4.790999889E-1,4.289299965E0
2.235597812E1,1.118000001E-1,-1.762599945E0,7.784799576E0
2.237597813E1,-4.072999954E-1,-2.505300045E0,8.134599686E0
2.239597813E1,1.643700004E0,-2.525499821E0,5.924699783E0
2.241597813E1,3.784999847E0,-2.517699957E0,3.141199827E0
2.243597813E1,4.131400108E0,-2.316200018E0,1.208099961E0
2.245597812E1,2.969199896E0,-1.767799973E0,1.132999957E-1
2.247597812E1,1.720099926E0,-1.407699943E0,-1.212299943E0
2.249597812E1,8.786000013E-1,-1.069199920E0,-2.701999903E0
2.251597812E1,5.970000029E-1,-6.717999578E-1,-3.626499891E0
2.253597812E1,3.115999997E-1,-1.801999956E-1,-4.235799789E0
2.255597813E1,-4.160000011E-2,3.419999778E-1,-4.708099842E0
2.257597813E1,-3.256999850E-1,8.761000037E-1,-5.273399830E0
2.259597813E1,-4.280999899E-1,1.112499952E0,-5.578299999E0
2.261597969E1,-5.704999566E-1,1.141299963E0,-5.217299938E0
2.264597813E1,-1.712099910E0,1.091099977E0,-4.430200100E0
2.266599844E1,-2.270400047E0,9.976999760E-1,-3.429499865E0
2.269597969E1,-2.878899813E0,8.237999678E-1,-2.088700056E0
2.272597812E1,-3.054100037E0,6.850999594E-1,-1.263199925E0
2.274597812E1,-2.811499834E0,5.328999758E-1,-2.689999901E-2
2.276601250E1,-2.130599976E0,2.371999919E-1,1.490700006E0
2.279597812E1,-1.663499951E0,-3.457999825E-1,3.134599924E0
2.281597812E1,-1.782499909E0,-5.435999632E-1,3.968999863E0
2.283597812E1,-1.325599909E0,-9.868999720E-1,4.381199837E0
2.285597812E1,-8.277999759E-1,-1.856099963E0,5.104499817E0
2.287597813E1,-1.209299922E0,-2.190999985E0,5.680799961E0
2.289597813E1,-1.383999944E0,-1.891899943E0,4.235499859E0
2.291597813E1,-8.768999577E-1,-1.448199987E0,1.643999934E0
2.293597813E1,-2.803999782E-1,-1.476300001E0,2.764999866E-1
2.295597812E1,-8.161000013E-1,-1.961399913E0,1.275300026E0
2.297597812E1,-1.795300007E0,-2.114500046E0,2.281699896E0
2.299597812E1,-2.049999952E0,-1.985099912E0,1.644799948E0
2.301597812E1,-1.162999988E0,-1.597499967E0,4.328999817E-1
2.303597812E1,-3.486999869E-1,-1.244899988E0,-8.779000044E-1
2.305597813E1,3.407000005E-1,-8.465999961E-1,-1.896099925E0
2.307597813E1,9.675999880E-1,-6.864999533E-1,-3.180799961E0
2.309597813E1,1.535899997E0,-4.765999913E-1,-4.268599987E0
2.311597812E1,1.985399961E0,-2.951999903E-1,-4.836199760E0
2.313597812E1,2.129799843E0,-1.885000020E-1,-4.944299698E0
2.315597812E1,1.901699901E0,-3.720000014E-2,-4.849400043E0
2.317597812E1,1.456300020E0,8.419999480E-2,-4.435400009E0
2.319597969E1,1.067000031E0,8.199999481E-2,-3.604599953E0
2.322597812E1,2.773999870E-1,9.820000082E-2,-1.736499906E0
2.324597812E1,-3.375000060E-1,3.287000060E-1,-1.199800014E0
2.326601250E1,-5.300999880E-1,6.541999578E-1,-1.247399926E0
2.329597812E1,1.136000007E-1,6.638999581E-1,2.857999802E-1
2.331597812E1,7.909999788E-2,4.994999766E-1,2.077800035E0
2.333597969E1,-5.303999782E-1,4.284999967E-1,3.518100023E0
2.336599688E1,-9.012999535E-1,7.358999848E-1,3.638899803E0
2.339597969E1,5.059999824E-1,2.232999951E-1,4.493299961E0
2.341597969E1,1.253899932E0,-9.208999872E-1,6.125099659E0
2.344597969E1,1.034899950E0,-1.745299935E0,6.491699696E0
2.346599688E1,1.421800017E0,-1.517599940E0,3.642099857E0
2.349597969E1,4.199199677E0,-1.533699989E0,1.216199994E0
2.351597969E1,4.350899696E0,-1.270299911E0,3.069999814E-1
2.354597969E1,1.847999930E0,-6.595999599E-1,-1.636600018E0
2.356599844E1,8.495999575E-1,-6.365999579E-1,-1.978500009E0
2.359597813E1,-1.097999960E-1,-1.790999919E-1,-2.390100002E0
2.361597969E1,-6.941999793E-1,2.097999901E-1,-3.182199955E0
2.363597969E1,-1.378799915E0,5.166999698E-1,-3.611199856E0
2.365597969E1,-1.730899930E0,6.550999880E-1,-3.658999920E0
2.368597969E1,-1.879499912E0,6.363999844E-1,-3.121099949E0
2.370597969E1,-2.107499838E0,5.507999659E-1,-2.663100004E0
2.373597813E1,-2.416599989E0,5.489999652E-1,-1.922399998E0
2.375597969E1,-2.436300039E0,5.457000136E-1,-1.042299986E0
2.377597969E1,-2.261800051E0,7.002999783E-1,-6.121999621E-1
2.380597969E1,-1.677899957E0,1.025200009E0,-6.814999580E-1
2.382597969E1,-1.360099912E0,1.148100019E0,-4.849999845E-1
2.384597969E1,-1.104599953E0,1.109399915E0,-3.299999982E-2
2.386599844E1,-6.157999635E-1,9.321999550E-1,6.449999809E-1
2.389597813E1,5.410000086E-1,4.837999940E-1,1.920699954E0
2.391597969E1,2.931999862E-1,5.333999991E-1,2.312500000E0
2.394597812E1,-7.199999690E-2,-2.314999998E-1,4.015500069E0
2.396599844E1,-6.013999581E-1,-1.139999986E0,5.651400089E0
2.399597812E1,-1.281099916E0,-1.013700008E0,3.564999819E0
2.401597969E1,-1.613999903E-1,-8.452000022E-1,1.049499989E0
2.404597969E1,1.262699962E0,-1.315999985E0,8.376999497E-1
2.406603906E1,6.868999600E-1,-1.792400002E0,1.647599936E0
2.409597969E1,-7.856000066E-1,-1.765100002E0,1.653100014E0
2.411597969E1,-6.857999563E-1,-1.529299974E0,7.700999975E-1
2.414597813E1,-1.250000000E-1,-1.059299946E0,-9.927999973E-1
2.416599844E1,1.017999947E-1,-6.222999692E-1,-2.636600018E0
2.419597969E1,5.378000140E-1,-2.414999902E-1,-4.529599667E0
2.422597812E1,6.728000045E-1,2.049999870E-2,-5.049999714E0
2.424597812E1,5.687999725E-1,1.028999984E-1,-5.026400089E0
2.426601250E1,5.961999893E-1,1.121999994E-1,-4.641099930E0
2.429597969E1,3.748999834E-1,2.223999947E-1,-3.871699810E0
2.431597969E1,-1.089999974E-1,4.411000013E-1,-2.875599861E0
2.433597969E1,-1.902000010E-1,5.719000101E-1,-1.779099941E0
2.436599688E1,3.127999902E-1,8.907999992E-1,-7.461999655E-1
2.439597969E1,4.115999937E-1,8.050000072E-1,2.130899906E0
2.441597969E1,2.560999990E-1,3.270999789E-1,4.617599964E0
2.444597812E1,-4.396999776E-1,9.741999507E-1,5.105799675E0
2.446599688E1,-9.969999641E-2,1.600799918E0,4.328599930E0
2.449597812E1,1.221499920E0,1.435299993E0,5.879499912E0
2.451597812E1,1.942899942E0,4.589999914E-1,6.763799667E0
2.453597813E1,2.103800058E0,-7.857999802E-1,5.593100071E0
2.455597813E1,1.397099972E0,-1.210600019E0,2.433199883E0
2.457597813E1,1.610199928E0,-1.624599934E0,1.381999999E-1
2.459597813E1,2.708499908E0,-2.187599897E0,-3.826999962E-1
2.461597812E1,3.504699945E0,-2.593400002E0,-6.108999848E-1
2.463597812E1,2.753499985E0,-2.577100039E0,-1.048300028E0
2.465597812E1,1.163699985E0,-2.082299948E0,-9.689999819E-1
2.467597812E1,1.260000020E-1,-1.612999916E0,-1.192099929E0
2.469597812E1,-6.024999619E-1,-1.065899968E0,-1.840399981E0
2.471597813E1,-1.109399915E0,-5.300999880E-1,-2.643800020E0
2.473597813E1,-1.568699956E0,-6.659999490E-2,-3.678799868E0
2.475597813E1,-1.894999981E0,4.171999991E-1,-4.574299812E0
2.477597812E1,-2.041399956E0,8.403999805E-1,-4.762700081E0
2.479597812E1,-2.149699926E0,1.044399977E0,-4.617300034E0
2.481597812E1,-1.985099912E0,1.026799917E0,-4.088500023E0
2.483597812E1,-1.903099895E0,8.750999570E-1,-3.195299864E0
2.485597812E1,-2.042399883E0,7.358999848E-1,-1.643899918E0
2.487597813E1,-2.289000034E0,7.390999794E-1,-3.352999985E-1
2.489597813E1,-2.211299896E0,8.368999958E-1,3.957999945E-1
2.491597813E1,-1.894199967E0,8.312999606E-1,1.184199929E0
2.493597813E1,-1.562699914E0,7.734000087E-1,1.999699950E0
2.495597812E1,-1.254999995E0,7.056999803E-1,2.558099985E0
2.497597969E1,-8.144999743E-1,6.291999817E-1,2.750999928E0
2.500597813E1,5.379999802E-2,5.284000039E-1,2.970899820E0
2.502597812E1,6.949999928E-1,6.927999854E-1,3.358399868E0
2.504597812E1,1.473999977E0,-1.050999984E-1,4.296999931E0
2.506599688E1,3.587999940E-1,-1.221499920E0,5.011799812E0
2.509597813E1,-1.393100023E0,-1.990700006E0,4.002999783E0
2.511597812E1,-1.118000031E0,-1.772899985E0,7.642999887E-1
2.513597812E1,2.477999926E-1,-1.623299956E0,-7.540999651E-1
2.515597812E1,1.593999982E0,-1.613199949E0,-7.000000030E-2
2.517597812E1,1.568599939E0,-1.630199909E0,7.771999836E-1
2.519597812E1,6.865999699E-1,-1.429000020E0,8.822000027E-1
2.521597813E1,1.134999990E-1,-1.098399997E0,-2.369999886E-2
2.523597813E1,1.244999990E-1,-6.543999910E-1,-9.526999593E-1
2.525597813E1,2.651000023E-1,-2.574999928E-1,-1.824799895E0
2.527597812E1,2.797999978E-1,1.106999964E-1,-2.922799826E0
2.529597812E1,2.797999978E-1,3.811999857E-1,-3.794799805E0
2.531597812E1,3.340999782E-1,5.245000124E-1,-4.244599819E0
2.533597812E1,3.096999824E-1,6.153999567E-1,-4.252099991E0
2.535597812E1,2.636999786E-1,6.042000055E-1,-3.983599901E0
2.537597813E1,2.593999803E-1,5.360000134E-1,-3.655099869E0
2.539597813E1,4.829999804E-2,4.016000032E-1,-2.923899889E0
2.541597969E1,-3.671000004E-1,3.463999927E-1,-1.879599929E0
2.544597969E1,-9.831999540E-1,5.561000109E-1,-1.196900010E0
2.546599844E1,-1.128499985E0,6.534000039E-1,-8.100000024E-1
2.549597812E1,3.041000068E-1,1.492999941E-1,1.981799960E0
2.551597969E1,4.453999996E-1,-6.439999491E-2,3.488099813E0
2.554597969E1,1.562999934E-1,-1.158999950E-1,4.402299881E0
2.556599844E1,5.745999813E-1,4.720999897E-1,3.838799953E0
2.559597813E1,2.482399940E0,-1.333999932E-1,4.199800014E0
2.561597969E1,2.474999905E0,-1.321200013E0,5.083199978E0
2.564597813E1,6.118999720E-1,-2.242599964E0,3.943799973E0
2.566599844E1,6.977999806E-1,-2.177099943E0,1.953099966E0
2.569597969E1,2.827499866E0,-1.974499941E0,-1.381999999E-1
2.572597812E1,2.474900007E0,-1.333099961E0,-5.252000093E-1
2.574597812E1,2.179999948E-1,-8.274999857E-1,-9.547999501E-1
2.576601250E1,-1.195799947E0,-4.517999887E-1,-9.244999886E-1
2.579597812E1,-2.008899927E0,1.527999938E-1,-1.095700026E0
2.581597812E1,-2.369499922E0,5.315999985E-1,-2.071599960E0
2.583597969E1,-2.615399837E0,8.700000048E-1,-3.109599829E0
2.586599844E1,-2.172800064E0,1.029799938E0,-3.762399912E0
2.589597969E1,-1.379499912E0,8.436999917E-1,-3.653399944E0
2.591597969E1,-1.355199933E0,6.175999641E-1,-3.249300003E0
2.594597969E1,-1.416000009E0,3.549999893E-1,-1.736199975E0
2.596599844E1,-1.381500006E0,2.251999974E-1,-7.421999574E-1
2.599597812E1,-1.305199981E0,5.760999918E-1,-6.554999948E-1
2.601597969E1,-9.320999980E-1,8.391000032E-1,-4.258999825E-1
2.603597969E1,-4.879999757E-1,8.971999884E-1,4.007000029E-1
2.605597969E1,-2.210000008E-1,7.415999770E-1,1.610299945E0
2.608597969E1,6.699000001E-1,3.300999999E-1,3.534999847E0
2.611597969E1,1.297199965E0,8.204999566E-1,3.854299784E0
2.614597813E1,1.359599948E0,6.275999546E-1,3.725399971E0
2.616599844E1,8.315999508E-1,-5.845000148E-1,4.665199757E0
2.619597969E1,-8.452000022E-1,-1.217599988E0,4.316599846E0
2.622597812E1,-2.299999893E-1,-1.000299931E0,1.592999995E-1
2.624597812E1,3.359999955E-1,-1.346599936E0,-3.711999953E-1
2.626601250E1,-3.319999948E-2,-1.825099945E0,9.398999810E-1
2.629597812E1,-1.734299898E0,-1.676800013E0,4.842999876E-1
2.631597812E1,-1.847399950E0,-1.305299997E0,-4.118999839E-1
2.633597812E1,-1.206499934E0,-1.020499945E0,-1.191699982E0
2.635597812E1,-6.868000031E-1,-6.130999923E-1,-1.832099915E0
2.637597813E1,-7.908999920E-1,-2.119999975E-1,-2.646299839E0
2.639597813E1,-7.423999906E-1,-1.769999973E-2,-3.477699995E0
2.641597813E1,-2.987000048E-1,9.559999406E-2,-3.776899815E0
2.643597813E1,4.439999908E-2,1.472999901E-1,-3.711599827E0
2.645597812E1,-4.189999774E-2,2.901999950E-1,-3.558599949E0
2.647597969E1,-1.204999983E-1,3.492999971E-1,-3.465999842E0
2.650597813E1,-1.829999872E-2,4.535000026E-1,-2.756500006E0
2.652597812E1,-3.073999882E-1,5.457999706E-1,-2.331099987E0
2.654597812E1,-7.673999667E-1,6.624000072E-1,-1.474799991E0
2.656599688E1,-8.795999885E-1,7.379999757E-1,-5.812000036E-1
2.659597813E1,4.605000019E-1,3.586999774E-1,5.830000043E-1
2.661597812E1,2.310899973E0,4.399999976E-3,5.582999587E-1
2.663597812E1,2.737099886E0,-2.913999856E-1,1.168699980E0
2.665597812E1,3.710999787E-1,-2.716000080E-1,2.170799971E0
2.667597812E1,-1.495800018E0,1.009999961E-2,2.822299957E0
2.669597812E1,-8.973999619E-1,1.489999890E-1,3.942499876E0
2.671597813E1,8.295999765E-1,-6.176999807E-1,5.893599987E0
2.673597813E1,7.876999974E-1,-1.603399992E0,7.211699963E0
2.675597813E1,7.354999781E-1,-2.373999834E0,6.935099602E0
2.677597812E1,1.768799901E0,-2.708400011E0,4.673099995E0
2.679597812E1,2.987900019E0,-2.742799997E0,2.211199999E0
2.681597812E1,3.586499929E0,-2.341500044E0,4.508000016E-1
2.683597812E1,2.355299950E0,-1.578599930E0,-5.845999718E-1
2.685597812E1,7.619000077E-1,-8.398999572E-1,-1.027300000E0
2.687597813E1,1.618999988E-1,-2.716999948E-1,-1.650799990E0
2.689597813E1,-2.427999973E-1,2.477999926E-1,-2.726500034E0
2.691597969E1,-7.191999555E-1,6.678999662E-1,-4.087399960E0
2.694597813E1,-1.247099996E0,1.093699932E0,-5.273499966E0
2.696599688E1,-1.108500004E0,1.082499981E0,-5.476500034E0
2.699597812E1,-1.088899970E0,9.204999804E-1,-4.756299973E0
2.701597812E1,-1.247599959E0,7.439999580E-1,-3.835999966E0
2.703597813E1,-1.483999968E0,5.537999868E-1,-2.374799967E0
2.705597813E1,-1.980499983E0,3.894999921E-1,-9.390999675E-1
2.707597813E1,-2.402999878E0,2.206999958E-1,5.701999664E-1
2.709597813E1,-2.471299887E0,4.848999977E-1,1.259500027E0
2.711597812E1,-2.071099997E0,7.374999523E-1,1.430699944E0
2.713597812E1,-1.714199901E0,8.880999684E-1,1.789199948E0
2.715597812E1,-1.169299960E0,8.999999762E-1,2.235100031E0
2.717597812E1,-3.716000021E-1,5.412999988E-1,2.448299885E0
2.719597813E1,7.129999995E-1,2.377000004E-1,2.851899862E0
2.721597813E1,1.145499945E0,3.862999976E-1,3.168599844E0
2.723597813E1,1.413399935E0,9.829999506E-2,3.837399960E0
2.725597813E1,1.115800023E0,-7.310999632E-1,5.093400002E0
2.727597812E1,-9.789999574E-2,-1.168799996E0,4.990399837E0
2.729597812E1,-8.980999589E-1,-9.034999609E-1,3.077100039E0
2.731597812E1,-4.468999803E-1,-7.380999923E-1,9.343999624E-1
2.733597812E1,6.642000079E-1,-1.064700007E0,3.951999843E-1
2.735597812E1,6.893000007E-1,-1.587199926E0,1.045499921E0
2.737597813E1,-5.321999788E-1,-1.662299991E0,9.903999567E-1
2.739597813E1,-1.206099987E0,-1.551999927E0,6.341999769E-1
2.741597813E1,-1.325699925E0,-1.306999922E0,-1.891999990E-1
2.743597813E1,-7.383999825E-1,-1.047600031E0,-8.738999963E-1
2.745597812E1,-4.569000006E-1,-6.377999783E-1,-1.800999999E0
2.747597969E1,-3.158999979E-1,-3.170999885E-1,-2.913800001E0
2.750597813E1,1.630000025E-1,-4.499999806E-2,-3.819000006E0
2.752597812E1,6.462999582E-1,8.289999515E-2,-3.759899855E0
2.754597812E1,7.763999701E-1,2.184000015E-1,-3.648000002E0
2.756599688E1,4.518999755E-1,2.683999836E-1,-3.769799948E0
2.759597813E1,4.431999922E-1,2.773000002E-1,-3.172399998E0
2.761597812E1,2.107999921E-1,3.120000064E-1,-2.587899923E0
2.763597812E1,-3.786000013E-1,5.361999869E-1,-2.230999947E0
2.765597812E1,-6.398999691E-1,6.427999735E-1,-1.650599957E0
2.767597812E1,-4.544999897E-1,5.722999573E-1,-3.016999960E-1
2.769597969E1,5.199999735E-2,4.017999768E-1,1.271700025E0
2.772597812E1,1.669999957E-2,9.299999475E-2,2.952600002E0
2.774597812E1,-9.512999654E-1,1.674000025E-1,3.868299961E0
2.776601250E1,-1.165899992E0,2.426999956E-1,3.845299959E0
2.779597812E1,3.793999851E-1,-2.902999818E-1,4.634699821E0
2.781597812E1,7.850999832E-1,-1.122200012E0,5.605499744E0
2.783597812E1,3.454000056E-1,-1.659999967E0,5.561599731E0
2.785597812E1,6.855999827E-1,-1.890999913E0,4.358299732E0
2.787598438E1,2.379400015E0,-2.262500048E0,2.965899944E0
2.790597812E1,3.721699953E0,-2.197399855E0,8.361999989E-1
2.792599688E1,2.871399879E0,-1.649299979E0,-2.757000029E-1
2.795597812E1,6.963999867E-1,-7.913999557E-1,-1.644400001E0
2.797597969E1,3.189999983E-2,-3.199000061E-1,-1.837799907E0
2.800597813E1,-6.747999787E-1,3.278000057E-1,-2.999099970E0
2.802597812E1,-9.659999609E-1,7.279999852E-1,-4.034399986E0
2.804597812E1,-8.608999848E-1,9.939999580E-1,-4.573499680E0
2.806599688E1,-5.999999642E-1,1.063099980E0,-4.647399902E0
2.809597813E1,-6.970999837E-1,1.138199925E0,-4.734399796E0
2.811597812E1,-9.556999803E-1,1.079999924E0,-4.335599899E0
2.813597812E1,-1.276600003E0,7.969999909E-1,-2.697099924E0
2.815597812E1,-1.684099913E0,7.402999997E-1,-9.320999980E-1
2.817597812E1,-1.986299992E0,9.274999499E-1,-2.714000046E-1
2.819597813E1,-2.067199945E0,1.215399981E0,-1.506000012E-1
2.821597813E1,-2.086400032E0,1.332199931E0,4.248999953E-1
2.823597813E1,-1.915499926E0,1.118199944E0,2.114699841E0
2.825597813E1,-1.275599957E0,4.899999797E-1,3.855399847E0
2.827597812E1,-6.930999756E-1,-2.247999907E-1,4.551099777E0
2.829597812E1,-2.951999903E-1,-2.978000045E-1,4.259599686E0
2.831597812E1,6.872000098E-1,1.573999971E-1,4.052700043E0
2.833597969E1,1.725099921E0,-1.729999930E-1,4.143799782E0
2.836599844E1,1.135100007E0,-8.206999898E-1,4.272399902E0
2.839597813E1,-2.721999884E-1,-5.595999956E-1,7.827000022E-1
2.841597969E1,5.036000013E-1,-3.813000023E-1,-8.579999804E-1
2.844597813E1,1.976499915E0,-1.066799998E0,-5.139999837E-2
2.846599844E1,6.987000108E-1,-1.459399939E0,6.578999758E-1
2.849597812E1,-1.394899964E0,-1.439999938E0,9.618999958E-1
2.851597969E1,-1.716399908E0,-1.074299932E0,2.299999893E-1
2.854597969E1,-1.266199946E0,-7.951999903E-1,6.524999738E-1
2.856599844E1,-1.168499947E0,-6.434999704E-1,-2.410000004E-2
2.859597813E1,-1.238299966E0,-2.303999960E-1,-3.092999935E0
2.861597969E1,-8.568999767E-1,-1.483999938E-1,-4.129600048E0
2.864597813E1,-1.529999971E-1,-9.079999477E-2,-3.701900005E0
2.866599688E1,-2.899000049E-1,-1.769999973E-2,-3.591799974E0
2.869597813E1,-4.086999893E-1,4.279999807E-2,-3.461199999E0
2.871597813E1,-5.709999800E-1,2.295999974E-1,-3.560999870E0
2.873597813E1,-5.647000074E-1,5.759999752E-1,-3.430599928E0
2.875597813E1,-7.622999549E-1,8.980000019E-1,-2.898299932E0
2.877597812E1,-8.844999671E-1,9.746999741E-1,-1.355399966E0
2.879597812E1,-1.937000006E-1,8.739999533E-1,7.999999449E-3
2.881597812E1,7.019999623E-1,6.132999659E-1,8.131999969E-1
2.883597812E1,6.603999734E-1,3.504000008E-1,2.319000006E0
2.885597812E1,-1.953999996E-1,5.911999941E-1,4.081999779E0
2.887597813E1,-6.839999557E-2,5.573999882E-1,4.405600071E0
2.889597813E1,9.009000063E-1,3.536999822E-1,4.668999672E0
2.891597813E1,7.734999657E-1,-2.349999994E-1,4.960499763E0
2.893597813E1,3.861999810E-1,-7.856999636E-1,4.940199852E0
2.895597812E1,6.072999835E-1,-1.280699968E0,5.113999844E0
2.897597812E1,2.052099943E0,-1.797499895E0,4.666299820E0
2.899597812E1,3.320099831E0,-1.814999938E0,2.543900013E0
2.901597812E1,3.809299946E0,-1.598999977E0,5.667999983E-1
2.903597813E1,2.990799904E0,-1.314499974E0,-6.254000068E-1
2.905602031E1,1.305499911E0,-1.004199982E0,-1.118000031E0
2.908597812E1,-3.097999990E-1,-7.821999788E-1,-1.185299993E0
2.910597813E1,-8.606999516E-1,-4.896999896E-1,-1.724499941E0
2.912597813E1,-1.225399971E0,-1.533000022E-1,-2.757699966E0
2.914597813E1,-1.387499928E0,8.060000092E-2,-3.864799976E0
2.916599688E1,-1.443699956E0,5.625000000E-1,-4.733900070E0
2.919597969E1,-1.094399929E0,9.052000046E-1,-4.853699684E0
2.922597812E1,-1.106199980E0,6.789999604E-1,-3.742199898E0
2.924597812E1,-1.244499922E0,4.989999831E-1,-2.663800001E0
2.926601250E1,-1.394299984E0,4.241999984E-1,-1.281299949E0
2.929597812E1,-2.073499918E0,7.078999877E-1,-2.206999958E-1
2.931597812E1,-1.886999965E0,9.332000017E-1,-2.017999887E-1
2.933597812E1,-1.438099980E0,1.016700029E0,4.514999986E-1
2.935597813E1,-1.152499914E0,1.079900026E0,1.525699973E0
2.937597813E1,-7.863000035E-1,9.774999619E-1,2.220599890E0
2.939597813E1,-3.120999932E-1,8.501999974E-1,2.515399933E0
2.941597813E1,2.008999884E-1,8.901999593E-1,2.485800028E0
2.943597813E1,1.534999967E0,4.649999738E-2,3.594799995E0
2.945597812E1,1.990399957E0,-8.660999537E-1,6.338399887E0
2.947597812E1,1.013499975E0,-1.573300004E0,6.391399860E0
2.949597812E1,3.470999897E-1,-1.155499935E0,3.273599863E0
2.951597812E1,9.390999675E-1,-8.700999618E-1,1.288499951E0
2.953597813E1,1.025399923E0,-1.000100017E0,1.127200007E0
2.955597813E1,-1.535999924E-1,-1.299600005E0,1.654500008E0
2.957597813E1,-1.205399990E0,-1.315099955E0,1.033200026E0
2.959597813E1,-1.743999958E0,-9.928999543E-1,-2.203999907E-1
2.961597812E1,-1.569000006E0,-8.046000004E-1,-9.745000005E-1
2.963597812E1,-1.179999948E0,-6.248999834E-1,-1.502499938E0
2.965597812E1,-8.206999898E-1,-3.939999938E-1,-2.065899849E0
2.967597812E1,-5.045999885E-1,-1.887999922E-1,-2.958600044E0
2.969597813E1,-8.949999511E-2,-7.639999688E-2,-3.857800007E0
2.971597813E1,1.832999885E-1,5.869999900E-2,-4.254499912E0
2.973597813E1,3.746999800E-1,1.706999987E-1,-4.334399700E0
2.975597813E1,4.912000000E-1,2.443999946E-1,-4.296199799E0
2.977597812E1,3.479999900E-1,2.658999860E-1,-3.953999996E0
2.979597812E1,1.500000013E-3,2.495999932E-1,-3.269699812E0
2.981597812E1,-2.804999948E-1,3.300999999E-1,-1.919999957E0
2.983597812E1,-6.672999859E-1,5.130999684E-1,-4.303999841E-1
2.985597813E1,-9.160999656E-1,5.629000068E-1,5.454999804E-1
2.987598125E1,-2.527999878E-1,3.773999810E-1,1.446799994E0
2.990597812E1,9.515999556E-1,8.209999651E-2,3.321799994E0
2.992597812E1,8.978999853E-1,6.350000203E-2,3.885399818E0
2.994597813E1,6.909999847E-1,8.999999613E-2,3.470199823E0
2.996599688E1,1.080899954E0,-1.894999892E-1,3.978199959E0
2.999597812E1,1.303699970E0,-1.582299948E0,7.093299866E0
3.001597812E1,7.951999903E-1,-2.084300041E0,7.302399635E0
3.003597813E1,1.584800005E0,-2.022599936E0,4.911699772E0
3.005597813E1,2.828899860E0,-1.910599947E0,1.980499983E0
3.007597813E1,3.406699896E0,-1.709599972E0,-5.076000094E-1
3.009597813E1,2.826999903E0,-1.248700023E0,-2.434499979E0
3.011597812E1,1.257499933E0,-8.910999894E-1,-3.147899866E0
3.013597812E1,-4.459999874E-2,-6.546999812E-1,-2.704699993E0
3.015597812E1,-8.610999584E-1,-3.003000021E-1,-2.412299871E0
3.017597812E1,-1.163900018E0,-1.640000008E-2,-2.618599892E0
3.019597813E1,-1.352699995E0,3.064000010E-1,-3.218899965E0
3.021597813E1,-1.564000010E0,5.465999842E-1,-3.888999939E0
3.023597813E1,-1.658899903E0,5.880999565E-1,-3.918900013E0
3.025597813E1,-1.671899915E0,4.913999736E-1,-3.439599991E0
3.027597812E1,-1.801699996E0,4.682999849E-1,-2.963399887E0
3.029597812E1,-1.871199965E0,5.799999833E-1,-2.725100040E0
3.031597812E1,-1.742199898E0,7.222999930E-1,-2.504899979E0
3.033597812E1,-1.610700011E0,8.253999949E-1,-1.960299969E0
3.035597813E1,-1.465999961E0,8.143000007E-1,-1.040300012E0
3.037597813E1,-1.245800018E0,9.650999904E-1,-7.840000093E-2
3.039597813E1,-1.108600020E0,1.086199999E0,6.793000102E-1
3.041597969E1,-9.364999533E-1,1.171800017E0,1.595199943E0
3.044597813E1,3.121999800E-1,1.318199992E0,3.344300032E0
3.046599844E1,1.112999916E0,1.087899923E0,3.746399879E0
3.049597969E1,1.108099937E0,1.131099939E0,2.744999886E0
3.051597969E1,1.525599957E0,4.684000015E-1,2.762099981E0
3.054597812E1,9.893999696E-1,-9.285999537E-1,5.005899906E0
3.056599688E1,-2.368000001E-1,-1.103199959E0,3.965999842E0
3.059597813E1,-1.381999999E-1,-1.082399964E0,1.079399943E0
3.061597812E1,-4.429999888E-1,-1.515999913E0,1.576599956E0
3.063597812E1,-1.049299955E0,-1.770699978E0,1.900799990E0
3.065597812E1,-1.439199924E0,-1.640599966E0,1.155599952E0
3.067597812E1,-1.545099974E0,-1.335199952E0,5.240000039E-2
3.069597813E1,-1.216400027E0,-1.019400001E0,-9.368000031E-1
3.071597813E1,-8.694999814E-1,-6.696000099E-1,-1.728399992E0
3.073597813E1,-6.583999991E-1,-3.753999770E-1,-2.807299852E0
3.075597813E1,-4.356999993E-1,-7.249999791E-2,-3.701499939E0
3.077597812E1,-1.491999924E-1,7.949999720E-2,-4.247099876E0
3.079597812E1,2.589999884E-2,1.641999930E-1,-4.380199909E0
3.081597812E1,-1.242999956E-1,2.489999980E-1,-4.221300125E0
3.083597812E1,-3.055000007E-1,2.336999923E-1,-3.866699934E0
3.085597969E1,-4.648000002E-1,1.458999962E-1,-2.876199961E0
3.087597969E1,-6.801999807E-1,1.075999960E-1,-1.986299992E0
3.090597812E1,-5.349000096E-1,2.563000023E-1,-1.601499915E0
3.092597812E1,-6.370999813E-1,4.738999903E-1,-1.038200021E0
3.094597969E1,-7.100999951E-1,5.988999605E-1,-3.639999777E-2
3.096599688E1,-6.194999814E-1,7.085999846E-1,7.991999984E-1
3.099597812E1,9.481999874E-1,2.425999939E-1,2.171099901E0
3.101597812E1,1.131699920E0,2.269999981E-1,3.583199978E0
3.103597969E1,1.299199939E0,2.145999968E-1,4.404900074E0
3.105597969E1,2.204699993E0,-2.987000048E-1,5.421099663E0
3.107597969E1,2.605900049E0,-1.255599976E0,6.477499962E0
3.109597969E1,1.980599999E0,-1.980699897E0,7.129499912E0
3.111597969E1,1.696099997E0,-1.924399972E0,5.203000069E0
3.114597969E1,3.114399910E0,-1.534699917E0,6.983000040E-1
3.116599688E1,3.628999949E0,-1.402599931E0,-1.360499978E0
3.119597969E1,2.700700045E0,-1.119099975E0,-2.265799999E0
3.122597812E1,7.488999963E-1,-9.017999768E-1,-1.850999951E0
3.124597812E1,-2.155999988E-1,-5.083000064E-1,-2.190999985E0
3.126601250E1,-9.150999784E-1,-1.536999941E-1,-2.148599863E0
3.129597812E1,-1.550599933E0,3.795000017E-1,-2.365399837E0
3.131597812E1,-1.521299958E0,6.506999731E-1,-2.559399843E0
3.133597812E1,-1.291700006E0,7.163000107E-1,-2.812999964E0
3.135597813E1,-1.368299961E0,7.299000025E-1,-2.843699932E0
3.137597813E1,-1.398399949E0,7.665999532E-1,-2.997200012E0
3.139597813E1,-1.246199965E0,8.220999837E-1,-2.962800026E0
3.141597813E1,-1.201699972E0,1.006299973E0,-2.527199984E0
3.143597813E1,-1.203599930E0,9.544999599E-1,-1.916399956E0
3.145597812E1,-1.332399964E0,1.023800015E0,-1.296700001E0
3.147597812E1,-1.384299994E0,1.078799963E0,-5.500999689E-1
3.149597812E1,-1.214200020E0,1.003600001E0,-3.049999848E-2
3.151597813E1,-7.490999699E-1,7.374999523E-1,2.936999798E-1
3.153597813E1,-2.129999995E-1,4.569999874E-1,8.946999907E-1
3.155597813E1,-4.160000011E-2,4.452999830E-1,2.146199942E0
3.157597813E1,3.735999763E-1,1.764999926E-1,3.201099873E0
3.159597813E1,1.512699962E0,-1.034099936E0,4.643300056E0
3.161597812E1,9.729999900E-1,-2.065000057E0,7.525699615E0
3.163597812E1,-7.565000057E-1,-1.976199985E0,7.893099785E0
3.165597812E1,-7.669999599E-1,-1.035200000E0,5.024199963E0
3.167597812E1,7.310000062E-2,-1.620000005E-1,1.312099934E0
3.169597813E1,3.488000035E-1,1.621999890E-1,-7.679999620E-2
3.171597813E1,1.040000003E-2,-5.268999934E-1,7.238000035E-1
3.173597813E1,-8.752999902E-1,-9.910999537E-1,1.080099940E0
3.175597813E1,-1.365000010E0,-1.074000001E0,1.053599954E0
3.177597812E1,-1.179000020E0,-9.036999941E-1,4.848999977E-1
3.179597812E1,-7.888999581E-1,-5.942999721E-1,-6.541000009E-1
3.181597812E1,-3.795999885E-1,-3.380999863E-1,-1.822999954E0
3.183597812E1,-4.509999976E-2,-1.736999899E-1,-2.892499924E0
3.185597813E1,2.087999880E-1,2.489999868E-2,-3.822199821E0
3.187597813E1,5.460000038E-1,8.899999410E-2,-4.355299950E0
3.189597813E1,7.630999684E-1,2.222999930E-1,-4.559799671E0
3.191597813E1,6.250999570E-1,2.672999799E-1,-4.211800098E0
3.193597813E1,-1.189999934E-2,1.933999956E-1,-3.334399939E0
3.195597812E1,-5.048999786E-1,1.352999955E-1,-2.477099895E0
3.197597969E1,-8.156999946E-1,2.190999985E-1,-2.456799984E0
3.200597969E1,-1.204499960E0,4.984999895E-1,-1.664099932E0
3.202597969E1,-1.447099924E0,6.119999886E-1,-8.677999973E-1
3.204597969E1,-1.541499972E0,7.279999852E-1,-7.859999686E-2
3.206599688E1,-1.050199986E0,4.822999835E-1,7.468999624E-1
3.209597812E1,-6.847000122E-1,2.224999964E-1,2.376799822E0
3.211597969E1,-5.151000023E-1,2.358999997E-1,2.967900038E0
3.213597969E1,5.291999578E-1,-5.661999583E-1,4.970499992E0
3.216599844E1,5.008000135E-1,-1.995199919E0,8.385099411E0
3.219597969E1,2.989999950E-1,-1.471300006E0,5.253799915E0
3.221597969E1,2.038699865E0,-1.289899945E0,2.479399920E0
3.223597969E1,3.746899843E0,-1.094399929E0,3.021000028E-1
3.226601250E1,3.495599985E0,-7.807999849E-1,-1.648599982E0
3.229597813E1,6.037999988E-1,-6.007999778E-1,-1.529599905E0
3.231597812E1,-4.280000031E-1,-4.646999836E-1,-7.945999503E-1
3.233597969E1,-8.147000074E-1,-1.446999907E-1,-1.243999958E0
3.236599844E1,-1.089999914E0,5.009999871E-1,-3.041599989E0
3.239597812E1,-1.137899995E0,9.172999859E-1,-4.570799828E0
3.241597969E1,-1.063499928E0,8.984999657E-1,-4.417200089E0
3.244597969E1,-1.245999932E0,7.214999795E-1,-3.293099880E0
3.246599844E1,-1.348399997E0,7.512999773E-1,-2.683399916E0
3.249597812E1,-1.521699905E0,8.267999887E-1,-2.186399937E0
3.251597813E1,-1.336499929E0,8.783999681E-1,-1.179099917E0
3.253597812E1,-1.273199916E0,1.027199984E0,1.242999956E-1
3.255597812E1,-9.580000043E-1,1.122200012E0,6.013999581E-1
3.257597812E1,-4.230999947E-1,1.185299993E0,9.484999776E-1
3.259597812E1,-1.951999962E-1,1.151899934E0,1.763399959E0
3.261597813E1,5.429999828E-1,5.971999764E-1,2.970099926E0
3.263597812E1,9.435999990E-1,2.819999866E-2,4.121399879E0
3.265597813E1,1.288999915E0,-4.104999900E-1,4.586100101E0
3.267597812E1,1.251500010E0,-9.801999927E-1,4.195600033E0
3.269597812E1,-3.814999759E-1,-1.277899981E0,3.839299917E0
3.271597812E1,-1.171299934E0,-1.040099978E0,3.051299810E0
3.273597812E1,-4.742999971E-1,-8.585000038E-1,1.551299930E0
3.275597812E1,1.762000024E-1,-9.381999969E-1,3.668999970E-1
3.277597812E1,-8.929999918E-2,-1.263599992E0,1.226400018E0
3.279597813E1,-1.362900019E0,-1.474499941E0,2.823699951E0
3.281597812E1,-2.230599880E0,-1.259999990E0,2.961499929E0
3.283597813E1,-2.037699938E0,-7.753999829E-1,1.423599958E0
3.285597812E1,-1.303599954E0,-3.802999854E-1,-1.554999948E-1
3.287597812E1,-8.149999976E-1,3.590000048E-2,-1.664999962E0
3.289597812E1,-3.517999947E-1,3.436000049E-1,-3.209999800E0
3.291597812E1,7.710000128E-2,5.674999952E-1,-4.038099766E0
3.293597813E1,4.046999812E-1,6.793999672E-1,-4.303999901E0
3.295597812E1,5.695999861E-1,6.212999821E-1,-4.106400013E0
3.297597969E1,2.847000062E-1,5.112999678E-1,-3.799299955E0
3.300597812E1,-1.630000025E-1,3.731999993E-1,-3.051699877E0
3.302597969E1,-2.213999927E-1,3.109999895E-1,-2.590800047E0
3.304597969E1,-4.563999772E-1,3.594999909E-1,-2.365599871E0
3.306599844E1,-6.376999617E-1,3.694999814E-1,-2.012099981E0
3.309597969E1,-7.849999517E-2,6.199999899E-2,-4.134999812E-1
3.311597969E1,4.851000011E-1,-2.509999871E-1,1.221699953E0
3.313597969E1,8.984999657E-1,-4.950999916E-1,2.870699883E0
3.315597969E1,6.961999536E-1,-2.685000002E-1,4.335899830E0
3.318597813E1,7.548999786E-1,1.111999974E-1,2.969699860E0
3.320597812E1,1.700699925E0,-7.060999870E-1,4.376199722E0
3.322597813E1,5.483999848E-1,-1.769400001E0,7.387899876E0
3.324597812E1,-8.781999946E-1,-1.990099907E0,7.831499577E0
3.326601250E1,7.422999740E-1,-2.039499998E0,5.712899685E0
3.329597813E1,3.889999866E0,-1.877799988E0,1.572499990E0
3.331597969E1,4.247999668E0,-1.607999921E0,-5.252999663E-1
3.333597969E1,2.418400049E0,-1.158999920E0,-1.622900009E0
3.336599844E1,-5.073999763E-1,-7.613999844E-1,-1.824099898E0
3.339597812E1,-1.396999955E0,-4.071999788E-1,-1.947799921E0
3.341597812E1,-1.557099938E0,-1.771000028E-1,-3.141099930E0
3.343597813E1,-1.754299998E0,2.073999941E-1,-4.419699669E0
3.345597969E1,-1.724099994E0,4.166999757E-1,-5.035500050E0
3.347597969E1,-1.768299937E0,4.895999730E-1,-4.888199806E0
3.349597969E1,-1.960699916E0,4.795999825E-1,-4.291800022E0
3.352597812E1,-2.070299864E0,5.006999969E-1,-3.598999977E0
3.354597969E1,-2.121799946E0,4.149999917E-1,-3.305899858E0
3.356599844E1,-2.053900003E0,3.841999769E-1,-2.111199856E0
3.359597969E1,-1.582000017E0,6.159999967E-1,-3.953999877E-1
3.361597969E1,-9.605000019E-1,8.729999661E-1,4.406999946E-1
3.363597969E1,-7.321000099E-1,1.222499967E0,7.576000094E-1
3.366599844E1,-2.137999982E-1,1.176100016E0,2.072799921E0
3.369597969E1,8.547999859E-1,7.586999536E-1,3.575699806E0
3.372597813E1,1.398999929E0,8.679999709E-1,4.209599972E0
3.374597812E1,1.551399946E0,4.181999862E-1,4.384299755E0
3.376601250E1,5.985999703E-1,-3.510999978E-1,4.779599667E0
3.379597813E1,-5.877999663E-1,-9.073999524E-1,4.832900047E0
3.381597812E1,-3.841999769E-1,-5.816999674E-1,1.760999918E0
3.383597969E1,1.730999947E-1,-2.691999972E-1,-7.569999695E-1
3.385597969E1,6.024999619E-1,-8.940999508E-1,-2.256999910E-1
3.387597969E1,-1.175999939E-1,-1.690999985E0,1.802899957E0
3.390597969E1,-1.689199924E0,-1.832199931E0,2.276299953E0
3.392597969E1,-1.946499944E0,-1.341899991E0,6.453999877E-1
3.394597969E1,-1.134099960E0,-1.009899974E0,-7.089999914E-1
3.396599844E1,-4.609999955E-1,-7.005000114E-1,-1.521399975E0
3.399597812E1,-2.511999905E-1,-3.407000005E-1,-3.467000008E0
3.401597813E1,-9.829999506E-2,-2.557999790E-1,-4.424999714E0
3.403597812E1,3.809999824E-1,-9.359999746E-2,-4.969699860E0
3.405597969E1,1.096400023E0,3.134999871E-1,-5.552099705E0
3.408597969E1,5.640999675E-1,5.936999917E-1,-5.972599983E0
3.411597969E1,-4.508999884E-1,4.778999984E-1,-4.597599983E0
3.413597969E1,-6.890999675E-1,4.375999868E-1,-3.039399862E0
3.416599844E1,-6.660999656E-1,2.944999933E-1,1.189999953E-1
3.419597969E1,-1.644899964E0,3.560999930E-1,1.620099902E0
3.422597813E1,-1.737100005E0,2.035999894E-1,2.679699898E0
3.424597969E1,-1.427399993E0,-1.660999954E-1,4.059499741E0
3.426601250E1,-2.207099915E0,-4.430999756E-1,4.656199932E0
3.429597813E1,-2.773099899E0,-5.238999724E-1,3.481999874E0
3.431597812E1,-1.776299953E0,-7.001000047E-1,3.876499891E0
3.433597969E1,-3.340999782E-1,-9.868999720E-1,5.331599712E0
3.435597969E1,4.523999989E-1,-1.396099925E0,6.047599792E0
3.437597969E1,1.056699991E0,-1.749799967E0,5.933700085E0
3.440597969E1,2.521999836E0,-1.369699955E0,3.055799961E0
3.442597969E1,4.437699795E0,-1.218400002E0,4.149999842E-2
3.445597969E1,5.530900002E0,-4.940999746E-1,-2.657399893E0
3.447597969E1,3.933599949E0,-2.060000002E-1,-2.093400002E0
3.450597812E1,1.500699997E0,1.118000001E-1,-5.202999711E-1
3.452597969E1,6.703000069E-1,4.332000017E-1,-4.070999920E-1
3.454597969E1,2.257999927E-1,6.881999969E-1,-1.350199938E0
3.456599844E1,-2.487999946E-1,8.835999966E-1,-2.724900007E0
3.459597969E1,-7.195999622E-1,6.082000136E-1,-3.651399851E0
3.461597969E1,-9.704999924E-1,4.768999815E-1,-3.343999863E0
3.463597969E1,-1.324999928E0,2.987000048E-1,-2.899299860E0
3.465597969E1,-1.839199901E0,4.415999949E-1,-2.798699856E0
3.468597813E1,-2.262799978E0,5.428000093E-1,-2.217700005E0
3.470597969E1,-2.126499891E0,7.743999958E-1,-1.942599893E0
3.473597812E1,-1.852699995E0,1.110899925E0,-1.490499973E0
3.475597812E1,-1.993199944E0,1.287999988E0,-8.630999923E-1
3.477597969E1,-1.836799979E0,1.517899990E0,2.333000004E-1
3.480597969E1,3.879999742E-2,1.839999914E0,1.807799935E0
3.482597969E1,2.026599884E0,1.508599997E0,2.320999861E0
3.484597969E1,2.068899870E0,1.579100013E0,2.486799955E0
3.486599844E1,1.659299970E0,1.272300005E0,3.165699959E0
3.489597969E1,1.602699995E0,-7.518999577E-1,5.019299984E0
3.491597969E1,5.296999812E-1,-1.994699955E0,5.516099930E0
3.493597969E1,-7.429999709E-1,-2.237599850E0,4.245500088E0
3.496599844E1,-4.835999906E-1,-2.047499895E0,3.892000020E-1
3.499597969E1,-8.527999520E-1,-1.939199924E0,3.534999788E-1
3.502597969E1,-2.413699865E0,-1.815999985E0,1.755899906E0
3.504597969E1,-2.623199940E0,-1.482999921E0,1.277099967E0
3.506599844E1,-1.485399961E0,-1.050899982E0,1.529999916E-2
3.509597969E1,-2.946999967E-1,-4.436999857E-1,-1.705199957E0
3.511597969E1,3.638999760E-1,-1.906999946E-1,-2.714099884E0
3.514597812E1,9.027999640E-1,8.109999448E-2,-4.167399883E0
3.516599688E1,8.916999698E-1,3.314999938E-1,-5.031199932E0
3.519597812E1,7.642999887E-1,2.509000003E-1,-5.853499889E0
3.521597812E1,4.675000012E-1,2.474999875E-1,-5.443199635E0
3.523597812E1,-5.529999733E-2,1.118999943E-1,-4.260099888E0
3.525597813E1,-5.532999635E-1,-3.769999743E-2,-2.458299875E0
3.527597812E1,-1.220099926E0,1.052999943E-1,-8.980999589E-1
3.529597813E1,-1.523000002E0,2.436999977E-1,-6.667000055E-1
3.531597812E1,-1.083899975E0,2.683999836E-1,-4.518999755E-1
3.533597813E1,9.609999508E-2,2.779999934E-2,1.541499972E0
3.535597812E1,8.132999539E-1,-3.473999798E-1,3.797799826E0
3.537597812E1,6.004999876E-1,-1.379999984E-2,5.463799953E0
3.539597969E1,5.070999861E-1,3.856999874E-1,5.054599762E0
3.541597969E1,1.300899982E0,6.750000119E-1,4.551899910E0
3.544597812E1,2.092599869E0,-4.272999763E-1,7.371999741E0
3.546599844E1,5.803999901E-1,-1.049000025E0,8.063300133E0
3.549597969E1,9.452999830E-1,-1.053099990E0,4.138999939E0
3.552597812E1,3.541399956E0,-8.327999711E-1,-2.569999993E-1
3.554597969E1,3.548300028E0,-7.859999537E-1,-1.583599925E0
3.556599844E1,2.537699938E0,-1.013599992E0,-1.567799926E0
3.559597969E1,1.419499993E0,-4.977999926E-1,-3.025999963E-1
3.562597969E1,1.398999929E0,-3.319999948E-2,5.049999803E-2
3.565597813E1,5.236999989E-1,3.777999878E-1,-2.101199865E0
3.567597969E1,-7.299999706E-3,4.332999885E-1,-2.697999954E0
3.569597969E1,-3.425999880E-1,3.798999786E-1,-2.486199856E0
3.571597969E1,-5.985000134E-1,1.740000024E-2,-1.710199952E0
3.573597969E1,-1.118099928E0,-1.099999994E-2,-1.032299995E0
3.576601250E1,-1.325799942E0,-1.595999897E-1,-1.298699975E0
3.579597813E1,-1.333799958E0,-2.153999954E-1,-1.682199955E0
3.581597812E1,-1.465499997E0,-2.563999891E-1,-1.079399943E0
3.583597969E1,-1.739799976E0,-4.104999900E-1,-3.247999847E-1
3.586599844E1,-1.311999917E0,-5.922999978E-1,-8.749999851E-2
3.589597812E1,-6.875999570E-1,-5.041999817E-1,-8.212999701E-1
3.591597969E1,-4.787999988E-1,-3.533999920E-1,-1.089100003E0
3.593597969E1,-2.472999990E-1,-2.881000042E-1,-7.110999823E-1
3.595597969E1,-3.924999833E-1,-3.379999846E-2,-2.283999920E-1
3.597597969E1,1.260000020E-1,-3.968999982E-1,5.819999799E-2
3.600597969E1,7.414999604E-1,-1.440400004E0,2.693799973E0
3.602597969E1,-6.413999796E-1,-1.136999965E0,2.418299913E0
3.604597969E1,-1.419199944E0,-3.301999867E-1,2.060000040E-2
3.606599844E1,-1.116500020E0,-6.199999712E-3,-1.116899967E0
3.609597969E1,-7.943999767E-1,-4.504999816E-1,6.741999984E-1
3.612597812E1,-1.026899934E0,-9.321999550E-1,1.911999941E0
3.614597812E1,-6.929999590E-1,-8.391999602E-1,1.841199994E0
3.616599688E1,-8.559999615E-2,-5.643999577E-1,9.614999890E-1
3.619597812E1,3.226999938E-1,6.049999967E-2,-8.689999580E-1
3.621597812E1,4.894999862E-1,3.115999997E-1,-1.677799940E0
3.623597812E1,5.005999804E-1,3.650999963E-1,-1.926799893E0
3.625597813E1,2.298000008E-1,3.321999907E-1,-2.125799894E0
3.627597812E1,3.849999979E-2,2.939999998E-1,-1.882799983E0
3.629597813E1,-9.679999948E-2,2.788999975E-1,-1.679199934E0
3.631597812E1,-2.560999990E-1,3.046000004E-1,-1.229900002E0
3.633597813E1,-3.114999831E-1,2.542999983E-1,-6.940000057E-1
3.635597812E1,-5.771999955E-1,3.386999965E-1,-5.579000115E-1
3.637597812E1,-7.989999652E-1,5.665000081E-1,-5.181999803E-1
3.639597812E1,-9.606999755E-1,8.703999519E-1,-6.140999794E-1
3.641597812E1,-9.603999853E-1,1.009599924E0,-6.888999939E-1
3.643597813E1,-4.791999757E-1,9.163999557E-1,-1.224999949E-1
3.645597812E1,-1.235999987E-1,7.285999656E-1,9.756000042E-1
3.647597969E1,-3.375999928E-1,9.176999927E-1,1.771399975E0
3.649598125E1,1.578999907E-1,8.395999670E-1,1.675099969E0
3.652597969E1,6.162999868E-1,-8.980000019E-2,2.065399885E0
3.654597969E1,3.749999776E-2,-4.851000011E-1,3.383299828E0
3.656599844E1,-1.032999977E-1,-9.611999989E-1,4.999599934E0
3.659597812E1,4.442999959E-1,-1.329399943E0,3.453999996E0
3.661597813E1,2.006599903E0,-1.439000010E0,6.071000099E-1
3.663597969E1,3.268599987E0,-1.227100015E0,-1.414399981E0
3.666599844E1,2.555299997E0,-9.978999496E-1,-2.501199961E0
3.669597969E1,1.509199977E0,-1.072999954E0,-1.468400002E0
3.672597813E1,1.129699945E0,-1.038100004E0,3.155999780E-1
3.674597812E1,5.205000043E-1,-6.775999665E-1,-1.580999941E-1
3.676601250E1,4.196999967E-1,-3.781999946E-1,-9.192000031E-1
3.679597813E1,4.175999761E-1,-9.209999442E-2,-9.552999735E-1
3.681597812E1,-2.229999937E-2,4.509999976E-2,-1.209200025E0
3.683597969E1,-2.820000052E-1,2.780999839E-1,-1.989799976E0
3.685597969E1,-3.066000044E-1,5.115000010E-1,-2.691599846E0
3.687597969E1,-3.626999855E-1,6.340000033E-1,-2.917500019E0
3.690597969E1,-4.470999837E-1,7.466999888E-1,-2.129299879E0
3.692597969E1,-6.247000098E-1,8.871999979E-1,-1.466499925E0
3.695597969E1,-5.468999743E-1,1.192600012E0,-5.399000049E-1
3.697597969E1,-4.285999835E-1,1.319299936E0,3.371999860E-1
3.700597813E1,-5.609999970E-2,1.270099998E0,1.704699993E0
3.702597969E1,-4.399999976E-2,1.463299990E0,2.110599995E0
3.704597969E1,-3.777999878E-1,1.997799993E0,1.567899942E0
3.706599844E1,1.405900002E0,4.073999822E-1,1.640299916E0
3.709597969E1,8.452999592E-1,-1.374699950E0,4.953799725E0
3.712597969E1,-1.870399952E0,-1.180599928E0,3.859099865E0
3.714597969E1,-1.369400024E0,-1.014799953E0,1.352199912E0
3.716599844E1,-1.429799914E0,-7.267999649E-1,5.454999804E-1
3.719597969E1,-1.625199914E0,-8.581999540E-1,1.154699922E0
3.721597969E1,-1.376899958E0,-8.245999813E-1,7.809999585E-1
3.723597969E1,-1.031800032E0,-6.575999856E-1,1.266999990E-1
3.726601250E1,-1.040499926E0,-3.546999991E-1,-8.278999925E-1
3.729597969E1,-5.859999657E-1,-1.279999912E-1,-1.524899960E0
3.731597969E1,-2.000999898E-1,-2.298999876E-1,-1.537199974E0
3.733597969E1,-1.143999994E-1,-3.441999853E-1,-1.680999994E0
3.736599688E1,-1.527999938E-1,-3.838000000E-1,-2.872499943E0
3.739597812E1,1.225999966E-1,-4.592999816E-1,-2.751600027E0
3.741597969E1,-5.339999869E-2,-3.860999942E-1,-2.325000048E0
3.744597812E1,-3.639999926E-1,-3.774999976E-1,-1.497799993E0
3.746599844E1,-6.402999759E-1,-2.434999943E-1,-8.508999944E-1
3.749597969E1,-8.737999797E-1,1.464999914E-1,-1.253099918E0
3.752597969E1,-1.350999922E-1,-4.239999875E-2,-3.394999802E-1
3.754597969E1,2.087000012E-1,1.745999902E-1,6.926999688E-1
3.756599844E1,-3.967999816E-1,7.157999873E-1,1.493199944E0
3.759597969E1,-1.039700031E0,1.607299924E0,1.104599953E0
3.762597969E1,9.192000031E-1,3.594999909E-1,1.652400017E0
3.765597813E1,9.664999843E-1,-1.026199937E0,4.298999786E0
3.767597812E1,7.991999984E-1,-1.500100017E0,5.445099831E0
3.769597969E1,1.162199974E0,-1.429799914E0,4.152400017E0
3.772597813E1,2.024699926E0,-1.110499978E0,6.838999987E-1
3.774597812E1,1.298499942E0,-7.531999946E-1,-1.077999994E-1
3.776601250E1,6.121000051E-1,-5.663999915E-1,-4.285999835E-1
3.779597813E1,4.959999770E-2,-4.805999994E-1,-1.279799938E0
3.781597812E1,-3.655000031E-1,-2.382999957E-1,-1.714599967E0
3.783597813E1,-7.707999945E-1,-1.424999982E-1,-2.198299885E0
3.785597812E1,-7.851999998E-1,-1.448999941E-1,-2.436899900E0
3.787597812E1,-6.421999931E-1,-5.689999834E-2,-2.538399935E0
3.789597812E1,-5.981999636E-1,1.486999989E-1,-2.786900043E0
3.791597812E1,-5.697000027E-1,2.818000019E-1,-2.726899862E0
3.793597813E1,-6.209999919E-1,2.047999948E-1,-2.263900042E0
3.795597812E1,-5.800999999E-1,2.113000005E-1,-1.766699910E0
3.797597813E1,-4.086000025E-1,2.551999986E-1,-1.271999955E0
3.799597812E1,-2.926999927E-1,5.019999743E-1,-7.038999796E-1
3.801597813E1,-3.041000068E-1,7.592999935E-1,-5.478000045E-1
3.803597812E1,1.782999933E-1,8.511999846E-1,-5.880999565E-1
3.805597812E1,8.206999898E-1,8.522999883E-1,-9.449999779E-2
3.807597812E1,6.056999564E-1,9.431999922E-1,3.202999830E-1
3.809597812E1,2.784999907E-1,9.292999506E-1,5.640000105E-1
3.811597813E1,9.829999506E-2,1.067499995E0,7.400999665E-1
3.813597812E1,6.162999868E-1,4.558999836E-1,1.515200019E0
3.815597813E1,6.118999720E-1,-2.915000021E-1,2.835899830E0
3.817597812E1,-1.103999987E-1,-8.039999604E-1,3.736299992E0
3.819597969E1,-1.335399985E0,-3.683999777E-1,3.144500017E0
3.821597969E1,-2.313400030E0,1.842999905E-1,8.486999869E-1
3.823597969E1,-1.885699987E0,4.589999840E-2,-6.351000071E-1
3.826601250E1,-1.121399999E0,-7.532999516E-1,7.360999584E-1
3.829597813E1,-1.863999963E0,-1.123299956E0,1.126099944E0
3.831597969E1,-1.175300002E0,-1.166800022E0,6.028000116E-1
3.833597969E1,-5.800999999E-1,-1.308599949E0,3.966999948E-1
3.836599844E1,-5.981000066E-1,-1.210699916E0,5.594999790E-1
3.839597812E1,-3.143000007E-1,-8.276999593E-1,-9.152999520E-1
3.841597969E1,-1.438999921E-1,-6.872999668E-1,-1.804199934E0
3.844597812E1,-1.956999898E-1,-3.947999775E-1,-2.812999964E0
3.846599844E1,-1.535999924E-1,-2.298000008E-1,-2.999500036E0
3.849597969E1,1.289999951E-2,-8.879999816E-2,-2.666899920E0
3.852597969E1,-7.379999757E-2,-4.809999838E-2,-1.730599999E0
3.855597969E1,-1.479000002E-1,1.555999964E-1,-1.322600007E0
3.858597813E1,-6.545999646E-1,4.961999953E-1,-2.317999899E-1
3.860597812E1,-7.677999735E-1,3.682000041E-1,1.252599955E0
3.862597969E1,-1.533000022E-1,2.372999936E-1,1.157799959E0
3.865597813E1,-5.374000072E-1,7.912999988E-1,1.282999963E-1
3.867597812E1,-1.251799941E0,1.358799934E0,1.236500025E0
3.869597969E1,-1.106400013E0,1.240000010E0,2.021399975E0
3.872597813E1,3.915999830E-1,7.677999735E-1,2.052199841E0
3.874597812E1,1.648999929E0,-2.883999944E-1,2.624300003E0
3.876601406E1,1.244799972E0,-6.401999593E-1,4.222300053E0
3.879597969E1,1.114799976E0,-1.104099989E0,3.991699934E0
3.882597812E1,2.533499956E0,-1.270399928E0,1.482899904E0
3.884597969E1,2.852099895E0,-1.366099954E0,4.215999842E-1
3.886599844E1,2.129899979E0,-1.263599992E0,9.409999847E-2
3.889597812E1,1.031999946E0,-1.009899974E0,2.149000019E-1
3.891597969E1,4.587000012E-1,-7.112999558E-1,-5.268999934E-1
3.893597969E1,2.631999850E-1,-4.709999859E-1,-1.272400022E0
3.896599844E1,-1.004999951E-1,-1.036999971E-1,-1.868399978E0
3.899597969E1,3.940000013E-2,1.770000011E-1,-2.721799850E0
3.902597969E1,1.609999985E-1,2.902999818E-1,-2.404700041E0
3.905597812E1,-4.319999740E-2,3.457999825E-1,-2.178400040E0
3.907597812E1,-9.499999695E-3,4.175999761E-1,-2.100999832E0
3.909597969E1,1.142999977E-1,5.120999813E-1,-1.684299946E0
3.912597969E1,3.819999844E-2,7.707999945E-1,-1.105899930E0
3.915597813E1,-2.298999876E-1,1.082700014E0,-6.510999799E-1
3.917597812E1,6.939999759E-2,9.697999954E-1,-1.333999932E-1
3.919597969E1,-4.509999976E-2,9.944999814E-1,6.882999539E-1
3.921597969E1,-4.769999981E-1,1.189999938E0,1.423699975E0
3.923597969E1,-4.408999979E-1,1.153499961E0,1.455199957E0
3.925597969E1,1.084200025E0,-8.009999990E-2,1.857599974E0
3.927597969E1,1.116199970E0,-9.800999761E-1,3.535899878E0
3.929597969E1,1.228000000E-1,-1.553599954E0,5.087299824E0
3.931597969E1,-1.121199965E0,-1.175099969E0,3.986199856E0
3.933597969E1,-1.288800001E0,-5.629999638E-1,1.016499996E0
3.936599844E1,-1.576499939E0,1.722999960E-1,-1.827199936E0
3.939597812E1,-9.580999613E-1,-1.357000023E-1,-6.714000106E-1
3.941597969E1,-7.611999512E-1,-2.751999795E-1,-2.040999979E-1
3.944597812E1,-9.338999987E-1,-3.102000058E-1,-4.866999984E-1
3.946599844E1,-7.427999973E-1,-4.984999895E-1,-1.283999979E-1
3.949597969E1,-7.042999864E-1,-6.389999986E-1,7.191999555E-1
3.952597812E1,-1.136500001E0,-3.998999894E-1,-1.938999891E-1
3.954597813E1,-1.037099957E0,-1.801999956E-1,-1.368299961E0
3.956599688E1,-7.515999675E-1,2.139999904E-2,-1.915199995E0
3.959597812E1,-5.837999582E-1,2.680000067E-1,-2.379499912E0
3.961597813E1,-3.912999928E-1,3.425000012E-1,-2.189300060E0
3.963597812E1,-3.748999834E-1,3.613999784E-1,-1.924299955E0
3.965597813E1,-2.762999833E-1,2.771999836E-1,-1.690199971E0
3.967597812E1,-4.244000018E-1,2.917000055E-1,-1.446399927E0
3.969597812E1,-5.112999678E-1,3.452999890E-1,-1.075099945E0
3.971597812E1,-4.959999919E-1,2.874000072E-1,-2.445999980E-1
3.973597812E1,-1.058999971E-1,6.799999624E-2,8.075000048E-1
3.975597813E1,2.579999901E-2,1.722999960E-1,1.732800007E0
3.977597969E1,8.999999613E-3,5.351999998E-1,2.027899981E0
3.979597969E1,-6.328999996E-1,1.414999962E0,1.323799968E0
3.981597969E1,-3.037999868E-1,1.374499917E0,8.138999939E-1
3.983597969E1,9.208999872E-1,5.406999588E-1,1.058099985E0
3.985597969E1,1.377900004E0,-4.425999820E-1,1.767399907E0
3.988597969E1,1.183200002E0,-1.564399958E0,3.577699900E0
3.990597969E1,1.114699960E0,-1.720899940E0,2.675899982E0
3.992597969E1,1.684299946E0,-1.543299913E0,1.100000024E0
3.995597969E1,1.685899973E0,-9.549999833E-1,5.600999594E-1
3.997597969E1,9.899999499E-1,-4.610999823E-1,9.027999640E-1
3.999597969E1,2.581000030E-1,-7.039999962E-2,-1.446999907E-1
4.002597969E1,-2.845000029E-1,2.807999849E-1,-2.278100014E0
4.005597969E1,-9.202999473E-1,5.417000055E-1,-2.698599815E0
4.008597969E1,-1.244899988E0,7.494999766E-1,-2.872200012E0
4.011597969E1,-9.631999731E-1,6.261000037E-1,-2.979199886E0
4.013597969E1,-8.264999986E-1,5.297999978E-1,-2.524699926E0
4.016599844E1,-1.013999939E0,6.035999656E-1,-1.813399911E0
4.019597969E1,-6.114999652E-1,5.769000053E-1,-9.141999483E-1
4.021597969E1,-3.384999931E-1,8.440999985E-1,-3.231000006E-1
4.023597969E1,-4.175999761E-1,1.131899953E0,-1.886999905E-1
4.026601250E1,-5.837999582E-1,1.538900018E0,5.349000096E-1
4.029597813E1,-5.299999937E-2,9.205999970E-1,1.724799991E0
4.031597812E1,7.347999811E-1,4.817999899E-1,2.201599836E0
4.033597969E1,6.297000051E-1,7.099999785E-1,2.345199823E0
4.036599844E1,-3.940000013E-2,1.071099997E0,2.387799978E0
4.039597812E1,-3.082999885E-1,5.254999995E-1,3.314199924E0
4.041597812E1,-3.165999949E-1,3.999999911E-2,3.169399977E0
4.043597813E1,-8.870999813E-1,-7.059999555E-2,1.647799969E0
4.045597969E1,-1.296899915E0,-3.120999932E-1,-1.534999907E-1
4.047597969E1,-1.141999960E0,-8.432999849E-1,-7.687000036E-1
4.049597969E1,-3.598999977E-1,-1.523399949E0,4.147000015E-1
4.052597969E1,-6.089999676E-1,-1.871299982E0,1.556499958E0
4.055597969E1,-5.565999746E-1,-1.547699928E0,7.135999799E-1
4.058597969E1,9.529999644E-2,-1.044600010E0,-5.447999835E-1
4.060597969E1,2.291999906E-1,-6.600999832E-1,-1.412699938E0
4.062597969E1,3.858999908E-1,-2.981999815E-1,-2.504299879E0
4.064597969E1,6.227999926E-1,-1.055999994E-1,-3.486899853E0
4.066599844E1,9.828999639E-1,-7.270000130E-2,-3.882599831E0
4.069597969E1,9.539999962E-1,-1.933999956E-1,-2.802399874E0
4.071597969E1,1.193499923E0,-3.211999834E-1,-1.804999948E0
4.073597969E1,1.417899966E0,-5.564999580E-1,-1.753799915E0
4.076601250E1,6.552000046E-1,-5.633999705E-1,-1.740299940E0
4.079597813E1,-3.299999982E-3,-3.569999933E-1,-3.115999997E-1
4.081597969E1,4.141999781E-1,-2.208999991E-1,6.222999692E-1
4.083597969E1,9.077000022E-1,-1.310999990E-1,8.964999914E-1
4.085597969E1,6.426999569E-1,2.775999904E-1,1.474200010E0
4.088597969E1,-7.386999726E-1,1.516099930E0,1.648000002E0
4.090597969E1,-1.209100008E0,1.915899992E0,6.092999578E-1
4.092597969E1,-7.605999708E-1,1.802500010E0,6.518999934E-1
4.095597812E1,2.433999926E-1,8.416000009E-1,2.838599920E0
4.097597969E1,3.919000030E-1,-2.669999935E-2,3.478199959E0
4.099597969E1,5.070999861E-1,-6.173999906E-1,3.573699951E0
4.102597969E1,1.681499958E0,-1.237499952E0,3.237900019E0
4.105597969E1,1.514499903E0,-1.689700007E0,2.753199816E0
4.107597969E1,8.883000016E-1,-1.533800006E0,2.446699858E0
4.109597969E1,4.021999836E-1,-1.244799972E0,1.365499973E0
4.112597969E1,-3.975999951E-1,-7.095999718E-1,-1.083599925E0
4.115597813E1,-1.124699950E0,-1.626999974E-1,-3.504999876E0
4.117597812E1,-1.167999983E0,4.250000045E-2,-4.437699795E0
4.119597969E1,-1.053099990E0,2.861999869E-1,-4.944499969E0
4.122597813E1,-7.448999882E-1,2.884999812E-1,-4.253799915E0
4.124597969E1,-7.454999685E-1,2.430999875E-1,-3.735699892E0
4.126601250E1,-9.116999507E-1,8.999999613E-3,-3.302699804E0
4.129597969E1,-1.365599990E0,-1.539999992E-1,-1.897699952E0
4.132597813E1,-1.420699954E0,1.000999957E-1,-2.881999910E-1
4.134597969E1,-1.323599935E0,5.667999983E-1,7.942000031E-1
4.136599844E1,-1.003199935E0,7.572999597E-1,1.603299975E0
4.139597812E1,-4.390999973E-1,7.333999872E-1,1.696499944E0
4.141597969E1,4.607999921E-1,6.152999997E-1,1.484599948E0
4.143597969E1,8.366999626E-1,8.855999708E-1,1.673299909E0
4.146599844E1,5.156999826E-1,1.358099937E0,1.291999936E0
4.149598594E1,-2.034999877E-1,1.311699986E0,1.955000013E-1
4.152597969E1,-1.191499949E0,6.583999991E-1,2.687000036E-1
4.155597969E1,-1.497299910E0,-1.987999976E-1,1.013299942E0
4.158597969E1,-8.538999557E-1,-1.401099920E0,2.300899982E0
4.160597969E1,-4.109999910E-2,-2.136100054E0,3.715499878E0
4.162597969E1,1.723999977E-1,-2.367199898E0,3.767699957E0
4.164597969E1,-1.071999967E-1,-2.169199944E0,2.494899988E0
4.166599844E1,-2.047999948E-1,-1.963799953E0,1.021600008E0
4.169597969E1,2.806999981E-1,-1.457899928E0,-9.573999643E-1
4.172597813E1,3.647999763E-1,-9.941999912E-1,-2.854499817E0
4.174597812E1,6.312999725E-1,-7.146999836E-1,-3.904899836E0
4.176601250E1,9.210999608E-1,-5.399000049E-1,-4.606299877E0
4.179597813E1,1.143800020E0,-2.839999795E-1,-4.808499813E0
4.181597812E1,1.097899914E0,-2.669999897E-1,-4.540800095E0
4.183597969E1,9.510999918E-1,-4.607999921E-1,-3.295499802E0
4.186599844E1,-3.552999794E-1,-3.240000010E-1,-1.108500004E0
4.189597812E1,-6.724999547E-1,9.599999525E-3,-1.458699942E0
4.191597969E1,1.436000019E-1,2.274999917E-1,-1.831799984E0
4.194597812E1,1.314999908E-1,5.148000121E-1,-9.625999928E-1
4.196599844E1,-2.119999975E-1,5.108999610E-1,-1.445999891E-1
4.199597969E1,-9.606999755E-1,8.578000069E-1,-2.070000023E-2
4.202597969E1,-2.727999985E-1,1.097399950E0,-1.134999990E-1
4.204597969E1,1.633999944E0,8.154000044E-1,1.480399966E0
4.206599844E1,2.467000008E0,6.372999549E-1,2.639400005E0
4.209597969E1,1.878299952E0,3.604999781E-1,3.306799889E0
4.211597969E1,2.538300037E0,-5.403000116E-1,3.992499828E0
4.213597969E1,3.192099810E0,-1.429600000E0,5.271299839E0
4.216599844E1,1.961899996E0,-2.220599890E0,5.292299747E0
4.219597969E1,4.416999817E-1,-1.481799960E0,2.680399895E0
4.222597813E1,-7.931999564E-1,-7.809000015E-1,-3.240999877E-1
4.224597969E1,-1.695099950E0,-1.550000012E-1,-1.582299948E0
4.226601250E1,-2.430399895E0,3.948999941E-1,-3.113399982E0
4.229597813E1,-2.819399834E0,1.128999949E0,-4.782399654E0
4.231597812E1,-2.893999815E0,1.440799952E0,-5.167500019E0
4.233597813E1,-2.629699945E0,1.453299999E0,-4.622200012E0
4.235597812E1,-2.592700005E0,1.267899990E0,-3.200099945E0
4.237597812E1,-2.796399832E0,1.128600001E0,-2.068500042E0
4.239597812E1,-2.889199972E0,9.243999720E-1,-1.461599946E0
4.241597812E1,-2.899699926E0,9.555999637E-1,-7.260000110E-1
4.243597813E1,-1.976999998E0,6.872000098E-1,2.730000019E-1
4.245597812E1,-9.980999827E-1,4.399999976E-1,1.163599968E0
4.247597813E1,-6.584999561E-1,4.472000003E-1,1.944000006E0
4.249597812E1,-7.062000036E-1,3.024999797E-1,2.536099911E0
4.251597813E1,-4.827999771E-1,-9.759999812E-2,2.727599859E0
4.253597812E1,-2.566999793E-1,-1.042999998E-1,2.720599890E0
4.255597969E1,-1.718999892E-1,3.655000031E-1,2.792699814E0
4.258597969E1,-2.300000004E-2,9.743999839E-1,2.852699995E0
4.261597813E1,3.673999906E-1,1.630999893E-1,2.679499865E0
4.263597969E1,7.429999858E-2,-9.997999668E-1,2.737499952E0
4.266599844E1,3.303999901E-1,-1.975199938E0,3.011199951E0
4.269597969E1,4.917999804E-1,-2.433500051E0,3.569199800E0
4.271597969E1,-1.931999922E-1,-2.148699999E0,3.196300030E0
4.274597812E1,-8.355999589E-1,-1.491199970E0,1.422099948E0
4.276601250E1,-7.694000006E-1,-1.110499978E0,2.653000057E-1
4.279597813E1,-4.007999897E-1,-5.943999887E-1,-1.763799906E0
4.281597812E1,-2.099999934E-1,-2.988999784E-1,-2.938699961E0
4.283597813E1,-7.840000093E-2,-2.009999938E-2,-4.130000114E0
4.285597812E1,1.841000021E-1,1.924999952E-1,-5.022999763E0
4.287597812E1,3.870999813E-1,3.129999936E-1,-5.383599758E0
4.289597812E1,2.568999827E-1,3.401999772E-1,-5.311299801E0
4.291597812E1,1.444000006E-1,6.015999913E-1,-4.975999832E0
4.293597813E1,-1.981000006E-1,9.538999796E-1,-5.053499699E0
4.295597812E1,-3.046000004E-1,1.107499957E0,-4.096600056E0
4.297597813E1,-5.967999697E-1,9.855999947E-1,-1.132900000E0
4.299597812E1,-1.145099998E0,1.066299915E0,6.509999633E-1
4.301597813E1,-1.263800025E0,1.115100026E0,4.221999943E-1
4.303597812E1,-7.074999809E-1,1.023699999E0,8.712999821E-1
4.305597812E1,-1.815000027E-1,9.631999731E-1,2.181299925E0
4.307597813E1,-3.055999875E-1,9.157999754E-1,4.143499851E0
4.309597812E1,-3.765999973E-1,8.667999506E-1,5.170399666E0
4.311597813E1,1.443599939E0,3.427999914E-1,6.347899914E0
4.313597812E1,2.812399864E0,-7.849000096E-1,7.476199627E0
4.315597969E1,1.494300008E0,-1.386299968E0,7.382099628E0
4.317597969E1,1.116999984E0,-1.545899987E0,4.342299938E0
4.319597969E1,3.204599857E0,-1.979200006E0,2.091099977E0
4.322597813E1,6.107500076E0,-2.341399908E0,5.557000041E-1
4.324597812E1,5.161799908E0,-1.580199957E0,-7.755999565E-1
4.326601250E1,3.305500031E0,-5.400999784E-1,-2.240799904E0
4.329597813E1,3.366999924E-1,3.368999958E-1,-3.424899817E0
4.331597812E1,-1.436999917E0,5.683999658E-1,-4.109600067E0
4.333597813E1,-2.620699883E0,6.222000122E-1,-4.620399952E0
4.335597812E1,-3.607399940E0,8.679999709E-1,-4.598999977E0
4.337597812E1,-4.269700050E0,1.077799916E0,-4.516299725E0
4.339597812E1,-4.152699947E0,1.058899999E0,-4.059999943E0
4.341597812E1,-3.681999922E0,9.447999597E-1,-3.239699841E0
4.343597813E1,-3.486899853E0,8.025999665E-1,-2.369600058E0
4.345597812E1,-3.106499910E0,7.634999752E-1,-1.331200004E0
4.347597813E1,-2.493199825E0,7.935000062E-1,-4.862999916E-1
4.349597969E1,-1.844599962E0,9.063999653E-1,1.237000003E-1
4.352597969E1,-1.309899926E0,1.088099957E0,5.066999793E-1
4.355597969E1,-8.944999576E-1,7.651999593E-1,2.302199841E0
4.358597813E1,2.066999972E-1,2.953000069E-1,3.873699903E0
4.360597812E1,1.362100005E0,1.375000030E-1,3.863799810E0
4.362597969E1,2.886999846E0,-3.567000031E-1,3.679999828E0
4.365597813E1,3.470499992E0,-2.381599903E0,4.686199665E0
4.367597812E1,1.722799897E0,-2.941799879E0,5.533899784E0
4.369597969E1,1.698699951E0,-3.166800022E0,4.706599712E0
4.371597969E1,2.177799940E0,-2.867699862E0,2.922299862E0
4.374597812E1,1.735399961E0,-1.905999899E0,9.585999846E-1
4.376601250E1,4.214999974E-1,-1.342700005E0,-2.829999849E-2
4.379597813E1,-7.547999620E-1,-7.238999605E-1,-9.617999792E-1
4.381597969E1,-1.072000027E0,-2.741000056E-1,-1.865899920E0
4.383597969E1,-1.240800023E0,1.189999934E-2,-2.945299864E0
4.385597969E1,-1.237499952E0,1.898999959E-1,-3.843699932E0
4.388597969E1,-1.196900010E0,4.409999847E-1,-3.975299835E0
4.390597969E1,-9.592999816E-1,5.602999926E-1,-3.825999975E0
4.392597969E1,-6.150999665E-1,5.561000109E-1,-3.426999807E0
4.395597812E1,-3.179000020E-1,6.847000122E-1,-2.949699879E0
4.397597813E1,-3.249000013E-1,8.574999571E-1,-2.472800016E0
4.399597812E1,-5.209999681E-1,1.024600029E0,-2.295199871E0
4.401597813E1,-6.976999640E-1,1.108600020E0,-1.933699965E0
4.403597812E1,-1.069299936E0,1.155300021E0,-1.300699949E0
4.405597812E1,-1.490799904E0,1.084499955E0,-3.844999969E-1
4.407597813E1,-1.666899920E0,1.029799938E0,6.004999876E-1
4.409597812E1,-1.281199932E0,9.236999750E-1,1.538499951E0
4.411597813E1,-1.005800009E0,7.056999803E-1,2.742100000E0
4.413597812E1,-1.097700000E0,8.186999559E-1,4.015699863E0
4.415597813E1,-3.844999969E-1,5.317000151E-1,5.104300022E0
4.417597812E1,1.051100016E0,-5.503000021E-1,6.913599968E0
4.419597969E1,1.175899982E0,-1.791599989E0,8.973299980E0
4.422597969E1,-1.664000005E-1,-2.030099869E0,6.315899849E0
4.424597969E1,1.253799915E0,-2.234200001E0,3.444999933E0
4.426601250E1,2.787600040E0,-2.258899927E0,8.143999577E-1
4.429597813E1,2.497799873E0,-1.911799908E0,-1.297899961E0
4.431597812E1,1.140999913E0,-1.637300014E0,-1.756500006E0
4.433597813E1,2.787999809E-1,-1.286700010E0,-2.086400032E0
4.435597812E1,8.639999479E-2,-9.785999656E-1,-2.382799864E0
4.437597812E1,-1.749999970E-1,-5.967000127E-1,-3.026499987E0
4.439597813E1,-7.306999564E-1,-1.495999992E-1,-4.044799805E0
4.441597812E1,-1.016299963E0,2.768000066E-1,-5.086299896E0
4.443597813E1,-9.386999607E-1,6.254000068E-1,-5.555900097E0
4.445597812E1,-6.297000051E-1,7.312999964E-1,-5.191599846E0
4.447597813E1,-6.935999990E-1,8.779999614E-1,-4.328700066E0
4.449597812E1,-6.040999889E-1,8.048999906E-1,-3.897599936E0
4.451597813E1,-4.163999856E-1,7.568999529E-1,-3.132999897E0
4.453597812E1,-3.713999987E-1,7.522000074E-1,-1.611699939E0
4.455597812E1,-3.321000040E-1,1.005200028E0,5.999999703E-4
4.457597813E1,1.211999953E-1,1.473099947E0,9.483000040E-1
4.459597812E1,5.777999759E-1,1.704999924E0,1.598699927E0
4.461597813E1,1.684999913E-1,1.924399972E0,2.000299931E0
4.463597812E1,5.759999901E-2,1.731999993E0,2.115799904E0
4.465597813E1,1.008499980E0,1.104900002E0,2.714699984E0
4.467597812E1,1.318799973E0,7.170000076E-1,3.378099918E0
4.469597969E1,1.850899935E0,-5.002999902E-1,5.105999947E0
4.471597969E1,1.578199983E0,-2.052299976E0,6.689699650E0
4.473597969E1,4.829999804E-1,-2.534199953E0,6.375899792E0
4.476601250E1,-4.733999968E-1,-1.230099916E0,2.640599966E0
4.479597813E1,-1.640000008E-2,-7.548999786E-1,-1.260699987E0
4.481597969E1,-3.556999862E-1,-9.228999615E-1,-2.006399870E0
4.483597969E1,-1.061800003E0,-1.055999994E0,-1.550699949E0
4.485597969E1,-1.682399988E0,-1.012799978E0,-1.056699991E0
4.488597969E1,-1.068499923E0,-9.202999473E-1,-8.280000091E-2
4.491597812E1,-7.509999871E-1,-3.504999876E-1,-7.066999674E-1
4.493597813E1,-8.473999500E-1,8.119999617E-2,-1.784699917E0
4.495597812E1,-6.866999865E-1,3.466999829E-1,-2.658999920E0
4.497597813E1,-4.793999791E-1,5.730000138E-1,-3.388499975E0
4.499597812E1,-2.157999873E-1,7.193999887E-1,-3.657899857E0
4.501597813E1,4.224999845E-1,6.208999753E-1,-2.708600044E0
4.503597812E1,4.368000031E-1,6.879000068E-1,-2.031199932E0
4.505597969E1,-6.168999672E-1,9.949999452E-1,-3.085599899E0
4.508597813E1,-9.502999783E-1,1.160300016E0,-2.805299997E0
4.510597969E1,-7.601000071E-1,1.256199956E0,-1.603099942E0
4.513597812E1,-1.166199923E0,1.447399974E0,-2.430999875E-1
4.515597813E1,-1.428200006E0,1.330999970E0,4.271999896E-1
4.517597812E1,-6.584999561E-1,9.915999770E-1,1.856699944E0
4.519597812E1,1.777999997E-1,4.403999746E-1,3.232399940E0
4.521597969E1,-3.569999933E-1,7.324000001E-1,3.419999838E0
4.524597969E1,9.738000035E-1,3.089999855E-1,3.642899990E0
4.526601250E1,1.746399999E0,-9.516999722E-1,4.012399673E0
4.529597969E1,-5.429999828E-1,-1.901099920E0,5.744800091E0
4.531597969E1,7.204999924E-1,-2.244199991E0,6.141799927E0
4.533597969E1,2.932399988E0,-2.445699930E0,4.120699883E0
4.535597969E1,3.336799860E0,-2.001299858E0,6.262999773E-1
4.538597969E1,1.769099951E0,-1.364499927E0,-1.744899988E0
4.541597969E1,4.900000058E-3,-9.077999592E-1,-7.261999846E-1
4.544597812E1,-6.129999757E-1,-6.799999624E-2,-1.687500000E0
4.546599688E1,-6.542999744E-1,3.145000041E-1,-3.407899857E0
4.549597812E1,-5.277999640E-1,8.829999566E-1,-4.790999889E0
4.551597813E1,-3.789999783E-1,1.176299930E0,-5.660099983E0
4.553597969E1,-1.900999993E-1,1.385399938E0,-6.233999729E0
4.555597969E1,4.600000009E-2,1.409199953E0,-5.996099949E0
4.557597969E1,-3.280999959E-1,1.380399942E0,-4.340600014E0
4.559597969E1,-6.097999811E-1,1.197799921E0,-2.529099941E0
4.562597969E1,-5.665000081E-1,1.284099936E0,-3.407000005E-1
4.565597813E1,-7.897999883E-1,1.340799928E0,1.342899919E0
4.567597812E1,-7.621999979E-1,1.145499945E0,2.777699947E0
4.569597969E1,-9.589999914E-2,9.192000031E-1,4.229899883E0
4.572597969E1,1.034399986E0,4.163999856E-1,5.486099720E0
4.575597813E1,1.819099903E0,7.171999812E-1,5.153199673E0
4.577597969E1,1.809499979E0,-1.409999933E-2,4.630300045E0
4.579597969E1,-3.799999831E-3,-1.299099922E0,3.773299932E0
4.582597969E1,-2.247900009E0,-2.408799887E0,2.508399963E0
4.584597969E1,-1.212499976E0,-2.417099953E0,1.512499928E0
4.586600156E1,7.951999903E-1,-2.326999903E0,9.707999825E-1
4.589597969E1,8.642999530E-1,-1.562500000E0,-8.499999642E-1
4.591597969E1,-7.599999756E-2,-1.043499947E0,-1.030099988E0
4.594597812E1,-5.529999733E-1,-3.299999833E-1,-7.573999763E-1
4.596599844E1,-5.162000060E-1,6.369999796E-2,-1.352699995E0
4.599597969E1,-2.254999876E-1,6.764999628E-1,-3.029500008E0
4.602597969E1,2.635999918E-1,1.001899958E0,-4.072099686E0
4.605597969E1,5.576999784E-1,1.208999991E0,-4.819399834E0
4.607597969E1,7.669999599E-1,1.217999935E0,-4.681600094E0
4.609597969E1,7.281000018E-1,1.210399985E0,-3.972699881E0
4.612597969E1,6.758999825E-1,1.011999965E0,-2.717200041E0
4.614597969E1,4.869000018E-1,8.175999522E-1,-1.343299985E0
4.616599844E1,-7.909999788E-2,7.292999625E-1,-2.831999958E-1
4.619597969E1,-5.500999689E-1,7.527999878E-1,3.922999799E-1
4.622597813E1,2.119999938E-2,2.389999852E-2,2.139199972E0
4.624597969E1,-1.316999942E-1,-1.058799982E0,3.380499840E0
4.626601250E1,-1.445099950E0,-1.778399944E0,3.570899963E0
4.629597813E1,-1.231799960E0,-1.441200018E0,3.213299990E0
4.631597969E1,6.665999889E-1,-2.275099993E0,4.636099815E0
4.633597969E1,-6.672999859E-1,-2.361399889E0,6.349699974E0
4.635597969E1,-1.246199965E0,-1.472299933E0,6.321899891E0
