"Time (s)","Acceleration x (m/s^2)","Acceleration y (m/s^2)","Acceleration z (m/s^2)"
0.000000000E0,-1.859499931E0,3.482366562E0,8.313798904E0
2.199218700E-2,-1.679494143E0,3.199553728E0,9.260992050E0
4.200000000E-2,-1.588035703E0,3.318842173E0,9.493316650E0
6.399218700E-2,-1.718624949E0,3.414342403E0,9.428241730E0
8.399218700E-2,-1.845536828E0,3.373516321E0,9.752234459E0
1.039937500E-1,-1.574091792E0,2.551232576E0,1.190284061E1
1.240062500E-1,-2.511412382E0,3.136557341E0,1.219521141E1
1.459968750E-1,-1.526322722E0,2.843382597E0,1.040315151E1
1.679921870E-1,-9.585042596E-1,2.748371124E0,8.629037857E0
1.879921870E-1,-3.012097180E-1,2.867947340E0,7.958853245E0
2.079984370E-1,-1.450215876E-1,2.883078575E0,8.069781303E0
2.299921870E-1,-3.091393113E-1,3.167643785E0,8.845244408E0
2.499968750E-1,-3.063811958E-1,3.366525412E0,9.818017960E0
2.719906250E-1,-1.969949156E-2,2.619898081E0,1.101865196E1
2.919921870E-1,-3.462973237E-2,2.520510197E0,1.139863205E1
3.119921870E-1,-1.157644391E-1,3.004311323E0,1.123779869E1
3.320000000E-1,-6.581660509E-1,3.549988270E0,1.049316311E1
3.539921870E-1,-1.124910831E0,3.974920750E0,9.788195610E0
3.739984370E-1,-1.000948668E0,3.363230944E0,9.823581696E0
3.959906250E-1,-6.142563820E-1,2.083080053E0,1.104998875E1
4.159937500E-1,-1.440447569E-1,1.661039710E0,1.228734016E1
4.379921870E-1,1.544164270E-1,1.474837780E0,1.300384808E1
4.579921870E-1,-6.958507746E-2,1.351019263E0,1.272434902E1
4.780109370E-1,-3.853419721E-1,1.549335837E0,1.193694305E1
4.999906250E-1,-4.151449800E-1,1.532327414E0,1.226976681E1
5.199921870E-1,-6.110960245E-2,1.197732925E0,1.229728985E1
5.399921870E-1,4.604337215E-1,1.071625471E0,1.214463615E1
5.619921870E-1,8.379993439E-1,8.565016985E-1,1.120679855E1
5.839921870E-1,9.111374021E-1,6.358137727E-1,1.116020679E1
6.039921870E-1,9.185019732E-1,6.662393212E-1,1.157638645E1
6.239921870E-1,1.002595901E0,6.330652237E-1,1.130302620E1
6.439921870E-1,1.085502267E0,4.655860364E-1,1.093668461E1
6.639921870E-1,1.567579627E0,2.778614759E-1,1.094410610E1
6.839921870E-1,1.938307405E0,2.351010293E-1,1.094145393E1
7.059921870E-1,1.966252565E0,2.843353748E-1,1.076367950E1
7.279921870E-1,1.603205323E0,1.385859698E-1,1.092752934E1
7.479921870E-1,1.352752686E0,3.984909505E-2,1.142763996E1
7.699921870E-1,1.085368276E0,1.718845218E-1,1.157726765E1
7.919906250E-1,1.136000872E0,2.491789460E-1,1.098083401E1
8.119906250E-1,1.133989692E0,1.693370938E-1,1.036455631E1
8.319906250E-1,8.886893988E-1,1.142034233E-1,1.008900261E1
8.520015620E-1,7.410916090E-1,-1.675941236E-2,1.053922749E1
8.739921870E-1,9.032748342E-1,2.371217310E-2,1.020727634E1
8.939921870E-1,9.048550129E-1,2.369301952E-2,9.629593849E0
9.139921870E-1,5.493543744E-1,4.058650509E-2,9.108979225E0
9.339921870E-1,4.204601049E-1,1.887109876E-1,8.988780975E0
9.539921870E-1,6.963966489E-1,1.225256622E-1,9.166077614E0
9.739921870E-1,9.105148911E-1,5.290227756E-2,9.076552391E0
9.939921870E-1,8.682620525E-1,-1.148642227E-1,8.606340408E0
1.013992187E0,6.496618390E-1,-6.213432178E-2,8.045523643E0
1.033992187E0,6.410714984E-1,2.942761183E-1,7.886864185E0
1.055992187E0,7.111161947E-1,3.827275038E-1,7.868313789E0
1.075992187E0,1.006598949E0,7.060692310E-1,7.560917377E0
1.095992187E0,1.496989012E0,7.659051418E-1,7.714003086E0
1.117990625E0,1.564419270E0,9.441391230E-1,7.224369526E0
1.137992187E0,1.507513881E0,1.170391083E0,6.770965099E0
1.157993750E0,1.449995637E0,1.716001034E0,7.079232693E0
1.178010937E0,1.504267335E0,2.002893448E0,8.062541962E0
1.199992187E0,1.790537238E0,1.802096486E0,8.343448639E0
1.219992187E0,2.264761448E0,1.564093590E0,7.589715481E0
1.239992187E0,2.982093096E0,1.350607514E0,7.586095333E0
1.259992187E0,3.205299854E0,1.228388309E0,7.905376434E0
1.281992187E0,2.846600533E0,8.687791824E-1,8.032862663E0
1.303992187E0,2.551912546E0,6.164398789E-1,7.940819740E0
1.323993750E0,2.966923475E0,5.366171598E-1,8.349903107E0
1.345992187E0,3.144515753E0,1.056206942E0,8.220357895E0
1.365992187E0,2.533639908E0,1.360155463E0,7.569412231E0
1.385992187E0,1.605867624E0,1.582912087E0,7.883100510E0
1.405992187E0,7.166707516E-1,1.612504363E0,8.609156609E0
1.425992187E0,1.528171152E-1,1.425479054E0,9.306405067E0
1.445992187E0,-2.744616866E-1,1.968943596E0,9.783196449E0
1.465992187E0,-1.171118975E0,2.773663521E0,1.027745533E1
1.485993750E0,-1.469091773E0,3.616891861E0,1.081574917E1
1.507992187E0,-2.538773298E0,2.967067242E0,8.685397148E0
1.529990625E0,-3.097100973E0,2.046726465E0,8.305983543E0
1.549992187E0,-2.205203295E0,1.542143703E0,1.002385235E1
1.571992187E0,-8.303857446E-1,6.924989223E-1,1.099744892E1
1.591992187E0,-6.543736458E-1,2.905411720E-1,1.060496330E1
1.613992187E0,-1.424023271E0,8.287481070E-1,9.825860977E0
1.634000000E0,-1.860725760E0,2.027735710E0,8.846403122E0
1.654001562E0,-2.031346083E0,3.037466288E0,8.001096725E0
1.675992187E0,-2.172919989E0,3.372271538E0,7.820171356E0
1.695992187E0,-2.139841795E0,2.924124718E0,8.879031181E0
1.717990625E0,-2.569275379E0,2.661949873E0,1.014668465E1
1.737992187E0,-2.839053869E0,2.852949858E0,1.052780247E1
1.757992187E0,-2.713990450E0,2.916712046E0,1.002574825E1
1.778010937E0,-2.623240709E0,2.873377085E0,9.304212570E0
1.799990625E0,-2.412052870E0,2.778337002E0,9.141511917E0
1.819992187E0,-2.216571093E0,2.910956621E0,8.497720718E0
1.841990625E0,-2.273543358E0,2.965870142E0,8.083724976E0
1.861992187E0,-2.066560030E0,2.798668385E0,8.279762268E0
1.883992187E0,-1.218916893E0,2.707937956E0,8.439149857E0
1.905992187E0,-3.890290558E-1,2.451538086E0,7.932249069E0
1.925992187E0,1.326387748E-2,2.392832279E0,7.708084583E0
1.945992187E0,1.992167383E-1,2.724936724E0,7.828455448E0
1.967990625E0,6.094679981E-2,3.163171291E0,8.348570824E0
1.987990625E0,-4.484722912E-1,3.549595356E0,8.978016853E0
2.007992187E0,-6.627820730E-1,3.985608339E0,8.637982368E0
2.029990625E0,-6.910623908E-1,4.271466255E0,8.263596535E0
2.049992187E0,-4.274511933E-1,4.232249737E0,8.876234055E0
2.071992187E0,2.530000806E-1,4.124644756E0,8.999747276E0
2.093992187E0,7.162972689E-1,3.983884573E0,8.160588264E0
2.113992187E0,6.413875222E-1,4.170258999E0,7.930486679E0
2.133992187E0,4.585087895E-1,4.250704288E0,8.836874008E0
2.153992187E0,6.554749608E-1,4.201708794E0,9.957350731E0
2.173993750E0,7.440699935E-1,4.352419376E0,9.900828362E0
2.195992187E0,5.835914016E-1,4.326197624E0,1.051425171E1
2.215992187E0,6.315137744E-1,4.150884628E0,1.080777168E1
2.235992187E0,3.170210123E-1,4.069118023E0,1.043074226E1
2.255992187E0,-2.038519084E-1,4.028244495E0,9.709780693E0
2.275992187E0,-9.804734588E-1,3.604872704E0,9.499780655E0
2.297992187E0,-1.380649924E0,2.937024593E0,1.208893776E1
2.319992187E0,-1.283732653E0,1.892836690E0,1.372757721E1
2.339992187E0,-1.970600367E0,1.829964995E0,1.331929874E1
2.361992187E0,-2.584119320E0,2.286309242E0,1.179435444E1
2.383992187E0,-2.379999161E0,2.387976885E0,1.074804974E1
2.403998437E0,-1.734005332E0,2.122469425E0,9.483892441E0
2.425992187E0,-1.446902275E0,2.008179903E0,8.348600388E0
2.446010937E0,-1.801608086E0,1.859327555E0,8.712126732E0
2.467990625E0,-2.220076084E0,1.811041236E0,8.844640732E0
2.487990625E0,-2.109617233E0,2.169098854E0,8.045159340E0
2.507992187E0,-1.473554611E0,2.302580357E0,6.755383968E0
2.527992187E0,-7.486860156E-1,2.223973989E0,5.735070705E0
2.547992187E0,-4.078378975E-1,1.956359625E0,6.279780388E0
2.569990625E0,-1.052653909E0,1.777053118E0,7.145925999E0
2.589990625E0,-1.682989717E0,2.520213366E0,7.802147865E0
2.609990625E0,-1.555388331E0,3.188147783E0,7.796631813E0
2.629990625E0,-8.076504469E-1,3.265700579E0,7.185516834E0
2.649992187E0,-1.978664100E-1,3.215183020E0,6.249450684E0
2.671990625E0,7.399998605E-2,3.232698917E0,6.016073227E0
2.691990625E0,-1.052491069E-1,3.154073477E0,7.556138515E0
2.711992187E0,-3.141959012E-1,2.471045971E0,9.592263222E0
2.731992187E0,-4.344805479E-1,1.828250766E0,1.055821896E1
2.751992187E0,-9.024033546E-1,1.629168034E0,1.067404079E1
2.773992187E0,-1.161341071E0,1.095366478E0,1.153644180E1
2.793998437E0,-5.418078899E-1,1.099963307E0,1.317423820E1
2.815990625E0,1.911722124E-1,1.322987914E0,1.245068169E1
2.835992187E0,-3.715322316E-1,1.584923267E0,1.056247044E1
2.855992187E0,-1.878279924E0,1.502840400E0,1.225187683E1
2.878010937E0,-2.590018511E0,7.284598351E-1,1.490570641E1
2.899992187E0,-1.664018035E0,5.284864902E-1,1.428250504E1
2.921992187E0,-9.226104021E-1,1.043555856E0,1.216174030E1
2.943992187E0,-5.501587987E-1,1.974287510E0,1.093055534E1
2.964003125E0,-6.845405698E-1,2.771987438E0,9.823007584E0
2.985992187E0,-1.124345779E0,2.780108690E0,9.336084366E0
3.005992187E0,-1.590056419E0,2.444288254E0,9.416012764E0
3.025992187E0,-1.390782237E0,2.364829540E0,9.003471375E0
3.045992187E0,-8.607729673E-1,2.148164034E0,7.827334881E0
3.065992187E0,-6.472963691E-1,1.823385715E0,7.030736446E0
3.087992187E0,-9.868516326E-1,1.730691791E0,7.289913177E0
3.109992187E0,-9.414384365E-1,1.821441650E0,7.511405945E0
3.129992187E0,-9.775429964E-1,1.697019815E0,7.018229008E0
3.151992187E0,-8.498075604E-1,1.940443039E0,6.295409679E0
3.173992187E0,-5.485499501E-1,2.374971390E0,6.140303612E0
3.193992187E0,-4.031643867E-1,2.715283155E0,6.762403488E0
3.213995312E0,-4.988271594E-1,2.671814203E0,8.570102692E0
3.235992187E0,-6.082421541E-1,2.911291838E0,1.031852055E1
3.257990625E0,-3.148949742E-1,3.459286451E0,1.025874233E1
3.278010937E0,3.102023602E-1,3.844963312E0,9.831827164E0
3.299990625E0,6.706350446E-1,3.831814528E0,1.046381092E1
3.319992187E0,7.545661330E-1,3.788172960E0,1.117527103E1
3.341990625E0,4.582023323E-1,4.001793385E0,1.104864788E1
3.361992187E0,-1.819018722E-1,4.410224915E0,1.073378086E1
3.383993750E0,-5.248472691E-1,4.529025555E0,1.145616913E1
3.404004687E0,-8.709052205E-1,4.330813885E0,1.153552246E1
3.425993750E0,-1.499651313E0,3.709336758E0,1.134379482E1
3.445996875E0,-1.391644001E0,2.536781311E0,1.248783016E1
3.467992187E0,-3.580959439E-1,1.365700603E0,1.342698956E1
3.489990625E0,4.697902501E-1,1.109415650E0,1.248031235E1
3.509996875E0,2.933184505E-1,1.604258776E0,1.092266369E1
3.531990625E0,-6.885532737E-1,2.144141674E0,1.084804153E1
3.551990625E0,-1.277708888E0,2.093605042E0,1.229904270E1
3.571992187E0,-1.233061790E0,1.513757944E0,1.272965431E1
3.593992187E0,-8.968200684E-1,1.021031260E0,1.038939857E1
3.613995312E0,-4.679132104E-1,1.352225900E0,8.606446266E0
3.635992187E0,-5.227020979E-1,1.599786401E0,9.583127975E0
3.657992187E0,-9.054391980E-1,1.948487520E0,9.161767960E0
3.678010937E0,-1.065841198E0,2.432413101E0,7.237058640E0
3.699990625E0,-5.975736380E-1,2.990865469E0,5.317636490E0
3.719990625E0,-2.329654098E-1,3.042072773E0,5.344490051E0
3.739990625E0,-6.573615670E-1,2.947923183E0,6.196864128E0
3.759993750E0,-9.108213782E-1,2.993958712E0,6.355695724E0
3.781992187E0,-1.049857378E0,3.295733690E0,6.457516193E0
3.803990625E0,-9.976637959E-1,3.491454840E0,6.758726120E0
3.823992187E0,-7.507258654E-1,3.339135647E0,7.127528667E0
3.843998437E0,-6.601675749E-1,3.053966999E0,7.040571213E0
3.865992187E0,-6.429485083E-1,3.047100544E0,7.080947399E0
3.885992187E0,-1.092742443E0,3.100970030E0,8.718877792E0
3.905992187E0,-1.664621472E0,3.233426809E0,1.117926598E1
3.925992187E0,-1.547506571E0,3.472329855E0,1.097713661E1
3.945992187E0,-9.365255237E-1,3.765744209E0,9.132567406E0
3.967992187E0,-5.108843446E-1,4.663713455E0,9.145524025E0
3.989990625E0,-7.509844303E-1,5.263499260E0,9.511110306E0
4.009990625E0,-1.709297299E0,4.327577114E0,9.617623329E0
4.029990625E0,-2.085234880E0,3.142265081E0,1.134619808E1
4.049992187E0,-1.476810694E0,2.294612646E0,1.242303371E1
4.071992187E0,-2.770857513E-1,2.091402292E0,1.105921936E1
4.093992187E0,-3.278140724E-1,1.661346197E0,8.526288033E0
4.113992187E0,-9.532466531E-1,1.566018581E0,8.086579323E0
4.133992187E0,-1.840154648E0,1.998583913E0,9.505843163E0
4.155992187E0,-2.439126492E0,2.505589485E0,9.653621674E0
4.178010937E0,-1.903706431E0,3.043193102E0,9.760394096E0
4.199990625E0,-1.053400874E0,3.162137270E0,9.499895096E0
4.219990625E0,-2.048287541E-1,2.982935905E0,8.986377716E0
4.239990625E0,2.166369408E-1,2.792798042E0,8.012052536E0
4.259992187E0,3.671460450E-1,2.777762413E0,7.495901108E0
4.281990625E0,4.177594483E-1,2.675999165E0,7.798518181E0
4.301990625E0,4.420941472E-1,2.408154964E0,7.440527916E0
4.321990625E0,4.188416302E-1,2.439481020E0,6.858142853E0
4.341990625E0,3.727580607E-1,2.763062000E0,6.663455963E0
4.361992187E0,2.824583352E-1,3.054484129E0,6.692626953E0
4.383992187E0,1.681495607E-1,3.297802210E0,7.100340366E0
4.404001562E0,3.649721295E-2,3.250052214E0,7.932833195E0
4.425992187E0,-2.057098038E-2,3.249764919E0,8.997716904E0
4.447992187E0,-3.720589280E-1,3.923761368E0,9.548679352E0
4.469992187E0,-1.053171039E0,4.358720779E0,1.037562656E1
4.491992187E0,-1.474531412E0,3.935617447E0,1.122470665E1
4.513992187E0,-1.547094822E0,3.383035660E0,1.186278152E1
4.533992187E0,-8.318318725E-1,3.496894360E0,1.320143700E1
4.555992187E0,-2.437393069E-1,3.234824896E0,1.200358868E1
4.575992187E0,-8.397614956E-1,2.715771675E0,1.048271465E1
4.597992187E0,-1.194333076E0,2.275707722E0,1.175915051E1
4.619992187E0,-6.751552820E-1,1.306276441E0,1.321945000E1
4.641992187E0,-3.087562621E-1,5.706244707E-1,1.255042458E1
4.663992187E0,-5.963956118E-1,7.578127384E-1,1.213209057E1
4.683992187E0,-1.313573956E0,1.437258482E0,1.183925056E1
4.703992187E0,-1.351976871E0,1.856186271E0,1.109870529E1
4.723992187E0,-9.573072195E-1,1.930100083E0,9.454520226E0
4.743993750E0,-6.699359417E-1,1.671641231E0,7.885591030E0
4.764003125E0,-4.624352753E-1,1.528084874E0,8.591794014E0
4.785992187E0,-5.190629363E-1,1.381454349E0,9.515955925E0
4.805992187E0,-5.736985803E-1,1.448233366E0,9.031235695E0
4.827990625E0,-6.541820765E-1,2.271005630E0,7.405581951E0
4.847992187E0,-7.533786893E-1,3.003746271E0,6.496340752E0
4.867992187E0,-8.917060494E-1,3.497689247E0,5.890282154E0
4.889990625E0,-1.166215658E0,3.702556372E0,6.192162037E0
4.909992187E0,-9.107255936E-1,3.642825603E0,7.321047306E0
4.931992187E0,-6.768120527E-1,4.006600857E0,8.004611015E0
4.953992187E0,-7.879317403E-1,4.184135914E0,7.650106430E0
4.975990625E0,-7.629171610E-1,3.817621469E0,8.018746376E0
4.995992187E0,-3.233896196E-1,3.355502367E0,8.810843468E0
5.017992187E0,-3.973417357E-2,2.596502304E0,8.870105743E0
5.039992187E0,-1.587643027E-1,2.379845858E0,9.224591255E0
5.061990625E0,-5.224339366E-1,3.058985233E0,9.935400009E0
5.081992187E0,-7.929404378E-1,4.244670391E0,1.029477024E1
5.104006250E0,-2.016080618E0,4.200042248E0,9.092248917E0
5.125992187E0,-2.383485317E0,3.185485363E0,1.138978195E1
5.145992187E0,-2.032954931E0,1.368717313E0,1.393129539E1
5.165992187E0,-2.116052866E0,5.966350436E-3,1.403191757E1
5.187990625E0,-2.501260757E0,-2.539769188E-2,1.368453884E1
5.207990625E0,-2.635968208E0,9.350315332E-1,1.302952385E1
5.227992187E0,-2.889389753E0,1.857258916E0,1.135090065E1
5.247992187E0,-2.537422895E0,2.707085371E0,9.671760559E0
5.269990625E0,-1.583036661E0,2.617542505E0,9.099805832E0
5.289990625E0,-1.056656957E0,2.405875683E0,9.346426964E0
5.309990625E0,-7.061075568E-1,2.377815723E0,9.066582680E0
5.329990625E0,-2.647125125E-1,2.404621363E0,8.555986404E0
5.349990625E0,-4.351700842E-2,2.356047630E0,7.734918594E0
5.369990625E0,-1.741542369E-1,2.463643074E0,6.896871567E0
5.389990625E0,-4.285142124E-1,2.610972643E0,6.609797478E0
5.409992187E0,-4.788594842E-1,2.541789770E0,6.601274014E0
5.431990625E0,-2.939887941E-1,2.573948622E0,6.594426155E0
5.451990625E0,1.024718280E-3,2.600141287E0,6.445755959E0
5.471990625E0,2.495715767E-1,2.694243193E0,6.187727928E0
5.491992187E0,4.587864876E-1,2.985569477E0,5.954073429E0
5.511992187E0,4.499566853E-1,3.464199305E0,6.159198761E0
5.533992187E0,1.556039602E-1,3.873109579E0,7.156709671E0
5.553992187E0,-4.433295429E-1,4.017939568E0,8.635521889E0
5.573992187E0,-7.411682010E-1,3.973417282E0,9.938081741E0
5.593998437E0,-8.787199259E-1,3.781890631E0,1.043042564E1
5.615990625E0,-3.835223615E-1,3.521775007E0,1.094994831E1
5.635992187E0,3.655562997E-1,3.443618536E0,1.121752453E1
5.657992187E0,1.344966739E-1,3.956255674E0,1.134767246E1
5.678010937E0,-4.629428387E-1,4.432663441E0,1.137331009E1
5.699990625E0,-4.421707392E-1,4.499681473E0,1.145949173E1
5.719990625E0,-8.348102868E-2,3.221120596E0,1.178153133E1
5.739990625E0,5.307849050E-1,2.159522057E0,1.186934090E1
5.759992187E0,1.003074765E0,1.954262376E0,1.151885796E1
5.779992187E0,9.430760741E-1,2.003851175E0,1.099367619E1
5.801990625E0,5.555505157E-1,1.662897587E0,1.011976337E1
5.821990625E0,-3.071760833E-1,1.165650606E0,9.900828362E0
5.841990625E0,-1.416160822E0,8.056775928E-1,1.132197857E1
5.861992187E0,-1.960113764E0,7.077547312E-1,1.207590294E1
5.883992187E0,-1.833115697E0,1.018646598E0,1.109020996E1
5.903992187E0,-1.474655867E0,1.405444384E0,9.479209900E0
5.923992187E0,-7.203770280E-1,1.783632278E0,8.181935310E0
5.944001562E0,-1.580173150E-3,1.976624131E0,7.153386116E0
5.964004687E0,1.291624010E-1,2.264187098E0,6.751773357E0
5.985992187E0,-4.021301270E-1,2.750104427E0,6.495612621E0
6.005992187E0,-1.010726571E0,3.208009958E0,6.430452347E0
6.025992187E0,-1.145769119E0,3.510397673E0,7.008086681E0
6.045998437E0,-8.267465830E-1,3.654930830E0,7.424716473E0
6.067990625E0,-5.771271586E-1,3.605916739E0,7.489733219E0
6.087992187E0,-5.021215677E-1,3.224281073E0,7.729709148E0
6.109992187E0,-6.803650856E-1,3.140033960E0,8.097841263E0
6.131990625E0,-8.743720055E-1,3.309207916E0,8.201041222E0
6.151992187E0,-7.781538963E-1,3.447468519E0,8.151021957E0
6.173992187E0,-3.158526719E-1,3.423469067E0,8.022663116E0
6.193992187E0,2.909721136E-1,3.409554005E0,7.741066933E0
6.213992187E0,3.709097207E-1,3.614306211E0,7.915729046E0
6.233992187E0,2.895164490E-1,3.451567411E0,9.296407700E0
6.255990625E0,2.507207990E-1,2.860534668E0,1.092571831E1
6.275992187E0,6.363500953E-1,2.727972746E0,1.203470421E1
6.295992187E0,-1.920149848E-2,1.244209051E0,1.171013641E1
6.315992187E0,-9.927318096E-1,4.214465320E-1,1.348700809E1
6.335992187E0,-1.421830177E0,3.093021214E-1,1.560407543E1
6.355992187E0,-1.515472174E0,-9.414000809E-2,1.534791470E1
6.378010937E0,-1.857469559E0,-5.308232307E-1,1.414310455E1
6.399990625E0,-1.938881993E0,-1.903869212E-1,1.395753479E1
6.419990625E0,-1.626984477E0,5.166016817E-1,1.356888008E1
6.439990625E0,-7.444243431E-1,1.141181827E0,1.185353947E1
6.459990625E0,6.589800864E-2,1.673891783E0,9.814043045E0
6.479992187E0,4.827285111E-1,1.951121211E0,8.088752747E0
6.501992187E0,6.484360099E-1,2.128407001E0,7.306864262E0
6.523992187E0,5.229702592E-1,1.938795805E0,7.558197975E0
6.545990625E0,3.472071290E-1,1.616469264E0,7.599167347E0
6.565992187E0,2.742127180E-1,1.511813879E0,7.498850822E0
6.587992187E0,4.306019545E-1,1.628679633E0,7.011888981E0
6.609992187E0,4.822018147E-1,1.665416241E0,6.720323086E0
6.631990625E0,3.277853727E-1,1.865600228E0,6.954399586E0
6.651990625E0,4.601655528E-2,2.151429653E0,6.975353718E0
6.671990625E0,-1.310394406E-1,2.640268087E0,7.182892799E0
6.691990625E0,-1.100566611E-1,2.912278414E0,8.155685425E0
6.711990625E0,2.213678956E-1,2.829773903E0,8.759503365E0
6.731990625E0,2.509889603E-1,2.996726513E0,9.641641617E0
6.751992187E0,3.405416906E-1,2.879238367E0,1.112518501E1
6.773992187E0,5.104533434E-1,2.679035187E0,1.250461769E1
6.793992187E0,3.073005676E-1,2.815724850E0,1.279899979E1
6.813992187E0,-1.193844751E-1,3.339671850E0,1.257499886E1
6.833992187E0,1.415356249E-1,4.034057140E0,1.216464138E1
6.853992187E0,5.866943598E-1,3.763866901E0,1.142935371E1
6.875990625E0,9.634650946E-1,3.118160486E0,1.147369480E1
6.895990625E0,1.555215955E0,2.720310926E0,1.153227520E1
6.915992187E0,2.013820648E0,2.016990423E0,1.114588928E1
6.937992187E0,2.020457268E0,1.503233075E0,1.027265739E1
6.957992187E0,1.413881421E0,1.130321741E0,9.678186417E0
6.978009375E0,-7.549396157E-2,7.784699202E-1,1.021575165E1
6.999990625E0,-1.456603646E0,1.439987779E0,1.142766762E1
7.019990625E0,-1.734579921E0,1.581063747E0,1.171162987E1
7.039992187E0,-1.006780982E0,1.443751454E0,1.051195335E1
7.061990625E0,-2.848621309E-1,1.545792341E0,8.832995415E0
7.081992187E0,-7.522581518E-2,1.315173388E0,8.418329239E0
7.103996875E0,-1.053640321E-1,1.381799221E0,7.638327122E0
7.123996875E0,-8.427590132E-3,1.926709890E0,6.592855930E0
7.144004687E0,-2.889897227E-1,2.468067646E0,5.893595695E0
7.165992187E0,-4.658541977E-1,2.770790577E0,6.025133133E0
7.185992187E0,-6.259018183E-1,2.886545420E0,6.605851650E0
7.205992187E0,-8.050072193E-1,3.156228304E0,7.013153553E0
7.225992187E0,-1.215842605E0,3.364801407E0,7.731001854E0
7.245992187E0,-1.314761519E0,3.341922522E0,8.261174202E0
7.265992187E0,-1.094552398E0,3.256114244E0,8.248465538E0
7.285992187E0,-7.018745542E-1,3.371821404E0,7.771674156E0
7.307992187E0,-3.409726322E-1,3.582578182E0,7.469851971E0
7.329992187E0,-3.768665195E-1,3.639186621E0,7.881549358E0
7.351992187E0,-6.303550005E-1,3.779802799E0,8.612919807E0
7.371992187E0,-4.974097610E-1,3.676804304E0,9.332684517E0
7.393992187E0,-1.301583797E-1,3.733268976E0,1.012743473E1
7.413998437E0,-5.599559098E-2,4.072805405E0,1.076190853E1
7.435990625E0,-4.021971524E-1,3.928339005E0,1.015117550E1
7.455992187E0,-1.652200341E0,2.796542406E0,1.088351440E1
7.478010937E0,-2.354773998E0,1.690679908E0,1.316800404E1
7.499990625E0,-2.007174253E0,1.105594516E0,1.350620937E1
7.519990625E0,-1.610550761E0,6.549674273E-1,1.169760895E1
7.539992187E0,-1.944139600E0,4.245589972E-1,1.120106125E1
7.561990625E0,-2.790901899E0,1.076404333E0,1.172059345E1
7.581992187E0,-3.181463242E0,1.984726191E0,1.104656887E1
7.603992187E0,-2.999906063E0,2.625759363E0,1.002108383E1
7.623996875E0,-2.132802725E0,2.661432743E0,9.337012291E0
7.644006250E0,-9.902034998E-1,2.290149689E0,8.842189789E0
7.665990625E0,1.275247633E-1,2.041593313E0,7.928130627E0
7.685992187E0,6.891757250E-1,1.866864324E0,7.361432552E0
7.705992187E0,6.557526588E-1,1.869354367E0,7.280317307E0
7.725992187E0,3.258795738E-1,2.126807690E0,7.199910164E0
7.745992187E0,2.083625793E-1,2.416879654E0,6.887524605E0
7.765992187E0,4.423048198E-1,2.471266270E0,7.005616188E0
7.785992187E0,4.736305475E-1,2.459381342E0,6.741803646E0
7.807992187E0,5.159600377E-1,2.665895700E0,6.890023708E0
7.829990625E0,2.172402740E-1,2.832762003E0,7.952273846E0
7.849992187E0,-2.173552066E-1,2.971644878E0,8.925334930E0
7.869992187E0,-5.826816559E-1,3.237755537E0,9.476787567E0
7.891990625E0,-5.140734315E-1,3.686036348E0,1.018352604E1
7.911990625E0,-1.208592951E-1,3.780578613E0,1.065279007E1
7.931992187E0,-6.964253634E-2,3.903142691E0,1.070217800E1
7.953998437E0,-2.732933462E-1,3.761396170E0,1.111023521E1
7.975990625E0,-1.610244364E-1,3.902548790E0,1.210615635E1
7.995992187E0,-2.863465250E-1,3.793784857E0,1.220570660E1
8.017992187E0,-6.178477407E-1,3.149294615E0,1.238068581E1
8.039992187E0,-1.186279058E-1,2.121952057E0,1.298888874E1
8.059992187E0,1.085425615E0,1.391069412E0,1.206717873E1
8.081992187E0,1.870666385E0,9.833752513E-1,1.053599167E1
8.101992187E0,1.437268019E0,1.228733063E0,1.014234543E1
8.121992187E0,1.881650984E-1,1.396288872E0,1.092016506E1
8.141992187E0,-6.893385649E-1,1.596060991E0,1.130890656E1
8.161992187E0,-1.015371323E0,1.800276875E0,1.081278896E1
8.181992187E0,-8.200907111E-1,1.996132255E0,9.696363449E0
8.201992187E0,-2.972545028E-1,2.083338737E0,9.039039612E0
8.221992187E0,2.696828917E-2,1.618825078E0,9.123134613E0
8.243998437E0,4.171848595E-1,1.548071623E0,8.300936699E0
8.265993750E0,2.845460773E-1,1.929745674E0,7.259813309E0
8.287992187E0,-2.721153796E-1,2.755467415E0,6.560390472E0
8.307992187E0,-8.629564643E-1,3.345877647E0,6.088407040E0
8.329992187E0,-1.370737910E0,3.566824198E0,6.235420227E0
8.351992187E0,-1.243586659E0,3.371150970E0,6.905385017E0
8.373990625E0,-7.813812494E-1,3.163324594E0,7.591688156E0
8.393992187E0,-6.775303483E-1,3.225746393E0,7.989700317E0
8.413992187E0,-5.850758553E-1,3.362368822E0,8.072654724E0
8.433992187E0,-4.054245353E-1,3.260443211E0,8.127817154E0
8.453992187E0,-2.047425508E-1,3.304678202E0,7.988502979E0
8.473992187E0,-3.098863363E-1,3.537806511E0,8.054496765E0
8.493992187E0,-4.089392424E-1,3.539338827E0,8.765871048E0
8.513992187E0,-2.222489566E-1,3.487480402E0,9.982978821E0
8.533998437E0,6.697060913E-2,3.641810656E0,1.067955685E1
8.555992187E0,4.322012961E-1,4.011436939E0,1.069240952E1
8.578010937E0,-3.551462889E-1,3.678106785E0,1.025079441E1
8.599990625E0,-2.193012238E0,2.576218605E0,1.168769836E1
8.619992187E0,-3.237669468E0,1.948056459E0,1.341853333E1
8.641992187E0,-2.821413517E0,1.630729079E0,1.329007912E1
8.663992187E0,-1.891850352E0,1.069039822E0,1.105244923E1
8.684003125E0,-1.846705198E0,8.921561837E-1,1.027904510E1
8.705992187E0,-2.065803528E0,1.044398665E0,1.125237370E1
8.725992187E0,-2.131596088E0,1.488015532E0,1.092449284E1
8.745992187E0,-1.693849802E0,2.003630638E0,9.869722366E0
8.765992187E0,-1.188481688E0,2.321724415E0,8.670075417E0
8.785992187E0,-8.422609568E-1,2.550571680E0,7.986970901E0
8.807992187E0,-2.826786339E-1,2.519025803E0,7.414641380E0
8.829992187E0,2.740403116E-1,2.538284779E0,6.790138245E0
8.849992187E0,5.203270912E-1,2.535679817E0,6.353981495E0
8.871990625E0,4.433965683E-1,2.432336330E0,6.377387047E0
8.891990625E0,2.977046072E-1,2.516689062E0,6.796247959E0
8.911990625E0,2.686102986E-1,2.630825520E0,7.278823376E0
8.931992187E0,2.980972528E-1,2.651166439E0,7.579917908E0
8.953992187E0,2.859921753E-1,2.757555485E0,7.729421616E0
8.973992187E0,2.787137926E-1,2.873396397E0,7.766541481E0
8.995992187E0,8.379706182E-3,3.120276928E0,8.413646698E0
9.017992187E0,-3.710916638E-1,3.716643810E0,9.549886703E0
9.039990625E0,-4.168879688E-1,3.894178629E0,1.035815907E1
9.059990625E0,-3.057778478E-1,3.797012568E0,1.059352875E1
9.079992187E0,-3.166666925E-1,3.659527779E0,1.039065361E1
9.099992187E0,-4.612765014E-1,3.609316349E0,1.093148422E1
9.119992187E0,-4.234097898E-1,3.514927387E0,1.227588558E1
9.141992187E0,-1.260307804E-2,3.790318012E0,1.256061459E1
9.161992187E0,5.240428448E-1,3.656635523E0,1.152281380E1
9.183996875E0,8.544331193E-1,2.992560625E0,1.075726223E1
9.205992187E0,1.271618009E0,2.200979948E0,1.204828453E1
9.225992187E0,1.441050887E0,1.440916777E0,1.217948627E1
9.245993750E0,1.368765116E0,1.447697163E0,1.104898262E1
9.267990625E0,3.785999119E-1,1.761691928E0,9.797178268E0
9.287990625E0,-4.405139387E-1,2.319100380E0,9.997774124E0
9.307992187E0,-8.221496940E-1,2.194659472E0,1.092701149E1
9.327992187E0,-9.045581222E-1,1.717312932E0,1.110533237E1
9.347992187E0,-8.835083246E-1,1.538724780E0,1.022450542E1
9.367992187E0,-1.055335283E0,1.692901731E0,9.442300797E0
9.389990625E0,-1.038882494E0,1.859011531E0,8.515476227E0
9.409990625E0,-5.784487128E-1,2.036172628E0,7.532848358E0
9.429992187E0,-1.650849879E-1,1.974421501E0,6.631402493E0
9.451990625E0,-1.420910805E-1,2.120477200E0,6.182058811E0
9.471990625E0,-6.282193661E-1,2.432394028E0,6.564584732E0
9.491990625E0,-1.157251716E0,2.765197515E0,6.817690372E0
9.511993750E0,-1.500771880E0,3.020678043E0,6.911265850E0
9.533992187E0,-1.711748958E0,3.285160542E0,7.125182629E0
9.554003125E0,-1.878490567E0,3.401499748E0,7.517151833E0
9.575990625E0,-1.528199792E0,3.246978045E0,7.857463360E0
9.595992187E0,-1.139228106E0,3.136892557E0,7.944957256E0
9.617990625E0,-5.869720578E-1,2.931403160E0,8.213835716E0
9.637990625E0,-3.194248080E-1,2.791926622E0,8.990237236E0
9.657992187E0,-2.168476433E-1,2.880876064E0,1.012732887E1
9.678010937E0,-1.337975562E-1,3.419255018E0,1.075391102E1
9.699992187E0,1.991975904E-1,4.108220100E0,1.089323425E1
9.721992187E0,5.885618329E-1,4.519735813E0,1.043849945E1
9.743992187E0,-1.419953108E-1,3.851887465E0,1.098732758E1
9.763993750E0,-1.493914843E0,2.531504393E0,1.368108082E1
9.783996875E0,-2.143758535E0,1.415490389E0,1.539272499E1
9.805990625E0,-1.815590262E0,7.327215075E-1,1.442751694E1
9.825992187E0,-1.534099102E0,6.571508646E-1,1.282717514E1
9.845992187E0,-1.766528249E0,7.553706765E-1,1.180557919E1
9.867992187E0,-1.909442902E0,1.108333349E0,1.063278389E1
9.889990625E0,-1.869277716E0,1.918866396E0,9.140640259E0
9.909990625E0,-1.803714991E0,2.525882721E0,8.040332794E0
9.929990625E0,-1.631207943E0,2.763914347E0,7.309258461E0
9.949990625E0,-1.215335131E0,2.601970434E0,7.073697567E0
9.969992187E0,-6.386772394E-1,2.347208261E0,6.895904064E0
9.991990625E0,-2.664267719E-1,1.987647057E0,6.637187004E0
1.001199063E1,-3.060651422E-1,1.668739438E0,6.720390320E0
1.003199062E1,-2.687826455E-1,1.758167624E0,6.914809227E0
1.005199062E1,8.657433093E-2,1.981470108E0,6.354728699E0
1.007199219E1,4.679132104E-1,2.051802158E0,5.704137802E0
1.009199219E1,3.689943552E-1,2.207971096E0,6.138464928E0
1.011399219E1,-5.320011973E-1,2.641551495E0,7.557872295E0
1.013399219E1,-1.083136797E0,2.923770189E0,9.108615875E0
1.015399219E1,-9.032748342E-1,3.000212431E0,9.763036728E0
1.017399219E1,-7.153012753E-1,3.098125696E0,1.051411724E1
1.019399219E1,-1.069710255E0,3.561125994E0,1.143216991E1
1.021400000E1,-1.502849936E0,3.661797285E0,1.190003490E1
1.023599063E1,-1.639606833E0,3.477185249E0,1.219779682E1
1.025599062E1,-1.396968722E0,3.370959520E0,1.252671146E1
1.027599219E1,-1.115324497E0,3.404181480E0,1.254765701E1
1.029799219E1,-1.172497988E0,3.524542809E0,1.145098782E1
1.031999062E1,-7.475272417E-1,3.371725559E0,1.034086323E1
1.033999219E1,-1.000584811E-1,3.142370701E0,9.623475075E0
1.036199219E1,3.064003587E-1,2.784964085E0,9.852427483E0
1.038399219E1,-1.281376779E-1,2.419513226E0,1.002809429E1
1.040599219E1,-1.122794390E0,2.402696371E0,9.732324600E0
1.042599219E1,-2.338876486E0,2.281386852E0,1.100080204E1
1.044600938E1,-3.176234245E0,2.283196926E0,1.234558582E1
1.046799062E1,-2.860965490E0,1.771067619E0,1.233624935E1
1.048799062E1,-1.900957942E0,1.200749636E0,1.060722351E1
1.050799063E1,-1.212854743E0,6.841766238E-1,9.476518631E0
1.052799219E1,-8.398668170E-1,4.452544749E-1,8.180068016E0
1.054799219E1,-8.730791807E-1,7.723024487E-1,6.814348221E0
1.056799219E1,-1.326512218E0,1.577941775E0,5.540173531E0
1.058799219E1,-1.985396624E0,2.265585184E0,5.105941296E0
1.060799219E1,-1.986239314E0,2.705878973E0,5.150512218E0
1.062999063E1,-1.375114560E0,2.614238501E0,5.122969151E0
1.064999063E1,-8.956134319E-1,2.806473732E0,5.366852283E0
1.066999062E1,-8.413512111E-1,3.212874889E0,6.260569572E0
1.068999062E1,-7.496916056E-1,3.107089520E0,6.980141640E0
1.070999063E1,-3.688028157E-1,3.083176374E0,6.996316910E0
1.072999063E1,-2.875915170E-1,3.412005663E0,7.754723549E0
1.074999062E1,2.765111327E-1,3.468240499E0,9.307257652E0
1.076999219E1,9.275903106E-1,3.077286720E0,9.772384644E0
1.079199219E1,4.726728797E-1,3.169980526E0,9.519460678E0
1.081399219E1,-6.402765512E-1,3.144611597E0,1.183550549E1
1.083399219E1,-6.205675006E-1,2.434194326E0,1.413103771E1
1.085399219E1,4.644080698E-1,2.286730766E0,1.422890377E1
1.087399219E1,8.902599663E-2,2.011493206E0,1.282486725E1
1.089399219E1,-1.176730990E0,1.316897154E0,1.341323757E1
1.091599219E1,-2.173465729E0,-3.586514294E-2,1.626295090E1
1.093799219E1,-2.065353155E0,-1.728374243E0,1.763511467E1
1.095799219E1,-2.075073719E0,-2.230467081E0,1.667973328E1
1.097801094E1,-1.506498814E0,-1.298854351E0,1.388258648E1
1.099999062E1,-2.545802593E-1,-5.711416006E-1,1.170143032E1
1.101999062E1,7.079558969E-1,-3.123954535E-1,9.921256065E0
1.103999219E1,5.426410437E-1,1.964011490E-1,8.678923607E0
1.106199062E1,-6.004370451E-1,1.211226702E0,8.105675697E0
1.108199219E1,-8.426440954E-1,1.733622313E0,6.980323792E0
1.110399219E1,-4.396616220E-1,2.120802879E0,5.876893520E0
1.112399219E1,6.178094149E-1,1.869976878E0,5.061686993E0
1.114399688E1,1.029075861E0,1.190464139E0,5.681948185E0
1.116599063E1,7.020661235E-1,6.456300020E-1,6.394529819E0
1.118599062E1,7.917242050E-1,1.213898540E0,7.365521908E0
1.120599219E1,8.934586048E-1,1.738698006E0,6.829862595E0
1.122799219E1,1.397639215E-1,2.046439171E0,7.331744671E0
1.124799219E1,-5.030505061E-1,2.214952707E0,8.361250877E0
1.126999062E1,1.573469304E-2,2.790327072E0,8.671339035E0
1.128999063E1,3.704117537E-1,2.998153448E0,8.017099380E0
1.130999063E1,4.694933891E-1,3.035924435E0,8.065069199E0
1.132999219E1,7.568838000E-1,3.018130541E0,8.902820587E0
1.135199219E1,5.896727443E-1,3.298568249E0,1.003412819E1
1.137399063E1,-1.584003866E-2,3.307484388E0,1.099453831E1
1.139399219E1,-3.197121322E-1,3.131778479E0,1.240161037E1
1.141399219E1,-1.757439822E-1,2.471237659E0,1.327758217E1
1.143399219E1,-1.348797381E-1,1.239842176E0,1.320044994E1
1.145399219E1,3.263392746E-1,4.845385551E-1,1.429435158E1
1.147399219E1,1.323581815E0,-6.153098121E-2,1.474832058E1
1.149599219E1,1.971740007E0,-2.644060552E-1,1.233847046E1
1.151799219E1,1.587173820E0,2.010650635E-1,1.039131451E1
1.153999219E1,5.749244094E-1,7.344644666E-1,9.870086670E0
1.155999219E1,-1.559391469E-1,1.055459857E0,1.019303608E1
1.158199219E1,-3.695977032E-1,1.315336108E0,1.031119442E1
1.160399219E1,-1.671631634E-1,1.289698958E0,1.005736160E1
1.162399219E1,1.852250248E-1,1.105422139E0,1.015933514E1
1.164399844E1,2.122794986E-1,1.100413442E0,1.050175381E1
1.166599063E1,-1.248240992E-1,1.248030305E0,1.034958744E1
1.168599062E1,-5.477359295E-1,1.549632668E0,9.253561020E0
1.170599219E1,-7.982364297E-1,1.980799675E0,7.986616135E0
1.172599219E1,-8.869464397E-1,2.243165731E0,6.990829468E0
1.174599375E1,-1.083462358E0,2.559976339E0,6.186626911E0
1.176799219E1,-1.497601986E0,2.764249563E0,5.753458023E0
1.178999063E1,-1.487268567E0,3.051448584E0,5.634045124E0
1.180999219E1,-8.665094376E-1,3.473833561E0,5.331973076E0
1.182999219E1,-4.577426314E-1,3.235246420E0,5.748085499E0
1.184999219E1,-3.138702810E-1,3.082505941E0,6.936347008E0
1.187199219E1,-9.934021533E-2,3.079958439E0,7.619748116E0
1.189399844E1,1.180820260E-2,3.118294477E0,8.540730476E0
1.191599219E1,1.863550842E-1,2.441013098E0,1.011705399E1
1.193799219E1,6.009446457E-2,2.528937817E0,1.165364265E1
1.195799219E1,1.926662028E-1,3.325517416E0,1.202487755E1
1.197801094E1,5.498427749E-1,3.660657644E0,1.171947384E1
1.199999062E1,2.427720428E-1,3.303059816E0,1.152914429E1
1.201999062E1,-6.951900125E-1,2.398683548E0,1.273347569E1
1.203999219E1,-1.516247869E0,9.781750441E-1,1.494872475E1
1.206199062E1,-1.219022274E0,2.365950197E-1,1.562002087E1
1.208199219E1,-9.025182724E-1,3.330909014E-1,1.308519363E1
1.210199219E1,-5.842905641E-1,1.401833892E0,9.724328041E0
1.212399063E1,-1.746234894E-1,1.670922995E0,8.649925232E0
1.214399219E1,-6.079835892E-1,1.439403653E0,9.567450523E0
1.216399531E1,-8.406617045E-1,1.728939176E0,1.008719349E1
1.218399688E1,-1.013963580E0,1.967210174E0,9.372859001E0
1.220599219E1,-1.012191892E0,2.309178829E0,7.856113434E0
1.222599219E1,-6.977374554E-1,2.515990019E0,7.271228790E0
1.224599688E1,-3.722313344E-1,2.467933655E0,6.566921711E0
1.226799063E1,1.210221127E-1,2.491166830E0,5.730215549E0
1.228799062E1,3.355809152E-1,2.458280087E0,5.920180798E0
1.230799219E1,1.984027028E-1,2.581744432E0,6.191127777E0
1.232999062E1,1.434701383E-1,2.890146255E0,6.531046867E0
1.234999062E1,1.066569015E-1,3.008793116E0,6.933196068E0
1.236999063E1,1.043871939E-1,2.957289219E0,7.523204327E0
1.238999219E1,4.695508257E-2,3.109541178E0,8.146251678E0
1.240999219E1,-3.130562305E-1,3.289365053E0,8.952667236E0
1.243199219E1,-7.855471969E-1,3.297505379E0,1.046244144E1
1.245399688E1,-5.160845518E-1,3.444135666E0,1.106263828E1
1.247599063E1,-8.343314379E-2,3.508980274E0,1.062105179E1
1.249599219E1,-2.247197777E-1,3.267300129E0,1.078219128E1
1.251799219E1,-3.109301627E-1,3.123552322E0,1.240736580E1
1.253999063E1,4.702595174E-1,3.146651268E0,1.299444294E1
1.255999063E1,1.157165527E0,3.248022079E0,1.259139347E1
1.257999062E1,1.318908215E0,2.791399717E0,1.218289566E1
1.259999062E1,1.852231026E0,2.551050425E0,1.208822823E1
1.261999219E1,2.569552898E0,2.295282841E0,1.155151558E1
1.264199219E1,2.928271532E0,2.025379658E0,1.021243858E1
1.266399219E1,2.286184788E0,1.303614140E0,9.547444344E0
1.268400312E1,7.872614264E-1,1.078013301E0,1.015800381E1
1.270599219E1,-4.821155965E-1,1.324577808E0,1.202838326E1
1.272599219E1,-6.857663989E-1,1.438062906E0,1.173368549E1
1.274599219E1,-3.976098597E-1,1.505157948E0,9.946155548E0
1.276799063E1,-2.813569903E-1,1.587058783E0,8.545901299E0
1.278799219E1,-4.813590348E-1,1.641378522E0,8.156278610E0
1.280799219E1,-7.334397435E-1,1.957930326E0,7.587359428E0
1.282999219E1,-9.352326393E-1,2.561508656E0,6.589082718E0
1.284999219E1,-9.920709729E-1,2.982773304E0,6.022317410E0
1.287199219E1,-1.281558752E0,3.246192694E0,5.767086029E0
1.289399219E1,-1.508864284E0,3.567877769E0,5.761349678E0
1.291399531E1,-1.456699371E0,3.749214649E0,6.112952709E0
1.293399844E1,-1.119586229E0,3.634072542E0,6.767057896E0
1.295599062E1,-1.000738025E0,3.555542707E0,7.045532227E0
1.297599063E1,-8.713744879E-1,3.881384134E0,7.166084766E0
1.299599219E1,-9.110224843E-1,4.019845486E0,7.233362198E0
1.301599219E1,-1.290551305E0,4.138703346E0,7.606512547E0
1.303799062E1,-1.507015824E0,4.050366879E0,8.175355911E0
1.305799062E1,-1.193835258E0,3.825397968E0,9.030488014E0
1.307801094E1,-4.504929781E-1,3.609986782E0,9.242863655E0
1.309999062E1,3.118591309E-1,3.917967558E0,9.127032280E0
1.311999063E1,2.899473906E-1,4.242726326E0,9.222197533E0
1.313999063E1,-8.269955516E-1,3.846696854E0,9.409538269E0
1.315999062E1,-2.298797607E0,2.537183285E0,1.176891899E1
1.317999062E1,-2.832905769E0,1.159281969E0,1.491045570E1
1.319999219E1,-1.761826038E0,4.542087913E-1,1.558219242E1
1.322199219E1,-2.416419834E-1,1.156878248E-1,1.340303802E1
1.324400000E1,3.702585101E-1,5.591227412E-1,1.153543663E1
1.326599062E1,-4.845481217E-1,1.014586091E0,1.107420826E1
1.328599219E1,-1.528611541E0,1.535152555E0,1.138696671E1
1.330799219E1,-1.744118571E0,2.180533409E0,1.065344143E1
1.332999219E1,-1.226922989E0,2.406795263E0,9.543087006E0
1.335199063E1,-3.343263268E-1,2.084746361E0,8.600815773E0
1.337199219E1,-2.997540496E-2,1.885893583E0,8.242987633E0
1.339399219E1,-2.025398910E-1,1.715771079E0,8.343476295E0
1.341399219E1,-2.981547117E-1,1.689702988E0,8.122138023E0
1.343399219E1,-3.216562271E-1,1.868224382E0,7.509978294E0
1.345399219E1,-3.064482510E-1,2.216944695E0,6.838682652E0
1.347399219E1,-1.775444150E-1,2.415912390E0,6.240190029E0
1.349399219E1,-7.617391646E-2,2.519418478E0,6.185630798E0
1.351399688E1,-1.393138170E-1,2.673317671E0,6.661971569E0
1.353599062E1,-1.773050129E-1,2.865122080E0,7.361614704E0
1.355599219E1,-3.906475306E-1,2.901025295E0,8.494215965E0
1.357599219E1,-4.438371062E-1,2.865418911E0,9.979808807E0
1.359799219E1,-1.237993836E-1,2.829898357E0,1.080388260E1
1.361999219E1,7.819462568E-2,2.590822935E0,1.145498180E1
1.364199219E1,-2.168572098E-1,2.676056623E0,1.222464085E1
1.366399219E1,-1.086009890E-1,2.897922516E0,1.249559784E1
1.368399219E1,6.486754417E-1,3.317970991E0,1.183157063E1
1.370399219E1,1.410184860E0,3.737837076E0,1.145559502E1
1.372400781E1,1.733622313E0,3.377241611E0,1.092663860E1
1.374599219E1,1.805831432E0,2.763732433E0,1.103004837E1
1.376599219E1,1.950747728E0,2.521716833E0,1.166133308E1
1.378599219E1,2.571736574E0,2.303097725E0,1.134567165E1
1.380599219E1,2.764019728E0,1.835960031E0,1.055680180E1
1.382599219E1,2.165019035E0,1.245693564E0,1.002099800E1
1.384600000E1,9.227731824E-1,1.388972163E0,1.051660728E1
1.386799219E1,-1.941889226E-1,1.887799263E0,1.116688251E1
1.388799219E1,-3.156707287E-1,1.921164870E0,1.097401428E1
1.390999062E1,-1.055172607E-1,1.791312933E0,1.011401749E1
1.392999062E1,-2.840672433E-1,1.845613480E0,8.701342583E0
1.394999063E1,-2.169433981E-1,2.374904633E0,7.151624203E0
1.396999219E1,-1.130063273E-2,2.627847195E0,6.150761604E0
1.399199063E1,-2.005957961E-1,2.746791124E0,6.054763794E0
1.401199063E1,-2.226416022E-1,1.923176050E0,6.862394810E0
1.403199062E1,-2.932226658E-1,2.485306025E0,5.689753532E0
1.405199062E1,-8.539638519E-1,3.355358601E0,5.151086330E0
1.407199219E1,-1.342275620E0,3.226531506E0,5.980227470E0
1.409399219E1,-1.558577418E0,3.200070858E0,6.143741608E0
1.411399219E1,-8.858737946E-1,3.201248884E0,6.503207207E0
1.413399688E1,-3.454546034E-1,3.127919197E0,7.483786106E0
1.415599063E1,3.064578213E-2,2.955708981E0,8.162474632E0
1.417599219E1,-4.207253933E0,5.106879711E0,1.011461163E1
1.419799063E1,-4.613731861E0,6.009762287E0,1.062956619E1
1.421799062E1,-5.411374569E-1,3.647662163E0,9.730715752E0
1.423799062E1,1.303700328E0,2.368976355E0,1.060580540E1
1.425799063E1,1.903878808E0,3.171330929E0,1.184875107E1
1.427801094E1,2.719238698E-1,3.306928873E0,1.142858791E1
1.429999063E1,-2.475307703E0,2.139305353E0,1.125783348E1
1.431999062E1,-2.369924545E0,1.874468327E0,1.378540134E1
1.433999219E1,-1.101179600E0,1.670319557E0,1.426545811E1
1.436199219E1,-7.334110141E-1,2.312051773E0,1.172847557E1
1.438399219E1,5.094861146E-3,2.224988937E0,1.057285213E1
1.440399219E1,-4.192247391E-1,2.367329121E0,1.125657940E1
1.442399844E1,2.988538146E-1,2.631151199E0,1.182056618E1
1.444399844E1,2.851589918E-1,1.512618303E0,1.053743744E1
1.446599219E1,3.644932434E-2,1.512857795E0,8.518378258E0
1.448599219E1,4.370854497E-1,2.315020800E0,6.655804157E0
1.450599219E1,7.702051401E-1,2.750842094E0,7.642416477E0
1.452799219E1,9.723044634E-1,2.332690001E0,8.326813698E0
1.454799219E1,8.096902966E-1,2.447362661E0,7.241023540E0
1.456799219E1,1.019881964E0,2.933883429E0,6.934767246E0
1.458799219E1,1.619514704E0,2.858533144E0,7.260828495E0
1.460799219E1,1.004099488E0,2.633114338E0,7.450411320E0
1.462799219E1,3.623480499E-1,3.166877747E0,7.320884705E0
1.464999219E1,-1.750544608E-1,3.158670425E0,7.588422298E0
1.467199063E1,-2.538141310E-1,3.299842119E0,7.604386806E0
1.469199062E1,-4.773080349E-1,3.480786085E0,7.739841461E0
1.471199219E1,-8.422801495E-1,3.799837351E0,7.901143551E0
1.473199219E1,-8.917539716E-1,3.701608181E0,8.284723282E0
1.475399219E1,-1.193279624E0,3.893144369E0,9.303829193E0
1.477399219E1,-8.889383674E-1,4.012088299E0,9.954736710E0
1.479399219E1,1.544451565E-1,3.731210232E0,1.004719067E1
1.481399219E1,4.340879321E-1,3.715523243E0,1.016026497E1
1.483599219E1,3.165230453E-1,3.145578861E0,1.074931431E1
1.485599219E1,4.470549226E-1,3.932715893E0,1.193996048E1
1.487801094E1,2.316236734E0,2.153766394E0,1.264199829E1
1.489999219E1,2.321331739E0,1.558175206E0,1.252847481E1
1.492199063E1,1.427585840E0,1.462838173E0,1.161195469E1
1.494199062E1,8.486487269E-1,1.640880466E0,1.044596004E1
1.496199062E1,3.665905893E-1,1.996620655E0,1.019720173E1
1.498199063E1,-1.997721940E-2,1.863828659E0,1.029493332E1
1.500199219E1,1.389881968E-1,1.552093863E0,9.928419113E0
1.502399219E1,-6.664499640E-2,1.872687101E0,8.973917961E0
1.504400156E1,-7.897992432E-2,2.123120546E0,8.302315712E0
1.506599219E1,-5.863878727E-1,2.194621086E0,8.564729691E0
1.508599219E1,-8.920508623E-1,2.141938925E0,8.356118202E0
1.510599219E1,-9.895714521E-1,2.193797350E0,7.948251247E0
1.512599219E1,-5.595920086E-1,2.374952316E0,7.553946018E0
1.514599219E1,-3.038529456E-1,2.479540586E0,7.116276264E0
1.516599219E1,-4.447948039E-1,2.794090748E0,6.833942413E0
1.518599219E1,-5.919998884E-1,2.933376074E0,6.394414425E0
1.520599219E1,-7.921168208E-1,3.066895723E0,6.651781559E0
1.522599219E1,-6.588938832E-1,3.158267975E0,7.836633682E0
1.524599219E1,-7.159620523E-2,3.172230959E0,8.895331383E0
1.526799063E1,7.857961655E-1,3.265135765E0,9.308493614E0
1.528799062E1,7.298388481E-1,3.299449444E0,9.730763435E0
1.530799219E1,3.967192173E-1,3.346346855E0,1.017477322E1
1.532999219E1,5.134891868E-1,3.230228186E0,1.051540184E1
1.535199063E1,2.104503363E-1,2.979162693E0,1.101812553E1
1.537199062E1,5.381112099E-1,2.964500427E0,1.179188347E1
1.539199063E1,1.254561663E0,2.848295689E0,1.212313557E1
1.541199063E1,2.002490997E0,2.134689569E0,1.314472294E1
1.543199219E1,1.343932509E0,1.116933346E0,1.444258118E1
1.545399219E1,9.854534268E-2,4.190427661E-1,1.480206585E1
1.547399219E1,-1.199466348E0,7.037899494E-1,1.293496227E1
1.549399219E1,-5.293483734E-1,1.097521186E0,1.102268410E1
1.551399844E1,1.436961532E0,1.318381548E0,1.015319633E1
1.553599219E1,1.745210171E0,1.172574759E0,1.034535503E1
1.555599219E1,7.014053464E-1,6.651570797E-1,9.628463745E0
1.557599219E1,-4.215135872E-1,8.444061875E-1,8.631681442E0
1.559599219E1,-7.405648828E-1,1.062450886E0,7.499137878E0
1.561599219E1,-6.022087336E-1,1.045930862E0,7.896431446E0
1.563599219E1,-5.181052722E-3,1.056771874E0,8.194490433E0
1.565799219E1,1.967842281E-1,1.115448952E0,7.732390404E0
1.567801094E1,2.398894280E-1,1.117306828E0,7.068354130E0
1.569999219E1,2.493417412E-1,1.316293836E0,7.168527126E0
1.572199219E1,3.859548867E-1,1.347887754E0,7.642215252E0
1.574399219E1,6.897982359E-1,1.478323698E0,7.722373009E0
1.576399531E1,8.311327696E-1,1.757573843E0,7.780417919E0
1.578399688E1,8.579765558E-1,2.048747063E0,7.951335430E0
1.580599219E1,7.923466563E-1,2.209206581E0,8.090822220E0
1.582599219E1,9.734728336E-1,2.329567909E0,8.559491158E0
1.584599219E1,1.125772834E0,2.173561811E0,9.473280907E0
1.586599219E1,1.576198697E0,1.997434616E0,1.061709690E1
1.588599219E1,1.905803680E0,1.917113900E0,1.140147591E1
1.590799063E1,1.509410143E0,1.940931439E0,1.204571724E1
1.592799063E1,8.908632994E-1,2.137648582E0,1.164946651E1
1.594799219E1,8.752531409E-1,2.545122623E0,1.129952145E1
1.596999219E1,2.546903849E0,2.193548441E0,1.218711948E1
1.598999219E1,3.624141455E0,1.137648106E0,1.377147675E1
1.601199219E1,2.776823997E0,2.286749929E-1,1.381245613E1
1.603399219E1,1.108113170E0,6.338888407E-1,1.193230820E1
1.605599219E1,1.251621604E0,1.231117725E0,1.046317863E1
1.607599219E1,2.476753712E0,1.641512632E0,1.019259548E1
1.609799219E1,3.038902760E0,1.672091365E0,1.037593365E1
1.611799219E1,2.183397055E0,1.763032675E0,9.836223602E0
1.613799219E1,8.108012080E-1,1.904960990E0,9.289694786E0
1.615799219E1,4.914529920E-1,1.735508919E0,9.054889679E0
1.617801094E1,5.073313117E-1,1.634866238E0,8.732074738E0
1.619999219E1,7.390900850E-1,1.645707130E0,7.483527184E0
1.622199219E1,8.891777992E-1,1.917583108E0,6.466116428E0
1.624399844E1,5.078389049E-1,2.265977859E0,6.152993202E0
1.626599062E1,3.088807464E-1,2.284863234E0,5.717257977E0
1.628599219E1,4.028483927E-1,2.708914757E0,5.608216286E0
1.630599219E1,6.260933280E-1,2.956063509E0,6.367331505E0
1.632599219E1,7.731164694E-1,2.936986446E0,7.450161934E0
1.634599219E1,8.368501067E-1,2.988231897E0,8.285260201E0
1.636599219E1,7.555908561E-1,3.145444870E0,9.113432884E0
1.638599219E1,7.027556896E-1,3.296815634E0,9.753709793E0
1.640799062E1,5.643803477E-1,3.400274038E0,1.060264587E1
1.642799062E1,6.184223294E-1,3.299842119E0,1.140658951E1
1.644799219E1,1.050738573E0,3.126789093E0,1.179142380E1
1.646999219E1,1.308431268E0,3.163698196E0,1.133986855E1
1.649199062E1,1.107174635E0,3.484913826E0,1.095119381E1
1.651199219E1,1.083845615E0,2.981834412E0,1.170046425E1
1.653399219E1,1.226530433E0,2.010688782E0,1.310896301E1
1.655599219E1,6.681067348E-1,1.195530295E0,1.356519222E1
1.657599219E1,-3.406565785E-1,1.032216907E0,1.223214817E1
1.659799219E1,-4.463941157E-1,1.603176594E0,1.062322617E1
1.661999219E1,9.488030076E-1,1.820799947E0,9.831224442E0
1.664199219E1,1.987120390E0,1.690411687E0,1.044245434E1
1.666199219E1,1.774237514E0,1.206993699E0,1.059202576E1
1.668400000E1,6.188819408E-1,1.171923518E0,9.258511543E0
1.670599219E1,-3.858016729E-1,1.369847298E0,8.523215294E0
1.672599219E1,-4.990186691E-1,1.295263052E0,8.126140594E0
1.674599219E1,-9.452308714E-2,1.205940127E0,7.527667046E0
1.676599219E1,1.849472970E-1,1.401086807E0,6.750422955E0
1.678599375E1,1.641177386E-1,1.601500630E0,6.558321953E0
1.680799219E1,-1.799769253E-1,1.611891508E0,6.824288845E0
1.682999219E1,-3.475327492E-1,1.636503935E0,6.861877918E0
1.684999219E1,-1.294592768E-1,1.655035019E0,6.842800617E0
1.687199219E1,-2.258306891E-1,1.948497057E0,7.005884171E0
1.689399062E1,-7.655507922E-1,2.306726933E0,7.288380623E0
1.691399219E1,-9.616550207E-1,2.555092096E0,7.498831272E0
1.693399844E1,-8.240363002E-1,2.712649584E0,8.174292564E0
1.695599063E1,-7.928925753E-1,2.833585739E0,9.837449074E0
1.697599062E1,-5.747328997E-1,2.541560173E0,1.131126308E1
1.699599219E1,-1.670961231E-1,2.113629818E0,1.208579636E1
1.701799219E1,2.978674173E-1,2.017325640E0,1.242181778E1
1.703999062E1,9.691728279E-3,2.217184067E0,1.243349075E1
1.705999062E1,-1.992263198E-1,2.355942488E0,1.244034863E1
1.707999062E1,4.824316502E-1,2.167145252E0,1.229004955E1
1.709999219E1,1.799673557E0,1.517310858E0,1.241083336E1
1.711999219E1,2.097895145E0,7.075824142E-1,1.268491077E1
1.714199219E1,5.343571305E-1,4.153844416E-1,1.293999863E1
1.716399062E1,-5.252304077E-1,4.537203610E-1,1.300417423E1
1.718399219E1,8.126877993E-2,7.587608099E-1,1.252628136E1
1.720599219E1,9.115204215E-1,1.253010273E0,1.136036205E1
1.722799219E1,7.392241359E-1,1.632835984E0,9.919905663E0
1.724799219E1,4.053862393E-2,1.883575916E0,8.696162224E0
1.726999219E1,-3.488351703E-1,1.777953386E0,8.157936096E0
1.729199219E1,-7.275021076E-1,1.781276464E0,8.576786995E0
1.731399844E1,-1.234986663E0,1.689166784E0,8.036186218E0
1.733599062E1,-1.611096621E0,1.866375923E0,7.080717087E0
1.735599219E1,-1.178971887E0,2.144783497E0,6.493764877E0
1.737801094E1,-8.573253155E-1,2.391280651E0,6.232806206E0
1.739999062E1,-9.518675804E-1,2.376618624E0,6.371076107E0
1.741999062E1,-1.238836527E0,2.366802454E0,6.803219795E0
1.743999062E1,-1.347753525E0,2.288138628E0,7.424515247E0
1.745999062E1,-1.169347286E0,2.222642899E0,8.153166771E0
1.747999219E1,-8.464364409E-1,2.265278816E0,8.566261292E0
1.750199219E1,-8.423567414E-1,2.505110502E0,8.920373917E0
1.752399219E1,-8.762778044E-1,2.592393875E0,9.531537056E0
1.754399219E1,-7.405361533E-1,2.506777048E0,1.043101978E1
1.756599219E1,1.188290194E-1,2.141019821E0,1.170896816E1
1.758799219E1,7.402105927E-1,1.824142337E0,1.300096607E1
1.760999063E1,-1.422251612E-1,2.278197765E0,1.336755562E1
1.762999062E1,-1.095615506E0,2.659297466E0,1.262417603E1
1.764999062E1,-1.188740373E0,2.780597210E0,1.181017590E1
1.766999062E1,-4.879478812E-1,2.726871252E0,1.159295368E1
1.768999219E1,6.578404307E-1,2.027802706E0,1.174824238E1
1.771199063E1,9.551140666E-1,1.266235828E0,1.159150887E1
1.773199219E1,6.423355937E-1,9.592991471E-1,1.092993259E1
1.775399219E1,2.490927428E-1,7.686919570E-1,1.024529648E1
1.777399219E1,8.621999621E-2,9.017329812E-1,1.039029884E1
1.779399219E1,4.109311998E-1,5.738326907E-1,1.036257458E1
1.781399219E1,4.984919429E-1,4.180659056E-1,9.279273987E0
1.783399219E1,1.279269904E-1,5.721567273E-1,7.818591118E0
1.785399219E1,-2.522530966E-2,7.952771783E-1,6.882966042E0
1.787599062E1,2.280908078E-1,8.877316713E-1,6.749733448E0
1.789599062E1,4.396807849E-1,9.663764238E-1,7.081981659E0
1.791599219E1,6.392710209E-1,8.321670294E-1,7.608265400E0
1.793799062E1,1.160929203E0,6.727898717E-1,7.833904743E0
1.795799219E1,1.151572704E0,9.278681278E-1,7.938607693E0
1.797801094E1,1.070074081E0,1.198374510E0,8.105933189E0
1.799999063E1,1.487134457E0,1.302091479E0,7.998319149E0
1.801999063E1,1.757947445E0,1.763434887E0,8.074138641E0
1.803999062E1,1.789675236E0,2.148575783E0,9.036913872E0
1.805999219E1,1.896332264E0,2.217164755E0,1.038202477E1
1.808199062E1,2.324798584E0,2.033194304E0,1.168127155E1
1.810199063E1,2.842463493E0,1.970581174E0,1.266607380E1
1.812199063E1,2.623250246E0,2.230601072E0,1.291978359E1
1.814199219E1,2.306468487E0,2.230715990E0,1.287689781E1
1.816199219E1,2.429291010E0,1.808646917E0,1.323148823E1
1.818399219E1,2.196392775E0,6.652815938E-1,1.444276237E1
1.820599219E1,1.727971911E0,-1.293730736E-1,1.454512024E1
1.822799219E1,2.011943579E0,-4.427357912E-1,1.295567703E1
1.824799219E1,2.062336683E0,2.068973333E-1,1.117362404E1
1.826999219E1,1.890461683E0,6.256335974E-1,1.035270023E1
1.829199219E1,1.556815267E0,6.963296533E-1,1.073012161E1
1.831399219E1,9.534190297E-1,8.355093598E-1,1.064023399E1
1.833399219E1,4.587098956E-1,6.615371108E-1,9.695358276E0
1.835399844E1,-2.738966607E-3,1.023626566E0,8.813142776E0
1.837599219E1,7.219954580E-2,1.049148798E0,8.231169701E0
1.839799063E1,2.351106107E-1,1.253364682E0,8.200361252E0
1.841799062E1,4.410215020E-1,1.145625472E0,7.487281799E0
1.843799062E1,1.603157520E-1,1.448492050E0,6.452603340E0
1.845799219E1,2.715216279E-1,1.753005743E0,6.250140190E0
1.847801094E1,-7.489062846E-3,1.908140540E0,6.369505405E0
1.849999063E1,1.865083128E-1,2.148930073E0,6.407736301E0
1.851999063E1,1.415930986E-1,2.307244301E0,6.669939518E0
1.853999062E1,4.571776092E-1,2.416257143E0,7.519469261E0
1.855999219E1,8.701103330E-1,2.025226355E0,6.622581959E0
1.858199219E1,3.422271907E-1,3.092504263E0,7.761188030E0
1.860400625E1,4.139958024E-1,2.936383009E0,9.467430115E0
1.862599062E1,1.093891621E0,3.329070330E0,9.874932289E0
1.864599844E1,1.807430744E0,3.439519882E0,1.027730274E1
1.866799219E1,1.464111805E0,3.388733864E0,1.058933353E1
1.868799219E1,6.079548597E-1,3.328189373E0,1.073446083E1
1.870999062E1,5.915880799E-1,2.693505526E0,1.156775761E1
1.872999219E1,7.894161940E-1,1.656596065E0,1.247812843E1
1.875199062E1,4.191193879E-1,1.005957365E0,1.281907368E1
1.877199219E1,1.617043763E-1,5.121101737E-1,1.244322205E1
1.879199219E1,3.928789496E-1,3.832350671E-1,1.188999844E1
1.881399219E1,8.241416812E-1,8.239405751E-1,1.167483616E1
1.883399219E1,1.076078773E0,8.836328387E-1,1.098463535E1
1.885399219E1,8.502097726E-1,9.029779434E-1,1.051883888E1
1.887399219E1,3.538151383E-1,9.232425094E-1,1.078433704E1
1.889399219E1,9.879434109E-2,1.022956133E0,1.075287724E1
1.891599219E1,4.031356871E-1,9.083409309E-1,1.011842251E1
1.893599219E1,7.242938876E-2,1.059376836E0,1.008255768E1
1.895799219E1,-1.137437373E-1,1.095213294E0,9.373204231E0
1.897801094E1,-1.912488192E-1,1.416582108E0,8.578042030E0
1.899999063E1,-9.149681032E-2,1.915734887E0,8.151480675E0
1.901999063E1,4.607018828E-1,1.910295248E0,7.617219925E0
1.903999062E1,4.071387947E-1,2.005900621E0,7.312093258E0
1.905999219E1,-1.782530993E-1,2.385036707E0,7.301395893E0
1.908199219E1,-2.814432085E-1,2.524867773E0,7.425261974E0
1.910399219E1,-2.061599344E-1,2.603828430E0,7.598621368E0
1.912399219E1,-4.243195653E-1,2.521477461E0,7.667536259E0
1.914399375E1,-8.684535623E-1,2.478812695E0,7.778119564E0
1.916599063E1,-9.006795287E-1,2.560187101E0,8.220012665E0
1.918599063E1,-4.872391820E-1,2.488083363E0,8.998798370E0
1.920599219E1,-1.132170111E-1,2.377365828E0,9.697301865E0
1.922799219E1,2.026356459E-1,2.009807825E0,1.043883419E1
1.924799219E1,-4.765418917E-2,2.084813595E0,1.110325432E1
1.926999219E1,4.369992614E-1,1.932187915E0,1.199485493E1
1.929199219E1,1.122267723E0,1.533830881E0,1.237143326E1
1.931399531E1,8.198225498E-1,1.369808912E0,1.250525951E1
1.933599062E1,-5.937620252E-2,1.197005153E0,1.248298454E1
1.935599219E1,-3.092063665E-1,1.184229612E0,1.197190952E1
1.937801094E1,5.377185941E-1,1.227746606E0,1.145141888E1
1.939999219E1,1.490974784E0,1.456622720E0,1.117282867E1
1.942199063E1,1.160191894E0,1.863905191E0,1.063853073E1
1.944199219E1,4.181808531E-1,1.858245254E0,9.720295906E0
1.946400156E1,5.167644843E-2,1.903639436E0,8.544771194E0
1.948599219E1,-7.654741406E-2,2.079201460E0,8.255168915E0
1.950599219E1,-3.375154138E-1,2.229356289E0,8.289052010E0
1.952799062E1,-5.967116952E-1,2.315805912E0,7.771894455E0
1.954799219E1,-8.848969936E-1,2.522090435E0,7.230297565E0
1.956999063E1,-9.330012202E-1,2.726899862E0,7.130555153E0
1.958999063E1,-7.109725475E-1,2.678364754E0,7.191434860E0
1.960999063E1,-5.205664635E-1,2.770847797E0,7.065452099E0
1.962999219E1,-6.391560435E-1,2.938327074E0,7.003653049E0
1.964999219E1,-8.840158582E-1,3.153853178E0,7.366747856E0
1.967199063E1,-5.763514042E-1,3.349143267E0,7.822776318E0
1.969199063E1,-4.137851000E-1,3.531418800E0,8.420062065E0
1.971199063E1,-6.643813848E-1,3.597977638E0,9.058089256E0
1.973199062E1,-1.117153645E0,3.542077780E0,9.667393684E0
1.975199062E1,-1.307435155E0,3.481600285E0,1.061914635E1
1.977199062E1,-6.465781331E-1,3.450083017E0,1.104052639E1
1.979199219E1,-3.654509485E-1,3.769747019E0,1.136491108E1
1.981399219E1,-7.411682010E-1,4.033626556E0,1.156351566E1
1.983399219E1,-6.980342865E-1,3.152579308E0,1.201695824E1
1.985599219E1,-1.054665089E0,2.674438238E0,1.165182304E1
1.987801094E1,-1.706481576E0,2.624495029E0,1.100293636E1
1.989999219E1,-2.272978544E0,2.463528395E0,1.110604095E1
1.991999219E1,-1.626103520E0,1.869651198E0,1.136279488E1
1.994199219E1,-4.346433580E-1,1.684129357E0,1.121911430E1
1.996199219E1,4.104619101E-2,1.613912225E0,1.020671177E1
1.998199219E1,-1.840662211E-1,1.558194280E0,9.919053078E0
2.000199219E1,-3.798831999E-1,1.449152827E0,9.430559158E0
2.002399219E1,-8.187882900E-1,1.584061265E0,9.090391159E0
2.004400469E1,-8.988791108E-1,1.491654634E0,8.293888092E0
2.006599219E1,-6.394912601E-1,1.546319127E0,7.246578217E0
2.008599219E1,-1.621640623E-1,1.884648561E0,6.844409466E0
2.010599219E1,3.901591152E-2,1.797863483E0,6.843940258E0
2.012799063E1,-1.852346063E-1,1.856416106E0,7.022911549E0
2.014799219E1,-4.013926983E-1,2.019623995E0,6.964071751E0
2.016799219E1,-2.722303271E-1,2.485574007E0,6.974816799E0
2.018999219E1,-7.371268421E-2,2.969681740E0,7.261929512E0
2.021199063E1,6.081271917E-3,3.074729443E0,7.141137600E0
2.023199062E1,9.615113959E-3,3.222787142E0,7.464699745E0
2.025199062E1,-1.553358044E-2,3.380258560E0,8.190822601E0
2.027199062E1,-1.552208811E-1,3.508999586E0,9.094653130E0
2.029199062E1,-3.452343047E-1,3.522397518E0,9.803604126E0
2.031199062E1,-4.283992946E-1,3.710715771E0,1.043604755E1
2.033199062E1,-2.854558825E-1,3.715695858E0,1.097767353E1
2.035199063E1,-2.871413827E-1,3.757536888E0,1.152697945E1
2.037199219E1,-3.022440076E-1,3.676153183E0,1.156048965E1
2.039399219E1,-2.629695535E-1,3.632616997E0,1.095747566E1
2.041399219E1,3.858112395E-1,3.706147671E0,1.132053185E1
2.043399219E1,1.208947420E0,3.176090479E0,1.243605900E1
2.045599219E1,1.489413738E0,2.127162218E0,1.300689316E1
2.047801094E1,7.211623192E-1,1.600993037E0,1.225940418E1
2.049999063E1,3.399766516E-3,1.531695366E0,1.121424866E1
2.051999063E1,4.399201870E-1,1.541942477E0,1.052328205E1
2.053999062E1,1.673364997E0,1.443665266E0,1.039154434E1
2.055999219E1,2.101572752E0,1.568345785E0,9.823744774E0
2.058199219E1,1.387755871E0,1.978597045E0,8.745453835E0
2.060199219E1,4.403224289E-1,2.267663240E0,7.741545677E0
2.062199219E1,-1.013417691E-1,2.424655914E0,7.649033546E0
2.064399375E1,-2.193854898E-1,2.431714058E0,8.282692909E0
2.066599063E1,-2.922458351E-1,2.346403837E0,8.776741028E0
2.068599844E1,-4.473518133E-1,2.390131474E0,7.977863312E0
2.070799219E1,-1.524053067E-1,2.779467106E0,6.956084728E0
2.072799375E1,3.630663157E-1,3.163353205E0,6.653458118E0
2.074999063E1,4.935407341E-1,3.224961042E0,7.029433727E0
2.076999063E1,-3.583640978E-2,3.213267565E0,7.112732887E0
2.078999062E1,-3.846045434E-1,3.237286329E0,7.073688030E0
2.080999062E1,-3.177680373E-1,3.322807074E0,7.598515987E0
2.082999219E1,-4.834371805E-2,3.373966455E0,8.470360756E0
2.084999219E1,2.227469534E-1,3.380411625E0,8.903557777E0
2.087199219E1,2.115133554E-1,3.610638142E0,8.607538223E0
2.089399219E1,1.693179458E-2,3.823358059E0,8.824184418E0
2.091599219E1,-1.450503021E-1,4.110374928E0,1.016044617E1
2.093599219E1,2.494758219E-1,3.931288719E0,1.116855812E1
2.095799219E1,5.773282647E-1,4.143577576E0,1.136666393E1
2.097801094E1,5.137094855E-1,4.378219128E0,1.130421352E1
2.099999063E1,5.648113489E-1,3.658330679E0,1.222447777E1
2.101999063E1,3.417483568E-1,2.909213543E0,1.355958939E1
2.103999062E1,1.717121452E-1,2.216695547E0,1.388144684E1
2.105999219E1,-6.222817302E-1,2.028147459E0,1.209402275E1
2.108199219E1,-1.416170239E0,2.256171227E0,1.031573391E1
2.110399688E1,-1.013130426E0,2.502658844E0,9.773887634E0
2.112599219E1,3.612467349E-1,2.304399967E0,9.979942322E0
2.114599219E1,1.417290807E0,2.016023159E0,1.041432762E1
2.116599219E1,1.229604483E0,1.617723703E0,1.004007530E1
2.118599219E1,3.087849617E-1,1.469139695E0,9.161652565E0
2.120599219E1,-2.836363018E-1,1.734848142E0,8.336859703E0
2.122799062E1,-1.894196570E-1,1.951762795E0,8.406655312E0
2.124799219E1,1.107653528E-1,2.000796080E0,8.423337936E0
2.126999219E1,4.336952865E-1,2.113831043E0,8.037220001E0
2.129199219E1,3.885789514E-1,2.192418575E0,7.417428017E0
2.131399219E1,1.984984726E-1,2.524561167E0,6.922403336E0
2.133399219E1,4.526573420E-1,2.575040579E0,6.671826363E0
2.135599219E1,9.298887849E-1,2.744741440E0,7.474017620E0
2.137801094E1,7.405456901E-1,2.721805096E0,8.363655090E0
2.139999219E1,6.243311763E-1,2.701780081E0,8.524918556E0
2.142199063E1,3.559603393E-1,2.677828312E0,8.500182152E0
2.144199219E1,3.479828537E-1,3.301470041E0,8.286523819E0
2.146399219E1,6.009350419E-1,3.318880558E0,8.491131783E0
2.148599219E1,1.380266905E0,3.273237467E0,9.415973663E0
2.150599219E1,2.042225361E0,2.930924416E0,1.017337513E1
2.152599219E1,2.209953547E0,2.407341003E0,1.071358299E1
2.154599219E1,1.136824489E0,2.349487543E0,1.053971672E1
2.156599219E1,2.449364215E-1,2.615243912E0,1.024033546E1
2.158799219E1,8.236916065E-1,2.264972210E0,1.061171532E1
2.160999063E1,2.845058680E0,8.738070130E-1,1.213237762E1
2.162999219E1,2.324702978E0,-1.516583115E-1,1.397898769E1
2.165199219E1,5.279597640E-1,-4.256411791E-1,1.385441208E1
2.167399219E1,6.424601078E-1,-1.281664073E-1,1.218538570E1
2.169399219E1,1.834073305E0,7.321277261E-1,1.134457970E1
2.171399219E1,3.098106623E0,1.150988579E0,1.062655830E1
2.173399219E1,3.334012032E0,1.002538443E0,1.022122097E1
2.175399531E1,1.908293724E0,8.998176455E-1,9.282464027E0
2.177599219E1,6.420770288E-1,1.165612340E0,8.171017647E0
2.179799062E1,3.621757030E-1,1.649489999E0,8.274379730E0
2.181799219E1,6.648410559E-1,1.794827580E0,8.213816643E0
2.183999219E1,7.968860865E-1,2.144065142E0,8.081033707E0
2.186199219E1,4.883309603E-1,2.300157547E0,8.617689133E0
2.188399063E1,1.313937902E-1,2.073292494E0,8.954965591E0
2.190399531E1,-5.290419459E-1,2.077362537E0,8.929165840E0
2.192599219E1,-1.043689966E0,2.405406475E0,8.891749382E0
2.194599219E1,-6.535404921E-1,2.482030630E0,8.753623009E0
2.196599219E1,-3.263967335E-1,2.523411751E0,8.615678787E0
2.198599219E1,-5.330929756E-1,2.441089869E0,8.383852959E0
2.200599219E1,-8.596907854E-1,2.530345678E0,8.397882462E0
2.202799219E1,-1.010324359E0,2.436406851E0,9.442051888E0
2.204999219E1,-9.420321584E-1,2.262415171E0,1.072209644E1
2.207199219E1,-4.616020918E-1,2.094275236E0,1.114171505E1
2.209199219E1,-3.571574390E-1,2.234307289E0,1.083178043E1
2.211399219E1,-5.818484426E-1,2.245186567E0,1.065856457E1
2.213399219E1,-5.084230900E-1,1.872351885E0,1.100922871E1
2.215399219E1,-1.590611935E-1,1.354849935E0,1.184241104E1
2.217399219E1,-3.178159297E-1,9.297738671E-1,1.218049145E1
2.219399219E1,-1.010372281E0,7.689888477E-1,1.178467274E1
2.221399219E1,-1.141651154E0,9.304633737E-1,1.129974079E1
2.223399219E1,-5.793777108E-1,1.066425323E0,1.145247269E1
2.225399219E1,2.257444859E-1,1.092397571E0,1.199315071E1
2.227599219E1,3.816070259E-1,8.942822218E-1,1.190603924E1
2.229799062E1,-3.742616251E-2,9.569624066E-1,1.058197880E1
2.231799219E1,-1.706778556E-1,1.165459156E0,9.305898666E0
2.233999219E1,-1.969566047E-1,1.411228657E0,8.383737564E0
2.235999219E1,1.398980021E-1,1.561804771E0,7.932823181E0
2.237999219E1,2.793075442E-1,1.872572184E0,7.912644863E0
2.240199062E1,2.131605744E-1,2.025829792E0,8.017712593E0
2.242199063E1,-5.363012105E-2,2.124806166E0,7.819185257E0
2.244199063E1,-2.238004059E-1,2.220018864E0,7.552193165E0
2.246199063E1,-2.517742515E-1,2.505896091E0,7.387491226E0
2.248199062E1,-3.284270167E-1,2.829802752E0,7.616156578E0
2.250199219E1,-4.479551315E-1,2.906857729E0,8.161440849E0
2.252399062E1,-8.183093667E-1,2.898152351E0,8.589552879E0
2.254399375E1,-1.232094526E0,2.933529139E0,8.670065880E0
2.256599219E1,-1.457197428E0,3.017383814E0,8.897993088E0
2.258599219E1,-1.365968585E0,3.081644058E0,9.118614197E0
2.260599219E1,-1.157721043E0,3.052482605E0,9.585359573E0
2.262799063E1,-8.603132963E-1,2.911301374E0,1.020008469E1
2.264799688E1,-5.115738511E-1,2.592575788E0,1.090102005E1
2.266999062E1,-5.685366988E-1,2.615665197E0,1.107821083E1
2.268999219E1,-5.462322831E-1,2.692758560E0,1.082708836E1
2.271199063E1,5.881692171E-1,2.210192919E0,1.099337864E1
2.273199219E1,2.313019037E0,1.248767734E0,1.193916607E1
2.275399219E1,2.708656311E0,5.599846244E-1,1.280535984E1
2.277399219E1,1.743371487E0,3.683527112E-1,1.319518280E1
2.279399219E1,1.318429470E0,3.613329232E-1,1.259061813E1
2.281400313E1,1.976087928E0,5.580117702E-1,1.142994690E1
2.283599062E1,2.563203573E0,1.170697689E0,1.017552948E1
2.285599219E1,2.282191515E0,1.524905443E0,9.217666626E0
2.287801094E1,4.327567518E-1,2.136690855E0,8.571806908E0
2.289999062E1,-1.252617598E0,2.535306454E0,8.594944000E0
2.291999219E1,-1.777168036E0,2.367961168E0,8.581594467E0
2.294199219E1,-1.612791777E0,2.252570391E0,8.083313942E0
2.296399531E1,-1.270037889E0,2.254169703E0,7.783626556E0
2.298599063E1,-1.094887614E0,2.349506855E0,7.494320869E0
2.300599219E1,-1.275783896E0,2.420451641E0,7.441504478E0
2.302799219E1,-1.451700330E0,2.568920851E0,7.640175343E0
2.304799219E1,-1.139266491E0,2.731611729E0,7.646275997E0
2.306999219E1,-9.198810458E-1,2.799568892E0,7.193618774E0
2.309199062E1,-7.491170168E-1,3.170143366E0,7.324677467E0
2.311199062E1,-6.729526520E-1,3.224108696E0,8.198800087E0
2.313199062E1,-5.342517495E-1,3.208555937E0,8.793903351E0
2.315199219E1,-5.537980199E-1,3.263316154E0,9.189683914E0
2.317399219E1,-6.150320768E-1,3.358633995E0,1.000670052E1
2.319399219E1,-6.310445666E-1,3.251297235E0,1.078066921E1
2.321599219E1,-4.657297134E-1,3.350053310E0,1.047645187E1
2.323799063E1,2.197302580E-1,3.260146141E0,1.022761822E1
2.325799062E1,-1.269214153E-1,3.988586903E0,9.859188080E0
2.327801094E1,7.335355282E-1,3.381790876E0,1.133946609E1
2.329999063E1,8.402019739E-1,2.620951653E0,1.322461224E1
2.331999063E1,2.643390298E-1,2.121837378E0,1.223724461E1
2.333999219E1,-5.112961531E-1,2.172077179E0,1.124361134E1
2.336199219E1,-1.425507665E-1,2.225486994E0,1.101341438E1
2.338399219E1,8.461874723E-1,2.046343327E0,1.208116150E1
2.340400000E1,6.337260008E-1,1.982073307E0,1.189461422E1
2.342599219E1,-2.192418426E-1,1.888785720E0,9.919130325E0
2.344599688E1,-5.339739919E-1,1.758924246E0,8.016362190E0
2.346799219E1,-4.400351346E-1,1.634866238E0,8.009716034E0
2.348999062E1,-1.809058785E-1,1.433456421E0,9.575389862E0
2.350999062E1,1.721335351E-1,1.265354753E0,9.802513123E0
2.352999062E1,4.016321003E-1,1.440275192E0,8.602347374E0
2.354999219E1,7.169293165E-1,1.618920922E0,6.872354984E0
2.357199062E1,8.329906464E-1,2.163467884E0,6.491322041E0
2.359199062E1,5.772420168E-1,2.333868027E0,7.274389267E0
2.361199062E1,3.887321651E-1,2.288617373E0,7.806984425E0
2.363199062E1,4.521402121E-1,2.429999828E0,7.131675720E0
2.365199219E1,5.000721216E-1,2.922611475E0,6.732389450E0
2.367399219E1,5.851333141E-1,3.016349316E0,7.147697926E0
2.369399219E1,3.689464629E-1,3.082371712E0,7.758879662E0
2.371599219E1,1.094245911E-1,3.111169338E0,8.560755730E0
2.373799219E1,4.492001235E-1,3.063907623E0,9.421240807E0
2.375999219E1,1.282966495E0,2.921720982E0,1.013635063E1
2.378199063E1,1.337966084E0,3.066091299E0,1.035243225E1
2.380199063E1,9.210110903E-1,3.371792555E0,1.025651073E1
2.382199062E1,9.152650237E-1,3.399641752E0,1.038727283E1
2.384199062E1,1.950230479E0,2.993422508E0,1.115398216E1
2.386199219E1,2.765532732E0,2.054943323E0,1.238072395E1
2.388402344E1,2.580288649E0,1.042933464E0,1.364707375E1
2.390599062E1,2.314072609E0,5.038357973E-1,1.372793198E1
2.392599219E1,2.221550941E0,4.299699068E-1,1.367971230E1
2.394599688E1,2.979239225E0,2.702479362E-1,1.291193008E1
2.396799063E1,3.418785810E0,5.318288207E-1,1.127218819E1
2.398799063E1,2.589520693E0,7.377589345E-1,9.607242584E0
2.400799062E1,1.321666360E0,1.030598521E0,8.402010918E0
2.402799219E1,2.458366305E-1,1.396997571E0,7.840340137E0
2.404799219E1,-3.384826779E-1,1.523105025E0,7.655220509E0
2.406999219E1,-4.486351013E-1,1.584856153E0,7.213844776E0
2.408999219E1,-2.625194490E-1,1.772753119E0,6.947417736E0
2.410999219E1,-2.034688443E-1,1.873079658E0,7.389856815E0
2.412999219E1,-3.179787397E-1,1.914662242E0,7.761829376E0
2.415199219E1,-5.051861405E-1,1.915083647E0,7.256873131E0
2.417399219E1,-7.591630220E-1,2.096334219E0,6.552326679E0
2.419399219E1,-1.035808206E0,2.331205606E0,6.628624916E0
2.421399844E1,-1.066530585E0,2.570146799E0,7.252611160E0
2.423599063E1,-7.691133618E-1,2.730328321E0,8.179110527E0
2.425599219E1,-6.507152915E-1,2.830176353E0,8.977854729E0
2.427599219E1,-8.789401650E-1,2.932399273E0,9.405995369E0
2.429599219E1,-1.224931002E0,3.224779129E0,9.755250931E0
2.431799219E1,-8.976436853E-1,3.394451141E0,1.013518238E1
2.433999219E1,-6.010116339E-1,3.262109280E0,1.084689236E1
2.436199219E1,-5.654338598E-1,3.073417425E0,1.151024914E1
2.438399219E1,-6.284300983E-2,3.198164940E0,1.166354465E1
2.440399219E1,1.417750567E-1,3.518260241E0,1.185169983E1
2.442399375E1,6.255857348E-1,3.256593227E0,1.220584202E1
2.444399844E1,1.026710272E0,2.516899586E0,1.277310467E1
2.446599219E1,1.259838462E0,1.327163458E0,1.331697178E1
2.448799063E1,9.855970740E-1,1.519647688E-1,1.324648666E1
2.450799062E1,3.844608963E-1,4.955997318E-2,1.221038055E1
2.452799219E1,4.538448751E-1,5.412715673E-1,1.061552620E1
2.454799219E1,1.274768829E0,9.810097814E-1,9.480080605E0
2.456799219E1,2.611700535E0,8.884978294E-1,9.435347557E0
2.458799219E1,2.890040874E0,6.306710243E-1,1.024820805E1
2.460799219E1,1.537996769E0,3.869987428E-1,1.117880535E1
2.462799219E1,1.688199490E-1,4.084125161E-1,1.095576191E1
2.464999219E1,3.409343213E-2,6.630406380E-1,9.674862862E0
2.467199063E1,7.940418124E-1,1.005583882E0,8.127137184E0
2.469199063E1,9.171324968E-1,1.205844522E0,7.095513821E0
2.471199063E1,6.128390431E-1,1.400579214E0,6.762719631E0
2.473199219E1,4.235246778E-1,1.578085303E0,7.135113716E0
2.475399219E1,4.343560934E-1,1.769621491E0,7.643326283E0
2.477399375E1,5.439913273E-1,1.961875796E0,7.424266338E0
2.479599062E1,4.960498512E-1,2.432441950E0,6.634907722E0
2.481599062E1,5.910326242E-1,2.603234529E0,6.446091175E0
2.483599062E1,1.879927218E-1,2.690536976E0,7.150388718E0
2.485599219E1,-2.325152904E-1,2.547938347E0,7.932239056E0
2.487801094E1,-4.118984640E-1,2.598216295E0,8.124493599E0
2.489999062E1,-5.084230900E-1,2.653359652E0,8.870709419E0
2.491999219E1,-2.815772593E-1,2.622838497E0,1.034981823E1
2.494199219E1,3.596665561E-1,2.463825226E0,1.170215893E1
2.496399219E1,7.732026577E-1,2.198030233E0,1.209838963E1
2.498400000E1,6.401233673E-1,2.014012098E0,1.235535431E1
2.500400156E1,5.692645311E-1,1.808953524E0,1.251521969E1
2.502599063E1,2.104896069E0,1.057949781E0,1.315500736E1
2.504600000E1,3.021003723E0,3.501280770E-2,1.491623020E1
2.506799062E1,2.199265957E0,-1.090415120E0,1.660076141E1
2.508799219E1,1.534712076E0,-1.339163184E0,1.493066311E1
2.510799219E1,1.839015007E0,-5.712469220E-1,1.199879074E1
2.512999062E1,2.562992811E0,2.769804001E-1,9.104660988E0
2.514999062E1,2.255462408E0,7.712202668E-1,7.927326202E0
2.516999062E1,1.081221461E0,8.763448596E-1,8.002092361E0
2.518999219E1,-6.929777563E-2,7.444052100E-1,8.830524445E0
2.521199063E1,-8.025172949E-1,7.831529379E-1,9.042507172E0
2.523199219E1,-8.986396194E-1,8.696602583E-1,8.471221924E0
2.525399219E1,-8.309507966E-1,1.224337339E0,7.089058876E0
2.527399375E1,-9.932585359E-1,1.495849371E0,6.154285908E0
2.529599062E1,-1.291049361E0,1.822906852E0,5.692204952E0
2.531599062E1,-1.007796049E0,1.942837119E0,5.930495262E0
2.533599219E1,-6.430730224E-1,2.106323004E0,6.611118793E0
2.535599219E1,-7.186052799E-1,2.285763502E0,7.305992603E0
2.537801094E1,-8.346953392E-1,2.277900934E0,7.878331661E0
2.539999062E1,-1.055230021E0,2.586992502E0,8.412410736E0
2.541999219E1,-8.200332522E-1,2.807852745E0,8.744295120E0
2.544199063E1,-5.476975441E-1,3.013399601E0,9.165214539E0
2.546199063E1,-5.504556894E-1,3.276014805E0,9.947113037E0
2.548199062E1,-6.201556921E-1,3.404727221E0,1.073875141E1
2.550199219E1,-7.820420265E-1,3.438380241E0,1.129027939E1
2.552399688E1,-4.662755728E-1,3.180141687E0,1.154697609E1
2.554599219E1,-2.419867516E-1,3.206592560E0,1.162310219E1
2.556599219E1,1.107174605E-1,3.378706932E0,1.164713097E1
2.558599219E1,5.921244025E-1,2.990290880E0,1.212048340E1
2.560599219E1,9.735398293E-1,2.012336016E0,1.316018963E1
2.562599219E1,7.809215784E-1,8.009466529E-1,1.427061081E1
2.564599219E1,-2.676047087E-1,-9.623733163E-2,1.410948086E1
2.566799219E1,-1.621324658E0,1.565520614E-1,1.224471378E1
2.568999219E1,-9.643557072E-1,6.841574907E-1,9.660287857E0
2.571199063E1,6.029174328E-1,1.090865374E0,8.661905289E0
2.573199219E1,1.913034201E0,8.636459708E-1,9.604751587E0
2.575399844E1,1.358747840E0,4.966531992E-1,1.091149807E1
2.577599219E1,-5.657977462E-1,5.048700571E-1,1.048047447E1
2.579799062E1,-1.696368575E0,6.659232974E-1,9.355171204E0
2.581799219E1,-1.563882947E0,7.454969287E-1,8.173086166E0
2.583799219E1,-8.828762174E-1,9.760106802E-1,7.257916927E0
2.585799219E1,-2.770569921E-1,1.176319242E0,6.612890720E0
2.587801094E1,7.582915574E-2,1.336156130E0,6.444539547E0
2.589999062E1,-1.174403876E-1,1.498751044E0,6.876511097E0
2.591999219E1,-3.021386862E-1,1.551978946E0,7.189155579E0
2.594199063E1,-2.979057431E-1,1.730634332E0,7.282587051E0
2.596199063E1,-2.774783969E-1,2.069758654E0,7.161880970E0
2.598199062E1,-2.048000246E-1,2.394374132E0,7.138781548E0
2.600199219E1,-5.638823658E-2,2.582012415E0,7.490068436E0
2.602399219E1,-1.865753531E-1,2.817075253E0,8.084462166E0
2.604400469E1,-4.496981204E-1,2.971510649E0,8.718955040E0
2.606599219E1,-3.116580248E-1,2.961924314E0,1.012456131E1
2.608599219E1,1.682740748E-1,3.011187553E0,1.123662090E1
2.610599219E1,9.252344370E-1,2.890577078E0,1.163085938E1
2.612599219E1,1.168150187E0,2.812631607E0,1.141682720E1
2.614599219E1,9.545298815E-1,2.735729694E0,1.120746899E1
2.616599219E1,1.050202250E0,2.530699968E0,1.145981693E1
2.618599219E1,2.086632967E0,1.956694841E0,1.251915646E1
2.620599219E1,3.120889902E0,1.115496874E0,1.396633625E1
2.622599219E1,3.430153608E0,8.509950340E-2,1.456632328E1
2.624600625E1,2.977831602E0,-4.705851376E-1,1.347573566E1
2.626799063E1,2.704432964E0,-1.667705029E-1,1.138311672E1
2.628799219E1,3.059014082E0,3.992379010E-1,9.839336395E0
2.630799219E1,3.489989519E0,6.854024529E-1,9.119235992E0
2.632999062E1,2.866836071E0,1.118226290E0,8.814148903E0
2.634999219E1,1.470442057E0,1.340408206E0,8.985180855E0
2.637199219E1,1.066377386E-1,1.453471899E0,8.956861496E0
2.639399219E1,-4.326705635E-1,1.521792889E0,8.497816086E0
2.641399219E1,-1.625950336E-1,1.628143311E0,7.949898720E0
2.643399219E1,4.965574294E-2,1.894349813E0,7.369688034E0
2.645399531E1,-2.839427590E-1,2.120544434E0,6.987027168E0
2.647599062E1,-6.812365651E-1,2.087006330E0,6.991097450E0
2.649599219E1,-8.173613548E-1,2.217270374E0,7.201701164E0
2.651599219E1,-8.614912033E-1,2.239660978E0,7.298522949E0
2.653799219E1,-1.091832638E0,2.340724945E0,7.449050903E0
2.655799219E1,-1.473104358E0,2.469753265E0,7.843653679E0
2.657801094E1,-1.484950900E0,2.590200663E0,8.399500847E0
2.659999062E1,-1.156849504E0,2.726727486E0,9.163299561E0
2.661999219E1,-1.190990806E0,2.784791708E0,9.818783760E0
2.664199063E1,-1.135416627E0,2.752010345E0,1.044806671E1
2.666199219E1,-5.454661846E-1,2.616125107E0,1.076863098E1
2.668400625E1,3.810994625E-1,2.415060043E0,1.102219582E1
2.670599219E1,8.938704133E-1,2.548091412E0,1.113377571E1
2.672599219E1,7.317541838E-1,2.863752365E0,1.131749725E1
2.674599375E1,8.140668869E-1,2.445590734E0,1.192342091E1
2.676799063E1,8.055914044E-1,1.344880581E0,1.296697712E1
2.678799063E1,1.634952426E-1,5.942983627E-1,1.382293224E1
2.680799219E1,-4.144842029E-1,2.629407942E-1,1.256686783E1
2.682999219E1,-1.537939459E-1,1.158650041E0,1.085991669E1
2.684999219E1,1.377700329E0,1.333618283E0,1.020818615E1
2.687199219E1,2.713540316E0,9.890351295E-1,1.128417015E1
2.689399219E1,1.794358373E0,4.647624195E-1,1.180934238E1
2.691399219E1,1.246517152E-1,7.207313180E-1,1.055910969E1
2.693399219E1,-3.731698692E-1,8.864483833E-1,9.133946419E0
2.695399844E1,-3.439989090E-1,1.353978515E0,8.493612289E0
2.697599062E1,2.169242501E-1,1.194103241E0,8.012588501E0
2.699599219E1,4.318852425E-1,1.304763317E0,7.184433937E0
2.701599219E1,7.960625291E-1,1.345321059E0,6.479839802E0
2.703599219E1,6.814951897E-1,1.383724093E0,6.536237717E0
2.705799063E1,1.969853342E-1,1.500455856E0,6.821109295E0
2.707801094E1,-1.405396461E-1,1.737452984E0,6.678587437E0
2.709999062E1,5.303635821E-2,2.006934881E0,6.524716854E0
2.711999219E1,-1.704096943E-1,2.373420000E0,6.750144958E0
2.714199063E1,-6.669480205E-1,2.730481625E0,7.015930176E0
2.716199062E1,-1.043326020E0,3.072479010E0,7.744409084E0
2.718199062E1,-1.096113443E0,2.986115456E0,9.121726990E0
2.720199062E1,-8.266890645E-1,2.794895172E0,1.054311657E1
2.722199219E1,-3.006063700E-1,2.643237114E0,1.139299107E1
2.724399844E1,-5.681919456E-1,2.771461010E0,1.188768101E1
2.726599062E1,-1.006254315E0,2.731075525E0,1.239643955E1
2.728599219E1,-1.007030010E0,2.677225113E0,1.275863361E1
2.730599219E1,-2.442277223E-1,2.430287123E0,1.261509705E1
2.732599219E1,9.206567407E-1,2.033701897E0,1.281840229E1
2.734599219E1,1.615530610E0,1.254178643E0,1.375943851E1
2.736599219E1,1.562800765E0,-2.281195484E-2,1.473150349E1
2.738799219E1,9.016467929E-1,-7.503045201E-1,1.398055744E1
2.740999219E1,9.200534225E-1,-7.446349859E-1,1.222832775E1
2.743199219E1,1.618643165E0,-1.874947250E-1,1.048915005E1
2.745199219E1,2.038365841E0,1.955966949E-1,9.327704430E0
2.747399219E1,1.284297705E0,7.000166774E-1,8.605067253E0
2.749399219E1,-6.502652168E-2,1.039667726E0,8.273211479E0
2.751399219E1,-8.951728344E-1,1.279375196E0,8.244146347E0
2.753399219E1,-9.148340225E-1,1.282985568E0,8.383613586E0
2.755599063E1,-8.759905100E-1,1.428457379E0,7.972193718E0
2.757599219E1,-9.155427217E-1,1.709795117E0,7.165884018E0
2.759799219E1,-6.071407795E-1,1.873903275E0,6.346923351E0
2.761999063E1,-6.822516918E-1,2.235284090E0,5.874030113E0
2.763999063E1,-7.476804852E-1,2.295301914E0,5.839725971E0
2.765999063E1,-6.696773767E-1,2.456642628E0,6.135927200E0
2.767999063E1,-6.056276560E-1,2.649174452E0,6.623578072E0
2.769999219E1,-2.908093333E-1,2.687874556E0,7.193694592E0
2.772199219E1,2.582673430E-1,2.735844612E0,7.913028240E0
2.774399219E1,2.728911042E-1,3.055068254E0,8.896518707E0
2.776599062E1,8.350975811E-2,3.304007769E0,9.380923271E0
2.778599219E1,-1.901953816E-1,3.641121149E0,9.556283951E0
2.780599219E1,-5.061342716E-1,3.688009024E0,1.009575462E1
2.782599219E1,-5.676844120E-1,3.534033298E0,1.111035061E1
2.784599375E1,-7.855854928E-2,3.280793667E0,1.208459854E1
2.786799062E1,6.818686612E-3,3.213037729E0,1.259361649E1
2.788799219E1,-3.512485325E-1,3.574447155E0,1.292097950E1
2.790999219E1,-2.689262927E-1,3.456183434E0,1.308258915E1
2.793199219E1,-3.060651422E-1,2.702536583E0,1.325319958E1
2.795199219E1,-1.337113827E-1,1.586838603E0,1.309555531E1
2.797399063E1,-1.266523123E0,8.876550794E-1,1.207605648E1
2.799399688E1,-2.163218737E0,7.053126693E-1,1.061926174E1
2.801599062E1,-1.572482944E0,1.040701985E0,9.482187271E0
2.803599219E1,3.060460091E-1,1.028127670E0,9.671348572E0
2.805799063E1,1.416543841E0,8.676108122E-1,1.058133698E1
2.807801094E1,5.515283346E-1,8.418875337E-1,1.060972309E1
2.809999062E1,-1.074670911E0,9.775525331E-1,1.010123253E1
2.811999219E1,-1.415509462E0,8.819568753E-1,9.365168571E0
2.814199063E1,-7.908048034E-1,9.641354084E-1,8.473510742E0
2.816199219E1,-1.646253094E-2,1.076251149E0,7.578117847E0
2.818399219E1,1.695286334E-1,1.269635677E0,6.765295982E0
2.820599219E1,-7.048529573E-3,1.396374941E0,6.471364021E0
2.822599219E1,-2.382039130E-1,1.497372031E0,6.361623764E0
2.824800781E1,-3.654796779E-1,1.745420933E0,6.510791779E0
2.826999219E1,-5.176647305E-1,1.968072176E0,6.562161922E0
2.829199062E1,-4.707575142E-1,2.287496805E0,6.551579475E0
2.831199063E1,5.067088455E-2,2.545448303E0,6.668579578E0
2.833199063E1,1.921586245E-1,2.834102869E0,7.389492512E0
2.835199063E1,-1.034486666E-1,2.971913099E0,8.382071495E0
2.837199219E1,-3.283982873E-1,3.112050295E0,9.149422646E0
2.839399219E1,-9.326852113E-2,3.162960768E0,9.923793793E0
2.841399844E1,2.211571932E-1,3.189948320E0,1.085083771E1
2.843599219E1,2.950135171E-1,3.148758411E0,1.182596779E1
2.845599219E1,-2.345360070E-2,3.102540493E0,1.200652885E1
2.847599219E1,-9.464758635E-2,3.014376402E0,1.153516769E1
2.849599219E1,5.455331802E-1,2.694511175E0,1.161251926E1
2.851799219E1,1.901647329E0,1.742605329E0,1.294166565E1
2.853799219E1,2.425556183E0,7.988014817E-1,1.425353527E1
2.855999062E1,1.505186796E0,-1.461803764E-1,1.360868073E1
2.857999062E1,3.768090606E-1,-6.916369498E-2,1.197817230E1
2.859999062E1,7.957368493E-1,1.325334311E-1,1.047752476E1
2.861999219E1,2.233215570E0,4.241759479E-1,9.854237556E0
2.864199063E1,2.747375250E0,4.499375224E-1,1.005920029E1
2.866199219E1,1.349745631E0,6.987333894E-1,1.039221478E1
2.868400625E1,-3.807930052E-1,8.915145397E-1,9.823898315E0
2.870599219E1,-1.151304603E0,1.145070076E0,8.833483696E0
2.872599219E1,-1.005622149E0,1.422663331E0,8.144499779E0
2.874599219E1,-8.661168218E-1,1.689655185E0,7.659645081E0
2.876799063E1,-7.999889255E-1,1.848275900E0,7.272339821E0
2.878799063E1,-8.943109512E-1,2.033472061E0,6.773321152E0
2.880799219E1,-1.095768690E0,2.330152035E0,6.706321716E0
2.882999219E1,-7.628309727E-1,2.280180216E0,6.931941986E0
2.884999219E1,-7.009073496E-1,2.433543205E0,6.945598125E0
2.887199219E1,-5.654242635E-1,2.521314621E0,7.111334324E0
2.889399219E1,-3.521679044E-1,2.680318356E0,7.727324009E0
2.891399219E1,-3.070132732E-1,2.847481489E0,8.531143188E0
2.893399219E1,-5.607699156E-1,3.109368801E0,9.260589600E0
2.895599063E1,-9.250237346E-1,3.348463297E0,9.867980003E0
2.897599219E1,-9.536775351E-1,3.355272532E0,1.039152527E1
2.899599219E1,-7.887936831E-1,2.984018087E0,1.097993374E1
2.901799219E1,-6.044018269E-1,2.547631741E0,1.168157768E1
2.903999062E1,-6.440402865E-1,2.541167498E0,1.224320030E1
2.905999219E1,-6.161717772E-1,2.926384687E0,1.285615444E1
2.908199219E1,-5.017001629E-1,2.367702723E0,1.400985336E1
2.910399219E1,-4.835904241E-1,1.190827966E0,1.473309422E1
2.912399688E1,-1.309532642E0,5.088636279E-1,1.373156071E1
2.914599219E1,-2.158545256E0,2.937302589E-1,1.103840923E1
2.916799219E1,-1.852690816E0,9.248801470E-1,9.195391655E0
2.918999219E1,-4.206612110E-1,8.640291095E-1,9.880353928E0
2.921199063E1,2.722686231E-1,7.831242085E-1,1.114365864E1
2.923199219E1,-4.100788534E-1,8.622669578E-1,1.081108475E1
2.925399688E1,-1.232898951E0,9.495403767E-1,9.177799225E0
2.927599219E1,-1.253728509E0,1.022611499E0,7.763467312E0
2.929599219E1,-1.235494256E0,1.130867720E0,7.457449913E0
2.931799219E1,-7.948749661E-1,1.085195899E0,7.283018112E0
2.933999219E1,-6.043252349E-1,1.167403221E0,6.932650566E0
2.936199219E1,-6.070163250E-1,1.223762751E0,6.567065239E0
2.938199219E1,-4.780071676E-1,1.330467463E0,6.571633816E0
2.940399531E1,-2.842587829E-1,1.362607121E0,7.070785999E0
2.942599219E1,-4.771643877E-1,1.578286529E0,7.080487728E0
2.944599219E1,-7.643345594E-1,1.904051185E0,6.867211819E0
2.946599219E1,-8.684726954E-1,2.269109488E0,7.033733368E0
2.948799063E1,-7.312945724E-1,2.458059788E0,7.729459763E0
2.950799062E1,-5.683643222E-1,2.546827078E0,8.757989883E0
2.952799219E1,-2.401480079E-1,2.498933554E0,1.001065540E1
2.954799219E1,-2.395159453E-1,2.479578972E0,1.104104328E1
2.956999063E1,-3.555389345E-1,2.296221495E0,1.178269005E1
2.958999063E1,-4.847683609E-1,2.307033777E0,1.206980228E1
2.960999063E1,-8.252621293E-1,2.587739468E0,1.200876045E1
2.962999219E1,-8.692389131E-1,2.803140879E0,1.204217339E1
2.964999219E1,-8.574114740E-2,2.521122932E0,1.255305767E1
2.967199063E1,1.090204597E0,1.793831706E0,1.350704193E1
2.969199063E1,7.791881561E-1,9.530359507E-1,1.391522503E1
2.971199063E1,-8.849735856E-1,5.774239898E-1,1.290219975E1
2.973199219E1,-1.409198403E0,3.530393839E-1,1.151280689E1
2.975399219E1,-4.539502263E-1,5.037783384E-1,1.127043629E1
2.977399219E1,4.549174905E-1,3.857537806E-1,1.176237774E1
2.979399219E1,5.839266181E-1,4.262157977E-1,1.138453388E1
2.981400313E1,-4.091403484E-1,7.350965738E-1,9.964963913E0
2.983599062E1,-1.393415809E0,9.834039807E-1,8.212523460E0
2.985599219E1,-1.632290125E0,1.320201159E0,7.276563168E0
2.987801094E1,-1.239516497E0,1.556039572E0,6.996508598E0
2.989999062E1,-8.221113682E-1,1.785854220E0,6.646188736E0
2.991999062E1,-9.573933482E-1,2.088902473E0,6.135697365E0
2.993999063E1,-1.208209991E0,2.305769444E0,5.921588898E0
2.995999219E1,-1.149092317E0,2.339374542E0,6.110615730E0
2.997999219E1,-1.104071736E0,2.324779510E0,6.470014095E0
3.000199062E1,-1.177506685E0,2.375804663E0,7.151576042E0
3.002199062E1,-1.186671734E0,2.393914223E0,8.015298843E0
3.004199062E1,-1.020169377E0,2.450197220E0,8.708008766E0
3.006199063E1,-6.680110097E-1,2.613529682E0,9.203981400E0
3.008199219E1,-3.926011920E-1,2.888278723E0,9.830410004E0
3.010399219E1,-4.187650383E-1,3.187812567E0,1.052257442E1
3.012400312E1,-4.756416976E-1,3.409869909E0,1.075238895E1
3.014599219E1,-2.344593853E-1,3.470788002E0,1.107771301E1
3.016599219E1,1.421485394E-1,3.328936338E0,1.188851357E1
3.018599219E1,-4.125688598E-2,3.328055143E0,1.257553482E1
3.020599219E1,-9.589256644E-1,3.447324991E0,1.254263878E1
3.022599219E1,-1.599594831E0,2.831478834E0,1.212993526E1
3.024599219E1,-1.817630053E0,2.078004122E0,1.174821377E1
3.026799063E1,-2.723107576E0,1.207395911E0,1.136643410E1
3.028799219E1,-3.620511770E0,6.943472028E-1,1.065063477E1
3.030799219E1,-3.823578358E0,6.373077631E-1,9.917263031E0
3.032999062E1,-2.533630371E0,3.676057458E-1,1.034281731E1
3.034999219E1,-1.279250741E0,1.568872482E-1,1.158993721E1
3.037199219E1,-6.471623182E-1,-2.565626614E-2,1.208642769E1
3.039399844E1,-7.959571481E-1,3.025313094E-2,1.073787022E1
3.041599063E1,-8.657337427E-1,2.604029477E-1,9.028620720E0
3.043599219E1,-5.504844189E-1,3.790117204E-1,7.910863876E0
3.045799219E1,3.493619338E-2,6.438774467E-1,6.927229881E0
3.047801094E1,4.404565096E-1,9.162897468E-1,6.398379326E0
3.049999063E1,4.030207396E-1,1.186097026E0,6.350792408E0
3.051999063E1,7.743805647E-2,1.282593012E0,6.543669224E0
3.053999062E1,-2.856761515E-1,1.439068437E0,6.631842613E0
3.055999062E1,-5.656828284E-1,1.712486386E0,6.529802322E0
3.057999062E1,-4.426496029E-1,2.005747318E0,6.674373627E0
3.059999062E1,-4.182574451E-1,2.324961424E0,7.169188023E0
3.061999219E1,-2.948794663E-1,2.540841818E0,7.950339317E0
3.063999219E1,-4.217050970E-1,2.560435772E0,8.828274727E0
3.066199219E1,-7.120355964E-1,2.717849970E0,9.865862846E0
3.068400469E1,-6.872507930E-1,2.954732180E0,1.059143162E1
3.070599219E1,-5.410799980E-1,3.027621269E0,1.101950455E1
3.072599219E1,-1.588792205E-1,2.987341404E0,1.124256706E1
3.074599219E1,4.511633515E-2,3.074279547E0,1.142467117E1
3.076599219E1,-2.801120281E-1,3.245120049E0,1.160604572E1
3.078599219E1,-7.941088080E-2,2.990252733E0,1.191621971E1
3.080599219E1,3.056246340E-1,2.299985170E0,1.265929413E1
3.082599219E1,3.849301636E-1,1.418258071E0,1.372939682E1
3.084599219E1,1.016099192E-2,6.045933962E-1,1.414122772E1
3.086599219E1,-3.043222129E-1,2.881757021E-1,1.284850311E1
3.088599219E1,2.210614383E-1,3.151918650E-1,1.116969872E1
3.090799063E1,1.129517317E0,4.968447387E-1,9.955377579E0
3.092799063E1,1.595448136E0,5.191108584E-1,9.980622292E0
3.094799219E1,1.378887773E0,2.879267037E-1,1.025426102E1
3.096799219E1,2.571276724E-1,5.223861337E-1,9.906727791E0
3.098999219E1,-9.528348446E-1,9.718351960E-1,9.339216232E0
3.101199219E1,-1.299055576E0,1.237965107E0,8.719893456E0
3.103399219E1,-8.563771844E-1,1.541090250E0,8.032757759E0
3.105599063E1,-2.183416188E-1,1.705179214E0,7.353943825E0
3.107599219E1,-1.983165145E-1,1.774074674E0,6.761034012E0
3.109799219E1,-6.455246806E-1,2.023014307E0,6.272626400E0
3.111999219E1,-9.868803620E-1,2.271455765E0,6.425539494E0
3.113999219E1,-7.309689522E-1,2.277451038E0,6.843921185E0
3.116199062E1,-3.806397617E-1,2.393569469E0,7.059475899E0
3.118199062E1,-3.079326451E-1,2.410146952E0,7.242536545E0
3.120199062E1,-4.120134115E-1,2.615119457E0,7.862108231E0
3.122199219E1,-6.216688156E-1,2.718022108E0,8.775160789E0
3.124199219E1,-5.692358613E-1,2.811990023E0,9.349098206E0
3.126399531E1,-2.796427608E-1,3.097091436E0,9.859686852E0
3.128599219E1,-2.325918972E-1,3.145119190E0,1.046654987E1
3.130599219E1,-2.432317287E-1,3.123054266E0,1.125503731E1
3.132599219E1,-2.871892750E-1,2.855918646E0,1.209133148E1
3.134599219E1,-4.429368973E-1,2.752537012E0,1.238827896E1
3.136599219E1,-4.307073057E-1,2.525787115E0,1.272602463E1
3.138799219E1,-3.918350637E-1,1.708061814E0,1.355133533E1
3.140799219E1,-6.010882854E-1,8.322340846E-1,1.407940006E1
3.142799219E1,-1.335322857E0,1.839129925E-1,1.369583035E1
3.144800000E1,-2.057299376E0,3.615819216E-1,1.173397255E1
3.146999062E1,-1.525489450E0,7.195246816E-1,9.600135803E0
3.148999219E1,-2.572234571E-1,1.050585270E0,9.169897079E0
3.151199688E1,7.767843604E-1,1.099292994E0,1.006431484E1
3.153399219E1,3.456365466E-1,9.187318087E-1,1.035862923E1
3.155399219E1,-5.262359381E-1,9.497510791E-1,9.859226227E0
3.157399219E1,-6.491351128E-1,8.034270406E-1,9.098032951E0
3.159399219E1,-4.777390063E-1,9.335758686E-1,8.657595634E0
3.161399219E1,-1.393616945E-1,9.820345044E-1,8.112522125E0
3.163400469E1,-3.356670588E-2,1.126950741E0,7.320291042E0
3.165599219E1,-1.068005487E-1,1.221703649E0,6.448581219E0
3.167801094E1,-2.352255285E-1,1.427537918E0,6.036548615E0
3.169999219E1,-4.197035432E-1,1.823117495E0,6.460025311E0
3.172199219E1,-2.742031217E-1,1.895039439E0,6.799973011E0
3.174199219E1,-1.729858518E-1,2.059109211E0,6.997083187E0
3.176199219E1,-3.341539204E-1,2.190407276E0,7.480108261E0
3.178199219E1,-3.697796762E-1,2.334442377E0,8.048012733E0
3.180199219E1,-3.358490169E-1,2.567704678E0,8.665171623E0
3.182399688E1,-4.268287122E-1,2.809231758E0,9.753738403E0
3.184599063E1,-5.875945687E-1,2.903438807E0,1.092245293E1
3.186599219E1,-4.530595839E-1,2.728815317E0,1.160641003E1
3.188799219E1,2.046563476E-2,2.559018612E0,1.197931194E1
3.190999063E1,-1.244506091E-1,2.633133650E0,1.196035957E1
3.192999063E1,-3.468240798E-1,2.310998201E0,1.187062359E1
3.194999062E1,5.869816542E-1,1.803149939E0,1.241393566E1
3.196999062E1,1.445753098E0,5.811876655E-1,1.373221207E1
3.198999219E1,7.608293891E-1,-3.323247731E-1,1.507940006E1
3.201199219E1,1.411621273E-2,-8.570092916E-1,1.365109634E1
3.203399219E1,3.021674156E-1,-6.313318610E-1,1.115466213E1
3.205399219E1,1.196765661E0,-7.307104021E-2,9.889986992E0
3.207399844E1,2.128991127E0,1.015811935E-1,9.341321945E0
3.209399844E1,1.709115267E0,6.776548624E-1,8.603572845E0
3.211599219E1,5.261210203E-1,8.248695135E-1,8.069906235E0
3.213599219E1,-8.844181150E-2,8.881913424E-1,8.332903862E0
3.215799063E1,6.207686290E-2,8.924722075E-1,8.738099098E0
3.217801094E1,-3.227383830E-3,1.165392041E0,8.369085312E0
3.219999219E1,-3.213593066E-1,1.510243297E0,7.234004021E0
3.221999219E1,-3.402256370E-1,1.733919144E0,6.231158733E0
3.223999219E1,-1.691647172E-1,2.014768600E0,5.792579651E0
3.226199062E1,1.293826569E-2,2.163180351E0,6.188541889E0
3.228199062E1,-6.097552925E-2,2.092331171E0,6.978484631E0
3.230199062E1,-2.358192950E-1,2.086470127E0,7.702041626E0
3.232199063E1,-2.893153429E-1,2.246038914E0,8.188744545E0
3.234199062E1,-1.754854172E-1,2.433026075E0,8.653094292E0
3.236199219E1,1.104684696E-1,2.574293375E0,9.341283798E0
3.238199219E1,1.785595715E-1,2.779783249E0,1.046660709E1
3.240399844E1,-1.727751791E-1,2.770397663E0,1.177423382E1
3.242599219E1,-6.418375969E-1,2.849578857E0,1.234414959E1
3.244599375E1,-1.865945011E-1,2.559870958E0,1.242678833E1
3.246799062E1,5.216199160E-1,2.246929407E0,1.255688858E1
3.248799062E1,4.636228085E-1,2.426590681E0,1.266005993E1
3.250799063E1,2.368344218E-1,2.181548595E0,1.310698032E1
3.252799219E1,-1.521275789E-1,1.462359309E0,1.366479111E1
3.254799219E1,-8.034175038E-1,4.630577564E-1,1.366978168E1
3.256999062E1,-2.005756855E0,-7.367438078E-2,1.181421661E1
3.258999062E1,-2.481810331E0,3.180074394E-1,9.689094543E0
3.260999062E1,-1.633659601E0,6.477273703E-1,8.397834778E0
3.262999219E1,1.777742654E-1,5.430432558E-1,9.343515396E0
3.265199219E1,1.030627251E0,2.792692482E-1,1.150577641E1
3.267399062E1,3.337229788E-1,1.066856273E-2,1.205405903E1
3.269399219E1,-3.531160355E-1,8.216899633E-2,1.055497265E1
3.271599062E1,-3.241653442E-1,2.670684159E-1,8.485089302E0
3.273599062E1,-1.661575958E-2,4.975246787E-1,7.201576710E0
3.275599062E1,5.418174267E-1,7.016734481E-1,6.449701786E0
3.277599062E1,8.327416182E-1,9.370522499E-1,5.884210587E0
3.279599062E1,6.211038232E-1,1.126443148E0,5.881145954E0
3.281599063E1,4.640920460E-2,1.150806546E0,6.384253979E0
3.283599062E1,-5.605209470E-1,1.311074495E0,6.659146309E0
3.285599063E1,-7.643153667E-1,1.589989424E0,6.809559345E0
3.287599062E1,-5.635089278E-1,1.799501061E0,6.999544621E0
3.289599062E1,-1.509208977E-1,2.084401608E0,7.511290550E0
3.291599062E1,4.210921749E-2,2.161801338E0,8.000559807E0
3.293599062E1,-6.013181210E-1,2.419829369E0,9.004095078E0
3.295599063E1,-8.108969927E-1,2.482289076E0,1.024629307E1
3.297599062E1,-4.585758150E-1,2.477874279E0,1.135740376E1
3.299599063E1,5.955816433E-2,2.408643484E0,1.200625134E1
3.301599062E1,1.527021825E-1,2.362358809E0,1.219886875E1
3.303599063E1,-9.993397444E-2,2.267222881E0,1.247247887E1
3.305599062E1,-3.950624466E-1,2.355070829E0,1.241469193E1
3.307599219E1,-6.223009154E-2,2.328600645E0,1.237455559E1
3.309799219E1,1.468737483E0,1.354888320E0,1.308807659E1
3.311999219E1,1.805170655E0,3.059214950E-1,1.389623451E1
3.314199063E1,6.954007149E-1,-1.983739734E-1,1.329957008E1
3.316199219E1,3.669449091E-1,-2.395542413E-1,1.186113358E1
3.318399219E1,1.471399784E0,-1.858092099E-1,1.038574982E1
3.320399688E1,2.126012802E0,2.370259762E-1,1.036026669E1
3.322399688E1,1.681189299E0,4.179605842E-1,1.022365379E1
3.324599219E1,1.019834131E-1,8.897907138E-1,9.079032898E0
3.326799062E1,-5.152322054E-1,1.164242744E0,8.172281265E0
3.328799062E1,-8.080047369E-1,1.434098125E0,8.006918907E0
3.330799219E1,-8.443295956E-1,1.362626314E0,7.842590809E0
3.332799219E1,-8.817557096E-1,1.499526858E0,6.761493683E0
3.334999219E1,-8.138561845E-1,1.824027300E0,5.774737835E0
3.337199219E1,-6.634045243E-1,2.241853714E0,5.390247822E0
3.339399219E1,-6.518357396E-1,2.250530481E0,5.727352142E0
3.341599062E1,-7.481976151E-1,2.262127876E0,6.544483185E0
3.343599219E1,-5.943174958E-1,2.300157547E0,7.419200420E0
3.345599219E1,-5.207484961E-1,2.419647217E0,8.137249947E0
3.347599219E1,-5.272702575E-1,2.564132452E0,8.899582863E0
3.349599219E1,-4.119271934E-1,2.596846819E0,9.654302597E0
3.351799062E1,-4.637951553E-1,2.637864590E0,1.032518673E1
3.353799219E1,-8.324831128E-1,2.823127747E0,1.070832539E1
3.355999219E1,-7.808066607E-1,2.995357037E0,1.104453945E1
3.358199219E1,-2.550686896E-1,2.788794994E0,1.157947063E1
3.360399688E1,1.014183834E-1,2.539347887E0,1.209749889E1
3.362599219E1,2.138309479E-1,2.289172888E0,1.233266735E1
3.364599219E1,4.352275729E-1,1.447563052E0,1.303767300E1
3.366799219E1,-3.255827129E-1,3.484425247E-1,1.445757771E1
3.368999062E1,-1.843669415E0,-3.308978379E-1,1.420172501E1
3.370999219E1,-2.923195839E0,-9.905291349E-2,1.217172813E1
3.373199219E1,-2.174260855E0,4.394126236E-1,1.001599884E1
3.375399219E1,1.849568635E-1,6.016820669E-1,1.043029213E1
3.377599062E1,9.750338793E-1,3.692720830E-1,1.179271698E1
3.379599219E1,-4.760630801E-2,2.678728700E-1,1.144392967E1
3.381599219E1,-1.123311520E0,5.154333115E-1,9.589179993E0
3.383799062E1,-1.100355983E0,6.947590113E-1,7.370444775E0
3.385799062E1,-2.768654823E-1,9.689621329E-1,6.161870480E0
3.387801094E1,2.448885143E-1,1.070782661E0,6.207609177E0
3.389999062E1,-1.196143124E-2,1.100499630E0,7.011343479E0
3.391999219E1,-2.233885974E-1,9.751392007E-1,7.370731831E0
3.394199219E1,-1.151227951E-1,1.020456672E0,7.238753796E0
3.396399219E1,-1.738669276E-1,1.291317463E0,7.259478092E0
3.398399219E1,-1.269501448E-1,1.326090813E0,7.338649273E0
3.400599219E1,-2.066674978E-1,1.620338202E0,7.239137173E0
3.402799062E1,-1.823232472E-1,1.949023843E0,7.429552555E0
3.404799219E1,-2.009597123E-1,2.116445541E0,8.098023415E0
3.406999062E1,-6.325768232E-1,2.376360178E0,9.073870659E0
3.408999062E1,-8.216038346E-1,2.473018885E0,9.950081825E0
3.410999062E1,-7.334206104E-1,2.642949820E0,1.086796188E1
3.412999219E1,-3.805631399E-1,2.652698994E0,1.166731834E1
3.415199219E1,1.498674452E-1,2.513040304E0,1.210155010E1
3.417399219E1,-3.397851065E-2,2.628517389E0,1.192707062E1
3.419399219E1,1.684560180E-1,2.340925932E0,1.216784096E1
3.421599219E1,1.112394094E0,1.436645508E0,1.334674549E1
3.423799219E1,1.244592309E0,9.032844752E-2,1.472868824E1
3.425799219E1,1.811931841E-2,-4.711118340E-1,1.456738567E1
3.427801094E1,-4.719546139E-1,-5.440105200E-1,1.282828617E1
3.429999062E1,7.412543893E-1,-3.395169675E-1,1.110177898E1
3.431999062E1,2.336319685E0,-4.823837802E-2,1.066795063E1
3.433999219E1,2.968216419E0,3.030101582E-2,1.024149513E1
3.435999219E1,1.593532681E0,4.732666314E-1,9.023066521E0
3.437999219E1,-1.047989950E-1,6.613838673E-1,7.967912674E0
3.440199062E1,-1.116061926E0,9.541947246E-1,7.373786926E0
3.442199062E1,-1.081757784E0,1.054856539E0,7.369295597E0
3.444199219E1,-8.544618487E-1,1.328389287E0,7.241589069E0
3.446199219E1,-5.461844206E-1,1.515108228E0,6.953068256E0
3.448399375E1,-3.906762600E-1,1.745957255E0,6.636602402E0
3.450599219E1,-4.120708406E-1,1.884811401E0,6.634399891E0
3.452799219E1,-6.018544436E-1,2.033452988E0,6.903795242E0
3.454799219E1,-5.666979551E-1,2.109751463E0,6.979462147E0
3.456999219E1,-3.726910055E-1,2.273361683E0,7.164734840E0
3.459199219E1,-7.406702638E-2,2.475537539E0,7.651246071E0
3.461399219E1,1.617043763E-1,2.588993788E0,8.492578506E0
3.463399219E1,1.678431034E-1,2.737645149E0,9.561321259E0
3.465399219E1,-1.335006859E-2,2.768635750E0,1.055752945E1
3.467599063E1,-4.647049904E-1,2.962690353E0,1.127176762E1
3.469599062E1,-4.302572012E-1,2.889897108E0,1.164432430E1
3.471599219E1,-9.734824300E-2,2.715522766E0,1.249769402E1
3.473799219E1,3.633919358E-1,2.216647625E0,1.314462662E1
3.475999062E1,-1.349372119E-1,2.306726933E0,1.294491196E1
3.477999062E1,-4.694550633E-1,1.721986413E0,1.339760876E1
3.479999062E1,-7.838424444E-1,7.561846972E-1,1.423386383E1
3.481999062E1,-1.193260550E0,6.564901024E-2,1.425637054E1
3.483999219E1,-1.921270251E0,-4.525998980E-2,1.201570320E1
3.486199063E1,-1.908791661E0,5.199056864E-1,9.295746803E0
3.488199219E1,-1.035281539E0,1.027993679E0,8.532810211E0
3.490399219E1,3.207943141E-1,8.419449329E-1,1.006569290E1
3.492599219E1,3.065152764E-1,5.949782729E-1,1.112932205E1
3.494599219E1,-4.513453245E-1,4.413663149E-1,1.011796379E1
3.496599219E1,-9.743251801E-1,6.404872537E-1,8.597808838E0
3.498799062E1,-7.706168890E-1,6.366661191E-1,7.453102112E0
3.500799219E1,-3.469868898E-1,8.840541840E-1,7.033705235E0
3.502799219E1,-9.958921373E-2,1.122459173E0,6.800854683E0
3.504799219E1,3.924575448E-2,1.182103515E0,6.688259602E0
3.506799219E1,2.612936199E-1,1.226875067E0,6.521767139E0
3.508999062E1,3.639186621E-1,1.402705312E0,6.776519299E0
3.510999062E1,2.686007023E-1,1.501260281E0,7.141788483E0
3.512999063E1,4.730942473E-2,1.645908356E0,7.163729191E0
3.514999062E1,-9.532754123E-2,1.700802565E0,7.154382229E0
3.516999063E1,-8.682333678E-2,1.968340158E0,7.325481415E0
3.518999219E1,4.036623985E-2,2.303250790E0,7.931587696E0
3.520999219E1,2.076155990E-1,2.463738918E0,9.072319031E0
3.522999219E1,4.739274383E-1,2.563711166E0,1.054878616E1
3.524999219E1,2.918435931E-1,2.631400108E0,1.216775513E1
3.526999219E1,1.463814825E-1,2.429243088E0,1.331563950E1
3.529199063E1,1.825626642E-1,2.112442493E0,1.364937305E1
3.531199062E1,-7.527370751E-2,2.367147207E0,1.327979374E1
3.533199062E1,5.998145938E-1,1.998880744E0,1.297067356E1
3.535199062E1,2.121980906E0,1.257089972E0,1.336664677E1
3.537199219E1,2.514687538E0,2.983941436E-1,1.450951385E1
3.539399375E1,8.535616398E-1,-6.731250286E-1,1.436958694E1
3.541399688E1,-3.944399357E-1,-7.079463005E-1,1.259979343E1
3.543599062E1,3.090435565E-1,-4.985207021E-1,1.051997852E1
3.545599063E1,1.503213882E0,7.225700468E-2,9.828264236E0
3.547599062E1,1.741379499E0,2.656989098E-1,9.991185188E0
3.549599063E1,1.205758333E0,3.517369628E-1,9.467698097E0
3.551599062E1,1.184555218E-1,6.939162612E-1,8.234742165E0
3.553599063E1,-3.016310930E-1,8.185104728E-1,7.295056343E0
3.555599062E1,-3.785520196E-1,1.031632781E0,6.663235664E0
3.557599219E1,-1.991401166E-1,1.207300186E0,6.134146214E0
3.559799219E1,-1.696052589E-2,1.472931981E0,5.755066872E0
3.561999062E1,1.312309802E-1,1.679226041E0,6.024644375E0
3.563999219E1,-4.223371856E-3,1.715349674E0,6.438631058E0
3.566199219E1,-1.938824505E-1,1.790288210E0,6.552882195E0
3.568399844E1,-3.154312670E-1,1.883336544E0,6.907654762E0
3.570599063E1,-2.071750611E-1,1.982063890E0,7.855940819E0
3.572599219E1,1.548090875E-1,2.027726173E0,8.846298218E0
3.574599219E1,7.417237163E-1,2.154216528E0,9.610019684E0
3.576803594E1,7.195916772E-1,2.623872519E0,1.041192341E1
3.578999062E1,2.467081100E-1,2.909759521E0,1.103560352E1
3.580999063E1,-6.845501810E-2,3.173830271E0,1.165890026E1
3.582999062E1,3.592451811E-1,3.274243116E0,1.220057392E1
3.584999219E1,7.774930596E-1,3.322127104E0,1.233285809E1
3.587199219E1,8.570858836E-1,3.171388149E0,1.217644024E1
3.589399219E1,7.693144679E-1,2.844311476E0,1.219339180E1
3.591399219E1,5.961466432E-1,1.954951882E0,1.312022591E1
3.593599219E1,3.349967301E-2,8.341015577E-1,1.434355640E1
3.595799219E1,-8.524507284E-1,4.046200961E-2,1.408708096E1
3.597801094E1,-1.557974100E0,-1.857900433E-2,1.181184196E1
3.599999062E1,-1.153842449E0,6.640845537E-1,9.222359657E0
3.601999063E1,-7.079175860E-2,1.068465233E0,8.263654709E0
3.603999062E1,8.367064595E-1,1.008466482E0,8.974138260E0
3.605999219E1,6.110002398E-1,8.127452731E-1,9.676280975E0
3.607999219E1,-3.402639553E-2,6.724354625E-1,9.661561966E0
3.610199062E1,-4.592461884E-1,6.471527219E-1,9.070738792E0
3.612199062E1,-5.250579715E-1,6.839468479E-1,8.196070671E0
3.614199063E1,-3.451097906E-1,8.076983094E-1,7.297114849E0
3.616199219E1,6.529466808E-2,8.751477599E-1,6.549098969E0
3.618399219E1,2.593207657E-1,1.184334993E0,5.795691967E0
3.620599063E1,-4.213795182E-4,1.472893715E0,6.264505386E0
3.622599219E1,9.208099544E-2,1.353164554E0,6.793825150E0
3.624599219E1,1.516487449E-1,1.687213182E0,6.959829807E0
3.626599219E1,4.519390762E-1,1.890739322E0,7.158260822E0
3.628599219E1,5.175880790E-1,2.142082691E0,7.526594162E0
3.630599219E1,4.791659415E-1,2.450848579E0,8.178171158E0
3.632599219E1,8.399242759E-1,2.488226891E0,8.750903130E0
3.634599219E1,9.628808498E-1,2.644481897E0,9.461683273E0
3.636599219E1,7.697933316E-1,2.697068214E0,1.034250069E1
3.638799219E1,1.039466634E-1,2.701262951E0,1.089466095E1
3.640999062E1,-1.246900298E-2,2.613242388E0,1.149765491E1
3.642999062E1,5.829976797E-1,2.290647745E0,1.218189907E1
3.644999063E1,6.621500254E-1,2.188156843E0,1.238068581E1
3.646999062E1,5.584139824E-1,1.959156156E0,1.211091614E1
3.648999219E1,1.073569536E0,1.325966358E0,1.212817383E1
3.651199219E1,1.553041935E0,3.645028472E-1,1.295004559E1
3.653399688E1,4.895280600E-1,-1.795842797E-1,1.428849983E1
3.655599062E1,1.617331058E-1,-7.043741345E-1,1.371549988E1
3.657599219E1,1.349755168E0,-8.536574244E-1,1.174395180E1
3.659799219E1,2.920274973E0,-1.257530451E-1,9.867883682E0
3.661799219E1,3.718606949E0,8.092401922E-2,9.359211922E0
3.663799219E1,2.852586031E0,1.918234378E-1,9.225166321E0
3.665999062E1,1.293817043E0,3.696647286E-1,8.786394119E0
3.667999062E1,6.653390527E-1,5.443456769E-1,8.677410126E0
3.669999219E1,4.612956345E-1,7.852119803E-1,8.695289612E0
3.672199219E1,1.488235779E-2,1.098737478E0,8.159104347E0
3.674199219E1,-8.131666481E-2,1.286940932E0,6.985983849E0
3.676199219E1,-8.339483291E-2,1.667590261E0,6.124817848E0
3.678399219E1,-4.199429601E-2,2.004301071E0,5.836527348E0
3.680399219E1,-3.556059897E-1,2.179096937E0,6.166697502E0
3.682399219E1,-7.362266183E-1,2.190225363E0,6.787092686E0
3.684399219E1,-8.324160576E-1,2.202253580E0,7.574918747E0
3.686599219E1,-6.182690263E-1,2.350196362E0,8.343831062E0
3.688799219E1,-1.885098666E-1,2.412110329E0,9.216718674E0
3.690999219E1,-1.391893178E-1,2.477405071E0,9.972923279E0
3.693199063E1,-5.441445708E-1,2.506173849E0,1.077123547E1
3.695199219E1,-8.816217184E-1,2.508883953E0,1.140227985E1
3.697399219E1,-3.695019186E-1,2.142015696E0,1.178753567E1
3.699399219E1,4.219828546E-1,1.808292627E0,1.221341705E1
3.701399219E1,3.221541941E-1,1.731812239E0,1.249858475E1
3.703399219E1,-2.231300175E-1,1.892137527E0,1.246632099E1
3.705399219E1,1.116176844E-1,1.091669798E0,1.274514008E1
3.707599219E1,3.650678694E-2,4.709298909E-1,1.379027653E1
3.709599219E1,-7.635779381E-1,-1.531905979E-1,1.410505676E1
3.711599219E1,-1.632232666E0,-5.008669943E-2,1.222666073E1
3.713599219E1,-1.263812900E0,3.943728805E-1,1.032485199E1
3.715599219E1,4.078283012E-1,5.794159770E-1,1.009720135E1
3.717801094E1,1.468986392E0,4.077517092E-1,1.117777157E1
3.719999219E1,2.856090963E-1,3.606912792E-1,1.142578125E1
3.722199219E1,-8.418875337E-1,4.286866188E-1,1.007351780E1
3.724399375E1,-7.876444459E-1,3.911167979E-1,8.305945396E0
3.726399531E1,-2.381368726E-1,5.422005057E-1,7.387931824E0
3.728599219E1,6.994900107E-2,7.160387039E-1,6.985983849E0
3.730599219E1,1.154771373E-1,7.683950663E-1,6.789620399E0
3.732599219E1,4.764748514E-1,7.788721323E-1,6.591619968E0
3.734599219E1,7.297143340E-1,1.150787354E0,6.632973194E0
3.736599219E1,5.724823475E-1,1.214023113E0,6.983493805E0
3.738599219E1,1.958840042E-1,1.271426439E0,6.732112408E0
3.740599219E1,-1.770272702E-1,1.579023957E0,6.408980846E0
3.742599219E1,-1.866328120E-1,1.821930051E0,6.638115883E0
3.744599219E1,5.211698264E-2,2.019853830E0,7.370272160E0
3.746799219E1,4.636419415E-1,2.045720816E0,8.702511787E0
3.748999219E1,5.156918764E-1,2.143950224E0,9.495862961E0
3.751199219E1,-2.515827119E-2,2.324923038E0,1.027192974E1
3.753399219E1,1.421964318E-1,2.054617643E0,1.121623135E1
3.755399219E1,9.162705541E-1,1.838746905E0,1.192298985E1
3.757399219E1,1.263669133E0,1.728795528E0,1.262947178E1
3.759399219E1,9.574029446E-1,1.725347877E0,1.254611492E1
3.761399219E1,1.042397141E0,1.942664742E0,1.225425148E1
3.763399219E1,1.728939176E0,1.588294268E0,1.267138004E1
3.765399688E1,1.954865694E0,8.712212443E-1,1.401885509E1
3.767599063E1,1.175361395E0,6.304412335E-2,1.486231327E1
3.769599062E1,5.604538321E-1,-3.998891413E-1,1.369446945E1
3.771599219E1,1.059089422E0,-3.908199072E-1,1.159988785E1
3.773799219E1,2.512542248E0,3.964798059E-3,9.851268768E0
3.775799219E1,3.041440725E0,2.575394809E-1,9.463838577E0
3.777801094E1,2.131806850E0,4.843949080E-1,9.371307373E0
3.779999062E1,4.430518150E-1,7.852407098E-1,8.274676323E0
3.781999062E1,-4.980992973E-1,9.885658622E-1,7.233103752E0
3.783999219E1,-4.426208436E-1,1.197196603E0,6.621624470E0
3.786199063E1,2.862316072E-1,1.384672284E0,6.856926918E0
3.788199219E1,3.125773966E-1,1.507217050E0,6.678635120E0
3.790399219E1,-1.922735423E-1,1.619102836E0,6.024750233E0
3.792399375E1,-3.873052001E-1,1.847136259E0,5.959618092E0
3.794599219E1,-4.884171300E-3,1.959769011E0,6.782534122E0
3.796799219E1,3.780444264E-1,2.070007563E0,7.295851231E0
3.798999219E1,3.562093079E-1,2.184325933E0,7.930448055E0
3.801199219E1,4.809568226E-1,2.354994059E0,8.785428047E0
3.803199219E1,6.172252297E-1,2.686792135E0,9.697580338E0
3.805199219E1,8.568656445E-1,2.811319590E0,1.043260002E1
3.807400313E1,9.271115065E-1,2.999292850E0,1.075693703E1
3.809599062E1,9.335471392E-1,3.030072927E0,1.127077103E1
3.811599219E1,1.243931413E0,2.788488626E0,1.177186775E1
3.813799062E1,1.325497031E0,2.617724419E0,1.208578587E1
3.815799063E1,9.326660633E-1,2.569830894E0,1.196845150E1
3.817801094E1,5.755661130E-1,2.503358126E0,1.229128647E1
3.819999219E1,8.963795304E-1,1.480248809E0,1.368994045E1
3.822199063E1,2.148939669E-1,6.213527918E-1,1.518680477E1
3.824199219E1,-8.115099072E-1,-1.123455167E-1,1.443668175E1
3.826399219E1,-2.001552582E0,3.386933506E-1,1.170395851E1
3.828399219E1,-1.535889983E0,1.119356275E0,9.126055717E0
3.830399219E1,-2.451566756E-1,1.484098673E0,8.774682999E0
3.832399688E1,9.393793941E-1,1.139687896E0,1.000158596E1
3.834599219E1,4.942494333E-1,7.352401614E-1,1.031745815E1
3.836599219E1,-8.279436827E-1,9.454606771E-1,9.575762749E0
3.838599219E1,-1.307416081E0,8.589437604E-1,8.385442734E0
3.840599219E1,-1.078894258E0,9.652176499E-1,7.151125908E0
3.842599219E1,-6.240055561E-1,1.060669661E0,6.679028034E0
3.844799062E1,4.313393682E-2,1.199696183E0,6.492855072E0
3.846799219E1,1.888258904E-1,1.284661651E0,6.273545742E0
3.848999219E1,-1.211083010E-1,1.442439437E0,5.962644577E0
3.851199219E1,-9.708967060E-2,1.577798128E0,5.859099865E0
3.853399219E1,7.496725023E-2,1.725003123E0,6.546638012E0
3.855399219E1,2.177478671E-1,1.878452420E0,6.938971043E0
3.857399219E1,3.382336795E-1,1.995442629E0,7.007368565E0
3.859399219E1,3.029048145E-1,2.242351770E0,7.483603954E0
3.861399219E1,3.229586482E-1,2.395140171E0,8.345650673E0
3.863399688E1,3.293080628E-1,2.441702604E0,9.532581329E0
3.865599219E1,5.052435994E-1,2.454315424E0,1.062192345E1
3.867801094E1,4.777868986E-1,2.809078693E0,1.113181210E1
3.869999219E1,6.950559020E-1,2.828069448E0,1.152355194E1
3.872199063E1,7.991558313E-1,2.626496792E0,1.196571255E1
3.874199062E1,5.427080393E-1,2.483677626E0,1.207046413E1
3.876199062E1,1.177478075E0,2.345024824E0,1.243142319E1
3.878199063E1,2.726631880E0,1.631667614E0,1.351666737E1
3.880199219E1,2.593772650E0,5.955433249E-1,1.479896259E1
3.882399219E1,1.329145908E0,-1.697105914E-1,1.527573395E1
3.884399219E1,9.796977639E-1,-6.557910442E-1,1.368407917E1
3.886399219E1,1.854864597E0,-4.035187662E-1,1.180197716E1
3.888599063E1,3.232880831E0,-1.243452579E-1,1.107250309E1
3.890599219E1,3.571641445E0,-1.041956618E-2,1.051577473E1
3.892599219E1,2.312961578E0,3.149141371E-1,9.411874771E0
3.894599219E1,7.831338048E-1,8.759138584E-1,8.732965469E0
3.896599219E1,1.186183318E-1,1.120112896E0,8.646620750E0
3.898599219E1,-4.056735337E-2,1.206610560E0,8.530405998E0
3.900599219E1,-4.163037986E-2,1.285533071E0,7.997352123E0
3.902799219E1,1.561881453E-1,1.603329778E0,7.106441021E0
3.904799219E1,1.223054007E-1,1.894110441E0,6.825984001E0
3.906799219E1,-8.159439079E-3,1.931297064E0,6.803191185E0
3.908999063E1,-1.128052026E-1,1.988183379E0,6.574028015E0
3.910999062E1,-2.752661407E-1,2.167825222E0,6.475118637E0
3.912999063E1,-2.908188701E-1,2.209187269E0,7.046547413E0
3.914999062E1,-1.419569999E-1,2.246632576E0,7.617727757E0
3.916999063E1,-3.544663489E-1,2.465529680E0,8.190257072E0
3.918999062E1,-2.687826455E-1,2.728805780E0,8.949544907E0
3.920999219E1,3.310893476E-1,3.206745863E0,1.009484482E1
3.923199219E1,5.209208131E-1,3.479014397E0,1.080232239E1
3.925399219E1,3.336846828E-1,3.514515638E0,1.114258575E1
3.927400312E1,5.485211611E-1,3.427510500E0,1.150558472E1
3.929599219E1,4.513357580E-1,3.214120150E0,1.151397419E1
3.931799219E1,-2.388743013E-1,3.186481476E0,1.162077522E1
3.933799219E1,-3.607870340E-1,2.486502886E0,1.276065445E1
3.935999062E1,-4.065354466E-1,1.307406545E0,1.458686543E1
3.937999063E1,-9.471079111E-1,6.366661191E-1,1.475344467E1
3.939999062E1,-1.855152011E0,6.153864861E-1,1.231910610E1
3.941999219E1,-1.759987354E0,1.538006425E0,1.042574310E1
3.944199219E1,7.802224904E-2,1.785452008E0,9.598862648E0
3.946399219E1,1.388493299E0,1.776698709E0,9.959860802E0
3.948400312E1,8.457469344E-1,1.646166921E0,9.215636253E0
3.950599219E1,4.749808908E-1,1.114807367E0,7.318164825E0
3.952799219E1,-9.283756465E-2,1.323744535E0,6.300236225E0
3.954799219E1,-2.283110842E-2,1.315738320E0,7.264985085E0
3.956799219E1,4.126933217E-1,1.244697690E0,7.648985863E0
3.958999063E1,3.423229754E-1,1.226472855E0,6.739744663E0
3.960999219E1,-8.801085502E-2,1.513346195E0,6.151729107E0
3.962999219E1,-1.033624709E-1,1.658176303E0,5.958804131E0
3.964999219E1,-1.341327578E-1,2.063428402E0,6.057052612E0
3.967199219E1,-1.716355234E-1,2.440888643E0,6.330451012E0
3.969399219E1,-1.318917871E-1,2.722102165E0,7.033043861E0
3.971399219E1,-5.117462277E-1,2.964404821E0,7.973141670E0
3.973599062E1,-7.735090852E-1,2.950863361E0,8.733875275E0
3.975599219E1,-5.853535533E-1,2.997588396E0,9.046566963E0
3.977800938E1,-8.845138550E-1,2.839743376E0,9.624221802E0
3.979999062E1,-1.201352954E0,2.774017811E0,1.051570702E1
3.981999062E1,-7.213059068E-1,2.693419456E0,1.144401550E1
3.983999219E1,-1.584386975E-1,2.649586439E0,1.204468250E1
3.986199063E1,-4.773655236E-1,2.766825676E0,1.171292305E1
3.988199219E1,-6.512899399E-1,2.387651205E0,1.121010208E1
3.990399219E1,-1.754662544E-1,1.881181717E0,1.121503448E1
3.992399219E1,7.998740673E-1,1.136546731E0,1.237438393E1
3.994399219E1,8.982374072E-1,2.514007688E-1,1.362740326E1
3.996399375E1,4.908496737E-1,-3.489788622E-2,1.305100346E1
3.998599219E1,4.304296076E-1,3.498407453E-2,1.097489643E1
4.000599219E1,7.641621828E-1,2.993518412E-1,9.621942520E0
4.002599219E1,1.376512647E0,3.390189409E-1,1.023498249E1
4.004599219E1,1.517808914E0,2.629024982E-1,1.090001488E1
4.006599219E1,2.934525013E-1,5.285630822E-1,1.024489498E1
4.008599219E1,-7.175230980E-1,8.019905686E-1,9.096932411E0
4.010799219E1,-1.061043262E0,1.021050453E0,8.405525208E0
4.012999219E1,-1.026691198E0,1.214137912E0,8.119475365E0
4.015199219E1,-8.214984536E-1,1.516018033E0,7.755527973E0
4.017199219E1,-4.764940143E-1,1.735144973E0,7.192756176E0
4.019399219E1,2.718855441E-2,2.052453279E0,7.526623249E0
4.021399219E1,2.076347470E-1,2.042933941E0,7.922528267E0
4.023399219E1,-2.285983786E-2,2.181835890E0,7.950866222E0
4.025399219E1,-1.322748512E-1,2.375095844E0,7.656973362E0
4.027399219E1,-2.777273953E-2,2.497745991E0,7.733827114E0
4.029399219E1,1.062259451E-1,2.589223862E0,8.509538651E0
4.031399375E1,3.439127207E-1,2.434634924E0,9.168470383E0
4.033599062E1,2.086786181E-1,2.583477736E0,9.206308365E0
4.035599219E1,3.531926498E-2,2.617063522E0,9.695894241E0
4.037801094E1,1.246900260E-1,2.285341978E0,1.084495831E1
4.039999062E1,5.954188108E-1,1.902250767E0,1.180616283E1
4.041999063E1,9.925402999E-1,1.507619262E0,1.213631344E1
4.043999062E1,6.296271086E-1,2.204322338E0,1.201091480E1
4.045999219E1,1.570012093E0,1.588543177E0,1.257007599E1
4.048199062E1,2.487316847E0,3.516316116E-1,1.374338722E1
4.050199063E1,1.537987351E0,-4.470740557E-1,1.435366058E1
4.052199219E1,1.284154058E-1,-9.712414742E-1,1.333307076E1
4.054399219E1,-7.054275870E-1,-3.803429008E-1,1.152804279E1
4.056399219E1,7.024108768E-1,2.354457974E-1,1.089782238E1
4.058399219E1,2.053861141E0,1.314608306E-1,1.125023937E1
4.060599063E1,1.778288603E0,2.343157381E-1,1.142732334E1
4.062599219E1,9.596343637E-1,-3.349009156E-2,1.089468098E1
4.064599375E1,1.111579984E-1,4.135265201E-2,9.632821083E0
4.066799219E1,7.277415693E-2,2.936344743E-1,8.221995354E0
4.068799219E1,6.931501627E-1,6.357275844E-1,7.557968140E0
4.070999219E1,1.113763452E0,8.710584641E-1,6.965067863E0
4.073199219E1,8.336801529E-1,1.032858610E0,6.380662441E0
4.075399219E1,4.344039559E-1,1.199313164E0,6.121829987E0
4.077399219E1,7.663360238E-2,1.446567178E0,6.176408291E0
4.079599219E1,-8.108682185E-2,1.575700760E0,6.133073330E0
4.081799219E1,-3.566881716E-1,1.862593174E0,6.223640919E0
4.083999219E1,-3.646177649E-1,2.117690563E0,6.986156464E0
4.085999219E1,-8.590395562E-3,2.110996246E0,7.816235542E0
4.088199219E1,-3.712257743E-1,2.153153658E0,8.973573685E0
4.090399219E1,-7.855376005E-1,2.343885183E0,9.617977142E0
4.092399375E1,-8.162695169E-1,2.494183540E0,1.025947952E1
4.094599219E1,4.393838719E-2,2.230150938E0,1.145424461E1
4.096799219E1,7.656561136E-1,2.052826881E0,1.243927670E1
4.098999219E1,5.314074159E-1,2.055450916E0,1.224589157E1
4.101199219E1,9.857981801E-1,1.575499654E0,1.168785095E1
4.103399219E1,2.602822781E0,5.891172290E-1,1.296012020E1
4.105399219E1,2.687702179E0,-5.927277207E-1,1.513396835E1
4.107399219E1,1.923769832E0,-1.690220237E0,1.639228439E1
4.109599063E1,1.980914593E0,-2.062173843E0,1.419895744E1
4.111599219E1,2.705898046E0,-1.246402264E0,1.106661320E1
4.113799062E1,3.041622639E0,-2.530000806E-1,9.369162560E0
4.115799063E1,2.666738510E0,-9.376651794E-2,9.022424698E0
4.117801094E1,1.742576718E0,1.818731427E-1,8.997132301E0
4.119999219E1,8.297345787E-2,5.285726786E-1,8.291695595E0
4.122199063E1,-7.813716531E-1,8.136359453E-1,7.319247246E0
4.124199062E1,-7.654646039E-1,1.058773398E0,7.398217201E0
4.126199062E1,-3.891822696E-1,1.043958187E0,7.540461540E0
4.128199063E1,-2.307914793E-1,1.265057802E0,7.066275597E0
4.130199219E1,-4.763120711E-1,1.486722708E0,6.343552113E0
4.132400938E1,-7.333726883E-1,1.715340257E0,6.185525417E0
4.134599219E1,-6.250590086E-1,1.891936541E0,6.731968403E0
4.136599219E1,-5.278927684E-1,1.946830630E0,7.453877926E0
4.138799219E1,-4.416727722E-1,2.043393612E0,8.111363411E0
4.140999219E1,-4.370567203E-1,2.171674967E0,8.912071228E0
4.142999219E1,-2.394010127E-1,2.296326637E0,9.402843475E0
4.144999219E1,2.252273411E-1,2.435391665E0,9.796556473E0
4.147199063E1,6.439827681E-1,2.474934101E0,1.068112755E1
4.149199062E1,8.686259985E-1,2.351249695E0,1.140446377E1
4.151199219E1,9.819579124E-1,2.203422070E0,1.196259975E1
4.153399219E1,1.330227971E0,2.142456293E0,1.224721336E1
4.155399219E1,1.291365385E0,2.285859346E0,1.240933895E1
4.157599219E1,2.056169271E0,1.691446066E0,1.295727634E1
4.159799219E1,2.453530073E0,5.507143140E-1,1.381127834E1
4.161999062E1,4.381963909E-1,-2.614468336E-1,1.427452755E1
4.163999219E1,-7.621893287E-1,-7.480347753E-1,1.326865578E1
4.166199219E1,-3.599059880E-1,-2.374665141E-1,1.175141239E1
4.168399219E1,1.849156857E0,-1.056704894E-1,1.132130814E1
4.170399531E1,2.938116550E0,7.454586774E-2,1.179074383E1
4.172400156E1,2.395236015E0,1.171435043E-1,1.164922714E1
4.174599375E1,8.451340199E-1,3.761386573E-1,9.762473106E0
4.176799062E1,1.974737495E-1,5.674161911E-1,7.834354401E0
4.178799062E1,2.026069164E-1,8.013105989E-1,6.880600452E0
4.180799062E1,3.582779169E-1,8.785379529E-1,6.535471916E0
4.182799219E1,4.057693183E-1,1.140128374E0,6.494406223E0
4.184799219E1,2.160815001E-1,1.217173815E0,6.197476864E0
4.186799219E1,2.370642722E-1,1.367213607E0,6.172261715E0
4.188799219E1,3.762440085E-1,1.430995226E0,6.461404324E0
4.190999219E1,1.255710870E-1,1.412971735E0,6.570369720E0
4.193199063E1,4.435785413E-1,1.623048425E0,6.531660080E0
4.195199219E1,-1.696052589E-2,2.279002190E0,6.471086502E0
4.197399219E1,-2.942857146E-1,2.490142107E0,7.401147842E0
4.199399375E1,-1.786936373E-1,2.453242779E0,8.051115990E0
4.201599219E1,1.592144221E-1,2.699558020E0,8.706380844E0
4.203799063E1,1.019929908E-2,3.049791574E0,1.029779720E1
4.205799062E1,-1.233301163E-1,2.909903049E0,1.163640404E1
4.207801094E1,4.634886980E-1,2.395820141E0,1.212677574E1
4.209999063E1,8.601791859E-1,2.383753300E0,1.182363129E1
4.211999062E1,1.179527521E0,2.177784920E0,1.205923080E1
4.213999062E1,2.546559095E0,1.170831680E0,1.313618088E1
4.215999219E1,3.802796602E0,-9.217676520E-2,1.476511860E1
4.217999219E1,3.645344496E0,-1.423132658E0,1.625540352E1
4.219999219E1,2.603378534E0,-2.338196516E0,1.521378231E1
4.222199063E1,2.072200775E0,-1.998440146E0,1.208143806E1
4.224199062E1,2.810888767E0,-9.639822245E-1,9.720937729E0
4.226199062E1,3.840960264E0,-4.148385227E-1,8.792179108E0
4.228199063E1,3.722275019E0,-2.596655190E-1,8.735379219E0
4.230199219E1,2.085081577E0,-2.366620451E-1,9.172483444E0
4.232399219E1,3.210145533E-1,-1.176223382E-1,8.844697952E0
4.234399219E1,-1.973109394E-1,1.626141816E-1,7.985275269E0
4.236599219E1,-4.353329241E-1,7.520187497E-1,7.260138988E0
4.238599219E1,-4.150396287E-1,1.228771329E0,6.652615070E0
4.240599219E1,-2.708799839E-1,1.439815402E0,6.233323097E0
4.242599219E1,-1.879927330E-2,1.667695522E0,5.900615215E0
4.244599844E1,3.064578166E-3,2.001677036E0,5.928647041E0
4.246799219E1,-3.564487696E-1,2.228436708E0,6.497653008E0
4.248999063E1,-9.344186187E-1,2.264608383E0,6.913898945E0
4.250999062E1,-1.407464981E0,2.273916960E0,7.234894753E0
4.252999062E1,-1.491463184E0,2.229289055E0,8.228161812E0
4.254999062E1,-1.564026594E0,2.210499525E0,1.001712036E1
4.256999219E1,-1.491836667E0,2.437479258E0,1.174928570E1
4.259199219E1,-1.231625199E0,2.484539747E0,1.243023491E1
4.261399219E1,-6.616806984E-1,2.624657869E0,1.193550682E1
4.263399219E1,9.583510458E-2,2.448693752E0,1.196220684E1
4.265599219E1,9.494829178E-1,1.982762933E0,1.260413074E1
4.267801094E1,1.064232230E0,1.730509877E0,1.289181805E1
4.269999219E1,1.717992902E0,1.076164961E0,1.328106785E1
4.272199063E1,2.502592087E0,-1.584482789E-1,1.491069508E1
4.274199219E1,1.523631692E0,-1.056743145E0,1.587003326E1
4.276399688E1,-2.272001654E-1,-1.338023543E0,1.400009441E1
4.278599219E1,-1.048229337E0,-5.565848351E-1,1.074355888E1
4.280599219E1,-8.027566671E-1,3.666959107E-1,8.648565292E0
4.282599219E1,4.012394845E-1,8.621041179E-1,8.520877838E0
4.284599688E1,1.233483195E0,6.064800620E-1,9.636632919E0
4.286799219E1,6.550631523E-1,4.639196694E-1,1.030280590E1
4.288799219E1,-1.149121001E-1,4.048403502E-1,9.397567749E0
4.290999219E1,-3.924671412E-1,7.239012718E-1,8.187748909E0
4.292999219E1,-1.324472390E-2,9.105628133E-1,7.290028095E0
4.295199219E1,1.978759766E-1,1.296421885E0,6.734650135E0
4.297399219E1,2.806195915E-1,1.344861507E0,6.407027245E0
4.299399219E1,3.338283300E-1,1.403605580E0,6.523634911E0
4.301399219E1,2.983079553E-1,1.494001031E0,6.786087036E0
4.303399219E1,4.322874844E-1,1.663577557E0,7.150915623E0
4.305399219E1,4.932821691E-1,1.784015536E0,7.168067455E0
4.307399219E1,3.926969469E-1,2.028425217E0,7.274245739E0
4.309399219E1,4.267233610E-1,2.149188757E0,7.502795696E0
4.311399844E1,4.906581044E-1,2.288425684E0,7.819749832E0
4.313399844E1,5.402372479E-1,2.468038797E0,8.261412621E0
4.315599219E1,2.566871643E-1,2.553789616E0,9.131093025E0
4.317801094E1,-3.641580939E-1,2.527568340E0,1.022275257E1
4.319999219E1,-6.663542241E-2,2.173513651E0,1.130775642E1
4.322199063E1,8.622478247E-1,1.758502841E0,1.206234264E1
4.324199219E1,1.329203367E0,1.549690127E0,1.245378494E1
4.326399219E1,1.281108618E0,1.304006696E0,1.248560810E1
4.328399219E1,1.981728673E0,8.566262126E-1,1.289802456E1
