"Time (s)","Gyroscope x (rad/s)","Gyroscope y (rad/s)","Gyroscope z (rad/s)"
1.548494370E-1,5.936563015E-1,-8.505513072E-1,6.025050879E-1
1.768431870E-1,3.982492387E-1,-7.076786757E-1,5.783672333E-1
1.968431870E-1,1.191710830E-1,-4.739092588E-1,4.817283154E-1
2.168478750E-1,-2.359685153E-1,-4.276929200E-1,3.594854772E-1
2.388431870E-1,-7.485542893E-1,-6.511648893E-1,3.246836066E-1
2.588478750E-1,-1.158427358E0,-9.218479991E-1,3.508809805E-1
2.788619370E-1,-9.494416714E-1,-7.866199017E-1,1.791929603E-1
3.008478750E-1,-3.801327050E-1,-3.541447520E-1,1.074948311E-1
3.228431870E-1,8.534660190E-2,3.806563094E-2,1.007753089E-1
3.448416250E-1,1.488940418E-1,3.159394860E-1,2.895675898E-1
3.648478750E-1,-2.516590357E-1,2.561794221E-1,6.082298160E-1
3.868416250E-1,-1.008870125E0,-6.693337858E-2,7.838448286E-1
4.068431870E-1,-1.469078541E0,-3.772005439E-1,7.482401133E-1
4.268431870E-1,-1.529903293E0,-5.197765231E-1,6.665936112E-1
4.468463120E-1,-1.181884646E0,-3.449817896E-1,5.674937963E-1
4.688416250E-1,-6.279519796E-1,1.025380939E-1,5.538104177E-1
4.888416250E-1,-3.857003152E-1,4.698077142E-1,6.488087177E-1
5.088463120E-1,-3.652101457E-1,3.324328661E-1,7.309438586E-1
5.308416250E-1,-4.694935679E-1,-6.981316983E-5,6.996327043E-1
5.508431870E-1,-5.149943233E-1,-2.008001357E-1,6.163281202E-1
5.728431870E-1,-4.459141791E-1,1.176351905E-1,5.583657026E-1
5.948431870E-1,-2.694439292E-1,4.778886139E-1,5.171410441E-1
6.148431870E-1,-1.398532391E-1,4.899139106E-1,5.032831430E-1
6.368416250E-1,-1.351059377E-1,3.995582163E-1,4.576078653E-1
6.568431870E-1,-1.960353851E-1,2.956413329E-1,3.918613195E-1
6.768431870E-1,-2.352180183E-1,1.677785069E-1,2.341184616E-1
6.968431870E-1,-2.569473684E-1,9.875072539E-2,7.004006207E-2
7.188416250E-1,-2.349038571E-1,2.115862668E-1,-4.576253146E-2
7.388416250E-1,-1.279500872E-1,3.724358082E-1,-1.211782098E-1
7.588416250E-1,3.071779385E-2,3.369532526E-1,-2.215520889E-1
7.788619370E-1,1.513549536E-1,1.408655196E-1,-3.060085773E-1
8.008416250E-1,2.411870509E-1,4.783947393E-2,-3.586651683E-1
8.208431870E-1,3.252944648E-1,1.606750041E-1,-4.270122647E-1
8.408431870E-1,3.300941288E-1,2.223723978E-1,-4.471707940E-1
8.628416250E-1,2.855358720E-1,-8.129743487E-2,-5.106833577E-1
8.828416250E-1,2.998301089E-1,-2.368760854E-1,-5.801823735E-1
9.028416250E-1,3.551919460E-1,-1.683719158E-1,-6.128898263E-1
9.228431870E-1,4.361926913E-1,1.954768784E-2,-5.702688694E-1
9.448431870E-1,5.676334500E-1,2.278701812E-1,-4.436277747E-1
9.648431870E-1,6.178640127E-1,2.100678235E-1,-4.147251248E-1
9.848431870E-1,5.269672871E-1,-6.230825558E-3,-4.784645736E-1
1.004843187E0,3.942000568E-1,-2.032086849E-1,-5.875301957E-1
1.024844750E0,3.029542565E-1,-2.156528831E-1,-6.601009965E-1
1.046854125E0,3.523296118E-1,-1.421919763E-1,-6.589141488E-1
1.068841625E0,4.664741457E-1,-1.286133081E-1,-6.412863135E-1
1.088843187E0,5.091300011E-1,-6.056292355E-2,-6.365215778E-1
1.110843187E0,6.151238680E-1,7.120943163E-3,-7.252715826E-1
1.130843187E0,6.005852222E-1,1.200088412E-1,-7.533538938E-1
1.152843187E0,3.597996235E-1,1.832944751E-1,-7.959399223E-1
1.174843187E0,1.298699528E-1,6.078981608E-2,-7.803890705E-1
1.194854125E0,7.560766488E-2,-1.814967841E-1,-6.941698194E-1
1.216843187E0,7.958701253E-2,-3.272666931E-1,-6.534861922E-1
1.236843187E0,8.515461534E-2,-7.810348272E-2,-7.395483851E-1
1.256843187E0,2.163335532E-1,2.402794808E-1,-9.452528954E-1
1.276843187E0,2.970201373E-1,2.963569164E-1,-1.118913174E0
1.298841625E0,1.710771769E-1,4.909611121E-2,-1.248730659E0
1.318841625E0,5.291838199E-2,-1.073377505E-1,-1.341023684E0
1.338841625E0,8.518952131E-2,-2.753605843E-1,-1.538787007E0
1.358841625E0,9.480628371E-2,-2.770361006E-1,-1.700055361E0
1.378861937E0,-7.941247895E-3,-1.035678387E-1,-1.749029398E0
1.400843187E0,-1.059763953E-1,-1.204277202E-2,-1.643105268E0
1.422843187E0,-1.022064835E-1,-9.501572698E-2,-1.493286252E0
1.442843187E0,-2.005383372E-2,-2.856754959E-1,-1.603451490E0
1.462843187E0,1.520181745E-1,-3.955439627E-1,-1.730022669E0
1.482843187E0,4.498935342E-1,-5.917539001E-1,-1.617902756E0
1.502843187E0,6.783396602E-1,-8.463450670E-1,-1.332209826E0
1.522843187E0,3.578797579E-1,-7.154628038E-1,-8.603949547E-1
1.542843187E0,-2.726029754E-1,-9.996896982E-1,-4.693190455E-1
1.562843187E0,-4.261221290E-1,-1.258295178E0,-3.832568526E-1
1.584843187E0,1.628566682E-1,-9.954485297E-1,-6.574131846E-1
1.604855687E0,7.397403717E-1,-6.043202281E-1,-9.401913881E-1
1.626843187E0,9.608910084E-1,-5.212949514E-1,-1.049030185E0
1.646843187E0,8.195717335E-1,-5.629385114E-1,-9.594598413E-1
1.666843187E0,3.834139407E-1,-5.638111830E-1,-7.718893290E-1
1.686843187E0,-1.490511149E-1,-4.358785152E-1,-6.237981319E-1
1.706843187E0,-4.575555027E-1,-3.843913078E-1,-6.278647184E-1
1.726843187E0,-5.719444156E-1,-5.370377898E-1,-6.241123080E-1
1.746843187E0,-4.862836301E-1,-6.958976984E-1,-5.520127416E-1
1.766844750E0,-2.485174239E-1,-5.221152306E-1,-4.795466661E-1
1.788841625E0,-8.693484962E-2,-2.228087336E-1,-3.623827100E-1
1.808843187E0,-3.354522958E-2,-1.988628209E-1,-3.177371919E-1
1.830843187E0,-8.328711241E-2,-1.232551485E-1,-2.482556254E-1
1.852852562E0,-1.095019579E-1,8.878489584E-2,-8.986700326E-2
1.874843187E0,-1.099557430E-2,1.727003306E-1,7.103490084E-2
1.894843187E0,1.513375044E-1,1.866629571E-1,1.399055868E-1
1.914843187E0,2.772630155E-1,3.139323592E-1,1.190838143E-1
1.934843187E0,2.684839964E-1,4.045149684E-1,1.984439418E-2
1.954846312E0,1.714785993E-1,4.077438116E-1,-1.386664063E-1
1.976843187E0,1.099731922E-1,3.213325739E-1,-3.434109688E-1
1.996843187E0,1.892285943E-1,1.224872097E-1,-3.646167219E-1
2.018843187E0,2.841745019E-1,1.483006328E-1,-2.267706245E-1
2.040843187E0,2.394417226E-1,2.872986495E-1,-6.117378920E-2
2.062843187E0,2.177647352E-1,8.171631396E-2,3.097959422E-2
2.082843187E0,2.559874356E-1,-1.267981678E-1,3.211405827E-3
2.104843187E0,2.619913816E-1,-5.651376024E-2,-1.007578596E-1
2.124849437E0,1.667662114E-1,1.456651837E-1,-1.235518605E-1
2.146843187E0,1.515643895E-1,6.869615614E-2,-9.321803600E-2
2.166843187E0,1.683195531E-1,-2.381327152E-1,-1.262571216E-1
2.186843187E0,7.497934252E-2,-4.330685437E-1,-1.556135565E-1
2.206843187E0,2.741912194E-2,-6.595773697E-1,-2.144137025E-1
2.226843187E0,2.984512970E-2,-8.341975808E-1,-2.923775613E-1
2.246843187E0,-6.866125017E-2,-8.412137628E-1,-3.295007050E-1
2.266843187E0,-3.242298067E-1,-5.037020445E-1,-2.620088160E-1
2.288841625E0,-7.642796636E-1,1.269203424E-1,-7.291985303E-2
2.308843187E0,-7.588167787E-1,2.671575546E-1,4.958480224E-2
2.330843187E0,-2.888694406E-1,1.650732458E-1,-3.977605328E-2
2.352843187E0,7.150614262E-2,6.981316954E-2,-4.970697686E-2
2.374843187E0,1.091528907E-1,2.460914198E-3,1.253320873E-1
2.394843187E0,1.857030392E-1,1.356120780E-2,3.071255982E-1
2.414843187E0,2.986258268E-1,3.052929938E-1,4.199436605E-1
2.434843187E0,2.070658654E-1,6.456496716E-1,4.360530674E-1
2.454843187E0,7.691665739E-2,5.675985217E-1,4.285655916E-1
2.474843187E0,5.681046844E-2,1.574286968E-1,4.888143539E-1
2.494843187E0,7.115707546E-2,-1.956514120E-1,6.624920964E-1
2.514851000E0,6.457718462E-2,-2.068913281E-1,8.183325529E-1
2.536841625E0,-8.115780540E-3,3.244741559E-1,8.760854602E-1
2.556843187E0,2.745402977E-2,7.422361970E-1,7.737393379E-1
2.578861937E0,9.210102260E-2,7.417998314E-1,6.644642949E-1
2.600841625E0,6.478662044E-2,3.225368559E-1,7.369303703E-1
2.620841625E0,6.389650702E-2,5.969025940E-2,9.009563923E-1
2.640841625E0,1.047197580E-1,1.055226028E-1,1.003407240E0
2.660843187E0,-4.108504951E-2,3.973067403E-1,1.014245749E0
2.680843187E0,-3.865206242E-1,6.837676167E-1,9.858666658E-1
2.702841625E0,-6.590363383E-1,6.746919155E-1,9.890431762E-1
2.722843187E0,-4.605400264E-1,5.830447078E-1,9.947155118E-1
2.744843187E0,-1.318421662E-1,5.899561644E-1,9.363865852E-1
2.764855687E0,-5.457644537E-2,6.147224307E-1,9.962514043E-1
2.786841625E0,3.979350626E-2,5.073323250E-1,9.988170266E-1
2.806841625E0,2.846980989E-1,3.827507049E-2,8.111068606E-1
2.826841625E0,2.649235129E-1,-1.456128210E-1,5.761331916E-1
2.846843187E0,-3.949680030E-1,1.949707270E-1,4.946786761E-1
2.866843187E0,-1.037074685E0,1.012290921E-2,5.934468508E-1
2.886843187E0,-9.142034650E-1,-4.756371379E-1,7.703534365E-1
2.906843187E0,-3.772703707E-1,-5.795714855E-1,7.861486673E-1
2.926843187E0,-5.836381018E-2,-1.970476657E-1,6.966307163E-1
2.946843187E0,1.649336144E-2,1.126086414E-1,5.336867571E-1
2.966843187E0,-8.028514683E-2,3.195872307E-1,4.745724797E-1
2.986843187E0,-3.098133802E-1,3.680724800E-1,5.330410004E-1
3.006843187E0,-4.098905623E-1,2.331585288E-1,6.187192202E-1
3.026843187E0,-3.012612760E-1,-1.837831736E-2,7.409271598E-1
3.046843187E0,-2.004336119E-1,-8.559094369E-2,8.217882514E-1
3.066843187E0,-1.820029318E-1,8.918632567E-2,7.989943027E-1
3.088843187E0,-1.278279126E-1,2.474353313E-1,7.637735605E-1
3.110843187E0,1.255764365E-1,1.747074574E-1,8.096931577E-1
3.130843187E0,3.780732155E-1,1.365196556E-1,8.385783434E-1
3.152843187E0,4.814141691E-1,1.384220570E-1,8.408996463E-1
3.174843187E0,3.215943575E-1,2.518859208E-1,8.130790591E-1
3.194843187E0,5.009094998E-2,3.176499307E-1,7.683463097E-1
3.214846312E0,-2.132268697E-1,1.869945824E-1,6.629458666E-1
3.236843187E0,-2.536661625E-1,-1.665567756E-1,5.352750421E-1
3.258841625E0,-3.335324302E-2,-2.441191971E-1,4.871563017E-1
3.278861937E0,1.689827740E-1,8.072147518E-2,4.334176183E-1
3.300841625E0,3.266732693E-1,4.568224847E-1,2.950479090E-1
3.320843187E0,4.397706091E-1,4.295429885E-1,7.726572454E-2
3.342841625E0,4.238706529E-1,1.255764365E-1,-1.546012610E-1
3.362843187E0,2.389006615E-1,-4.886921868E-2,-2.718175650E-1
3.384844750E0,1.049640998E-1,-2.058092207E-1,-3.048217595E-1
3.404855687E0,8.295550197E-2,-2.609616220E-1,-2.665466964E-1
3.426844750E0,1.117010717E-3,-1.018399596E-1,-8.269369602E-2
3.446847875E0,1.172686741E-1,1.434835196E-1,2.115513533E-1
3.468843187E0,6.265208125E-1,2.203652710E-1,3.408453465E-1
3.490841625E0,1.111914396E0,2.412743121E-1,2.277654707E-1
3.510847875E0,1.026061654E0,4.253541827E-1,7.379251719E-2
3.532841625E0,4.257556200E-1,7.037516832E-1,3.710569814E-2
3.552841625E0,5.696754530E-2,6.187366843E-1,1.985835582E-1
3.572843187E0,1.173733920E-1,2.592337430E-1,3.580542803E-1
3.594843187E0,3.174230158E-1,-1.294336170E-1,3.994534910E-1
3.614846312E0,1.186474785E-1,1.285784096E-1,3.342131078E-1
3.636843187E0,1.205324382E-1,5.119050667E-2,2.103296220E-1
3.658843187E0,4.528082311E-1,-2.337868512E-1,1.681450158E-1
3.678861937E0,6.686530709E-1,-4.260348678E-1,2.246936858E-1
3.700841625E0,5.181009769E-1,-2.179043591E-1,3.397806883E-1
3.720841625E0,2.745403051E-1,2.299296707E-1,3.380179107E-1
3.740841625E0,1.864535213E-1,4.213573933E-1,3.216292858E-1
3.760844750E0,2.212379426E-1,4.825311899E-1,3.757170141E-1
3.782843187E0,2.356892675E-1,6.221051812E-1,4.660727084E-1
3.804841625E0,1.459444314E-1,6.659652591E-1,6.208136082E-1
3.824843187E0,-1.359611470E-2,5.529901385E-1,7.478910089E-1
3.844849437E0,-1.712866127E-1,4.713087082E-1,8.177391291E-1
3.866843187E0,-2.979975045E-1,7.908610702E-1,8.074765801E-1
3.886843187E0,-3.590491414E-1,1.180994511E0,7.122688890E-1
3.906843187E0,-1.489114910E-1,8.509702086E-1,6.209357977E-1
3.926843187E0,2.319542617E-1,1.170068756E-1,6.055245399E-1
3.946843187E0,3.387509584E-1,7.260569930E-2,6.043900847E-1
3.968843187E0,2.107485086E-1,3.873583674E-1,5.807234049E-1
3.990841625E0,-4.391248524E-2,3.581241071E-1,6.336068511E-1
4.010841625E0,-4.336270392E-1,3.331135511E-1,7.801970840E-1
4.030841625E0,-7.506835461E-1,-1.960004680E-2,9.082518816E-1
4.050843187E0,-6.354569197E-1,-7.427772284E-1,8.869763017E-1
4.072843187E0,-1.788962446E-2,-9.849067330E-1,7.383964658E-1
4.094843187E0,4.006054103E-1,-1.519483626E-1,5.945987701E-1
4.114843187E0,1.191536263E-1,6.514790654E-1,4.469613731E-1
4.134843187E0,-3.581939340E-1,5.552590489E-1,2.931280434E-1
4.156843187E0,-6.971717477E-1,3.096214123E-2,3.477219343E-1
4.178861937E0,-8.312130570E-1,-2.345722467E-1,4.956386089E-1
4.200841625E0,-7.628659606E-1,-3.513522446E-1,6.237632036E-1
4.220841625E0,-5.847376585E-1,-3.751061559E-1,6.876772046E-1
4.240841625E0,-3.743207753E-1,-2.694613934E-1,6.519502997E-1
4.260843187E0,-2.502627671E-1,-2.162462845E-2,5.892406106E-1
4.282841625E0,-1.532748193E-1,1.679006778E-2,5.074021220E-1
4.302841625E0,-8.021533489E-2,-1.815316975E-1,3.661700785E-1
4.322841625E0,-6.447245926E-2,-1.674643457E-1,1.749692559E-1
4.342841625E0,-2.495820820E-2,5.925392732E-2,6.222098693E-2
4.362843187E0,7.068583276E-3,2.983640432E-1,2.474876866E-2
4.384843187E0,-5.918411538E-2,4.544313848E-1,3.946189582E-2
4.404852562E0,-2.115688175E-1,3.824889064E-1,5.201081280E-3
4.426843187E0,-3.229557276E-1,2.231577933E-1,-1.557880938E-1
4.448843187E0,-3.636393547E-1,1.135685742E-1,-2.573138773E-1
4.470843187E0,-4.031186998E-1,1.361531317E-1,-1.443038285E-1
4.492843187E0,-4.063824713E-1,3.487167880E-2,2.502802201E-2
4.514843187E0,-3.926816285E-1,-2.923426405E-2,9.375908971E-2
4.534843187E0,-1.689478755E-1,-3.807610273E-1,7.513642311E-2
4.556843187E0,1.278802752E-1,-5.973389149E-1,-1.099557383E-3
4.576843187E0,1.152440906E-1,-1.135336682E-1,6.485643238E-2
4.598843187E0,-1.530828327E-1,3.389778435E-1,3.563613296E-1
4.620843187E0,-8.796459436E-2,1.937839091E-1,5.285904408E-1
4.642843187E0,1.338318437E-1,2.098409384E-1,4.496840835E-1
4.664843187E0,1.287005842E-1,1.958782971E-1,1.345474273E-1
4.684843187E0,-1.623156248E-3,-1.286482215E-1,-2.014109865E-2
4.704843187E0,-9.075712413E-3,-4.998448491E-1,1.104793418E-2
4.724843187E0,9.393361956E-2,-5.363745689E-1,1.413367689E-1
4.744844750E0,8.723155409E-2,-8.478809148E-2,2.417455465E-1
4.764854125E0,6.496115774E-2,3.941302598E-1,2.670004666E-1
4.786843187E0,2.746450007E-1,3.362202346E-1,2.165255398E-1
4.806843187E0,5.537580848E-1,7.415904105E-2,1.020668522E-1
4.828841625E0,6.627014875E-1,1.089085452E-2,8.901178837E-3
4.848843187E0,5.589416623E-1,9.149015695E-2,3.070034087E-2
4.868843187E0,3.523819745E-1,2.248682231E-1,1.312836707E-1
4.890841625E0,6.946410239E-2,3.542145789E-1,3.286105990E-1
4.910843187E0,-6.195918657E-3,3.672172725E-1,4.289844632E-1
4.932843187E0,9.342747182E-2,1.500110477E-1,4.623900652E-1
4.954843187E0,1.640085876E-1,9.646435082E-2,5.860291719E-1
4.976841625E0,2.528807521E-1,2.720968425E-1,7.623947263E-1
4.996843187E0,4.720417559E-1,4.474326074E-1,8.045967817E-1
5.018843187E0,7.174524665E-1,4.260523319E-1,6.495591998E-1
5.040843187E0,6.253165603E-1,1.231329814E-1,3.066368997E-1
5.062841625E0,3.600090742E-1,-2.869495749E-1,7.888888009E-3
5.082843187E0,2.306976169E-1,-5.654692054E-1,-5.176646635E-2
5.104857250E0,-1.781981252E-2,-1.191012710E-1,2.944370508E-1
5.126843187E0,-4.944692254E-1,5.118178129E-1,8.391717672E-1
5.146843187E0,-5.392718315E-1,4.011115730E-1,1.033549070E0
5.166843187E0,-2.352354825E-1,3.253119290E-1,9.865124226E-1
5.188841625E0,-1.733111963E-2,3.956835866E-1,8.148593307E-1
5.208841625E0,4.581489414E-2,1.801703423E-1,6.987774968E-1
5.228843187E0,1.979203336E-2,7.819075137E-3,7.305250168E-1
5.248843187E0,-1.276708394E-1,6.881833076E-2,9.378177524E-1
5.270841625E0,-2.919063270E-1,4.051956236E-1,1.154884338E0
5.290841625E0,-3.282091618E-1,4.629485905E-1,1.182582736E0
5.310841625E0,-2.980324328E-1,3.376688361E-1,1.154971600E0
5.330841625E0,-2.171538621E-1,1.875356287E-1,1.100342870E0
5.350841625E0,-1.154011711E-1,1.513549536E-1,1.010877252E0
5.370841625E0,-4.640830308E-2,2.326698452E-1,9.441009760E-1
5.390841625E0,-2.061233856E-2,3.282964230E-1,9.361073375E-1
5.410843187E0,3.029891662E-2,3.603406847E-1,9.459161162E-1
5.432841625E0,1.264665574E-1,2.970026731E-1,9.446769357E-1
5.452841625E0,1.687558889E-1,2.168571651E-1,8.985478282E-1
5.472841625E0,1.663647890E-1,1.150521040E-1,8.196938634E-1
5.492843187E0,2.816961333E-2,5.756095797E-2,7.323924899E-1
5.512843187E0,-1.858251989E-1,6.616543233E-2,6.220178604E-1
5.534843187E0,-4.546931684E-1,1.227839142E-1,5.858371854E-1
5.554843187E0,-6.100623608E-1,1.181762442E-1,6.255608797E-1
5.574843187E0,-6.166422963E-1,3.176499158E-3,6.974684596E-1
5.594849437E0,-5.448743105E-1,-5.845107511E-2,7.535982728E-1
5.616841625E0,-4.171336889E-1,7.091272622E-2,7.355515361E-1
5.636843187E0,-2.772979140E-1,1.383697093E-1,5.192878246E-1
5.658843187E0,-2.459343374E-1,4.735078290E-2,2.112197429E-1
5.678861937E0,-3.812322617E-1,-2.287428528E-1,9.061749279E-2
5.700841625E0,-5.351179242E-1,-4.509930909E-1,2.090729922E-1
5.720841625E0,-4.852887988E-1,-4.874355495E-1,3.078411818E-1
5.740841625E0,-2.161764801E-1,-3.719471097E-1,3.230953515E-1
5.760843187E0,1.654397547E-1,-1.296779662E-1,3.105289936E-1
5.780843187E0,4.332430661E-1,1.690874994E-1,3.425383270E-1
5.802841625E0,4.192979038E-1,3.743207753E-1,3.450341523E-1
5.822841625E0,-3.272492439E-2,6.469237208E-1,2.516590357E-1
5.842841625E0,-4.340633750E-1,6.358234286E-1,1.474105120E-1
5.862843187E0,-3.930656016E-1,2.875429988E-1,1.492780149E-1
5.884843187E0,-3.042108938E-2,-1.542696506E-1,2.278352827E-1
5.904843187E0,2.086715698E-1,-3.455751836E-1,3.490833044E-1
5.924843187E0,3.720692992E-1,-3.074746430E-1,4.685859978E-1
5.944852562E0,5.012585521E-1,-4.394739121E-2,4.740663171E-1
5.964855687E0,5.180311799E-1,1.386838555E-1,3.393443525E-1
5.986843187E0,4.106410742E-1,1.222254038E-1,2.483254522E-1
6.006843187E0,1.574286968E-1,8.614945412E-2,3.188716471E-1
6.026843187E0,-9.915215522E-2,-2.862340072E-3,4.611508846E-1
6.046849437E0,-1.840798706E-1,-7.403686643E-2,6.004281640E-1
6.068841625E0,-1.064301804E-1,8.646360785E-2,7.186043859E-1
6.088843187E0,1.408480667E-2,3.797312975E-1,7.451159358E-1
6.110843187E0,3.406882659E-2,4.410097897E-1,6.734701991E-1
6.132841625E0,-6.328564137E-2,2.588846982E-1,6.265557408E-1
6.152843187E0,-1.461015046E-1,1.839577034E-2,6.259797812E-1
6.174843187E0,-1.488067657E-1,-1.225919276E-1,6.416528225E-1
6.194843187E0,-1.356818974E-1,-2.244493365E-2,5.890486240E-1
6.214843187E0,-1.787740737E-1,2.811027169E-1,5.017647147E-1
6.234843187E0,-2.206445187E-1,4.324053228E-1,4.781852961E-1
6.256841625E0,-1.215272769E-1,3.025179207E-1,4.202927351E-1
6.276843187E0,7.330382708E-3,1.781981252E-2,3.708301187E-1
6.296843187E0,-7.007496804E-2,1.829279512E-1,2.958158553E-1
6.316843187E0,-3.971147537E-1,5.177693963E-1,3.016976118E-1
6.336843187E0,-5.306673646E-1,2.511005104E-1,4.381474555E-1
6.356843187E0,-3.623129129E-1,1.162738353E-1,6.296449900E-1
6.378861937E0,-1.716531366E-1,4.131019711E-1,7.583804727E-1
6.400841625E0,-1.739744246E-1,5.944417119E-1,8.282983303E-1
6.420841625E0,-8.450884372E-2,4.080230594E-1,9.258447886E-1
6.440841625E0,1.094670519E-1,1.482831687E-1,1.025293708E0
6.460841625E0,2.370855212E-1,1.422617882E-1,1.059345007E0
6.480843187E0,2.179218084E-1,2.739817798E-1,1.030756593E0
6.502843187E0,-3.248057887E-2,4.384965301E-1,9.876294732E-1
6.524843187E0,-2.755525708E-1,3.754377663E-1,9.299463034E-1
6.546841625E0,-2.972644866E-1,3.021863103E-1,8.806582093E-1
6.566843187E0,-1.821949184E-1,2.430894524E-1,8.256279826E-1
6.588843187E0,-5.424483120E-2,2.397384197E-1,7.968475223E-1
6.610843187E0,1.048942842E-2,3.967307806E-1,7.166321874E-1
6.632841625E0,5.038765445E-2,4.176747501E-1,5.783846378E-1
6.652841625E0,4.806636646E-2,2.881887555E-1,4.847826660E-1
6.672841625E0,-2.890265174E-2,2.069960535E-1,4.824264646E-1
6.692841625E0,-6.412339956E-2,1.040914357E-1,5.101248026E-1
6.712841625E0,-1.286307629E-2,6.939429045E-2,4.958131313E-1
6.732841625E0,9.354964830E-3,1.792627722E-1,4.178143740E-1
6.752843187E0,3.761184588E-2,1.122072190E-1,3.167248964E-1
6.774843187E0,1.849699914E-1,-5.087634921E-2,9.187413007E-2
6.794843187E0,3.813544512E-1,-2.023360133E-1,-1.039169058E-1
6.814843187E0,4.497189820E-1,-3.305130005E-1,-1.750216186E-1
6.834843187E0,4.095415175E-1,-5.028991699E-1,-8.878489584E-2
6.854843187E0,3.811275363E-1,-3.750887215E-1,1.698205434E-2
6.876841625E0,4.224220514E-1,-8.471827954E-2,4.579744115E-2
6.896841625E0,5.068959594E-1,1.665044017E-2,1.377588362E-1
6.916843187E0,5.661150217E-1,6.253514439E-2,1.489464045E-1
6.938843187E0,4.675737023E-1,1.744107455E-1,5.129522830E-2
6.958843187E0,1.768891215E-1,4.876100719E-1,-1.130275205E-1
6.978860375E0,-2.629163861E-1,7.054795623E-1,-3.342480063E-1
7.000841625E0,-6.333276033E-1,4.720766544E-1,-3.980223238E-1
7.020841625E0,-5.100375414E-1,1.274439394E-1,-1.771160066E-1
7.040843187E0,-7.297221571E-2,-3.501130641E-2,-1.048942842E-2
7.062841625E0,3.011565506E-1,5.454153940E-2,5.358160660E-2
7.082843187E0,4.997401237E-1,8.101818711E-2,4.014257342E-2
7.104847875E0,6.366437674E-1,-1.079311594E-1,-5.503023043E-2
7.124847875E0,6.040933728E-1,-2.260724902E-1,-1.191710830E-1
7.144855687E0,4.290193915E-1,-1.528908461E-1,-1.254193634E-1
7.166843187E0,1.963320822E-1,3.029891662E-2,-6.169738993E-2
7.186843187E0,7.899360359E-2,1.099906489E-1,-3.248057887E-2
7.206843187E0,-1.221730467E-2,1.972920150E-1,1.762782573E-3
7.226843187E0,-6.646213681E-2,2.476796806E-1,9.094911069E-2
7.246843187E0,3.054326167E-3,1.612684280E-1,2.571393549E-1
7.266843187E0,1.296081543E-1,3.708824515E-2,3.615275025E-1
7.286843187E0,2.003812492E-1,-1.593485661E-2,4.002040029E-1
7.308843187E0,1.686162651E-1,1.084547564E-1,3.835012019E-1
7.330843187E0,9.911724925E-2,2.447824329E-1,3.352079391E-1
7.352843187E0,1.012290944E-3,1.961400956E-1,2.900038958E-1
7.372843187E0,-8.374089748E-2,3.211405873E-2,2.426182181E-1
7.394843187E0,-1.396263391E-1,-3.534291685E-2,1.444958150E-1
7.414849437E0,-1.244768798E-1,-1.633628160E-1,8.061675727E-2
7.436841625E0,-2.271895111E-1,-3.143338114E-2,1.115090847E-1
7.456843187E0,-5.249426961E-1,3.484026194E-1,2.012539208E-1
7.478861937E0,-7.016398311E-1,1.395216137E-1,3.722263575E-1
7.500841625E0,-3.967482448E-1,-2.378709167E-1,5.018869042E-1
7.520841625E0,-1.705186628E-2,7.068583369E-2,5.299168825E-1
7.540843187E0,8.225736767E-2,7.358133793E-1,4.387583137E-1
7.562841625E0,5.899212789E-3,6.888290644E-1,2.987480164E-1
7.582843187E0,-1.665567756E-1,2.488141358E-1,3.833092153E-1
7.604843187E0,-4.111821055E-1,-1.106538773E-1,6.418797374E-1
7.624847875E0,-5.338962078E-1,-1.920909435E-1,9.206786156E-1
7.644857250E0,-4.685685337E-1,-1.772556454E-1,1.085594773E0
7.666841625E0,-3.147701323E-1,-7.784168236E-3,1.068874478E0
7.686843187E0,-1.545663625E-1,2.619041204E-1,8.989143968E-1
7.706843187E0,-2.860594541E-2,4.029441774E-1,6.590363383E-1
7.726843187E0,3.309144080E-2,2.818357646E-1,4.950102866E-1
7.746843187E0,6.981316954E-3,2.002590746E-1,4.655840397E-1
7.766843187E0,1.551597659E-2,1.641307622E-1,4.398927689E-1
7.786843187E0,3.043854237E-2,1.611637026E-1,3.752457798E-1
7.808843187E0,-3.899065405E-2,2.849075496E-1,2.854136825E-1
7.830841625E0,-6.318091601E-2,3.906221390E-1,1.692271233E-1
7.850843187E0,-3.714060783E-2,2.805442214E-1,9.238027781E-2
7.870843187E0,-1.155408006E-2,1.289798319E-2,4.415683076E-2
7.892841625E0,-3.427826613E-2,-2.616946697E-1,1.710422710E-2
7.912841625E0,-5.085889250E-2,-4.290368259E-1,-3.438298777E-2
7.932843187E0,-2.766346931E-2,-4.197516739E-1,-1.185951233E-1
7.954849437E0,-2.439970337E-2,-2.159495950E-1,-1.318421662E-1
7.976841625E0,4.607669078E-3,-2.431767285E-1,-2.002241760E-1
7.996843187E0,1.483529806E-3,-2.596351802E-1,-2.494599074E-1
8.018843187E0,1.802925020E-2,-7.476990670E-2,-1.179493517E-1
8.040843187E0,1.954594254E-1,-8.183848858E-2,1.391376406E-1
8.060843187E0,5.325523019E-1,-9.335765988E-2,2.320764363E-1
8.082843187E0,7.283433676E-1,2.973691821E-1,7.072073966E-2
8.102843187E0,5.743180513E-1,6.980095506E-1,-1.847256422E-1
8.122843187E0,2.512750626E-1,6.965957880E-1,-3.393269181E-1
8.142843187E0,4.551818594E-2,3.477568626E-1,-3.386287689E-1
8.162843187E0,-2.085668407E-2,-2.176425606E-2,-2.055997849E-1
8.182843187E0,-4.546582699E-2,-2.078861594E-1,-5.855579674E-2
8.202843187E0,-6.483898312E-2,-1.623156220E-1,7.094763219E-2
8.222843187E0,1.107760444E-1,-1.146681309E-1,1.131671518E-1
8.244849437E0,4.120024145E-1,-1.191012710E-1,-2.904227935E-2
8.266844750E0,5.255709887E-1,-7.892379165E-2,-2.322684228E-1
8.288843187E0,4.096985757E-1,-1.401150376E-1,-3.389429450E-1
8.308843187E0,1.187871099E-1,-1.581966430E-1,-3.126582801E-1
8.330843187E0,-2.358637899E-1,-1.629090309E-1,-1.415636539E-1
8.352843187E0,-3.933797479E-1,-1.271297783E-1,7.466518879E-2
8.374841625E0,-3.030415177E-1,9.075712413E-3,1.596103609E-1
8.394843187E0,-8.962265402E-2,1.000946313E-1,2.008175850E-1
8.414843187E0,1.196597740E-1,1.579348445E-1,2.827258706E-1
8.434843187E0,2.618691921E-1,2.039242685E-1,3.423637748E-1
8.454843187E0,3.061656654E-1,1.864884347E-1,3.182084262E-1
8.474843187E0,1.675865203E-1,1.812000871E-1,2.574884295E-1
8.494843187E0,-2.624975145E-2,1.411098689E-1,2.347991467E-1
8.514843187E0,-1.160643920E-1,-2.797762863E-2,1.404466480E-1
8.534849437E0,-6.309365481E-2,-2.424436808E-1,-1.818633080E-2
8.556843187E0,1.523672417E-2,-3.164631128E-1,-2.138726413E-1
8.578861937E0,-1.220508739E-1,1.278628260E-1,-2.911907434E-1
8.600841625E0,-3.143163323E-1,5.364269614E-1,-1.599594206E-1
8.620843187E0,-3.115587234E-1,3.213325739E-1,7.682939619E-2
8.642843187E0,-4.485496134E-2,-2.704736590E-1,4.061904848E-1
8.664843187E0,5.494296551E-2,-1.748296320E-1,5.328839421E-1
8.684854125E0,-1.670803726E-1,2.151292861E-1,4.570493698E-1
8.706843187E0,-3.501479626E-1,2.755700350E-1,3.876376152E-1
8.726843187E0,-2.653947771E-1,1.534493417E-1,3.989997208E-1
8.746843187E0,-1.337794811E-1,1.176351905E-1,4.946961105E-1
8.766843187E0,-8.819148690E-2,1.429424584E-1,5.836730003E-1
8.786843187E0,-1.389456540E-1,1.415287554E-1,6.566627026E-1
8.808843187E0,-1.381253600E-1,1.303062886E-1,6.888116598E-1
8.830843187E0,-7.817329466E-2,1.982693970E-1,6.321582794E-1
8.850843187E0,-1.862266287E-2,3.599741459E-1,5.425530672E-1
8.872841625E0,2.897246554E-2,5.633224845E-1,4.358785152E-1
8.892841625E0,2.919935808E-2,5.922076702E-1,3.627666831E-1
8.912841625E0,1.642354764E-2,4.760211110E-1,3.119775951E-1
8.932843187E0,1.233947743E-2,2.708750963E-1,2.225643843E-1
8.954843187E0,1.500983140E-3,3.946189582E-2,8.436921239E-2
8.974843187E0,-5.609488115E-2,-5.682792142E-2,-4.131194204E-2
8.996843187E0,-1.428377479E-1,-1.311091334E-1,-1.884082854E-1
9.018843187E0,-2.146580368E-1,-2.592163086E-1,-2.333854288E-1
9.040841625E0,-9.456194192E-2,-3.185749352E-1,-1.558579057E-1
9.060841625E0,8.567821234E-2,-2.607870996E-1,-1.243896186E-1
9.080843187E0,1.011592820E-1,-1.740267724E-1,-1.637817025E-1
9.100843187E0,-5.686282739E-2,-1.699601561E-1,-2.378883809E-1
9.120843187E0,-1.504997462E-1,-4.005007148E-1,-3.304431736E-1
9.142843187E0,-6.688101590E-2,-7.607541084E-1,-4.658458233E-1
9.162843187E0,2.054252476E-2,-7.850665450E-1,-4.725653529E-1
9.184847875E0,-1.078613475E-2,-2.770012021E-1,-3.725056350E-1
9.206843187E0,5.600761622E-2,4.927064478E-2,-2.813470662E-1
9.226843187E0,2.710845470E-1,-7.014477998E-2,-3.284884095E-1
9.246844750E0,3.517362177E-1,-2.075022012E-1,-5.142961740E-1
9.268841625E0,6.464699656E-2,-2.131396085E-1,-7.125656009E-1
9.288841625E0,-3.697130978E-1,-9.922196716E-2,-7.031233311E-1
9.308843187E0,-4.682194889E-1,-1.448623277E-2,-5.494819880E-1
9.328843187E0,-1.993864179E-1,2.563888580E-2,-4.204847217E-1
9.348843187E0,1.705710292E-1,6.368706375E-2,-3.417180181E-1
9.368843187E0,3.210009634E-1,4.768239334E-2,-2.945941091E-1
9.390841625E0,2.950828075E-1,-2.576280534E-1,-2.304358184E-1
9.410841625E0,2.242922634E-1,-4.309392571E-1,-1.683719158E-1
9.430843187E0,2.299122214E-1,-3.787539005E-1,-1.856855750E-1
9.452841625E0,2.311688513E-1,-1.774999872E-2,-2.549053431E-1
9.472841625E0,2.785196304E-1,2.538406849E-1,-2.978055179E-1
9.492841625E0,2.757096589E-1,3.495370746E-1,-2.182708681E-1
9.512844750E0,1.769065708E-1,2.946115732E-1,-1.117185280E-1
9.534843187E0,3.385938704E-3,2.514844835E-1,4.365068302E-2
9.554854125E0,-9.761626273E-2,2.023534775E-1,2.411172390E-1
9.576841625E0,-9.250245243E-2,1.069363207E-1,4.385139644E-1
9.596843187E0,-6.174974889E-2,5.270894244E-2,5.433210135E-1
9.618841625E0,-8.527678996E-2,3.532546386E-2,5.491504073E-1
9.638841625E0,-1.582839042E-1,6.403613091E-2,4.385314286E-1
9.658843187E0,-1.913578957E-1,-1.972221956E-2,2.686934471E-1
9.678861937E0,-1.322261393E-1,-1.792104095E-1,1.260127723E-1
9.700843187E0,-1.095543131E-1,-3.129375279E-1,8.862782270E-2
9.722843187E0,-2.356019914E-1,-1.012290940E-1,1.138129234E-1
9.744843187E0,-5.735501051E-1,4.980646074E-1,1.272519529E-1
9.764844750E0,-8.132361770E-1,6.150540113E-1,1.909041107E-1
9.784847875E0,-6.216688156E-1,1.488765776E-1,3.061656654E-1
9.806841625E0,-8.752825856E-2,-2.991668880E-1,3.789982498E-1
9.826843187E0,2.826560736E-1,-1.114043668E-1,3.631157577E-1
9.846843187E0,4.581489265E-1,8.538150787E-2,3.306700885E-1
9.868843187E0,5.764647722E-1,1.303586364E-1,3.277902901E-1
9.890841625E0,5.284158587E-1,1.092576087E-1,3.957184851E-1
9.910841625E0,3.068812490E-1,6.806784123E-2,5.561665893E-1
9.930841625E0,2.672099136E-2,5.604252219E-2,7.542440295E-1
9.950841625E0,-1.909739226E-1,6.585127115E-2,9.214465618E-1
9.970843187E0,-2.486745119E-1,9.290387481E-2,9.980316162E-1
9.992841625E0,-2.233672440E-1,2.390577495E-1,1.013949037E0
1.001284162E1,-1.720894575E-1,3.587873280E-1,9.151284695E-1
1.003284163E1,-9.409070015E-2,2.629862130E-1,7.911403179E-1
1.005284163E1,-3.556980938E-2,9.410814941E-2,7.087084055E-1
1.007284319E1,-5.651376024E-2,1.929112375E-1,5.783672333E-1
1.009284319E1,-1.373574138E-1,3.695211112E-1,3.691196740E-1
1.011484319E1,-2.282541543E-1,3.924198151E-1,2.234894037E-1
1.013484319E1,-2.042035162E-1,7.457792014E-2,2.228785455E-1
1.015484319E1,-1.436231434E-1,-2.582738101E-1,2.657438219E-1
1.017484319E1,-7.290240377E-2,-2.828480601E-1,1.882162988E-1
1.019484319E1,6.206390634E-2,-1.610938907E-1,1.614429504E-1
1.021485100E1,2.497042567E-1,-9.922196716E-2,2.474178672E-1
1.023684162E1,3.415434659E-1,-8.281587064E-2,3.228684664E-1
1.025684162E1,4.439070523E-1,-1.283166111E-1,3.108082414E-1
1.027684319E1,6.483723521E-1,-2.703863978E-1,2.394068092E-1
1.029884319E1,8.464672565E-1,-3.981619477E-1,2.370157093E-1
1.032084162E1,8.319286108E-1,-4.752531648E-1,3.851592541E-1
1.034084319E1,6.790552735E-1,-3.080680668E-1,5.165825486E-1
1.036284319E1,5.322905183E-1,1.773254573E-2,5.717349648E-1
1.038484319E1,3.330960870E-1,1.043008789E-1,5.583657026E-1
1.040684319E1,-1.383347958E-1,2.462310493E-1,5.307371616E-1
1.042684319E1,-6.718993783E-1,3.680724800E-1,5.808455944E-1
1.044686038E1,-8.912872672E-1,6.276203692E-2,8.188910484E-1
1.046884163E1,-6.903300881E-1,-4.339237511E-1,1.194608092E0
1.048884163E1,-3.804992437E-1,-4.437325001E-1,1.390434027E0
1.050884162E1,-4.480260238E-2,-2.023534775E-1,1.403035283E0
1.052884319E1,2.937563658E-1,6.965608895E-2,1.255153537E0
1.054884319E1,5.044873953E-1,1.978679746E-1,1.054667592E0
1.056884319E1,4.335746765E-1,1.854063272E-1,9.540493488E-1
1.058884319E1,1.181238815E-1,8.265879005E-2,1.016113281E0
1.060884319E1,-1.592612863E-1,4.375540465E-2,1.190349460E0
1.063084162E1,-2.273291349E-1,3.403042853E-1,1.369664550E0
1.065084162E1,-2.483603507E-1,6.052452922E-1,1.404082417E0
1.067084163E1,-3.712664247E-1,7.629357576E-1,1.467804432E0
1.069084163E1,-4.587947130E-1,5.853136182E-1,1.525714517E0
1.071084162E1,-5.605997443E-1,4.204498231E-1,1.511682034E0
1.073084162E1,-6.719168425E-1,3.988251984E-1,1.466216207E0
1.075084163E1,-5.673367381E-1,3.363947570E-1,1.511001348E0
1.077084319E1,-2.579073012E-1,3.861890137E-1,1.447349191E0
1.079284319E1,-1.896474808E-1,8.047015071E-1,1.295069218E0
1.081484319E1,-4.253891110E-1,9.990090132E-1,1.330359817E0
1.083484319E1,-4.460363388E-1,6.070429683E-1,1.426073670E0
1.085484319E1,-2.063851804E-1,1.957212240E-1,1.369943857E0
1.087484319E1,-2.288301140E-1,2.562317848E-1,1.240632415E0
1.089484319E1,-7.311358452E-1,6.058387160E-1,1.293358803E0
1.091684319E1,-1.054580331E0,6.388952136E-1,1.522642732E0
1.093884319E1,-5.784370303E-1,4.718497694E-1,1.661762834E0
1.095884319E1,1.464156657E-1,2.321113348E-1,1.528821111E0
1.097886194E1,4.256508946E-1,1.069712266E-1,1.471905947E0
1.100084163E1,4.139048159E-1,2.742435932E-1,1.383190870E0
1.102084163E1,5.575628877E-1,5.518207550E-1,1.224191427E0
1.104084319E1,6.174276471E-1,7.548374534E-1,9.741904140E-1
1.106284162E1,4.594928324E-1,4.824090004E-1,8.430289030E-1
1.108284319E1,1.985835582E-1,1.558055431E-1,9.435948133E-1
1.110484319E1,-8.112290502E-2,-1.118930578E-1,1.112385631E0
1.112484319E1,-2.434734255E-1,1.102349982E-1,1.276359320E0
1.114484788E1,-2.477494925E-1,3.707777560E-1,1.223109245E0
1.116684162E1,-2.310641408E-1,6.782174706E-1,1.015816569E0
1.118684163E1,-4.347615317E-2,6.038315296E-1,7.951719761E-1
1.120684319E1,9.622000158E-2,5.028817058E-1,6.368357539E-1
1.122884319E1,-1.225221157E-2,3.692767620E-1,5.454677343E-1
1.124884319E1,-1.849525422E-1,-4.551818594E-2,5.043652654E-1
1.127084163E1,-2.035053968E-1,-5.759237409E-1,4.545361102E-1
1.129084162E1,-3.431317210E-2,-5.444030762E-1,4.122816622E-1
1.131084162E1,1.082976833E-1,-1.794023961E-1,3.917042315E-1
1.133084319E1,1.632580906E-1,8.658578247E-2,3.036349416E-1
1.135284319E1,3.382448107E-2,8.059930801E-2,1.352281123E-1
1.137484162E1,-2.338741124E-1,4.974188283E-3,8.230973035E-2
1.139484319E1,-4.696157277E-1,-1.004611477E-1,1.100255549E-1
1.141484319E1,-5.474748611E-1,-2.205398083E-1,1.867327690E-1
1.143484319E1,-4.962145686E-1,-2.192133479E-2,2.824117243E-1
1.145484319E1,-3.159045875E-1,1.902932525E-1,3.510206044E-1
1.147484319E1,2.151467353E-1,7.248352468E-2,2.897595465E-1
1.149684319E1,8.490852118E-1,1.733984649E-1,3.394665569E-2
1.151884319E1,9.980316162E-1,4.747295678E-1,-2.410997748E-1
1.154084319E1,6.207438111E-1,5.289569497E-1,-3.466049433E-1
1.156084319E1,1.582315564E-1,2.110801190E-1,-3.095515966E-1
1.158284319E1,-1.865756959E-1,-1.910088360E-1,-1.757721156E-1
1.160484319E1,-2.764950693E-1,-1.892285943E-1,-2.565634064E-2
1.162484319E1,-1.910088360E-1,4.101523757E-2,3.762929887E-2
1.164484944E1,1.146681327E-2,1.408306211E-1,-3.555235639E-2
1.166684162E1,2.658834457E-1,-1.684242673E-2,-1.527861208E-1
1.168684163E1,4.266108274E-1,-2.503325641E-1,-2.245715111E-1
1.170684319E1,4.925493598E-1,-2.937912643E-1,-2.117258906E-1
1.172684319E1,5.229006410E-1,-2.124240249E-1,-1.869596690E-1
1.174684475E1,5.099852085E-1,-7.527604699E-2,-1.571494490E-1
1.176884319E1,3.522423506E-1,-2.330014482E-2,-8.370599151E-2
1.179084162E1,1.679181308E-1,-1.241278127E-1,4.244640842E-2
1.181084319E1,5.876523629E-2,-6.342526525E-2,2.048842013E-1
1.183084319E1,2.644173801E-2,3.621034622E-1,3.363423944E-1
1.185084319E1,1.129402518E-1,5.573709011E-1,3.705334067E-1
1.187284319E1,1.933301240E-1,5.021137595E-1,3.532546461E-1
1.189484944E1,2.460216135E-1,4.963890910E-1,3.173008561E-1
1.191684319E1,3.391523659E-1,5.086936355E-1,2.218837142E-1
1.193884319E1,4.715355933E-1,2.118829638E-1,2.974040993E-2
1.195884319E1,5.376312137E-1,-1.201659217E-1,-6.667157635E-3
1.197886194E1,4.952197075E-1,-1.384744197E-1,5.379104614E-2
1.200084163E1,1.850398034E-1,2.061757445E-1,1.323657632E-1
1.202084163E1,-3.642851114E-1,5.648234487E-1,2.275909334E-1
1.204084319E1,-7.138396502E-1,3.890687823E-1,3.009296656E-1
1.206284162E1,-4.223871231E-1,-1.463807672E-1,2.911383808E-1
1.208284319E1,1.701696068E-1,-4.333477914E-1,1.957561225E-1
1.210284319E1,3.211580217E-1,-2.096489519E-1,2.156354338E-1
1.212484162E1,-6.342526525E-2,4.220380783E-1,2.922903001E-1
1.214484319E1,-2.599667907E-1,6.452133060E-1,2.027897984E-1
1.216484631E1,-2.390751988E-1,5.254313946E-1,1.821425557E-1
1.218484788E1,-1.132195070E-1,2.874731719E-1,1.987755448E-1
1.220684319E1,-7.721336931E-2,1.614953130E-1,2.658660114E-1
1.222684319E1,-9.494590759E-2,-1.171115879E-2,3.406533599E-1
1.224684788E1,-9.354964644E-2,-2.415186614E-1,3.586302400E-1
1.226884162E1,-3.518583626E-2,-1.514596790E-1,3.648087084E-1
1.228884162E1,6.977826357E-2,1.121723130E-1,3.091501594E-1
1.230884319E1,1.446354389E-1,2.330712676E-1,2.487966865E-1
1.233084163E1,9.440486133E-2,1.554041207E-1,2.177647352E-1
1.235084163E1,-7.033676840E-3,1.042659655E-1,2.177996337E-1
1.237084162E1,-5.525712296E-2,1.443212777E-1,2.037148327E-1
1.239084319E1,-1.204800755E-1,1.679704934E-1,1.419127136E-1
1.241084319E1,-2.429149300E-1,2.427578419E-1,6.644468755E-2
1.243284319E1,-2.165080905E-1,1.213352904E-1,3.345796093E-2
1.245484788E1,-3.853686899E-2,-2.059837580E-1,1.923352852E-2
1.247684162E1,-1.021017600E-2,-2.085319310E-1,-2.600540593E-2
1.249684319E1,-1.510058790E-1,-1.096066739E-2,-8.761552721E-2
1.251884319E1,-2.301391214E-1,-7.689920813E-2,-1.215447262E-1
1.254084162E1,-9.583602846E-2,-4.648335278E-1,-2.211157680E-1
1.256084162E1,5.450663343E-2,-6.797882915E-1,-3.271619678E-1
1.258084163E1,1.534493417E-1,-6.434505582E-1,-4.010766745E-1
1.260084163E1,3.197617829E-1,-6.308143735E-1,-4.160864949E-1
1.262084319E1,5.943544507E-1,-5.929058194E-1,-3.983016014E-1
1.264284319E1,7.883128524E-1,-2.703863978E-1,-4.709596336E-1
1.266484319E1,6.207961440E-1,2.183755934E-1,-6.493672132E-1
1.268485413E1,9.346237779E-2,4.312534034E-1,-8.496088386E-1
1.270684319E1,-3.346494436E-1,-5.291838199E-2,-8.853356838E-1
1.272684319E1,-2.049714625E-1,-5.399001241E-1,-7.432309985E-1
1.274684319E1,1.964891702E-1,-4.782202244E-1,-6.399773359E-1
1.276884162E1,4.498062432E-1,-9.595820308E-2,-5.812819004E-1
1.278884319E1,5.425705314E-1,-3.286454827E-2,-5.996427536E-1
1.280884319E1,5.452757478E-1,-2.264215648E-1,-6.321408153E-1
1.283084319E1,4.708723724E-1,-4.007275999E-1,-6.562961340E-1
1.285084319E1,4.138001204E-1,-3.076317310E-1,-6.239203215E-1
1.287284319E1,4.096636772E-1,-1.104967967E-1,-5.083620548E-1
1.289484319E1,3.082949519E-1,1.598721556E-2,-3.560471535E-1
1.291484631E1,1.379508227E-1,8.306021988E-2,-1.668185741E-1
1.293484944E1,3.850196302E-2,4.588470608E-2,-3.171263263E-2
1.295684163E1,-9.948376566E-3,-7.120943069E-2,7.120943163E-3
1.297684162E1,-2.651155181E-2,-8.770279586E-2,2.612757869E-2
1.299684319E1,-3.956661373E-2,7.723081857E-2,3.680899367E-2
1.301684319E1,-1.414589286E-1,2.021789402E-1,9.538224339E-2
1.303884163E1,-3.092723489E-1,1.506568193E-1,1.972396523E-1
1.305884163E1,-3.648610711E-1,-3.066543490E-2,2.573488057E-1
1.307886194E1,-2.894802988E-1,-2.064899057E-1,2.132443339E-1
1.310084163E1,-2.363001257E-1,-1.188743785E-1,8.260643482E-2
1.312084162E1,-3.689800501E-1,1.101651788E-1,-4.822344705E-2
1.314084162E1,-6.792472601E-1,6.052103639E-1,-2.937389165E-2
1.316084163E1,-1.088980675E0,9.478185177E-1,1.391027421E-1
1.318084163E1,-1.228589654E0,3.915995359E-1,3.572688997E-1
1.320084319E1,-8.757712841E-1,-4.870690405E-1,5.194448829E-1
1.322284319E1,-1.890715212E-1,-5.293059945E-1,5.279620886E-1
1.324485100E1,1.630312055E-1,5.829399824E-2,3.933972120E-1
1.326684163E1,5.668829381E-2,5.407727957E-1,1.984090358E-1
1.328684319E1,-1.559800804E-1,3.843738735E-1,1.890715212E-1
1.330884319E1,-3.253642917E-1,-2.558652684E-2,3.458195329E-1
1.333084319E1,-3.991218805E-1,-1.008276716E-1,5.757841468E-1
1.335284163E1,-3.626794219E-1,8.468337357E-2,6.916739941E-1
1.337284319E1,-2.975960970E-1,2.898817360E-1,6.447420716E-1
1.339484319E1,-1.932777613E-1,3.164107502E-1,5.596922040E-1
1.341484319E1,-2.206096239E-2,2.228087336E-1,4.718846679E-1
1.343484319E1,1.580221057E-1,1.328370124E-1,4.014780819E-1
1.345484319E1,2.412743121E-1,8.634144068E-2,3.799756169E-1
1.347484319E1,2.358114272E-1,1.310742199E-1,3.964689970E-1
1.349484319E1,1.292067170E-1,2.456725389E-1,3.938160837E-1
1.351484788E1,1.558579039E-2,2.986607552E-1,3.818256855E-1
1.353684163E1,-1.031140536E-1,3.618416488E-1,3.978652656E-1
1.355684319E1,-1.740616858E-1,4.445004463E-1,3.980572522E-1
1.357684319E1,-1.397310644E-1,3.555584848E-1,3.801676035E-1
1.359884319E1,-3.684389964E-2,5.431464687E-2,2.694962919E-1
1.362084319E1,7.991862297E-2,-1.444783509E-1,7.291985303E-2
1.364284319E1,1.839053482E-1,-3.539178669E-1,-1.148601174E-1
1.366484319E1,2.988003790E-1,-7.382218838E-1,-1.496968865E-1
1.368484319E1,3.595203757E-1,-8.859815001E-1,-1.344950646E-1
1.370484319E1,3.393269181E-1,-7.973710895E-1,-1.932777613E-1
1.372485881E1,3.140545487E-1,-5.665687919E-1,-2.877175212E-1
1.374684319E1,2.892010510E-1,-2.466499358E-1,-3.669380248E-1
1.376684319E1,3.702017963E-1,-2.140297294E-1,-3.563962281E-1
1.378684319E1,5.360255241E-1,-2.415710241E-1,-3.312634826E-1
1.380684319E1,5.452234149E-1,-1.457873583E-1,-4.682369232E-1
1.382684319E1,3.153460920E-1,3.235840425E-2,-6.780429482E-1
1.384685100E1,-1.832595654E-2,1.679704934E-1,-8.485441804E-1
1.386884319E1,-8.726646006E-2,7.836528122E-2,-7.165798545E-1
1.388884319E1,8.927359432E-2,-4.415682983E-3,-5.138947368E-1
1.391084163E1,2.953969836E-1,-3.014532626E-1,-4.662996233E-1
1.393084163E1,3.921754956E-1,-5.655390620E-1,-4.427551329E-1
1.395084162E1,4.482354522E-1,-5.055171847E-1,-3.662049770E-1
1.397084319E1,4.764923453E-1,-6.885323673E-2,-2.944195867E-1
1.399284162E1,4.440641105E-1,3.048042953E-1,-2.642602921E-1
1.401284162E1,3.205820620E-1,-4.487241432E-2,-3.830474019E-1
1.403284163E1,1.751612425E-1,-2.121971250E-1,-5.007349849E-1
1.405284163E1,1.019446775E-1,2.733010948E-1,-3.773576319E-1
1.407284319E1,4.038691893E-2,6.122964025E-1,-1.689129621E-1
1.409484319E1,-4.899139330E-2,5.640904307E-1,4.569271952E-2
1.411484319E1,-2.206619829E-1,5.145754218E-1,1.412494928E-1
1.413484788E1,-4.400324225E-1,4.021064043E-1,1.086292937E-1
1.415684162E1,-5.989446640E-1,1.417905539E-1,-1.019272301E-2
1.417684319E1,-3.764325976E-1,-7.210828066E-1,3.283836842E-1
1.419884162E1,-2.309419662E-1,-7.340505719E-1,8.213170171E-1
1.421884163E1,-1.882861257E-1,-1.302364618E-1,9.510822892E-1
1.423884163E1,-2.981894910E-1,-1.089783609E-1,5.070006847E-1
1.425884162E1,-3.128328025E-1,-4.549375176E-1,3.054151535E-1
1.427886194E1,-1.315280050E-1,-3.966958821E-1,2.650108039E-1
1.430084162E1,-1.459269822E-1,6.329610944E-1,3.182956874E-1
1.432084163E1,-1.899616420E-1,7.536331415E-1,4.793023169E-1
1.434084319E1,1.595230997E-1,3.127281070E-1,6.096609831E-1
1.436284319E1,4.703487754E-1,3.033033311E-1,8.395033479E-1
1.438484319E1,3.384367824E-1,1.213352904E-1,1.116975784E0
1.440484319E1,-1.655968428E-1,-1.879545003E-1,1.346556425E0
1.442484944E1,-1.627344936E-1,-4.060333967E-1,1.206458807E0
1.444484944E1,2.887472808E-1,1.853539608E-2,9.094038010E-1
1.446684319E1,4.358959794E-1,3.880215883E-1,6.004106998E-1
1.448684319E1,-5.729915947E-2,5.411916971E-1,3.634648025E-1
1.450684319E1,-4.310265183E-1,5.388878584E-1,2.594780922E-1
1.452884319E1,-1.625425071E-1,2.005732358E-1,1.468345523E-1
1.454884319E1,8.616690338E-2,4.148298502E-1,1.465203911E-1
1.456884319E1,-1.179668009E-1,8.419119120E-1,1.750390679E-1
1.458884319E1,-5.440191180E-2,1.003738880E0,1.065523475E-1
1.460884319E1,9.208357334E-2,7.794814706E-1,-7.550293952E-2
1.462884319E1,1.275661141E-1,3.432713449E-1,-2.249554843E-1
1.465084319E1,2.086715698E-1,-5.982988700E-2,-2.967408895E-1
1.467284162E1,3.970274925E-1,-4.478863776E-1,-3.103893399E-1
1.469284163E1,4.517435730E-1,-6.206216216E-1,-3.107907772E-1
1.471284319E1,2.312386781E-1,-8.183848858E-1,-3.490833044E-1
1.473284319E1,-7.932521403E-2,-7.003657222E-1,-4.409225285E-1
1.475484319E1,-2.341359109E-1,-3.487167954E-1,-3.134262264E-1
1.477484319E1,-2.640334070E-1,-5.671796203E-1,-1.258731484E-1
1.479484319E1,-3.540225923E-1,-7.819074988E-1,-1.233598739E-1
1.481484319E1,-4.788659811E-1,-4.715355933E-1,-1.770636588E-1
1.483684319E1,-5.674763322E-1,-5.068436265E-2,-1.633802652E-1
1.485684319E1,-5.527806878E-1,-2.412045002E-2,3.677408770E-2
1.487886194E1,-5.190434456E-1,-2.804220617E-1,-1.042136103E-1
1.490084319E1,-2.467371970E-1,5.691518635E-2,-4.948880970E-1
1.492284162E1,3.996803984E-2,1.734508276E-1,-6.406580210E-1
1.494284163E1,9.623745829E-2,-6.967354566E-2,-6.964736581E-1
1.496284163E1,-7.473500073E-2,-5.855754018E-1,-7.964286208E-1
1.498284162E1,-1.175479218E-1,-7.758861184E-1,-8.154003620E-1
1.500284319E1,-2.426007763E-3,-5.515065789E-1,-6.913947463E-1
1.502484319E1,-3.605850041E-2,-1.039343551E-1,-5.527282953E-1
1.504485256E1,-2.217615396E-1,2.134712189E-1,-5.121493936E-1
1.506684319E1,-2.445206344E-1,1.980425119E-1,-5.381373763E-1
1.508684319E1,-8.274605870E-2,-6.876597181E-3,-4.937361777E-1
1.510684319E1,7.134906203E-2,-1.767494977E-1,-3.942524195E-1
1.512684319E1,1.676563323E-1,-2.253569067E-1,-2.906496823E-1
1.514684319E1,2.138202786E-1,-1.349314004E-1,-2.711718082E-1
1.516684319E1,1.625425071E-1,-8.152432740E-2,-2.744879425E-1
1.518684319E1,1.352630183E-2,4.105014354E-2,-2.792875767E-1
1.520684319E1,-2.080606967E-1,4.260348529E-2,-1.912008226E-1
1.522684319E1,-3.699574471E-1,-1.391027421E-1,-5.459389836E-2
1.524684319E1,-3.799930811E-1,-3.211056888E-1,2.720968239E-2
1.526884162E1,-2.727077007E-1,-3.222925067E-1,1.186823938E-3
1.528884163E1,-2.230530828E-1,-9.862855822E-2,-1.134987622E-1
1.530884319E1,-1.935046464E-1,8.566076308E-2,-8.831366152E-2
1.533084319E1,-2.292664498E-1,9.759881347E-2,7.881906629E-2
1.535284163E1,-3.985633850E-1,3.158347905E-1,2.976135314E-1
1.537284163E1,-3.743207753E-1,7.545232773E-1,5.142263770E-1
1.539284162E1,-3.834837377E-1,7.293033004E-1,5.914222598E-1
1.541284162E1,-6.006724834E-1,3.679154068E-2,3.028844297E-1
1.543284319E1,-6.362597942E-1,-4.173082113E-1,-1.481609941E-1
1.545484319E1,-5.829399824E-2,-4.236961305E-1,-3.172310293E-1
1.547484319E1,5.388005972E-1,-5.612106323E-1,-6.742206961E-2
1.549484319E1,6.152809262E-1,-1.118721128E0,2.412394136E-1
1.551484944E1,2.003637999E-1,-1.557723761E0,1.078962535E-1
1.553684319E1,-1.272170544E-1,-1.369629622E0,-3.731862903E-1
1.555684319E1,-1.703964919E-1,-7.512420416E-1,-5.702688694E-1
1.557684319E1,-1.794372946E-1,-1.764876992E-1,-3.825063705E-1
1.559684319E1,-2.816263139E-1,2.705434859E-1,3.874630854E-2
1.561684319E1,-3.175452054E-1,3.964515328E-1,2.285857648E-1
1.563684319E1,-1.688431501E-1,2.211157680E-1,2.235941291E-1
1.565884319E1,6.867870688E-2,1.002342552E-1,1.100779176E-1
1.567886194E1,1.468520015E-1,9.412560612E-2,5.331980810E-2
1.570084319E1,6.700319052E-2,-4.354596511E-2,4.263839498E-2
1.572284319E1,9.445721656E-2,-1.685988009E-1,5.736897141E-2
1.574484319E1,2.203652710E-1,-1.188569218E-1,8.302531391E-2
1.576484631E1,2.509608865E-1,-3.305653483E-2,1.010545641E-1
1.578484788E1,2.168222517E-1,5.567600206E-2,9.716247767E-2
1.580684319E1,1.514945775E-1,6.962118298E-2,6.190682948E-2
1.582684319E1,3.825761750E-2,-7.637561113E-2,1.268854365E-2
1.584684319E1,-7.192502171E-2,-2.983116806E-1,-3.832742944E-2
1.586684319E1,-1.068316028E-1,-4.491604865E-1,-2.494075522E-2
1.588684319E1,-5.944591388E-2,-2.907718420E-1,-2.792526735E-3
1.590884162E1,8.700466156E-2,1.017177850E-1,9.353219718E-2
1.592884162E1,2.137853801E-1,4.843812287E-1,2.638763189E-1
1.594884319E1,3.464478627E-2,4.863185287E-1,4.125260115E-1
1.597084319E1,-4.716403186E-1,5.023057386E-2,1.971174777E-1
1.599084319E1,-6.424382329E-1,-1.573065221E-1,-3.451039493E-1
1.601284319E1,-1.827883273E-1,5.401793867E-2,-6.260495782E-1
1.603484319E1,4.054399729E-1,3.354522884E-1,-2.779785991E-1
1.605684319E1,4.517086744E-1,1.365894675E-1,1.174606606E-1
1.607684319E1,1.749692559E-1,-1.527512223E-1,1.170068756E-1
1.609884319E1,-1.129228063E-2,-1.650557816E-1,-2.405936420E-1
1.611884319E1,-6.126105785E-2,3.679154068E-2,-5.558000803E-1
1.613884319E1,-1.134638563E-1,1.239881888E-1,-5.985780954E-1
1.615884319E1,-5.326744914E-2,1.365371048E-1,-4.352501929E-1
1.617886194E1,1.566607505E-1,2.088286430E-1,-2.994810343E-1
1.620084319E1,4.040611684E-1,4.009893835E-1,-1.398532391E-1
1.622284319E1,4.644146562E-1,4.401022196E-1,-5.141739920E-2
1.624484944E1,4.291240871E-1,2.669655681E-1,-8.742354065E-2
1.626684162E1,3.753854036E-1,1.361880451E-1,-9.601055831E-2
1.628684319E1,1.933999360E-1,1.041088924E-1,-6.065019220E-2
1.630684319E1,-2.523746155E-2,5.747369304E-2,-5.454153940E-2
1.632684319E1,-1.485449672E-1,-1.673770696E-2,-1.158724055E-1
1.634684319E1,-1.539380401E-1,-5.483824387E-2,-1.653175801E-1
1.636684319E1,-1.258207858E-1,-5.256931856E-2,-2.019345909E-1
1.638684319E1,-8.117526025E-2,-1.548107062E-2,-1.768193096E-1
1.640884162E1,-2.932153177E-3,4.380776361E-2,-7.356562465E-2
1.642884162E1,1.002517119E-1,4.052654654E-2,3.092723340E-2
1.644884319E1,2.506641746E-1,5.019566789E-2,1.573065221E-1
1.647084319E1,3.308969736E-1,2.029643357E-1,2.224247605E-1
1.649284162E1,6.958627701E-2,3.937288225E-1,2.535614371E-1
1.651284319E1,-2.868623137E-1,3.438473046E-1,2.822022736E-1
1.653484319E1,-4.607669115E-1,2.848377265E-2,1.277930140E-1
1.655684319E1,-1.036900133E-1,-4.539601505E-2,-1.258382387E-2
1.657684319E1,4.203974605E-1,7.920303941E-2,1.443212777E-1
1.659884319E1,5.333726406E-1,-1.374097764E-1,4.199262261E-1
1.662084319E1,1.151917279E-1,-5.133013129E-1,3.962944448E-1
1.664284319E1,-3.202853799E-1,-6.693861485E-1,2.120575123E-2
1.666284319E1,-3.631855547E-1,-4.282165170E-1,-3.160791397E-1
1.668485100E1,-2.574186027E-1,4.033455998E-2,-3.854908645E-1
1.670684319E1,-2.672273517E-1,2.635447085E-1,-1.769589335E-1
1.672684319E1,-1.632057428E-1,2.960078418E-1,5.544910952E-2
1.674684319E1,2.331759781E-2,2.427578419E-1,1.715134978E-1
1.676684319E1,9.140289575E-2,1.606401056E-1,1.670454592E-1
1.678684475E1,-1.509709843E-2,-5.410520826E-3,6.555456668E-2
1.680884319E1,-1.027824357E-1,-1.593311131E-1,-1.500983164E-2
1.683084319E1,-9.257226437E-2,-1.372701526E-1,8.482300490E-2
1.685084319E1,-8.967501670E-2,-5.637413356E-3,2.049365640E-1
1.687284319E1,-1.600815952E-1,1.083674952E-1,2.217615396E-1
1.689484162E1,-1.845685691E-1,2.007826716E-1,2.483778000E-1
1.691484319E1,-1.516865641E-1,1.667487621E-1,3.267954588E-1
1.693484944E1,-2.050238252E-1,-3.740240633E-2,3.323630393E-1
1.695684163E1,-3.244567215E-1,-4.250923991E-1,2.453583926E-1
1.697684163E1,-3.034080267E-1,-6.753726006E-1,2.416757345E-1
1.699684319E1,-1.482657194E-1,-4.647637308E-1,3.890513480E-1
1.701884319E1,-2.907718532E-2,6.958627701E-2,5.868495107E-1
1.704084163E1,9.028588235E-2,5.468640327E-1,6.855827570E-1
1.706084163E1,2.121273130E-1,7.213445902E-1,8.392241001E-1
1.708084162E1,1.879719645E-1,5.931501389E-1,8.754571676E-1
1.710084319E1,1.869247667E-2,4.581314623E-1,6.140068173E-1
1.712084319E1,-2.216568217E-2,5.611757040E-1,2.057568580E-1
1.714284319E1,1.929985136E-1,4.796513915E-1,8.798204362E-2
1.716484162E1,4.528256655E-1,-4.035201296E-2,4.272391498E-1
1.718484319E1,6.210230589E-1,-4.460363388E-1,7.711737156E-1
1.720684319E1,7.186043859E-1,-4.119326174E-1,8.841314316E-1
1.722884319E1,5.695707202E-1,-2.556907237E-1,7.823961973E-1
1.724884319E1,2.675415277E-1,-1.142143458E-1,7.264583707E-1
1.727084319E1,-2.167698927E-2,-1.214749180E-2,7.674561739E-1
1.729284319E1,-2.850122750E-2,-8.703956753E-2,8.016820550E-1
1.731484944E1,2.668608427E-1,-2.295107953E-2,9.191427231E-1
1.733684162E1,4.952197075E-1,-9.850638360E-2,1.116853595E0
1.735684319E1,4.583060145E-1,-2.999871969E-1,1.245763659E0
1.737886194E1,2.942799628E-1,-3.205471635E-1,1.218937993E0
1.740084162E1,1.317374557E-1,-1.768367589E-1,1.182879448E0
1.742084162E1,5.169665068E-2,-1.142143458E-1,1.238922000E0
1.744084162E1,6.330309063E-2,-9.641198814E-2,1.348877668E0
1.746084162E1,1.383697093E-1,-1.373923123E-1,1.480737329E0
1.748084319E1,2.659532726E-1,-5.557128415E-2,1.581041455E0
1.750284319E1,3.917391598E-1,6.977826357E-2,1.648934722E0
1.752484319E1,4.468566477E-1,7.302457839E-2,1.712761402E0
1.754484319E1,4.229107201E-1,-9.913469665E-3,1.806223750E0
1.756684319E1,4.014431834E-1,2.319542505E-2,1.931136966E0
1.758884319E1,5.246983171E-1,3.894876838E-1,2.037218094E0
1.761084163E1,7.916289568E-1,9.315694571E-1,2.235278130E0
1.763084163E1,8.798379302E-1,1.075576544E0,2.473637581E0
1.765084162E1,6.285977960E-1,7.378728390E-1,2.567553759E0
1.767084162E1,2.199638486E-1,3.355744481E-1,2.426182270E0
1.769084319E1,-7.501424849E-2,1.659633517E-1,2.031423569E0
1.771284162E1,-3.191683590E-1,1.155931577E-1,1.457053185E0
1.773284319E1,-4.588994086E-1,2.490933836E-1,1.168864489E0
1.775484319E1,-5.746845603E-1,4.820948541E-1,1.259115458E0
1.777484319E1,-5.444729328E-1,5.218709111E-1,1.495869279E0
1.779484319E1,-2.144660652E-1,4.585328996E-1,1.628828526E0
1.781484319E1,2.359161526E-1,4.897393882E-1,1.651954174E0
1.783484319E1,4.551120400E-1,5.511400700E-1,1.647224307E0
1.785484319E1,3.812671602E-1,5.268450975E-1,1.662286520E0
1.787684162E1,2.054776102E-1,4.436976016E-1,1.618408918E0
1.789684162E1,7.895869762E-2,3.272317946E-1,1.496305704E0
1.791684319E1,4.260348529E-2,2.239431888E-1,1.346591353E0
1.793884163E1,3.443534672E-2,2.352005690E-1,1.183804512E0
1.795884319E1,-1.047197497E-3,3.155904412E-1,1.032152772E0
1.797886194E1,1.836086437E-2,3.474252522E-1,9.675058126E-1
1.800084162E1,5.434955284E-2,4.029441774E-1,9.108873606E-1
1.802084163E1,-7.913322747E-2,4.767890573E-1,7.443305850E-1
1.804084163E1,-3.265336454E-1,4.399102330E-1,5.036671162E-1
1.806084319E1,-4.883954823E-1,3.258180618E-1,3.757519424E-1
1.808284162E1,-5.372472405E-1,2.044478655E-1,3.784222901E-1
1.810284162E1,-4.537681639E-1,3.034603894E-1,3.864158988E-1
1.812284162E1,-3.473030627E-1,4.505392909E-1,3.086091280E-1
1.814284319E1,-4.176747501E-1,3.044377863E-1,1.795245707E-1
1.816284319E1,-6.040061116E-1,9.030333161E-2,-6.447245926E-2
1.818484319E1,-4.768413901E-1,4.701916873E-2,-3.118554354E-1
1.820684319E1,9.489355236E-2,1.868025959E-1,-2.269800752E-1
1.822884319E1,6.649704576E-1,4.507312775E-1,6.386159360E-2
1.824884319E1,7.774394751E-1,4.767192304E-1,2.225818336E-1
1.827084319E1,4.951324463E-1,1.776221544E-1,5.553637818E-2
1.829284319E1,2.883633077E-1,-1.651779562E-1,-2.637366951E-1
1.831484319E1,2.760587335E-1,-2.812772691E-1,-5.259026289E-1
1.833484319E1,3.615972996E-1,-6.218608096E-2,-6.812369227E-1
1.835484944E1,3.642153144E-1,9.622000158E-2,-6.020338535E-1
1.837684319E1,2.900562584E-1,7.813838869E-2,-4.261221290E-1
1.839884163E1,2.963743508E-1,-9.655161202E-2,-4.008148611E-1
1.841884163E1,3.663620651E-1,1.036376506E-1,-4.275882244E-1
1.843884163E1,4.204323590E-1,4.899313748E-1,-2.044478655E-1
1.845884319E1,3.780383170E-1,6.409721375E-1,1.120501384E-1
1.847886194E1,2.558652759E-1,4.836830795E-1,1.880766749E-1
1.850084162E1,1.822123677E-1,4.029267132E-1,8.998917788E-2
1.852084163E1,1.608495414E-1,3.522772491E-1,7.606144994E-2
1.854084163E1,1.874134541E-1,7.768460363E-2,1.535540670E-1
1.856084319E1,4.274311289E-2,4.394389987E-1,1.976236254E-1
1.858284319E1,-1.096066758E-1,5.364269614E-1,4.446226358E-1
1.860485725E1,-2.965314314E-2,4.487416148E-1,4.020016789E-1
1.862684162E1,1.703092307E-1,4.368559271E-2,2.920284867E-1
1.864684944E1,1.716880351E-1,-3.671998084E-1,-4.241150245E-2
1.866884319E1,-2.232276089E-2,-7.763922811E-1,-4.602607787E-1
1.868884319E1,-1.860171854E-1,-7.463202477E-1,-4.956036806E-1
1.871084162E1,-3.082076907E-1,-4.771730304E-1,-2.168397009E-1
1.873084319E1,-3.500781357E-1,-4.113915563E-1,-2.061233856E-2
1.875284163E1,-2.593733668E-1,-2.341708243E-1,1.791580468E-1
1.877284319E1,-5.096361507E-3,1.282991469E-1,4.587947130E-1
1.879284319E1,1.892460436E-1,5.106658936E-1,6.828076839E-1
1.881484319E1,9.466665983E-2,5.276479125E-1,6.888116598E-1
1.883484319E1,-1.020494029E-1,5.088682175E-1,5.455375910E-1
1.885484319E1,-3.130073547E-1,5.334599018E-1,3.888069987E-1
1.887484319E1,-4.875053763E-1,4.315501153E-1,3.131295145E-1
1.889484319E1,-5.301088691E-1,3.169168830E-1,3.449817896E-1
1.891684319E1,-3.839375377E-1,6.532942057E-1,3.956137896E-1
1.893684319E1,-1.424886733E-1,8.679172993E-1,4.399276972E-1
1.895884319E1,1.845685691E-1,8.467988372E-1,4.824090004E-1
1.897886194E1,3.740240633E-1,6.642897725E-1,4.884827435E-1
1.900084162E1,3.937462866E-1,2.687632442E-1,4.767715931E-1
1.902084163E1,4.151614606E-1,2.037671953E-1,4.130670726E-1
1.904084163E1,4.092273414E-1,3.632902801E-1,3.016103506E-1
1.906084319E1,3.233745992E-1,5.022359490E-1,2.781531215E-1
1.908284319E1,2.380978167E-1,4.269249737E-1,2.829702199E-1
1.910484319E1,2.158099562E-1,3.373023272E-1,2.035926580E-1
1.912484319E1,2.171887755E-1,3.989298940E-1,1.331860721E-1
1.914484475E1,2.340486497E-1,4.608367383E-1,1.832072139E-1
1.916684162E1,2.450442314E-1,3.936066628E-1,2.767568529E-1
1.918684162E1,1.634151787E-1,2.097885683E-2,1.713913381E-1
1.920684319E1,-9.651671164E-3,-4.331907332E-1,-7.819075137E-3
1.922884319E1,-1.719323844E-1,-5.160938501E-1,-8.136724681E-2
1.924884319E1,-1.125388294E-1,-1.378111988E-1,8.834856749E-2
1.927084319E1,-7.278022822E-3,1.591216624E-1,2.286904901E-1
1.929284319E1,-1.157153323E-1,4.293509759E-3,7.386233658E-2
1.931484631E1,-1.508837193E-1,1.183158681E-1,-1.080533341E-1
1.933684162E1,6.597344577E-2,4.111472070E-1,-3.389429301E-2
1.935684319E1,3.406882584E-1,4.085292220E-1,1.494176388E-1
1.937886194E1,4.153185487E-1,-2.710496262E-2,1.940107942E-1
1.940084319E1,2.602111399E-1,-5.292012691E-1,-7.555530220E-2
1.942284162E1,1.415462047E-1,-4.646241069E-1,-3.818954825E-1
1.944284319E1,1.214400083E-1,-1.297128648E-1,-4.678529501E-1
1.946485256E1,5.852089077E-2,1.627868563E-1,-3.816162348E-1
1.948684319E1,-1.002342552E-1,1.639387757E-1,-3.371627033E-1
1.950684319E1,-1.139350906E-1,3.986331820E-2,-3.645120263E-1
1.952884163E1,2.253220044E-2,1.023461074E-1,-3.238283992E-1
1.954884319E1,1.122246683E-1,1.174432039E-1,-2.141169906E-1
1.957084162E1,1.037947312E-1,-5.995205790E-2,-8.283332735E-2
1.959084162E1,9.962339699E-2,-1.778141409E-1,-1.040216256E-2
1.961084163E1,1.470265388E-1,-8.124507964E-2,7.278022822E-3
1.963084319E1,1.723512560E-1,9.803514183E-2,5.300565064E-2
1.965084319E1,1.945693046E-1,1.149473861E-1,1.568178385E-1
1.967284162E1,2.118306160E-1,8.569566533E-3,2.529156506E-1
1.969284162E1,1.880068630E-1,7.853982039E-3,1.621061862E-1
1.971284163E1,2.276607454E-1,1.801877916E-1,9.983283281E-2
1.973284163E1,3.244567215E-1,4.218286276E-1,2.197544128E-1
1.975284163E1,4.056319594E-1,4.012686610E-1,4.245862365E-1
1.977284162E1,4.024205506E-1,1.735031754E-1,4.054574370E-1
1.979284319E1,2.894628644E-1,5.616469681E-2,1.987406462E-1
1.981484319E1,2.078861594E-1,2.389355749E-1,1.250179410E-1
1.983484319E1,1.278628260E-1,7.290240377E-2,6.485643238E-2
1.985684319E1,2.494075522E-2,-1.861044616E-1,-8.511970937E-2
1.987886194E1,-2.474876866E-2,-2.307325229E-2,-1.014385372E-1
1.990084319E1,-6.141813472E-2,-5.082398653E-2,5.546656251E-2
1.992084319E1,-1.359262466E-1,-4.253192842E-1,2.101550996E-1
1.994284319E1,-2.362652272E-1,-7.097206712E-1,1.956164986E-1
1.996284319E1,-2.057219595E-1,-4.174478352E-1,9.110618383E-2
1.998284319E1,-2.150245607E-1,-1.596452594E-1,1.610938832E-2
2.000284319E1,-2.325651199E-1,-1.196772233E-1,-3.319616243E-2
2.002484319E1,-1.872912794E-1,-9.112364054E-2,1.677261479E-2
2.004485569E1,2.796017379E-2,1.715658605E-2,1.779712290E-1
2.006684319E1,1.631184667E-1,3.063052893E-2,3.519107401E-1
2.008684319E1,3.981095925E-2,-1.172163114E-1,3.511078954E-1
2.010684319E1,-3.570943698E-2,6.387905218E-3,2.615201473E-1
2.012884162E1,1.722639985E-2,1.457349956E-1,2.716779411E-1
2.014884319E1,1.016479731E-1,1.446878016E-1,3.468841910E-1
2.016884319E1,9.388125688E-2,-2.988003753E-2,4.069060683E-1
2.019084319E1,9.016370773E-2,-1.814793348E-1,3.537607789E-1
2.021284163E1,9.810495377E-2,-8.002334833E-2,2.797762752E-1
2.023284163E1,-3.790855035E-2,-3.019419499E-3,2.633527219E-1
2.025284163E1,-1.776047051E-1,-1.054702476E-1,1.895776689E-1
2.027284162E1,-2.263168395E-1,-1.860520989E-1,8.152432740E-2
2.029284162E1,-2.281843424E-1,-1.847954541E-1,6.794566661E-2
2.031284162E1,-2.468768209E-1,-2.501056902E-2,1.561546028E-1
2.033284162E1,-2.115513533E-1,2.543991804E-1,2.806140482E-1
2.035284162E1,-9.000662714E-2,4.457745552E-1,3.673394322E-1
2.037284319E1,6.880088151E-2,4.732634723E-1,4.006927013E-1
2.039484319E1,9.407324716E-3,3.989997208E-1,3.653148711E-1
2.041484319E1,-3.081204295E-1,1.349314004E-1,2.716779411E-1
2.043484319E1,-4.972093999E-1,-7.162830979E-2,1.603957638E-2
2.045684319E1,-3.054849803E-1,-5.550147034E-3,-2.608568966E-1
2.047886194E1,1.178969890E-1,2.990970612E-1,-2.864259779E-1
2.050084162E1,4.462283254E-1,3.375466764E-1,-8.077383786E-2
2.052084163E1,5.563760400E-1,-5.469861999E-2,1.105317026E-1
2.054084163E1,5.439493060E-1,-5.290616751E-1,5.195845291E-2
2.056084319E1,4.580442011E-1,-6.309016347E-1,-1.953547001E-1
2.058284319E1,2.622357309E-1,-3.329564631E-1,-4.439768493E-1
2.060284319E1,3.061307408E-2,1.422443334E-2,-4.865454435E-1
2.062284319E1,-2.378709167E-1,-5.544910952E-2,-4.449716806E-1
2.064484475E1,-3.086440265E-1,-3.319965303E-1,-3.781255782E-1
2.066684162E1,-4.003785178E-2,-4.982914925E-1,-3.240203857E-1
2.068684944E1,2.870368361E-1,-4.608018398E-1,-1.683719158E-1
2.070884319E1,3.401646614E-1,-3.669903874E-1,4.712389037E-2
2.072884475E1,1.060636565E-1,-2.598271668E-1,5.365142226E-2
2.075084162E1,-7.597418129E-2,2.576106042E-2,-5.483824387E-2
2.077084163E1,-9.339256585E-2,2.656914592E-1,-4.984660447E-2
2.079084163E1,-9.578366578E-2,3.717027605E-1,6.881833076E-2
2.081084163E1,-1.446354389E-1,2.506816387E-1,1.572716236E-1
2.083084319E1,-9.951867163E-2,2.289872058E-2,1.625948697E-1
2.085084319E1,5.766567960E-2,-1.336224079E-1,1.299223155E-1
2.087284319E1,1.620014608E-1,6.576400250E-2,1.596278101E-1
2.089484319E1,7.351326942E-2,4.631056488E-1,2.580120265E-1
2.091684319E1,-6.782349199E-2,4.587772489E-1,3.785444498E-1
2.093684319E1,-5.893976986E-2,2.667561173E-1,4.335397780E-1
2.095884319E1,-1.724385284E-2,2.125810981E-1,4.169068038E-1
2.097886194E1,-1.112996489E-1,4.277976453E-1,3.699399829E-1
2.100084162E1,-4.080579877E-1,3.604803085E-1,3.160093129E-1
2.102084163E1,-6.037966609E-1,-2.785545401E-2,2.657787502E-1
2.104084163E1,-3.601137698E-1,-1.290321946E-1,2.698279023E-1
2.106084319E1,1.422443390E-1,3.635171652E-1,3.651054204E-1
2.108284319E1,4.022809267E-1,7.899011374E-1,5.610884428E-1
2.110484788E1,1.619840115E-1,2.762507200E-1,7.036992908E-1
2.112684319E1,-1.246688664E-1,-4.180237949E-1,5.721538067E-1
2.114684319E1,-2.100329250E-1,-6.173927784E-1,2.099281996E-1
2.116684319E1,-1.876927018E-1,-2.771582901E-1,-1.614778638E-1
2.118684319E1,-1.776745170E-1,2.375916690E-1,-2.921157479E-1
2.120684319E1,-2.380454540E-1,5.536533594E-1,-2.526015043E-1
2.122884162E1,-2.593733668E-1,5.994507670E-1,-2.198416740E-1
2.124884319E1,-9.461429715E-2,4.524242580E-1,-2.738421559E-1
2.127084319E1,2.204176337E-1,2.266310006E-1,-3.405660987E-1
2.129284319E1,4.256159961E-1,9.070476145E-2,-4.357912540E-1
2.131484319E1,4.228409231E-1,4.745550081E-2,-4.658283889E-1
2.133484319E1,2.778215110E-1,9.503317624E-2,-4.355643690E-1
2.135684319E1,1.007229537E-1,8.232717961E-2,-5.394463539E-1
2.137886194E1,1.445656270E-1,-3.204424679E-2,-7.830943465E-1
2.140084319E1,3.212802112E-1,-1.949532777E-1,-9.083566070E-1
2.142284162E1,4.140793681E-1,-3.028669953E-1,-8.726995587E-1
2.144284319E1,4.014955461E-1,-2.432989031E-1,-7.829546928E-1
2.146484319E1,2.106786966E-1,-2.608394623E-1,-7.994131446E-1
2.148684319E1,3.148574010E-2,-2.794621289E-1,-9.096132517E-1
2.150684319E1,-1.776745170E-2,-4.825660884E-1,-1.163611054E0
2.152684319E1,-1.874483563E-2,-7.223045230E-1,-1.465919495E0
2.154684319E1,2.033308521E-2,-6.849195361E-1,-1.639632106E0
2.156684319E1,1.312138587E-1,5.208062381E-2,-1.423979282E0
2.158884319E1,-1.949358284E-1,-2.629687488E-1,-1.272345066E0
2.161084163E1,-7.272089124E-1,-4.638910592E-1,-1.678762436E0
2.163084319E1,-6.748664379E-1,-1.896998286E-1,-2.119807005E0
2.165284319E1,1.675516134E-3,8.965755999E-2,-2.052524567E0
2.167484319E1,5.749638081E-1,-1.318770796E-1,-1.584881186E0
2.169484319E1,5.850867033E-1,-8.329409361E-1,-1.372875929E0
2.171484319E1,3.156777024E-1,-1.250668049E0,-1.684626698E0
2.173484319E1,3.515093029E-2,-1.179196835E0,-2.350068331E0
2.175484631E1,-1.781632155E-1,-8.383165598E-1,-2.761826515E0
2.177684319E1,-3.420147300E-1,-5.305626392E-1,-2.620070696E0
2.179884162E1,-4.593008459E-1,-5.415756702E-1,-2.269137383E0
2.181884319E1,-3.967831433E-1,-4.615348577E-1,-2.137190580E0
2.184084319E1,-3.587000668E-1,-4.846430123E-1,-2.159495831E0
2.186284319E1,-3.668507636E-1,-7.736346126E-1,-2.258805037E0
2.188484162E1,-2.132268697E-1,-9.815557003E-1,-2.281407118E0
2.190484631E1,8.517206647E-3,-9.981014132E-1,-2.157855272E0
2.192684319E1,1.966113448E-1,-9.605244994E-1,-1.906946778E0
2.194684319E1,2.687108815E-1,-8.302880526E-1,-1.703354120E0
2.196684319E1,2.909987569E-1,-5.214345455E-1,-1.602055192E0
2.198684319E1,2.196845859E-1,-1.560673416E-1,-1.525819182E0
2.200684319E1,5.714207888E-2,4.382521659E-2,-1.418132424E0
2.202884319E1,-3.618067503E-2,6.270968169E-2,-1.325001597E0
2.205084319E1,8.607963473E-2,-1.190838143E-1,-1.206005096E0
2.207284319E1,3.011041880E-1,-2.055823356E-1,-1.067984462E0
2.209284319E1,4.107981324E-1,1.558579039E-2,-9.548521638E-1
2.211484319E1,3.281567991E-1,3.275634050E-1,-7.904421687E-1
2.213484319E1,6.328564137E-2,2.586752474E-1,-6.712361574E-1
2.215484319E1,-1.629613936E-1,1.771509275E-2,-6.974859238E-1
2.217484319E1,-1.251401007E-1,4.953244328E-2,-7.468962073E-1
2.219484319E1,1.518436428E-2,2.037497312E-1,-6.229079962E-1
2.221484319E1,-3.422590718E-2,1.826487035E-1,-3.956661522E-1
2.223484319E1,-2.923775613E-1,-1.989675313E-1,-3.064449131E-1
2.225484319E1,-3.921580315E-1,-5.514018536E-1,-4.256508946E-1
2.227684319E1,-2.417455465E-1,-6.861587167E-1,-6.003932357E-1
2.229884162E1,-1.322436035E-1,-5.699198246E-1,-5.959601402E-1
2.231884319E1,-1.864884347E-1,-2.821150124E-1,-4.494397342E-1
2.234084319E1,-2.255663574E-1,3.391174600E-2,-3.265511096E-1
2.236084319E1,-2.227563709E-1,1.300968379E-1,-2.615026832E-1
2.238084319E1,-1.942725927E-1,1.047197497E-3,-3.065845370E-1
2.240284162E1,-7.058111578E-2,-1.281420738E-1,-3.880914152E-1
2.242284162E1,8.009316027E-2,-1.348441392E-1,-3.676710725E-1
2.244284162E1,2.027897984E-1,-1.115265414E-1,-3.016976118E-1
2.246284163E1,2.329840064E-1,-9.115854651E-2,-2.633527219E-1
2.248284163E1,2.138202786E-1,-1.239707395E-1,-3.232000768E-1
2.250284319E1,1.825963408E-1,-2.343453616E-1,-4.096985757E-1
2.252484162E1,2.198765725E-1,-3.062703907E-1,-4.433659911E-1
2.254484475E1,3.241774440E-1,-2.325127572E-1,-3.610388041E-1
2.256684319E1,3.764849603E-1,-8.293804526E-2,-2.181137949E-1
2.258684319E1,3.022735715E-1,-4.101523757E-2,-1.692794859E-1
2.260684319E1,1.614429504E-1,-8.306021988E-2,-1.382126212E-1
2.262884162E1,8.847074211E-2,-8.484045416E-2,-9.681341052E-2
2.264884788E1,1.155058891E-1,-3.173008561E-2,-3.621558100E-2
2.267084162E1,2.194925994E-1,1.545838118E-1,8.936085552E-2
2.269084319E1,1.870992929E-1,3.272317946E-1,2.129650712E-1
2.271284163E1,-1.071806699E-1,2.172585875E-1,2.532298267E-1
2.273284319E1,-3.658384681E-1,2.600540593E-2,1.469567232E-2
2.275484319E1,-2.527411282E-1,1.523672417E-2,-3.925245404E-1
2.277484319E1,1.001644433E-1,-1.638340503E-1,-5.854358077E-1
2.279484319E1,4.749913514E-1,-4.080405235E-1,-4.895299375E-1
2.281485412E1,6.666634083E-1,-4.043753445E-1,-2.664594054E-1
2.283684162E1,5.308069587E-1,-2.522000670E-1,-3.228510022E-1
2.285684319E1,2.765823305E-1,-4.019493237E-2,-6.310761571E-1
2.287886194E1,-5.742133129E-3,8.311257511E-2,-9.254084826E-1
2.290084162E1,-1.498888731E-1,-1.438151300E-2,-8.982685804E-1
2.292084319E1,-8.290313929E-2,-1.395390779E-1,-7.080800533E-1
2.294284319E1,6.799802929E-2,-1.831374019E-1,-4.497189820E-1
2.296484631E1,1.509360671E-1,-1.647416204E-1,-2.799333632E-1
2.298684162E1,1.609717160E-1,-1.728748679E-1,-2.202780098E-1
2.300684319E1,1.389107555E-1,-1.533620805E-1,-1.668185741E-1
2.302884319E1,1.596801728E-1,-1.062207371E-1,3.775146976E-2
2.304884319E1,1.955292374E-1,-6.267477572E-2,2.165430039E-1
2.307084319E1,1.888446212E-1,-4.743804783E-2,2.818008661E-1
2.309284163E1,7.635815442E-2,1.840973347E-1,3.140719831E-1
2.311284162E1,2.181661548E-3,8.546877652E-2,1.864709705E-1
2.313284162E1,3.296926990E-2,7.543312758E-2,1.616698503E-1
2.315284319E1,1.167974323E-1,1.499586850E-1,2.221280485E-1
2.317484319E1,3.006155193E-1,1.933999360E-1,2.885552943E-1
2.319484319E1,4.765272439E-1,5.832890421E-2,3.802374303E-1
2.321684319E1,5.140169263E-1,1.747074574E-1,6.558947563E-1
2.323884163E1,4.582885504E-1,5.231798887E-1,6.984283924E-1
2.325884163E1,1.607448310E-1,5.724331141E-1,6.676233411E-1
2.327886194E1,-1.350361258E-1,1.036551073E-1,5.427450538E-1
2.330084162E1,-1.158200502E-1,-7.882430553E-1,2.420771718E-1
2.332084162E1,8.864527196E-2,-7.736346126E-1,1.785471849E-2
2.334084319E1,-5.126031861E-2,4.012337327E-1,3.755599558E-1
2.336284319E1,-4.052829146E-1,6.096435189E-1,6.341130137E-1
2.338484319E1,-5.204222798E-1,1.944645792E-1,3.611958921E-1
2.340485100E1,-2.549751401E-1,-1.377762854E-1,-2.022836544E-2
2.342684319E1,-6.969099492E-2,-2.687632442E-1,-1.600641459E-1
2.344684788E1,-2.550100684E-1,-1.484577060E-1,-1.588249579E-2
2.346884319E1,-5.771105886E-1,4.396484420E-2,1.404990107E-1
2.349084162E1,-4.953593612E-1,-6.829473376E-2,1.879370511E-1
2.351084162E1,-5.366887525E-2,-1.355422735E-1,3.014707267E-1
2.353084162E1,3.750537932E-1,5.441936478E-2,4.210955799E-1
2.355084319E1,4.950102866E-1,3.357490003E-1,4.797211885E-1
2.357284163E1,1.778839529E-1,3.520678282E-1,3.241600096E-1
2.359284163E1,4.333652556E-2,1.705884784E-1,9.770353138E-2
2.361284162E1,2.522000670E-1,-6.475171540E-3,2.691297606E-2
2.363284162E1,4.898964763E-1,-1.743409336E-1,1.139700040E-2
2.365284319E1,4.133637846E-1,-3.366565704E-1,-1.087340117E-1
2.367484319E1,1.598197967E-1,-3.930481374E-1,-2.886599898E-1
2.369484319E1,2.307325229E-2,-2.655344009E-1,-3.554362953E-1
2.371684319E1,-1.679006778E-2,-7.426375896E-2,-2.309594154E-1
2.373884319E1,-3.776892647E-2,-1.034282148E-1,-1.659808159E-1
2.376084319E1,-4.689699784E-2,-1.090132669E-1,-2.071007639E-1
2.378284163E1,-6.393141299E-2,-1.431170036E-3,-3.351206779E-1
2.380284163E1,-1.534493417E-1,3.782128543E-2,-4.037295580E-1
2.382284163E1,-3.556457460E-1,-5.007349700E-2,-3.855432272E-1
2.384284163E1,-6.404485703E-1,-1.811128110E-1,-5.118701458E-1
2.386284319E1,-8.158541322E-1,-1.332907975E-1,-8.007919788E-1
2.388487444E1,-6.411292553E-1,1.293289009E-2,-9.731606841E-1
2.390684163E1,-2.120575011E-1,6.058037654E-2,-9.524959922E-1
2.392684319E1,7.744026184E-2,-2.464579493E-1,-8.846201301E-1
2.394684788E1,2.855533063E-1,-4.851491749E-1,-8.752651811E-1
2.396884163E1,2.905973196E-1,-3.633426428E-1,-1.080969691E0
2.398884163E1,1.592961997E-1,-3.061307408E-2,-1.311126232E0
2.400884163E1,-2.272418700E-2,1.697332710E-1,-1.421343803E0
2.402884319E1,-1.213701963E-1,1.323134154E-1,-1.419947505E0
2.404884319E1,-6.784094870E-2,-9.817477316E-2,-1.384988546E0
2.407084319E1,2.331759781E-2,-4.037120938E-1,-1.335491061E0
2.409084319E1,-4.310963210E-3,-6.012310386E-1,-1.314878702E0
2.411084319E1,-3.654719517E-2,-7.406653762E-1,-1.333972573E0
2.413084319E1,3.635520861E-2,-7.632673979E-1,-1.333745718E0
2.415284319E1,1.536762416E-1,-5.218359828E-1,-1.194852352E0
2.417484319E1,8.798204362E-2,-1.274613887E-1,-9.917309880E-1
2.419484319E1,-1.077915356E-1,5.300565064E-2,-8.481776714E-1
2.421484944E1,-2.446427941E-1,2.745402977E-2,-7.576823235E-1
2.423684162E1,-3.331833482E-1,-1.792453080E-1,-7.201228738E-1
2.425684319E1,-3.289771080E-1,-2.914350629E-1,-7.413285971E-1
2.427684319E1,-2.734232843E-1,-1.918465942E-1,-7.006275058E-1
2.429684319E1,-2.322160602E-1,2.061233856E-2,-5.130220652E-1
2.431884319E1,-2.529680133E-1,2.084272206E-1,-3.608817160E-1
2.434084319E1,-2.943672240E-1,2.035926580E-1,-3.606199324E-1
2.436284319E1,-2.708052993E-1,6.511823088E-2,-3.509857059E-1
2.438484319E1,-2.405412793E-1,-2.956587821E-2,-2.497391552E-1
2.440484319E1,-2.839999795E-1,1.001818944E-2,-2.101376355E-1
2.442484475E1,-3.511427939E-1,2.015855350E-2,-1.835039109E-1
2.444484944E1,-3.826634288E-1,-8.487536013E-2,-2.475575060E-1
2.446684319E1,-3.312460482E-1,-2.630734742E-1,-3.633077443E-1
2.448884163E1,1.121374071E-1,-1.252273768E-1,-3.133389652E-1
2.450884163E1,6.635741591E-1,1.357866172E-2,-7.138396800E-2
2.452884319E1,8.672715425E-1,-1.462760419E-1,1.613382399E-1
2.454884319E1,6.117379069E-1,-4.344124496E-1,1.829105020E-1
2.456884319E1,9.051277488E-2,-6.215292215E-1,-1.304459125E-1
2.458884319E1,-2.871066630E-1,-5.281017423E-1,-6.083170772E-1
2.460884319E1,-3.153984547E-1,-3.939382732E-1,-8.900655508E-1
2.462884319E1,-6.801547855E-2,-2.798461020E-1,-7.815584540E-1
2.465084319E1,2.086017579E-1,-1.285260469E-1,-4.460538030E-1
2.467284162E1,2.095965892E-1,5.797983706E-2,-3.731688559E-1
2.469284162E1,5.982988700E-2,3.126931787E-1,-4.561941624E-1
2.471284163E1,-9.691813588E-2,3.869743943E-1,-5.083096623E-1
2.473284319E1,-1.728399545E-1,1.912357211E-1,-5.237733126E-1
2.475484319E1,-5.536184460E-2,-1.038994491E-1,-5.418199897E-1
2.477484475E1,1.477595717E-1,-1.634326279E-1,-5.290965438E-1
2.479684163E1,1.798387319E-1,-1.297128648E-1,-5.597969294E-1
2.481684163E1,-2.576106042E-2,-1.273043156E-1,-6.351602077E-1
2.483684162E1,-1.973094642E-1,-9.400343150E-2,-7.394087315E-1
2.485684319E1,-1.847081929E-1,-9.894271195E-2,-7.089701891E-1
2.487886194E1,-1.328544617E-1,-3.017674200E-2,-5.677730441E-1
2.490084162E1,-2.614503205E-1,2.612757869E-2,-4.532271028E-1
2.492084319E1,-3.477917612E-1,-3.440044075E-2,-3.762580752E-1
2.494284319E1,-2.724458873E-1,-2.243620753E-1,-3.662573397E-1
2.496484319E1,-1.535017043E-1,-1.240405515E-1,-3.302686512E-1
2.498485100E1,-3.286454827E-2,2.773153782E-1,-2.293362617E-1
2.500485256E1,-2.761110850E-2,4.115311801E-1,-1.245816052E-1
2.502684163E1,-4.162610173E-1,1.260127686E-2,-3.526612222E-1
2.504685100E1,-5.988573432E-1,-2.516066730E-1,-9.071348906E-1
2.506884162E1,3.949680179E-2,-3.369008899E-1,-1.184136033E0
2.508884319E1,9.199455976E-1,-3.704984784E-1,-9.732304811E-1
2.510884319E1,1.258085728E0,-4.294731617E-1,-7.046941519E-1
2.513084163E1,9.178512096E-1,-4.163832068E-1,-7.879288793E-1
2.515084162E1,3.161489367E-1,-2.849075496E-1,-1.180785060E0
2.517084162E1,-1.965415329E-1,-1.384220570E-1,-1.525086164E0
2.519084319E1,-3.541447520E-1,-2.106088847E-1,-1.613382339E0
2.521284163E1,-1.322959512E-1,-4.185299575E-1,-1.476443768E0
2.523284319E1,1.765924096E-1,-5.966058969E-1,-1.311562538E0
2.525484319E1,3.529404700E-1,-5.425006747E-1,-1.144010901E0
2.527484475E1,2.896199226E-1,-2.939308882E-1,-1.016671777E0
2.529684163E1,8.213519305E-2,-6.848672032E-2,-7.951196432E-1
2.531684163E1,-8.229227364E-2,4.136430472E-2,-6.082821488E-1
2.533684319E1,-1.485973299E-1,-5.084143952E-2,-5.612804294E-1
2.535684319E1,-1.306204349E-1,-1.863313466E-1,-5.782799125E-1
2.537886194E1,-5.550146848E-2,-2.651329637E-1,-5.198986530E-1
2.540084162E1,-7.696901914E-3,-3.183655143E-1,-3.832743168E-1
2.542084319E1,-3.197443113E-2,-1.565036774E-1,-2.104343474E-1
2.544284163E1,-1.047372073E-1,2.299645841E-1,-4.958480224E-2
2.546284163E1,-1.693667471E-1,4.652524292E-1,4.330161959E-2
2.548284163E1,-1.512502283E-1,5.006302595E-1,7.539822161E-2
2.550284319E1,-6.792821735E-2,4.369780719E-1,1.022413895E-1
2.552484788E1,3.794345632E-2,3.360107839E-1,1.687384248E-1
2.554684319E1,5.176646635E-2,3.812671602E-1,2.915747166E-1
2.556684319E1,-7.291985303E-2,5.227086544E-1,3.825063705E-1
2.558684319E1,-3.052929938E-1,5.699023604E-1,2.999697328E-1
2.560684319E1,-5.067389011E-1,2.487617731E-1,1.799434423E-2
2.562684319E1,-3.959279358E-1,-5.258677155E-2,-2.449744195E-1
2.564684319E1,2.334203273E-1,2.897246554E-2,-1.707979143E-1
2.566884319E1,9.364738464E-1,5.197590590E-2,2.682920098E-1
2.569084319E1,9.546078444E-1,-1.601514071E-1,6.090850234E-1
2.571284163E1,2.720270157E-1,-4.114264548E-1,5.651201606E-1
2.573284319E1,-3.214547336E-1,-4.177969098E-1,1.463458538E-1
2.575484944E1,-4.738045335E-1,-2.626022398E-1,-3.423288763E-1
2.577684319E1,-1.974141896E-1,-1.212654784E-1,-4.111646712E-1
2.579884162E1,1.128704399E-1,-1.071632132E-1,-3.152064607E-2
2.581884319E1,3.079109788E-1,-1.021715775E-1,3.273364902E-1
2.583884319E1,3.242821693E-1,-6.204645336E-2,5.213298202E-1
2.585884319E1,2.381850779E-1,1.891936921E-2,5.479810238E-1
2.587886194E1,1.109505817E-1,9.381144494E-2,4.547280669E-1
2.590084162E1,2.289872058E-2,8.970992640E-3,3.288549483E-1
2.592084319E1,7.764969766E-2,-8.630653471E-2,3.217339814E-1
2.594284163E1,1.576730460E-1,-1.149822921E-1,3.702192307E-1
2.596284163E1,1.842194945E-1,-7.670722157E-2,3.898192942E-1
2.598284163E1,1.090132669E-1,-3.331833705E-2,3.884404898E-1
2.600284319E1,-4.310963210E-3,-2.368411794E-2,3.269699812E-1
2.602484319E1,-9.021607041E-2,-3.652974218E-2,2.281668931E-1
2.604485569E1,-1.818807572E-1,-1.085943878E-1,2.127381861E-1
2.606684319E1,-2.633876503E-1,-1.709200889E-1,3.158173263E-1
2.608684319E1,-2.368062735E-1,-2.291617356E-2,4.467693865E-1
2.610684319E1,-1.611637026E-1,1.962971836E-1,4.980297089E-1
2.612684319E1,-1.079486161E-1,4.251971245E-1,4.451811314E-1
2.614684319E1,-1.802925169E-1,5.127777457E-1,3.610213399E-1
2.616684319E1,-3.617892861E-1,4.606098533E-1,3.026226461E-1
2.618684319E1,-5.556604862E-1,2.288999259E-1,1.305855364E-1
2.620684319E1,-4.938234687E-1,-3.344050795E-2,-1.851619780E-1
2.622684319E1,-5.368632823E-2,-1.459967941E-1,-4.899313748E-1
2.624685725E1,5.584006310E-1,-6.234316155E-2,-5.889089704E-1
2.626884162E1,8.600459099E-1,-1.292765439E-1,-4.584107399E-1
2.628884319E1,7.172430754E-1,-3.400774002E-1,-4.941725135E-1
2.630884319E1,4.144109786E-1,-4.077089131E-1,-7.417474985E-1
2.633084162E1,7.698646933E-2,-3.162885606E-1,-1.152266383E0
2.635084319E1,-1.311963946E-1,-2.795144916E-1,-1.395146370E0
2.637284319E1,-1.228013635E-1,-2.934422195E-1,-1.394901991E0
2.639484319E1,3.335324302E-2,-3.024306595E-1,-1.216197729E0
2.641484319E1,1.036376506E-1,-3.095341325E-1,-1.041368127E0
2.643484319E1,3.768165782E-2,-2.143438905E-1,-1.024089336E0
2.645484631E1,-7.960446924E-2,-6.476917118E-2,-1.051700473E0
2.647684163E1,-1.750739813E-1,2.106612362E-2,-9.520945549E-1
2.649684319E1,-1.865756959E-1,4.605923966E-2,-8.283855915E-1
2.651684319E1,-1.610938907E-1,1.503077596E-1,-7.132986188E-1
2.653884319E1,-1.765400469E-1,2.363524884E-1,-5.899561644E-1
2.655884319E1,-1.897871047E-1,2.465102971E-1,-4.416032135E-1
2.657886194E1,-1.806415766E-1,1.976759881E-1,-2.496344447E-1
2.660084162E1,-1.202531829E-1,1.857553869E-1,-9.885545075E-2
2.662084319E1,3.804817796E-3,2.281145304E-1,2.171189524E-2
2.664284163E1,2.055125237E-1,2.482905388E-1,2.040115297E-1
2.666284319E1,3.174579442E-1,1.279500872E-1,3.227637410E-1
2.668485725E1,2.713812590E-1,9.119345248E-2,3.252421021E-1
2.670684319E1,1.002342552E-1,2.448696941E-1,2.627767622E-1
2.672684319E1,-1.164658219E-1,4.596499205E-1,2.065771669E-1
2.674684475E1,-2.979451418E-1,3.251723051E-1,1.199913844E-1
2.676884162E1,-3.587524295E-1,-1.747772694E-1,-1.362229437E-1
2.678884163E1,2.111848444E-3,-3.735702634E-1,-1.785646379E-1
2.680884319E1,6.494195461E-1,-1.629613936E-1,4.115486518E-2
2.683084319E1,7.246606946E-1,-2.888869047E-1,2.798635364E-1
2.685084319E1,1.626297832E-1,-5.634795427E-1,1.892984062E-1
2.687284319E1,-3.989648223E-1,-5.957681537E-1,-3.042283356E-1
2.689484319E1,-3.922278285E-1,-2.649933398E-1,-7.046592236E-1
2.691484319E1,-1.378635615E-1,6.161012128E-2,-6.675360799E-1
2.693484319E1,-5.799729005E-2,1.007404029E-1,-4.276056588E-1
2.695484944E1,-9.272934496E-2,-5.511749908E-2,-3.049962819E-1
2.697684163E1,9.222319722E-2,-1.142143458E-1,-2.895850241E-1
2.699684319E1,2.248856723E-1,-1.592787504E-1,-3.605850339E-1
2.701684319E1,1.269028932E-1,-2.444508076E-1,-4.775395393E-1
2.703684319E1,-3.467969224E-2,-2.583436370E-1,-6.198536754E-1
2.705884163E1,-6.770132482E-2,-2.227389216E-1,-6.683912873E-1
2.707886194E1,-2.960078418E-2,-1.652826816E-1,-5.917887688E-1
2.710084162E1,-7.918559015E-2,-1.482657194E-1,-5.500579476E-1
2.712084319E1,-1.608146429E-1,-1.817062348E-1,-6.082996130E-1
2.714284163E1,-2.253918201E-1,-2.387959510E-1,-6.133959889E-1
2.716284163E1,-3.385589719E-1,-4.065220952E-1,-6.038315296E-1
2.718284163E1,-4.345520735E-1,-6.021385789E-1,-5.734628439E-1
2.720284162E1,-4.109552205E-1,-4.911181927E-1,-4.380776286E-1
2.722284319E1,-3.536211550E-1,-1.031664088E-1,-3.341083825E-1
2.724484944E1,-3.795916438E-1,1.946565658E-1,-3.227812052E-1
2.726684162E1,-3.136880398E-1,1.910786480E-1,-2.219709754E-1
2.728684319E1,-1.383871585E-1,1.047197543E-2,-7.440338284E-2
2.730684319E1,-7.000515610E-2,-1.542347521E-1,-4.028219730E-2
2.732684319E1,-2.204176337E-1,-2.282716185E-1,-1.759640872E-1
2.734684319E1,-3.016627133E-1,-1.595230997E-1,-4.099080265E-1
2.736684319E1,-5.782275647E-2,-1.176351905E-1,-5.321683288E-1
2.738884319E1,5.306149721E-1,-2.398082428E-2,-4.246037006E-1
2.741084319E1,1.007997394E0,-5.733406544E-2,-1.390503794E-1
2.743284319E1,9.963735342E-1,-3.624699712E-1,-6.147049740E-2
2.745284319E1,7.149567008E-1,-3.646516502E-1,-2.248856723E-1
2.747484319E1,3.857701123E-1,-4.867723212E-2,-4.467693865E-1
2.749484319E1,1.792976707E-1,1.576206833E-1,-4.957956672E-1
2.751484319E1,1.108284071E-1,1.127831787E-1,-3.773052692E-1
2.753484319E1,1.721592695E-1,-6.159266829E-2,-2.711892724E-1
2.755684162E1,3.451388478E-1,-1.000597253E-1,-1.740791351E-1
2.757684319E1,4.662472606E-1,-3.104940802E-2,-6.527531147E-2
2.759884319E1,4.440117478E-1,-2.495820820E-2,-1.593485661E-2
2.762084162E1,2.715732455E-1,-2.124065720E-2,-3.900810704E-2
2.764084162E1,9.498082101E-2,4.831071198E-2,-1.572541706E-2
2.766084163E1,-5.902703479E-2,1.526639462E-1,4.223696887E-2
2.768084163E1,-1.573937982E-1,2.123542130E-1,1.052258983E-1
2.770084319E1,-2.151816487E-1,1.670629084E-1,1.460491568E-1
2.772284319E1,-3.013660014E-1,8.299040794E-2,1.014559865E-1
2.774484319E1,-3.625921607E-1,2.214822732E-2,2.719222941E-2
2.776684162E1,-3.163234591E-1,1.280548126E-1,3.888593614E-2
2.778684319E1,-3.427826762E-1,3.338465691E-1,7.876671106E-2
2.780684319E1,-3.709173799E-1,5.534788370E-1,2.213252038E-1
2.782684319E1,-3.230778873E-1,5.168617964E-1,3.517885506E-1
2.784684475E1,-2.197369486E-1,2.623404264E-1,3.456275463E-1
2.786884162E1,-6.923720986E-2,7.609635592E-2,2.846806645E-1
2.788884319E1,3.644247353E-2,1.656841040E-1,4.045324028E-1
2.791084319E1,1.107935011E-1,3.007376790E-1,5.048190355E-1
2.793284319E1,1.230282560E-1,1.666265875E-1,4.816585183E-1
2.795284319E1,2.450965792E-1,7.073819637E-2,3.825412691E-1
2.797484163E1,6.252990961E-1,1.322959512E-1,3.621907234E-1
2.799484788E1,8.325744271E-1,-2.888519876E-2,5.648409128E-1
2.801684162E1,5.449616313E-1,-3.567278385E-1,8.751255274E-1
2.803684319E1,5.433209985E-2,-4.874180853E-1,8.665559888E-1
2.805884163E1,-2.850820720E-1,-2.177647352E-1,4.915021658E-1
2.807886194E1,-2.467371970E-1,1.611811519E-1,1.678134054E-1
2.810084162E1,-1.261000335E-1,2.288824767E-1,1.599943340E-1
2.812084319E1,7.679448463E-4,9.876818210E-2,3.837106228E-1
2.814284163E1,1.399753988E-1,3.961897455E-3,5.814215541E-1
2.816284319E1,1.739046127E-1,7.766715437E-2,5.732010603E-1
2.818484319E1,1.159422249E-1,2.650457025E-1,4.823042750E-1
2.820684319E1,5.312782153E-2,2.658310831E-1,3.650356233E-1
2.822684319E1,2.087413706E-2,1.106364205E-1,3.193603456E-1
2.824885881E1,1.385791413E-2,5.218534265E-3,3.045250475E-1
2.827084319E1,4.857251421E-2,8.517206647E-3,3.460464180E-1
2.829284162E1,1.207767799E-2,1.295034308E-2,4.141840935E-1
2.831284162E1,-1.112123802E-1,-1.478293911E-2,3.915297091E-1
2.833284162E1,-2.470862567E-1,-5.565854907E-2,2.596875429E-1
2.835284163E1,-3.189763725E-1,-1.097288504E-1,1.764178872E-1
2.837284319E1,-3.409675360E-1,-1.863313466E-1,1.835213751E-1
2.839484319E1,-3.898192942E-1,-2.059837580E-1,2.495471686E-1
2.841484944E1,-4.694237411E-1,-1.895078421E-1,2.433512509E-1
2.843684319E1,-4.170289636E-1,-3.532546386E-2,2.384294271E-1
2.845684319E1,-2.402445674E-1,1.597499847E-1,3.084345758E-1
2.847684319E1,-1.879545003E-1,2.514844835E-1,4.275009334E-1
2.849684319E1,-4.464552104E-1,1.376541108E-1,4.372224212E-1
2.851884319E1,-7.220950723E-1,-8.360127360E-2,2.023709267E-1
2.853884319E1,-5.057615042E-1,-1.241103634E-1,-1.487195045E-1
2.856084163E1,1.465029418E-1,7.976154983E-2,-3.259751499E-1
2.858084162E1,5.493772626E-1,9.656906873E-2,-1.236042157E-1
2.860084162E1,5.285205841E-1,-1.349837631E-1,1.393296272E-1
2.862084319E1,2.030865103E-1,-2.824989855E-1,7.848745584E-2
2.864284163E1,-1.515818387E-1,-1.564338654E-1,-3.715107739E-1
2.866284319E1,-2.346595228E-1,4.459316283E-2,-6.737669110E-1
2.868485725E1,-8.428195119E-2,1.960702837E-1,-6.515139341E-1
2.870684319E1,3.424336016E-2,1.717578471E-1,-3.910759389E-1
2.872684319E1,6.544984877E-2,1.195725054E-1,-2.102947235E-1
2.874684319E1,1.233773232E-1,1.367116421E-1,-1.349488646E-1
2.876884162E1,1.928065270E-1,1.744805574E-1,-1.083849445E-1
2.878884163E1,2.013411820E-1,1.437802166E-1,-7.428121567E-2
2.880884319E1,1.542696506E-1,2.349213138E-2,-3.244566917E-2
2.883084319E1,1.152789965E-1,-8.285077661E-2,-1.343903481E-3
2.885084319E1,7.089527696E-2,-6.176720187E-2,1.607448235E-2
2.887284319E1,-7.079055160E-2,7.243116386E-3,5.906194076E-2
2.889484319E1,-2.331759930E-1,1.453684717E-1,8.016297221E-2
2.891484319E1,-2.949257493E-1,2.823418975E-1,8.415977657E-2
2.893484319E1,-2.494424582E-1,3.546159863E-1,1.083500385E-1
2.895684163E1,-1.460666060E-1,3.120474219E-1,1.857379377E-1
2.897684319E1,-4.098033160E-2,2.570346296E-1,3.066717982E-1
2.899684319E1,3.047344834E-2,1.928937882E-1,3.992091715E-1
2.901884319E1,3.305653483E-2,2.383945286E-1,4.747470021E-1
2.904084163E1,-5.984733999E-2,4.847477376E-1,6.745697260E-1
2.906084319E1,-1.874134541E-1,7.330731750E-1,9.169087410E-1
2.908284319E1,-2.541373968E-1,5.102295280E-1,9.024748206E-1
2.910484319E1,-7.129669935E-2,-5.248204991E-2,6.810449362E-1
2.912484788E1,4.688303471E-1,-1.149299294E-1,6.064670086E-1
2.914684319E1,8.392764926E-1,4.235913977E-2,8.038637638E-1
2.916884319E1,4.025252759E-1,8.504989743E-2,1.098388076E0
2.919084319E1,-2.506641746E-1,7.365289330E-2,1.087322712E0
2.921284163E1,-4.015304446E-1,1.489813030E-1,7.723256350E-1
2.923284319E1,-1.584758908E-1,2.712939680E-1,5.277875662E-1
2.925484788E1,3.619812801E-2,3.007900417E-1,5.148546696E-1
2.927684319E1,1.373574138E-2,2.172760367E-1,5.898689032E-1
2.929684319E1,-2.609267272E-2,3.466223925E-2,6.222447753E-1
2.931884319E1,2.253220044E-2,-1.393470913E-1,6.112841368E-1
2.934084319E1,1.058367640E-1,-1.297477782E-1,5.684711933E-1
2.936284319E1,1.155407950E-1,-6.054547057E-2,5.342801809E-1
2.938284319E1,2.802998759E-2,-1.055575162E-1,4.976457357E-1
2.940484631E1,1.029744279E-3,-1.794023961E-1,4.109726846E-1
2.942684319E1,6.379178166E-2,-1.303237379E-1,3.450166881E-1
2.944684319E1,3.323106840E-2,-2.466150187E-2,3.436553180E-1
2.946684319E1,-8.112290502E-2,4.310963303E-2,3.568674624E-1
2.948884163E1,-2.008873969E-1,-3.530801088E-2,3.027622700E-1
2.950884163E1,-2.870368361E-1,-1.548805237E-1,2.360208780E-1
2.952884319E1,-3.253991902E-1,-2.177996337E-1,1.780934036E-1
2.954884319E1,-3.023433983E-1,-1.849350929E-1,1.124864668E-1
2.957084163E1,-2.903180718E-1,-1.096764877E-1,1.353328228E-1
2.959084163E1,-2.406983525E-1,1.653001308E-1,2.110626698E-1
2.961084163E1,-1.572018117E-1,4.677133262E-1,3.045948744E-1
2.963084319E1,-1.631882787E-1,4.664916098E-1,3.984237611E-1
2.965084319E1,-2.886949182E-1,2.180788964E-1,3.225193918E-1
2.967284162E1,-3.423288763E-1,-6.283185445E-3,-7.454301417E-2
2.969284163E1,-6.672393531E-2,1.925621778E-1,-4.203974605E-1
2.971284163E1,3.569198251E-1,4.444480836E-1,-3.768514991E-1
2.973284319E1,4.567875564E-1,3.029193580E-1,3.248057887E-2
2.975484319E1,2.433687150E-1,-1.209687665E-1,3.362551332E-1
2.977484319E1,2.191784531E-1,-3.092374504E-1,2.883633077E-1
2.979484319E1,3.813369870E-1,-2.348515093E-1,1.015956178E-1
2.981485412E1,5.018345118E-1,-2.546435408E-2,-2.495820867E-3
2.983684162E1,5.050459504E-1,8.300785720E-2,1.333955079E-1
2.985684319E1,4.192804396E-1,6.454227865E-2,3.387858570E-1
2.987886194E1,3.625048697E-1,-6.705555320E-2,4.551818669E-1
2.990084162E1,3.678979576E-1,-1.244594306E-1,4.344473481E-1
2.992084162E1,3.230604529E-1,-1.008102149E-1,3.671998084E-1
2.994084162E1,1.602735817E-1,-1.240754575E-1,3.493974507E-1
2.996084319E1,-2.708750963E-2,-1.061858311E-1,3.451737761E-1
2.998084319E1,-1.879021525E-1,-2.703515068E-2,3.133913279E-1
3.000284163E1,-3.549301624E-1,2.225294709E-2,3.133738637E-1
3.002284162E1,-4.058239460E-1,3.726277873E-2,3.430793583E-1
3.004284162E1,-3.880390525E-1,6.937684119E-2,4.165402651E-1
3.006284162E1,-3.653148711E-1,1.858950108E-1,4.801749885E-1
3.008284319E1,-3.284709752E-1,3.241774440E-1,4.763003588E-1
3.010484319E1,-2.035926580E-1,4.182681441E-1,4.656364024E-1
3.012485413E1,-8.339183033E-2,3.923674822E-1,4.938234687E-1
3.014684319E1,-9.929177910E-2,2.904925942E-1,4.896346629E-1
3.016684319E1,-1.567654759E-1,1.831548512E-1,4.293859005E-1
3.018684319E1,-9.445721656E-2,2.860245705E-1,3.978827000E-1
3.020684319E1,1.286133081E-1,6.085264683E-1,4.865454435E-1
3.022684319E1,2.387261391E-1,5.929058194E-1,5.814564228E-1
3.024684319E1,1.922654659E-1,3.428873718E-1,5.906543136E-1
3.026884162E1,2.606300116E-1,2.466324717E-1,5.868145823E-1
3.028884319E1,3.566580415E-1,2.040988058E-1,7.857123017E-1
3.030884319E1,1.751961559E-1,1.273741275E-1,1.128268123E0
3.033084162E1,-2.748893499E-1,-9.768607467E-2,1.371130705E0
3.035084319E1,-4.780456722E-1,-2.338043004E-1,1.319050074E0
3.037284319E1,-2.953097224E-1,-1.491907388E-1,1.142632127E0
3.039484944E1,-5.201081280E-3,1.278104633E-1,1.014298081E0
3.041684163E1,1.124166548E-1,2.934596539E-1,1.043008804E0
3.043684319E1,1.437104046E-1,3.717027605E-1,1.086258054E0
3.045884319E1,1.081929579E-1,3.967307806E-1,1.037476063E0
3.047886194E1,4.785692692E-2,3.957184851E-1,9.020559788E-1
3.050084163E1,-1.284562331E-2,2.903180718E-1,6.900508404E-1
3.052084163E1,-1.623156108E-2,9.562659264E-2,5.594827533E-1
3.054084163E1,3.440044075E-2,-9.445721656E-2,5.303706527E-1
3.056084163E1,3.459242731E-2,-2.044129670E-1,5.693787336E-1
3.058084162E1,-7.632324845E-2,-1.568527371E-1,6.070255041E-1
3.060084162E1,-2.131046951E-1,-1.954768784E-2,5.888915658E-1
3.062084319E1,-3.492054641E-1,-3.743731230E-2,5.105960965E-1
3.064084319E1,-4.162610173E-1,-6.560692936E-2,4.212526679E-1
3.066284319E1,-4.032932222E-1,-1.804845035E-1,4.009195864E-1
3.068485569E1,-3.473903239E-1,-2.060012072E-1,4.156326950E-1
3.070684319E1,-3.277030289E-1,-2.074323744E-1,4.090528190E-1
3.072684319E1,-3.670252860E-1,-1.002168059E-1,4.006577730E-1
3.074684319E1,-4.347615242E-1,6.759659946E-2,3.160267770E-1
3.076684319E1,-5.132664442E-1,1.554913819E-1,2.321287841E-1
3.078684319E1,-6.075839996E-1,8.079128712E-2,1.478468478E-1
3.080684319E1,-6.986901760E-1,-5.126031861E-2,-4.330161959E-2
3.082684319E1,-5.467069149E-1,-6.195918657E-3,-1.257858723E-1
3.084684319E1,-5.427973811E-3,1.675865203E-1,-6.583382189E-2
3.086684319E1,6.087184548E-1,3.084695041E-1,1.664520502E-1
3.088684319E1,8.317540884E-1,1.500808597E-1,3.915995359E-1
3.090884162E1,6.479185820E-1,-1.255415380E-1,3.460115194E-1
3.092884162E1,3.472507000E-1,-2.996206582E-1,8.899433911E-2
3.094884319E1,2.068389654E-1,-1.904328763E-1,-1.735380888E-1
3.096884319E1,1.805892140E-1,-5.742133129E-3,-2.993414104E-1
3.099084319E1,2.125636488E-1,4.265584797E-2,-1.891936958E-1
3.101284319E1,3.296752274E-1,-3.436553106E-2,4.883431271E-2
3.103484319E1,3.819827735E-1,-2.395987958E-1,2.086017579E-1
3.105684162E1,3.263416588E-1,-2.438748628E-1,1.391376406E-1
3.107684319E1,2.152863592E-1,-5.932373926E-2,6.380923837E-2
3.109884319E1,6.997025013E-2,1.565909386E-1,7.965682447E-2
3.112084319E1,-7.204718888E-2,1.201310083E-1,1.659982651E-1
3.114084319E1,-1.316676438E-1,-2.551671304E-2,2.157750577E-1
3.116284163E1,-1.996831149E-1,-1.165007278E-1,1.653175801E-1
3.118284163E1,-3.065321743E-1,-1.265189201E-1,1.033060402E-1
3.120284162E1,-4.097684026E-1,-8.510225266E-2,1.130973324E-1
3.122284319E1,-3.696432710E-1,3.769911127E-3,1.725432426E-1
3.124284319E1,-2.288650274E-1,1.179842576E-1,3.100053668E-1
3.126484631E1,-1.263094842E-1,1.961924583E-1,4.100127518E-1
3.128684319E1,-8.806931227E-2,2.564063072E-1,4.382870793E-1
3.130684319E1,-1.004960611E-1,2.679429352E-1,4.887969196E-1
3.132684319E1,-5.567600206E-2,4.024205506E-1,5.595350862E-1
3.134684319E1,-6.265731994E-3,5.888391733E-1,6.532592773E-1
3.136684319E1,-5.429719388E-2,5.972341895E-1,7.072597742E-1
3.138884319E1,-2.223723978E-1,1.153139025E-1,5.363047719E-1
3.140884319E1,-1.276882887E-1,-2.184977680E-1,4.041484296E-1
3.142884319E1,3.273015916E-1,-2.074498385E-1,4.563686848E-1
3.144885100E1,7.120594382E-1,-1.583013684E-2,7.741407752E-1
3.147084163E1,5.444903374E-1,-4.790928960E-2,1.084914088E0
3.149084319E1,5.157447979E-2,-1.920211166E-1,1.069363236E0
3.151284788E1,-2.734232843E-1,-2.299471349E-1,7.153580785E-1
3.153484319E1,-2.151292861E-1,-1.150695607E-1,3.686484396E-1
3.155484319E1,-6.216862798E-2,-4.571017250E-2,3.128153682E-1
3.157484319E1,5.476843193E-2,-5.087634921E-2,4.004134238E-1
3.159484319E1,1.165879965E-1,-1.419476271E-1,4.736125469E-1
3.161484319E1,2.057917714E-1,-9.546951205E-2,4.887096286E-1
3.163485569E1,2.672971785E-1,1.097812131E-1,4.610461593E-1
3.165684319E1,2.372076958E-1,3.229382634E-1,4.370304346E-1
3.167886194E1,8.772024512E-2,3.080855310E-1,4.154058099E-1
3.170084319E1,-2.661627159E-2,7.440338284E-2,3.964689970E-1
3.172284319E1,-3.279473633E-2,-9.007643908E-2,3.523121476E-1
3.174284319E1,-1.106538773E-1,-1.248783097E-1,2.909638286E-1
3.176284319E1,-2.180614322E-1,-8.313003182E-2,2.442762852E-1
3.178284319E1,-3.086963892E-1,-1.487020496E-2,2.495122701E-1
3.180284319E1,-3.584208190E-1,8.093091846E-2,2.619390190E-1
3.182484788E1,-3.968180716E-1,4.080579802E-2,2.242573500E-1
3.184684163E1,-3.723659813E-1,-6.574655324E-2,2.181487083E-1
3.186684319E1,-2.909812927E-1,-5.352924764E-2,3.259925842E-1
3.188884319E1,-2.566855848E-1,9.384635091E-2,3.809006512E-1
3.191084163E1,-2.062455565E-1,4.670326412E-1,3.662922382E-1
3.193084163E1,-2.534218132E-1,6.045994759E-1,3.823492825E-1
3.195084163E1,-5.965011716E-1,3.258180618E-1,2.508561611E-1
3.197084163E1,-7.885921001E-1,1.961051971E-1,-9.740682691E-2
3.199084319E1,-3.470063508E-1,2.043082416E-1,-2.522000670E-1
3.201284319E1,5.625545382E-1,3.061482012E-1,-4.429645464E-2
3.203484319E1,8.849168420E-1,1.111076623E-1,3.241425455E-1
3.205484319E1,7.374888659E-1,-1.812873483E-1,4.306250811E-1
3.207484944E1,5.733231902E-1,-2.687458098E-1,2.519557178E-1
3.209484944E1,3.447723389E-1,-1.067617908E-1,-9.805259854E-2
3.211684319E1,4.698426276E-2,1.018748656E-1,-2.973866463E-1
3.213684319E1,-1.585980654E-1,-2.042035107E-3,-2.504721880E-1
3.215884162E1,-1.157153323E-1,-1.841147840E-1,-1.517563760E-1
3.217886194E1,7.019714266E-2,-1.475326866E-1,-1.182285994E-1
3.220084319E1,2.054427117E-1,2.282890677E-2,-1.884955564E-3
3.222084319E1,1.236914843E-1,1.349837631E-1,1.369908899E-1
3.224084319E1,-1.165007278E-1,1.514073163E-1,1.966287941E-1
3.226284162E1,-3.500607014E-1,8.798204362E-2,1.239358261E-1
3.228284162E1,-4.329812825E-1,-4.771730304E-2,5.276130140E-2
3.230284162E1,-4.255112708E-1,-2.160368562E-1,3.234095126E-2
3.232284162E1,-3.902556300E-1,-2.875604331E-1,9.358455241E-2
3.234284163E1,-3.762755394E-1,-2.068215162E-1,1.758419275E-1
3.236284319E1,-4.108330607E-1,-4.050909355E-2,2.067517042E-1
3.238284319E1,-3.952472508E-1,1.350012124E-1,2.227912843E-1
3.240484944E1,-1.669581980E-1,3.377037644E-1,3.100751936E-1
3.242684319E1,1.395216137E-1,4.958131313E-1,5.585402846E-1
3.244684475E1,2.739294171E-1,6.020163894E-1,7.345916033E-1
3.246884162E1,2.685887218E-1,6.832963824E-1,7.115009427E-1
3.248884162E1,1.650732458E-1,7.004704475E-1,6.340257525E-1
3.250884162E1,3.361504152E-2,5.024104714E-1,5.362873077E-1
3.252884319E1,-3.284709528E-2,4.703662172E-2,3.308620751E-1
3.254884319E1,2.351133078E-1,-1.352455616E-1,2.223200351E-1
3.257084162E1,7.733204961E-1,8.225736767E-2,3.929957747E-1
3.259084162E1,7.962540984E-1,1.826661527E-1,7.025299072E-1
3.261084162E1,2.643301189E-1,1.291892678E-1,9.303477407E-1
3.263084319E1,-4.367337227E-1,-1.184729487E-1,7.982263565E-1
3.265284319E1,-6.710267067E-1,-3.793473244E-1,2.664419711E-1
3.267484162E1,-2.476796806E-1,-4.580442011E-1,-6.822492182E-2
3.269484319E1,1.910088360E-1,-3.193254471E-1,-4.279547185E-2
3.271684162E1,3.253642917E-1,-1.776570678E-1,1.621061862E-1
3.273684163E1,2.363175750E-1,-5.548401549E-2,2.897595465E-1
3.275684162E1,1.688955128E-1,9.559167922E-2,2.846632004E-1
3.277684162E1,1.113520041E-1,2.018647790E-1,1.314232945E-1
3.279684162E1,6.457717973E-4,1.087863743E-1,-7.904595882E-2
3.281684162E1,-4.389503226E-2,-1.682846397E-1,-1.785995364E-1
3.283684163E1,3.490658477E-3,-4.688827097E-1,-1.583188176E-1
3.285684162E1,3.577924892E-2,-5.955063105E-1,-2.878047898E-2
3.287684163E1,4.537856206E-3,-5.409822464E-1,8.429940045E-2
3.289684162E1,-8.478809148E-2,-3.508286178E-1,1.109505817E-1
3.291684162E1,-2.131221592E-1,-2.347467840E-2,4.253367335E-2
3.293684162E1,-3.741636872E-1,1.370083448E-2,-2.733185515E-2
3.295684162E1,-3.902032673E-1,-1.071108580E-1,-9.180432186E-3
3.297684162E1,-2.693043053E-1,-2.111673802E-1,4.295255244E-2
3.299684162E1,-1.787042618E-1,-1.888446212E-1,5.133013427E-2
3.301684163E1,-2.049714625E-1,-1.195550524E-2,1.864011586E-2
3.303684162E1,-1.847605556E-1,3.052057326E-1,6.422811747E-2
3.305684163E1,-9.464920312E-2,5.446997881E-1,1.787042618E-1
3.307684319E1,-1.442340016E-1,4.298571348E-1,2.294758856E-1
3.309884319E1,-2.930756807E-1,1.234994978E-1,-2.419026382E-2
3.312084319E1,-1.359785944E-1,1.151393726E-1,-3.839026093E-1
3.314284162E1,3.919485807E-1,2.833192945E-1,-4.071678519E-1
3.316284319E1,7.053049803E-1,2.519033849E-1,-1.507091820E-1
3.318484319E1,5.785068274E-1,7.330382708E-3,2.303834539E-3
3.320484788E1,3.146130443E-1,-1.190140024E-1,-1.531002820E-1
3.322484788E1,2.763205171E-1,-7.435102481E-3,-3.993138671E-1
3.324684319E1,3.319616318E-1,6.963863969E-2,-4.871214032E-1
3.326884162E1,2.242748141E-1,-7.546803355E-2,-3.889466226E-1
3.328884162E1,1.277057379E-1,-1.834690124E-1,-2.879095078E-1
3.330884319E1,2.317273617E-1,-1.289623827E-1,-1.792278588E-1
3.332884319E1,3.970973194E-1,6.782349199E-2,1.073377486E-2
3.335084319E1,3.306700885E-1,5.318018049E-2,1.410924196E-1
3.337284319E1,5.417501926E-2,-3.455751762E-2,1.473407000E-1
3.339484319E1,-1.916720569E-1,1.507964451E-2,1.174606606E-1
3.341684162E1,-3.334276974E-1,-2.104867063E-2,1.295906901E-1
3.343684319E1,-4.014606476E-1,-1.306727976E-1,1.504473835E-1
3.345684319E1,-4.247782230E-1,-1.911833584E-1,1.433787942E-1
3.347684319E1,-4.392644763E-1,-2.060535699E-1,1.378111988E-1
3.349684319E1,-3.836059272E-1,-1.105840579E-1,1.606401056E-1
3.351884162E1,-2.450791299E-1,1.225744709E-1,2.489013970E-1
3.353884319E1,-8.676031977E-2,3.281742632E-1,4.207290709E-1
3.356084319E1,6.312856078E-2,3.944095075E-1,6.298718452E-1
3.358284319E1,1.065174416E-1,3.894178569E-1,7.715228200E-1
3.360484788E1,8.335692436E-2,4.395960867E-1,8.344244361E-1
3.362684319E1,-1.027998887E-2,4.926191866E-1,8.530820012E-1
3.364684319E1,-2.994810343E-1,2.189515531E-1,6.416528225E-1
3.366884319E1,-3.599043489E-1,-1.341634542E-1,3.729768693E-1
3.369084163E1,2.888345420E-1,3.241076320E-2,5.007698536E-1
3.371084319E1,7.897964120E-1,2.193878889E-1,9.258447886E-1
3.373284319E1,4.945564866E-1,-8.648106456E-2,1.307286501E0
3.375484319E1,-2.026327252E-1,-3.810402751E-1,1.205324411E0
3.377684162E1,-4.192455411E-1,-2.306627184E-1,6.903126240E-1
3.379684319E1,-1.146332249E-1,8.096582443E-2,4.199611247E-1
3.381684319E1,2.318320870E-1,2.425309569E-1,5.192179680E-1
3.383884162E1,2.533345520E-1,1.568178385E-1,7.889412045E-1
3.385884163E1,1.153662615E-2,1.696809083E-1,8.611454368E-1
3.387886194E1,-2.162986547E-1,2.981022298E-1,7.281339169E-1
3.390084163E1,-1.965938807E-1,1.814095229E-1,5.269498229E-1
3.392084319E1,-2.597049996E-2,-1.417730898E-1,4.811523557E-1
3.394284319E1,7.757988572E-2,-3.750363588E-1,4.494048357E-1
3.396484319E1,8.494517207E-2,-3.759788275E-1,4.369955361E-1
3.398484319E1,6.377433240E-2,-2.808234692E-1,4.635943472E-1
3.400684319E1,4.974188283E-3,-6.654940546E-2,5.227784514E-1
3.402884163E1,-1.423665136E-1,1.278802752E-1,5.231100917E-1
3.404884319E1,-2.817834020E-1,2.591988444E-1,5.075591803E-1
3.407084162E1,-2.975437343E-1,1.987406462E-1,4.470311701E-1
3.409084162E1,-2.191260904E-1,3.995058686E-2,4.912578166E-1
3.411084162E1,-1.521403491E-1,-5.813691765E-2,5.899910927E-1
3.413084319E1,-9.107127786E-2,-4.180063680E-2,6.291912198E-1
3.415284319E1,-7.185520232E-2,7.400196046E-2,5.708797574E-1
3.417484319E1,-1.787915230E-1,2.882411182E-1,4.868246913E-1
3.419484319E1,-4.195771515E-1,2.694090307E-1,4.052305520E-1
3.421684319E1,-6.934542060E-1,8.190830052E-2,1.447401494E-1
3.423884319E1,-5.558350086E-1,2.132443339E-1,-1.566956639E-1
3.425884319E1,7.044149190E-2,5.037718415E-1,-1.062381938E-1
3.427886194E1,6.913947463E-1,5.635144711E-1,2.910685539E-1
3.430084163E1,7.881208658E-1,1.194154248E-1,6.184050441E-1
3.432084162E1,6.188064814E-1,-2.274513096E-1,5.272814035E-1
3.434084319E1,5.401270390E-1,-1.995260417E-1,1.134813055E-1
3.436084319E1,4.853585958E-1,9.407324716E-3,-2.661627233E-1
3.438084319E1,3.183306158E-1,1.079137102E-1,-3.661177158E-1
3.440284162E1,1.078613475E-1,6.291911751E-2,-1.506393701E-1
3.442284163E1,5.134758726E-2,-5.487314984E-2,7.621853054E-2
3.444284319E1,1.112472862E-1,-1.249481216E-1,1.817236841E-1
3.446284319E1,1.355771720E-1,-1.985835582E-1,2.204525322E-1
3.448484475E1,5.722934753E-2,-1.838180721E-1,2.158448696E-1
3.450684319E1,-7.265805453E-2,-1.395914257E-1,1.975887269E-1
3.452884319E1,-1.447750628E-1,-1.441467404E-1,1.958433986E-1
3.454884319E1,-1.698205322E-1,-1.384220570E-1,2.494075447E-1
3.457084319E1,-2.665815949E-1,-1.121025011E-1,3.061133027E-1
3.459284319E1,-3.832219541E-1,-4.497713596E-2,3.218038082E-1
3.461484319E1,-4.642052054E-1,1.128006279E-1,2.811725438E-1
3.463484319E1,-4.746248424E-1,2.529505789E-1,2.511877716E-1
3.465484319E1,-3.348414302E-1,3.756123185E-1,2.679080367E-1
3.467684162E1,-1.139350906E-1,4.307821691E-1,3.809181154E-1
3.469684163E1,2.516764775E-2,3.852988780E-1,5.225864649E-1
3.471684319E1,6.637486815E-2,2.453060299E-1,5.913175344E-1
3.473884319E1,1.602910310E-1,2.571393549E-1,6.035697460E-1
3.476084163E1,1.816713214E-1,4.574158788E-1,6.146177053E-1
3.478084162E1,1.469567232E-2,3.287502229E-1,6.466096044E-1
3.480084163E1,-1.033234876E-2,-5.852089077E-2,5.788733363E-1
3.482084162E1,4.188266695E-1,-1.631882787E-1,6.623349786E-1
3.484084319E1,9.805608988E-1,8.257152885E-2,8.711462021E-1
3.486284162E1,8.983035088E-1,6.300638616E-2,1.113816738E0
3.488284319E1,2.302438319E-1,-1.787391752E-1,1.161725998E0
3.490484319E1,-3.464653194E-1,-4.329812825E-1,8.593302965E-1
3.492684319E1,-3.086440265E-1,-3.879168928E-1,4.898964763E-1
3.494684319E1,-1.377064735E-2,-1.521403491E-1,3.684913516E-1
3.496684319E1,8.173377067E-2,3.808308393E-2,5.138249397E-1
3.498884162E1,-1.097812131E-2,9.257226437E-2,7.297221422E-1
3.500884319E1,-8.340928704E-2,5.489060655E-2,7.998495102E-1
3.502884319E1,-5.845107511E-2,3.867649660E-2,7.643669248E-1
3.504884319E1,8.045967668E-3,-4.923573881E-2,6.762976050E-1
3.506884319E1,-8.447393775E-3,-2.261074036E-1,5.902354717E-1
3.509084162E1,-9.110618383E-2,-3.676710725E-1,4.398753345E-1
3.511084162E1,-1.435184181E-1,-3.788760602E-1,3.059213161E-1
3.513084162E1,-1.348790377E-1,-2.735803723E-1,2.713463306E-1
3.515084163E1,-1.548979729E-1,-1.211083978E-1,3.384018838E-1
3.517084162E1,-2.262644768E-1,2.410299703E-2,4.044975042E-1
3.519084319E1,-3.531324565E-1,9.731955826E-2,3.696083724E-1
3.521084319E1,-5.113465786E-1,1.358389705E-1,3.183829486E-1
3.523084319E1,-5.715429783E-1,9.056513757E-2,2.575233281E-1
3.525084319E1,-4.936314821E-1,-3.651228920E-2,1.614255011E-1
3.527084319E1,-2.905798554E-1,-1.847780049E-1,1.449670494E-1
3.529284162E1,-2.260201424E-2,-1.869247667E-2,2.793050408E-1
3.531284163E1,1.368338168E-1,3.138974607E-1,4.397182465E-1
3.533284162E1,5.089380220E-2,3.680375814E-1,4.905422330E-1
3.535284162E1,-2.591464818E-1,1.850049049E-1,2.067517042E-1
3.537284319E1,-2.887472808E-1,1.468869150E-1,-2.812423408E-1
3.539484475E1,2.766346931E-1,2.680127621E-1,-4.745550156E-1
3.541484788E1,7.838796973E-1,2.778738737E-1,-1.469741762E-1
3.543684162E1,7.513293624E-1,-3.038618155E-2,2.966535985E-1
3.545684162E1,4.557927251E-1,-1.579348445E-1,3.484375179E-1
3.547684162E1,3.609864414E-1,-8.861036599E-2,1.411447823E-1
3.549684162E1,4.440990388E-1,1.743583940E-2,-2.157226950E-2
3.551684163E1,4.625296891E-1,3.094468825E-2,-5.344198272E-2
3.553684162E1,3.523470759E-1,-1.839577034E-2,5.888740718E-2
3.555684163E1,2.317273617E-1,-2.680825815E-2,1.975014508E-1
3.557684319E1,1.539904028E-1,5.037020147E-2,2.879967690E-1
3.559884319E1,4.201007634E-2,8.696975559E-2,2.939832509E-1
3.562084163E1,-8.077383786E-2,-1.754055917E-2,2.646442652E-1
3.564084319E1,-1.247735843E-1,-1.267807186E-1,2.266310006E-1
3.566284319E1,-1.454731971E-1,-1.976410896E-1,2.181836069E-1
3.568484944E1,-2.481334656E-1,-2.306278050E-1,2.617295682E-1
3.570684162E1,-3.428175747E-1,-2.532647252E-1,3.491356671E-1
3.572684319E1,-3.441614807E-1,-1.739395112E-1,4.401545823E-1
3.574684319E1,-3.677059710E-1,4.146902263E-2,4.634721875E-1
3.576888694E1,-3.861540854E-1,4.473104179E-1,4.421442449E-1
3.579084162E1,-3.052755296E-1,7.584153414E-1,5.135282278E-1
3.581084162E1,-1.716705859E-1,7.852061987E-1,6.568720937E-1
3.583084163E1,1.275835652E-2,5.976705551E-1,7.462853193E-1
3.585084319E1,1.770985574E-1,4.732809365E-1,6.881135106E-1
3.587284319E1,2.145707756E-1,5.356938839E-1,6.170436740E-1
3.589484319E1,7.873180509E-2,7.486589551E-1,5.778610706E-1
3.591484319E1,-1.822472811E-1,5.297248960E-1,4.279896319E-1
3.593684319E1,-1.404466480E-1,1.569574624E-1,3.062005639E-1
3.595884319E1,5.075243115E-1,5.941100791E-2,4.399974942E-1
3.597886194E1,1.097393274E0,8.634144068E-2,7.058635354E-1
3.600084162E1,9.924989343E-1,-1.091528907E-1,9.310982227E-1
3.602084162E1,3.711617291E-1,-2.821673751E-1,8.850739002E-1
3.604084162E1,-1.167799830E-1,-2.743308544E-1,5.743878484E-1
3.606084319E1,-2.444857210E-1,-1.861219108E-1,2.395638973E-1
3.608084319E1,-1.864011586E-1,-2.197718620E-1,5.895722285E-2
3.610284162E1,-2.090904489E-2,-2.465102971E-1,7.489208132E-2
3.612284162E1,1.077391729E-1,-1.575159580E-1,2.077814490E-1
3.614284162E1,1.861219108E-1,-3.700098023E-2,3.573386967E-1
3.616284319E1,1.566083878E-1,5.946336687E-2,4.246909618E-1
3.618484319E1,-1.396263391E-2,1.484227926E-1,3.685088158E-1
3.620684162E1,-1.586853415E-1,1.273915768E-1,3.233048022E-1
3.622684319E1,-1.079486161E-1,2.715732343E-2,3.369008899E-1
3.624684319E1,-2.473131567E-2,-1.148775741E-1,3.886499107E-1
3.626684319E1,-3.049090132E-2,-1.737126261E-1,3.994360566E-1
3.628684319E1,-6.613052636E-2,-8.972737938E-2,3.861890137E-1
3.630684319E1,-1.334653348E-1,3.839724232E-4,4.034503102E-1
3.632684319E1,-2.062630057E-1,6.791076064E-2,3.288549483E-1
3.634684319E1,-3.040363491E-1,1.345474273E-1,2.198940367E-1
3.636684319E1,-3.380179107E-1,1.747074574E-1,9.704030305E-2
3.638884319E1,-3.300592005E-1,1.963669956E-1,6.305874884E-2
3.641084162E1,-4.448844194E-1,7.398450375E-2,1.622458100E-1
3.643084162E1,-4.863883555E-1,5.023057386E-2,1.970476657E-1
3.645084162E1,-4.027870893E-1,2.448173314E-1,1.724559814E-1
3.647084163E1,-4.055795968E-1,3.169168830E-1,1.564862132E-1
3.649084319E1,-6.323153377E-1,1.636071652E-1,5.853834376E-2
3.651284319E1,-7.948927283E-1,5.169665068E-2,-2.269277126E-1
3.653484788E1,-3.869918585E-1,2.693043090E-2,-3.244916201E-1
3.655684163E1,4.815537930E-1,-1.439198554E-1,-7.991862297E-2
3.657684319E1,9.864600897E-1,-3.004060686E-1,2.117608041E-1
3.659884319E1,7.646287680E-1,-5.788210034E-1,1.628392190E-1
3.661884319E1,3.453657627E-1,-5.616818666E-1,-2.328269184E-1
3.663884319E1,1.037074625E-1,-2.032086849E-1,-6.690894365E-1
3.666084162E1,-3.324852139E-2,9.918706119E-2,-8.631525636E-1
3.668084162E1,-7.880161703E-2,8.908160776E-2,-7.595672607E-1
3.670084319E1,-2.200860158E-2,-9.634217247E-3,-6.669426560E-1
3.672284319E1,1.960353851E-1,-1.848303713E-2,-5.929756165E-1
3.674284319E1,3.056246042E-1,7.283259183E-2,-4.402767420E-1
3.676284319E1,1.899616420E-1,1.042659655E-1,-3.310191333E-1
3.678484319E1,-5.099852011E-2,9.798278660E-2,-3.285931349E-1
3.680484319E1,-2.494075447E-1,3.954916075E-2,-3.627317846E-1
3.682484319E1,-3.448421657E-1,-6.141813472E-2,-3.317696452E-1
3.684484319E1,-3.978827000E-1,-2.088460922E-1,-2.412219495E-1
3.686684319E1,-3.977605402E-1,-2.697755396E-1,-1.487893164E-1
3.688884319E1,-3.752283454E-1,-1.683544517E-1,-6.400122494E-2
3.691084319E1,-3.304781020E-1,1.107062325E-1,-2.122320421E-2
3.693284162E1,-1.965764314E-1,3.939731717E-1,8.754571527E-2
3.695284319E1,-2.888519876E-2,4.407130778E-1,2.959729433E-1
3.697484319E1,1.236565784E-1,3.756646812E-1,5.150117278E-1
3.699484319E1,1.515120268E-1,3.141418099E-1,5.355368257E-1
3.701484319E1,1.990024447E-1,4.188441038E-1,4.934220314E-1
3.703484319E1,2.098060250E-1,5.611931682E-1,5.499532223E-1
3.705484319E1,6.181956083E-2,3.995058537E-1,5.211727619E-1
3.707684319E1,-2.598795295E-2,-8.726646006E-2,3.167423606E-1
3.709684319E1,3.808482885E-1,-1.994736791E-1,3.241425455E-1
3.711684319E1,8.356636167E-1,-3.277728334E-2,5.814215541E-1
3.713684319E1,6.902776957E-1,-1.113694608E-1,8.420515656E-1
3.715684319E1,6.394886225E-2,-2.538406849E-1,8.368679285E-1
3.717886194E1,-3.633251786E-1,-1.721767336E-1,4.171860516E-1
3.720084319E1,-2.442413718E-1,8.011061698E-3,9.456194192E-2
3.722284319E1,-1.715658605E-2,7.248352468E-2,2.053903490E-1
3.724484475E1,6.377433240E-2,1.799434423E-2,4.771206677E-1
3.726484631E1,4.333652556E-2,-3.710569814E-2,5.755921602E-1
3.728684319E1,1.881464943E-2,-4.462806880E-2,5.388005972E-1
3.730684319E1,8.278096467E-2,-2.349213138E-2,4.974537492E-1
3.732684319E1,1.197470427E-1,-9.234537184E-2,4.786565602E-1
3.734684319E1,1.024159193E-1,-1.666614860E-1,3.785095513E-1
3.736684319E1,1.219636053E-1,-1.919513047E-1,2.478018403E-1
3.738684319E1,1.963146329E-1,-1.489638537E-1,2.119702399E-1
3.740684319E1,1.595230997E-1,-1.011243761E-1,2.913827300E-1
3.742684319E1,3.492403775E-2,-7.117452472E-2,3.671649098E-1
3.744684319E1,-6.567674130E-2,-1.337096691E-1,3.663969636E-1
3.746884319E1,-1.475850344E-1,-2.722190022E-1,3.083996773E-1
3.749084319E1,-1.736777127E-1,-1.792802215E-1,2.099631131E-1
3.751284319E1,-2.228436321E-1,1.569050923E-2,2.297900468E-1
3.753484319E1,-2.767917514E-1,2.254965343E-2,3.589618802E-1
3.755484319E1,-3.415085673E-1,2.865830623E-2,3.721216619E-1
3.757484319E1,-3.630110323E-1,1.043357849E-1,2.718001306E-1
3.759484319E1,-2.629687488E-1,2.540675700E-1,1.796292812E-1
3.761484319E1,-3.689451516E-1,1.848652810E-1,9.719738364E-2
3.763484319E1,-6.149667501E-1,8.168140799E-2,-1.252797395E-1
3.765484788E1,-6.107605100E-1,5.106833205E-2,-4.270820618E-1
3.767684162E1,-1.022762954E-1,3.473205259E-3,-5.095837712E-1
3.769684163E1,5.775643587E-1,-4.712388851E-3,-2.491282970E-1
3.771684319E1,9.202248454E-1,-1.131322384E-1,1.473930478E-1
3.773884319E1,7.009242177E-1,-2.812249064E-1,1.915847957E-1
3.775884319E1,3.532197475E-1,-2.520080805E-1,-1.191885322E-1
3.777886194E1,2.461437881E-1,-3.487167880E-2,-4.231725335E-1
3.780084163E1,2.930233181E-1,1.808161139E-1,-5.112418532E-1
3.782084162E1,3.006678820E-1,1.891413331E-1,-3.354697227E-1
3.784084319E1,2.184454054E-1,2.666863054E-2,-1.113520041E-1
3.786284162E1,1.416160166E-1,-1.921956539E-1,-7.089527696E-2
3.788284319E1,2.000670880E-1,-1.091005281E-1,-1.223650351E-1
3.790484319E1,2.024931014E-1,-2.247984149E-2,-1.406386346E-1
3.792484475E1,4.145156965E-2,-8.375835419E-2,-6.154030934E-2
3.794684319E1,-1.106364205E-1,-1.274613887E-1,7.120943163E-3
3.796884319E1,-1.370956153E-1,2.150245570E-2,5.445427261E-3
3.799084319E1,-1.661029905E-1,1.477246732E-1,1.762782596E-2
3.801284319E1,-1.604306698E-1,1.637991518E-1,7.899360359E-2
3.803284319E1,-1.375842988E-1,1.717229486E-1,1.262047589E-1
3.805284319E1,-6.995279342E-2,3.237934709E-1,1.252797395E-1
3.807485412E1,-1.816887781E-2,5.980545282E-1,1.388409436E-1
3.809684162E1,2.497566119E-2,6.966481805E-1,1.640435010E-1
3.811684319E1,6.911503524E-2,5.299692154E-1,1.344950646E-1
3.813884163E1,1.110203937E-1,3.130946159E-1,-6.195918657E-3
3.815884162E1,7.888887823E-2,3.870092928E-1,-1.872738265E-2
3.817886194E1,-1.215447262E-1,3.322408795E-1,2.450442314E-2
3.820084319E1,-3.595029116E-1,-6.056292355E-2,-7.483971864E-2
3.822284162E1,-1.588424146E-1,-2.038370073E-1,-1.461538672E-1
3.824284319E1,6.104463339E-1,1.201833710E-1,2.443460980E-4
3.826484319E1,1.178481221E0,3.323456049E-1,4.414810240E-1
3.828484319E1,8.726820946E-1,1.569050997E-1,7.259173393E-1
3.830484319E1,1.346172392E-1,-1.264840066E-1,6.748141050E-1
3.832484788E1,-2.764252424E-1,-1.966986060E-1,3.140719831E-1
3.834684319E1,-2.149896622E-1,-4.405210912E-2,-9.063494951E-2
3.836684319E1,-9.651670605E-2,-1.218239777E-2,-1.498016119E-1
3.838684319E1,-2.148500271E-2,-2.932153083E-2,5.194099993E-2
3.840684319E1,3.473205259E-3,7.220426947E-2,3.160093129E-1
3.842684319E1,-1.363102160E-2,1.011069268E-1,4.822344780E-1
3.844884162E1,6.056292448E-3,5.604252219E-2,4.806636870E-1
3.846884319E1,6.787585467E-2,3.073524870E-2,3.847578466E-1
3.849084319E1,9.526006877E-2,-1.769763790E-2,3.608119190E-1
3.851284319E1,4.293509945E-2,-1.192234382E-1,3.874107301E-1
3.853484319E1,-3.235840425E-2,-3.021688461E-1,3.915995359E-1
3.855484319E1,-2.851868048E-2,-4.045149684E-1,3.588047922E-1
3.857484319E1,-5.056218803E-2,-3.951250911E-1,3.162361979E-1
3.859484319E1,-1.621410847E-1,-4.116010070E-1,2.800031602E-1
3.861484319E1,-3.144036233E-1,-4.252843857E-1,2.403492928E-1
3.863484788E1,-3.739193380E-1,-3.196221590E-1,2.888519764E-1
3.865684319E1,-3.303908408E-1,-8.047713339E-2,3.650181592E-1
3.867886194E1,-3.503399491E-1,1.410575062E-1,4.180587232E-1
3.870084319E1,-4.531922042E-1,2.728298604E-1,4.098731279E-1
3.872284162E1,-4.761956334E-1,3.001791835E-1,3.293436170E-1
3.874284163E1,-4.368559122E-1,2.331585288E-1,2.702991366E-1
3.876284162E1,-5.829399824E-1,-3.944443911E-2,1.743234843E-1
3.878284162E1,-8.103389144E-1,-2.469117343E-1,-2.180439830E-1
3.880284319E1,-7.531270385E-1,-1.959306598E-1,-6.664714217E-1
3.882484319E1,-1.587726027E-1,-8.927359432E-2,-7.115358114E-1
3.884484319E1,5.119225383E-1,-1.731366664E-2,-3.604628444E-1
3.886484319E1,6.669426560E-1,-2.158448696E-1,-4.351105914E-2
3.888684162E1,4.910134673E-1,-3.634473681E-1,-1.282293350E-1
3.890684319E1,4.125085771E-1,-1.223999411E-1,-4.483750761E-1
3.892684319E1,2.948559225E-1,1.733461022E-1,-7.082022429E-1
3.894684319E1,1.171290427E-1,2.126683742E-1,-7.580139637E-1
3.896684319E1,5.464625731E-2,7.630579174E-2,-6.669950485E-1
3.898684319E1,1.767843962E-1,1.146681327E-2,-5.395161510E-1
3.900684319E1,3.852116168E-1,-2.640683204E-2,-4.209734201E-1
3.902884319E1,4.532620013E-1,6.213372108E-3,-3.434109688E-1
3.904884319E1,3.719296753E-1,1.128878966E-1,-3.430095613E-1
3.906884319E1,3.539178669E-1,2.057917714E-1,-3.104242682E-1
3.909084162E1,3.268303573E-1,2.383596152E-1,-2.897944748E-1
3.911084162E1,2.027897984E-1,1.963495463E-1,-2.767044902E-1
3.913084162E1,7.557275891E-2,1.521054506E-1,-2.627243996E-1
3.915084163E1,4.063126445E-2,1.748994440E-1,-2.846980989E-1
3.917084162E1,1.185078546E-2,1.459269822E-1,-2.650457025E-1
3.919084163E1,1.815142459E-3,1.940806210E-2,-1.451764852E-1
3.921084319E1,1.146681327E-2,-7.951720059E-2,-5.515240505E-2
3.923284319E1,1.588424146E-1,1.251401007E-1,-5.862560868E-2
3.925484319E1,3.053802550E-1,3.775147200E-1,1.076868176E-2
3.927485413E1,3.528532088E-1,4.858996570E-1,9.192649275E-2
3.929684319E1,2.754653096E-1,4.573809803E-1,-2.024581889E-3
3.931884319E1,3.822271014E-3,4.412017763E-1,-3.516838327E-2
3.933884319E1,-3.228684664E-1,2.983640432E-1,-7.120943163E-3
3.936084162E1,-2.693566680E-1,-4.187044874E-2,2.815216035E-2
3.938084162E1,3.797138333E-1,-8.482300490E-2,1.669756472E-1
3.940084163E1,1.082784772E0,5.400048569E-2,4.481307268E-1
3.942084319E1,1.101215482E0,-2.177123725E-1,7.580139637E-1
3.944284319E1,6.443930268E-1,-4.431391060E-1,8.057836294E-1
3.946484319E1,3.427826762E-1,-3.654893935E-1,4.578871131E-1
3.948485413E1,3.299195766E-1,-1.056098714E-1,1.205324382E-1
3.950684319E1,1.881988496E-1,1.413716674E-1,-3.176499158E-3
3.952884319E1,-3.431491852E-1,1.598721594E-1,-1.254891697E-2
3.954884319E1,-5.696580410E-1,1.115265414E-1,3.523819894E-2
3.956884319E1,-3.577401340E-1,2.170142382E-1,2.528982051E-2
3.959084162E1,-8.569566905E-2,3.920009434E-1,-2.382374369E-2
3.961084319E1,-6.237806752E-2,2.698802650E-1,-3.056071512E-2
3.963084319E1,-1.200961024E-1,8.740609139E-2,-2.597049996E-2
3.965084319E1,-1.780934036E-1,2.120575123E-2,-6.421066076E-2
3.967284319E1,-2.997428477E-1,8.100073040E-2,-1.038296372E-1
3.969484319E1,-3.962595463E-1,1.161342114E-1,-1.241976321E-1
3.971484319E1,-3.502875865E-1,3.644247353E-2,-1.511106044E-1
3.973684163E1,-2.475400418E-1,-1.961575598E-1,-1.896125674E-1
3.975684319E1,-2.431418151E-1,-2.059663087E-1,-2.060710192E-1
3.977886038E1,-3.026226461E-1,-2.429498360E-2,-1.475501359E-1
3.980084163E1,-4.069584310E-1,-5.215043947E-2,-7.661995478E-3
3.982084162E1,-4.503298402E-1,-6.792821735E-2,1.033933014E-1
3.984084319E1,-3.682993650E-1,4.710643739E-2,8.532914519E-2
3.986284162E1,-1.960528344E-1,2.908591330E-1,9.264207631E-2
3.988284319E1,-2.129127085E-1,3.596251011E-1,1.180366203E-1
3.990484319E1,-5.802521706E-1,6.363470107E-2,3.761184588E-2
3.992484319E1,-8.213694096E-1,-6.400122494E-2,-1.491558403E-1
3.994484319E1,-5.530599356E-1,5.335471407E-2,-2.176774591E-1
3.996484475E1,3.455751808E-3,2.034006715E-1,-9.744173288E-2
3.998684319E1,2.587974072E-1,3.322059810E-1,8.944812417E-2
4.000684319E1,-1.682497375E-2,2.959205806E-1,1.893682182E-1
4.002684319E1,-2.981371284E-1,8.218755573E-2,1.197470427E-1
4.004684319E1,-2.166128159E-1,-9.421287477E-2,-1.196248680E-1
4.006684319E1,-4.258603230E-2,-1.631882787E-1,-2.839825153E-1
4.008684319E1,-5.094616115E-2,-1.511629671E-1,-2.321985960E-1
4.010884319E1,-1.282118857E-1,-4.974188283E-3,-1.787217148E-2
4.013084319E1,-8.065166324E-2,1.005658731E-1,1.568178385E-1
4.015284319E1,1.850049011E-2,3.179989755E-2,2.850995362E-1
4.017284319E1,1.075122785E-2,-7.646287233E-2,3.037396371E-1
4.019484319E1,-7.806857675E-2,-2.108183205E-1,2.527760267E-1
4.021484319E1,-1.666789502E-2,-2.286032289E-1,1.604830176E-1
4.023484319E1,4.562290758E-2,-1.482133567E-1,1.237787530E-1
4.025484319E1,2.125811018E-2,1.457349956E-2,1.323832273E-1
4.027484319E1,-9.923942387E-2,1.535715163E-1,1.190663576E-1
4.029484319E1,-1.750565171E-1,2.001368999E-1,9.313076735E-2
4.031484475E1,-9.953612834E-2,2.466150224E-1,5.312782153E-2
4.033684163E1,3.822271014E-3,2.804744244E-1,-8.918632753E-3
4.035684319E1,-2.932153177E-3,1.711818874E-1,-6.122614816E-2
4.037886194E1,-1.103048120E-2,5.836381018E-2,-6.806784123E-2
4.040084163E1,5.982988700E-2,6.070255116E-2,-3.443534672E-2
4.042084162E1,1.248434037E-1,2.608743608E-1,2.059488557E-2
4.044084163E1,8.227481693E-2,5.112767220E-1,1.777268797E-1
4.046084319E1,-1.188220158E-1,1.569749117E-1,2.182708681E-1
4.048284163E1,-4.133812189E-1,-7.074168324E-1,-2.998650074E-1
4.050284162E1,-3.174928427E-1,-8.226958513E-1,-6.277949214E-1
4.052284319E1,9.824458510E-2,-3.749490678E-1,-5.595700145E-1
4.054484319E1,3.049439192E-1,-1.409876943E-1,-6.506587565E-2
4.056484319E1,2.462659590E-2,-4.440292120E-1,1.050513685E-1
4.058484319E1,-1.726130694E-1,-5.623101592E-1,-1.996831149E-1
4.060684162E1,-1.386140436E-1,-5.158669949E-1,-6.195569634E-1
4.062684319E1,3.719296679E-2,-3.024131954E-1,-8.226783872E-1
4.064684475E1,2.559874356E-1,-2.426007763E-3,-7.474197745E-1
4.066884319E1,3.669031262E-1,1.791580468E-1,-4.449367821E-1
4.068884319E1,3.828379810E-1,1.690700501E-1,-3.696083724E-1
4.071084319E1,3.544589281E-1,1.835213751E-1,-4.855505824E-1
4.073284319E1,3.246137798E-1,2.656216621E-1,-5.926265717E-1
4.075484319E1,2.738596201E-1,2.157925069E-1,-6.379702091E-1
4.077484319E1,2.024407387E-1,6.492624991E-3,-6.518281102E-1
4.079684319E1,1.314931065E-1,-1.287180334E-1,-6.493672132E-1
4.081884319E1,4.921828397E-3,-5.569345504E-2,-6.029065251E-1
4.084084319E1,-1.851270795E-1,-9.794788063E-2,-5.333551764E-1
4.086084319E1,-3.273888528E-1,-6.805038452E-2,-5.571963787E-1
4.088284319E1,-3.134087622E-1,4.125958309E-2,-5.811248422E-1
4.090484319E1,-2.084272206E-1,5.736897141E-2,-5.313131213E-1
4.092484475E1,-2.352180183E-1,-6.300638616E-2,-4.243418872E-1
4.094684319E1,-3.051533699E-1,-2.508910894E-1,-2.960253060E-1
4.096884319E1,-2.175901979E-1,-2.492330223E-1,-2.591639459E-1
4.099084319E1,2.303834632E-2,6.834709644E-2,-1.891064197E-1
4.101284319E1,-8.004079759E-2,1.796641946E-1,-1.441991031E-1
4.103484319E1,-6.254736185E-1,-1.876578033E-1,-5.203350186E-1
4.105484319E1,-7.367383838E-1,-4.447622597E-1,-1.012535334E0
4.107484319E1,-1.249830276E-1,-5.625370741E-1,-1.066623092E0
4.109684162E1,7.417649031E-1,-3.900810778E-1,-7.019888759E-1
4.111684319E1,8.389448524E-1,-2.487792373E-1,-4.582536519E-1
4.113884163E1,3.766595125E-1,-2.554114759E-1,-6.588966846E-1
4.115884162E1,5.731661245E-2,-2.933025658E-1,-1.042694569E0
4.117886194E1,-3.110176697E-2,-2.692694068E-1,-1.350448489E0
4.120084319E1,1.888446324E-2,-2.349911332E-1,-1.475414038E0
4.122284162E1,1.626646891E-2,-2.410823256E-1,-1.322819948E0
4.124284163E1,-3.293436393E-2,-3.598170877E-1,-1.141637325E0
4.126284162E1,1.644100063E-2,-3.648959994E-1,-1.054475546E0
4.128284162E1,7.489208132E-2,-2.215520889E-1,-1.010475874E0
4.130284319E1,3.612831607E-2,-1.378810150E-3,-9.224414229E-1
4.132486038E1,-1.056971401E-1,6.689847261E-2,-7.777535915E-1
4.134684319E1,-2.512401342E-1,-3.005456924E-2,-6.942221522E-1
4.136684319E1,-3.039490879E-1,-1.125388294E-1,-6.772226691E-1
4.138884319E1,-2.931629419E-1,-2.253045589E-1,-6.423160434E-1
4.141084319E1,-2.629687488E-1,-3.292214572E-1,-5.545260310E-1
4.143084319E1,-1.983043104E-1,-3.583509922E-1,-4.235216081E-1
4.145084319E1,-1.364149302E-1,-2.622357309E-1,-2.872288227E-1
4.147284162E1,-1.165181771E-1,-8.957029879E-2,-1.504124701E-1
