"Time (s)","Linear Acceleration x (m/s^2)","Linear Acceleration y (m/s^2)","Linear Acceleration z (m/s^2)"
2.199218700E-2,2.782000005E-1,-4.223999977E-1,3.531999886E-1
4.200000000E-2,3.261999786E-1,-2.675999999E-1,5.511000156E-1
7.199218700E-2,3.579999879E-2,-1.109999940E-1,5.163999796E-1
9.200000000E-2,8.709999919E-2,-3.686999977E-1,1.142099977E0
1.219921870E-1,-8.779999614E-1,-3.167999983E-1,3.236299992E0
1.419921870E-1,1.314999908E-1,-4.395999908E-1,1.811100006E0
1.619921870E-1,3.373000026E-1,-7.714999914E-1,-8.060000092E-2
1.819921870E-1,8.825999498E-1,-5.613999963E-1,-9.821999669E-1
2.019921870E-1,9.634999633E-1,-5.363999605E-1,-1.134799957E0
2.219921870E-1,6.405000091E-1,-2.082999945E-1,-7.536000013E-1
2.419968750E-1,3.885999918E-1,2.107999921E-1,1.529999971E-1
2.719906250E-1,3.552999794E-1,-1.361999959E-1,1.605199933E0
2.919921870E-1,1.693999916E-1,-3.839999810E-2,1.927599907E0
3.119921870E-1,-3.119999915E-2,5.552999973E-1,1.729499936E0
3.320000000E-1,-5.940999985E-1,1.116999984E0,9.807999730E-1
3.619921870E-1,-1.047600031E0,1.439099908E0,1.385999918E-1
3.819984370E-1,-7.228999734E-1,4.426999986E-1,6.352999806E-1
4.119921870E-1,-2.151999921E-1,-4.151999950E-1,2.402899981E0
4.320000000E-1,5.949999765E-2,-2.811000049E-1,3.322899818E0
4.619906250E-1,-3.172999918E-1,-1.879999973E-2,2.905999899E0
4.819953120E-1,-5.990999937E-1,2.773000002E-1,2.061800003E0
5.119906250E-1,-3.146999776E-1,2.026000023E-1,2.566400051E0
5.319906250E-1,2.369999886E-1,3.979999945E-2,2.556999922E0
5.519906250E-1,5.902000070E-1,-4.669999704E-2,1.850699902E0
5.719921870E-1,8.076999784E-1,-1.193999946E-1,1.233500004E0
6.019906250E-1,8.534999490E-1,-8.179999888E-2,1.772799969E0
6.219906250E-1,1.038399935E0,-6.289999932E-2,1.554299951E0
6.419921870E-1,1.170499921E0,-1.812999994E-1,1.150799990E0
6.719921870E-1,1.934599996E0,-3.765999973E-1,1.197099924E0
7.019906250E-1,2.190299988E0,-2.481999993E-1,9.867999554E-1
7.219921870E-1,1.896699905E0,-2.992999852E-1,9.936999679E-1
7.519906250E-1,1.527899981E0,-3.854999840E-1,1.688499928E0
7.719906250E-1,1.372599959E0,-2.026999891E-1,1.748299956E0
7.919906250E-1,1.425499916E0,-1.729999930E-1,1.180400014E0
8.119906250E-1,1.410599947E0,-2.967999876E-1,5.636999607E-1
8.319906250E-1,1.158100009E0,-4.083999991E-1,2.917999923E-1
8.520015620E-1,1.041700006E0,-5.622000098E-1,7.465999722E-1
8.819906250E-1,1.223899961E0,-5.794999599E-1,1.416999996E-1
9.019906250E-1,9.598000050E-1,-6.836000085E-1,-3.467999995E-1
9.219921870E-1,5.764999986E-1,-6.588999629E-1,-7.841999531E-1
9.519921870E-1,8.482999802E-1,-7.818999887E-1,-6.237999797E-1
9.719921870E-1,1.075500011E0,-9.363999963E-1,-6.444999576E-1
9.919921870E-1,1.068599939E0,-1.172799945E0,-1.094799995E0
1.021990625E0,7.718999982E-1,-1.086400032E0,-1.868799925E0
1.041990625E0,7.282999754E-1,-9.206999540E-1,-1.814099908E0
1.061992187E0,8.460999727E-1,-8.289999962E-1,-1.964100003E0
1.081992187E0,1.201900005E0,-6.135999560E-1,-2.139799833E0
1.111990625E0,1.627999902E0,-6.660000086E-1,-2.275899887E0
1.131992187E0,1.559700012E0,-5.236999989E-1,-2.796999931E0
1.151992187E0,1.504699945E0,-2.089999914E-1,-2.828999996E0
1.181992187E0,1.627900004E0,2.048999965E-1,-1.462999940E0
1.201992187E0,1.924799919E0,-3.240000084E-2,-1.343400002E0
1.221992187E0,2.382900000E0,-2.613999844E-1,-2.106299877E0
1.241992187E0,3.027699947E0,-5.103999972E-1,-2.035199881E0
1.271990625E0,3.077199936E0,-8.420000076E-1,-1.614199996E0
1.291992187E0,2.743899822E0,-1.227499962E0,-1.622999907E0
1.321990625E0,3.040099859E0,-1.447600007E0,-1.311999917E0
1.341990625E0,3.278299809E0,-1.028499961E0,-1.292099953E0
1.361992187E0,2.755599976E0,-6.498000026E-1,-1.985999942E0
1.391990625E0,1.370700002E0,-3.847999871E-1,-1.505599976E0
1.411990625E0,5.505999923E-1,-4.152999818E-1,-7.933999896E-1
1.431990625E0,1.240999997E-1,-4.400999844E-1,-1.410999894E-1
1.451992187E0,-4.403999746E-1,3.387999833E-1,2.874000072E-1
1.471992187E0,-1.292899966E0,1.080399990E0,8.587999940E-1
1.491992187E0,-1.619099975E0,1.677599907E0,9.807999730E-1
1.511992187E0,-2.862699986E0,5.296999812E-1,-1.325199962E0
1.541992187E0,-2.881000042E0,-5.002999902E-1,-1.674999893E-1
1.561992187E0,-1.880899906E0,-1.140399933E0,1.079200029E0
1.591992187E0,-1.351799965E0,-1.857399940E0,1.056999922E0
1.621992187E0,-2.439800024E0,-1.035300016E0,1.459999941E-2
1.641992187E0,-2.764299870E0,-6.019999832E-2,-9.147999883E-1
1.661992187E0,-2.970199823E0,5.691999793E-1,-1.629400015E0
1.681992187E0,-3.065599918E0,4.902999997E-1,-1.324299932E0
1.711992187E0,-3.374499798E0,-6.329999864E-2,4.566999972E-1
1.741990625E0,-3.833699942E0,2.891999781E-1,1.068499923E0
1.761992187E0,-3.777899981E0,3.657999933E-1,4.183000028E-1
1.781992187E0,-3.707700014E0,4.000999928E-1,-1.353999972E-1
1.811990625E0,-3.399399996E0,3.204999864E-1,-7.178999782E-1
1.831990625E0,-3.275099993E0,5.568000078E-1,-1.190799952E0
1.852001562E0,-3.312999964E0,4.107999802E-1,-1.354099989E0
1.881990625E0,-2.285399914E0,2.509000003E-1,-9.862999916E-1
1.901990625E0,-1.424399972E0,6.589999795E-2,-1.428499937E0
1.921992187E0,-8.788999915E-1,-1.429999918E-1,-1.735599995E0
1.951990625E0,-4.648999870E-1,2.301999927E-1,-1.538399935E0
1.971990625E0,-6.323999763E-1,6.062999964E-1,-9.578999877E-1
1.991992187E0,-1.009500027E0,9.776999950E-1,-4.546999931E-1
2.021990625E0,-1.115999937E0,1.456099987E0,-1.161800027E0
2.041990625E0,-8.982999921E-1,1.442600012E0,-8.129000068E-1
2.061992187E0,-3.831999898E-1,1.319399953E0,-3.109999895E-1
2.081992187E0,2.766999900E-1,1.125599980E0,-7.451999784E-1
2.111992187E0,3.653999865E-1,1.148100019E0,-1.443799973E0
2.131992187E0,1.847999990E-1,1.205699921E0,-6.340000033E-1
2.151992187E0,4.023999870E-1,1.118999958E0,5.931000113E-1
2.171992187E0,5.332999825E-1,1.235099912E0,5.871999860E-1
2.201990625E0,2.478999943E-1,1.093699932E0,1.389400005E0
2.221992187E0,1.474999934E-1,9.406999946E-1,1.428699970E0
2.241992187E0,-4.148999751E-1,8.763999939E-1,9.807999730E-1
2.271992187E0,-1.537599921E0,5.248000026E-1,1.017999947E-1
2.291992187E0,-2.124599934E0,1.050999984E-1,2.014600039E0
2.321992187E0,-1.968099952E0,-1.012300014E0,4.408199787E0
2.351992187E0,-3.040099859E0,-7.638999820E-1,3.100999832E0
2.381990625E0,-3.023499966E0,-4.250999987E-1,1.449199915E0
2.401990625E0,-2.381099939E0,-7.055000067E-1,2.213999927E-1
2.421992187E0,-2.001800060E0,-8.520999551E-1,-9.352999926E-1
2.451990625E0,-2.333600044E0,-1.146199942E0,-5.633999705E-1
2.471990625E0,-2.574199915E0,-1.041599989E0,-5.941999555E-1
2.491992187E0,-2.320899963E0,-7.322999835E-1,-1.603199959E0
2.521990625E0,-1.360000014E0,-6.826999784E-1,-3.400300026E0
2.541990625E0,-8.729999661E-1,-9.120999575E-1,-3.420699835E0
2.561992187E0,-1.069299936E0,-1.159500003E0,-2.416499853E0
2.591990625E0,-1.912199974E0,-3.382000029E-1,-1.515399933E0
2.611990625E0,-1.679600000E0,2.396999896E-1,-1.591499925E0
2.631990625E0,-9.287999868E-1,2.900999784E-1,-2.235599995E0
2.651992187E0,-3.779000044E-1,2.245999873E-1,-3.161099911E0
2.681990625E0,-1.996999979E-1,3.159999847E-1,-2.799899817E0
2.701990625E0,-3.385999799E-1,-2.779999934E-2,-6.609999537E-1
2.721992187E0,-3.559999764E-1,-6.541999578E-1,8.396999836E-1
2.751992187E0,-8.231999874E-1,-1.031999946E0,1.220999956E0
2.781992187E0,-8.292999864E-1,-1.683899999E0,2.738299847E0
2.811990625E0,3.748999834E-1,-1.363099933E0,3.346400023E0
2.831990625E0,-2.019999921E-2,-1.228399992E0,1.342800021E0
2.852001562E0,-1.434299946E0,-1.159999967E0,2.234999895E0
2.881990625E0,-2.327800035E0,-1.827299953E0,5.601299763E0
2.901990625E0,-1.574999928E0,-1.781399965E0,4.532199860E0
2.921992187E0,-1.043799996E0,-1.197700024E0,2.600999832E0
2.951990625E0,-7.515000105E-1,1.193999946E-1,9.197999835E-1
2.971990625E0,-9.222999811E-1,7.181000113E-1,-3.419999778E-2
2.991992187E0,-1.455399990E0,4.600999951E-1,-2.611999810E-1
3.011992187E0,-1.645099998E0,3.427999914E-1,-2.104000002E-1
3.041990625E0,-1.063599944E0,2.263000011E-1,-1.576499939E0
3.061990625E0,-7.208999991E-1,-4.109999910E-2,-2.495599985E0
3.081992187E0,-1.028499961E0,-1.738999933E-1,-2.425699949E0
3.111990625E0,-1.014199972E0,-3.849999979E-2,-2.156899929E0
3.131990625E0,-1.056999922E0,-2.039999962E-1,-2.669299841E0
3.151992187E0,-9.192000031E-1,-3.879999742E-2,-3.320099831E0
3.181990625E0,-5.320999622E-1,4.323999882E-1,-3.293299913E0
3.201990625E0,-4.129000008E-1,5.920999646E-1,-2.218699932E0
3.221992187E0,-5.643999577E-1,5.958999991E-1,-2.036999911E-1
3.251992187E0,-5.051000118E-1,1.280599952E0,7.723999619E-1
3.281992187E0,2.637999952E-1,1.852099895E0,2.352999896E-1
3.311990625E0,6.757999659E-1,1.636799932E0,1.398800015E0
3.331990625E0,6.820999980E-1,1.640299916E0,1.662999988E0
3.351992187E0,2.117999941E-1,1.926199913E0,1.254499912E0
3.381990625E0,-3.982999921E-1,2.136800051E0,1.900299907E0
3.401992187E0,-7.586999536E-1,1.962399960E0,2.044299841E0
3.421992187E0,-1.408100009E0,1.402899981E0,1.774699926E0
3.451990625E0,-1.121199965E0,-3.493999839E-1,3.357800007E0
3.471992187E0,-8.219999820E-2,-1.264199972E0,3.930299997E0
3.491992187E0,5.568000078E-1,-1.540699959E0,2.880800009E0
3.511992187E0,3.328999877E-1,-1.194399953E0,1.398299932E0
3.541990625E0,-7.378999591E-1,-8.861999512E-1,2.263700008E0
3.561990625E0,-9.379999638E-1,-1.259699941E0,3.402499914E0
3.581992187E0,-5.607999563E-1,-1.842000008E0,2.889199972E0
3.611990625E0,-1.212999970E-1,-1.927799940E0,-6.960999966E-1
3.631990625E0,-3.419999778E-2,-1.614300013E0,2.328999937E-1
3.651992187E0,-4.078999758E-1,-1.426499963E0,1.802999973E-1
3.681990625E0,-7.326999903E-1,-8.454999924E-1,-2.429399967E0
3.701990625E0,-3.005999923E-1,-4.781000018E-1,-3.988199949E0
3.721992187E0,-4.479999840E-2,-5.428999662E-1,-3.685599804E0
3.751990625E0,-5.507000089E-1,-6.359999776E-1,-2.741099834E0
3.771990625E0,-6.625999808E-1,-5.493000150E-1,-2.791499853E0
3.791992187E0,-6.865999699E-1,-2.883000076E-1,-2.506500006E0
3.821992187E0,-2.723000050E-1,-3.905999959E-1,-1.958899975E0
3.852001562E0,-9.429999441E-2,-7.458999753E-1,-2.125699997E0
3.881990625E0,-2.703000009E-1,-5.938999653E-1,-9.079999924E-1
3.901990625E0,-7.426999807E-1,-4.488999844E-1,1.713199973E0
3.921992187E0,-7.136999965E-1,-2.013999969E-1,2.218999863E0
3.941992187E0,-1.068999991E-1,1.399999950E-2,3.537999988E-1
3.971990625E0,3.905999959E-1,1.065899968E0,2.477999926E-1
3.991990625E0,1.035999954E-1,1.427099943E0,4.792999923E-1
4.011992187E0,-8.533999920E-1,4.212999940E-1,7.297999859E-1
4.041990625E0,-9.498999715E-1,-1.069399953E0,3.116299868E0
4.061990625E0,-2.889999934E-2,-1.407199979E0,2.831300020E0
4.081990625E0,3.495999873E-1,-1.598599911E0,6.577000022E-1
4.101990625E0,-1.960999966E-1,-2.008800030E0,-1.077099919E0
4.121990625E0,-8.847000003E-1,-1.919799924E0,-4.972999990E-1
4.141992187E0,-1.700599909E0,-1.411199927E0,5.512999892E-1
4.171990625E0,-1.633499980E0,-5.072999597E-1,5.493999720E-1
4.191990625E0,-9.791999459E-1,-8.519999683E-2,4.138999879E-1
4.211992187E0,-1.973999888E-1,-8.079999685E-2,-7.029999793E-2
4.241990625E0,3.682999909E-1,-1.788999885E-1,-1.423399925E0
4.261990625E0,4.208999872E-1,-1.532000005E-1,-1.882599950E0
4.281990625E0,4.332999885E-1,-2.013999969E-1,-1.590999961E0
4.301990625E0,4.308999777E-1,-4.447000027E-1,-1.960500002E0
4.321990625E0,3.418999910E-1,-3.993999958E-1,-2.533900023E0
4.341990625E0,2.746999860E-1,-6.610000134E-2,-2.742499828E0
4.361992187E0,2.097999901E-1,2.204999924E-1,-2.713999987E0
4.391990625E0,1.612999886E-1,4.998999834E-1,-1.970299959E0
4.411990625E0,1.115999967E-1,3.701999784E-1,-1.055999994E0
4.431990625E0,1.021999940E-1,6.308999658E-1,-2.179999948E-1
4.451990625E0,-2.771999836E-1,1.403599977E0,1.996999979E-1
4.471990625E0,-8.610000014E-1,1.759499907E0,9.998999834E-1
4.491992187E0,-1.186599970E0,1.405099988E0,1.744699955E0
4.521990625E0,-1.111099958E0,9.677999616E-1,2.958600044E0
4.541990625E0,-2.397999913E-1,1.162099957E0,3.504499912E0
4.561990625E0,-2.250999957E-1,6.933000088E-1,1.896199942E0
4.581990625E0,-1.014599919E0,2.547000051E-1,9.706999660E-1
4.601992187E0,-1.023299932E0,-2.979999781E-1,2.656100035E0
4.631990625E0,-3.076999784E-1,-1.529599905E0,3.413100004E0
4.651992187E0,-1.693999916E-1,-1.850699902E0,2.799599886E0
4.681990625E0,-1.089299917E0,-1.035099983E0,2.358599901E0
4.701990625E0,-1.230399966E0,-5.820999742E-1,1.690699935E0
4.721992187E0,-9.486999512E-1,-4.671999812E-1,9.200000018E-2
4.741992187E0,-7.626000047E-1,-7.293999791E-1,-1.560699940E0
4.761992187E0,-5.322999954E-1,-9.122999907E-1,-1.066100001E0
4.781992187E0,-5.273999572E-1,-1.038499951E0,-5.159999803E-2
4.801992187E0,-5.073999763E-1,-1.124599934E0,-2.230999917E-1
4.831990625E0,-6.384999752E-1,-2.123999894E-1,-2.249399900E0
4.852001562E0,-7.208999991E-1,3.353999853E-1,-3.087800026E0
4.881990625E0,-1.008100033E0,7.892999649E-1,-3.471400023E0
4.901990625E0,-9.182999730E-1,6.839999557E-1,-2.494699955E0
4.921992187E0,-5.164999962E-1,8.890999556E-1,-1.503199935E0
4.951990625E0,-5.861999989E-1,1.210099936E0,-1.689299941E0
4.971990625E0,-6.173999906E-1,9.376999736E-1,-1.455199957E0
4.991992187E0,-2.356999964E-1,3.996999860E-1,-7.009999752E-1
5.011992187E0,1.368999928E-1,-3.208000064E-1,-3.589999974E-1
5.041990625E0,7.360000163E-2,-9.705999494E-1,4.219999909E-2
5.061990625E0,-2.631999850E-1,-3.772999942E-1,7.392999530E-1
5.081992187E0,-6.134999990E-1,7.454999685E-1,1.114699960E0
5.111990625E0,-2.250200033E0,4.147000015E-1,1.955999881E-1
5.131990625E0,-2.199300051E0,-8.260999918E-1,3.166199923E0
5.151992187E0,-1.900900006E0,-2.498699903E0,4.981800079E0
5.181990625E0,-2.349200010E0,-3.495999813E0,4.468299866E0
5.201990625E0,-2.478699923E0,-2.631099939E0,4.144099712E0
5.221990625E0,-2.726699829E0,-1.728599906E0,2.646999836E0
5.241990625E0,-2.677399874E0,-7.713999748E-1,8.925999999E-1
5.261990625E0,-1.913599968E0,-5.656999946E-1,-1.537999958E-1
5.281992187E0,-1.194899917E0,-7.645999789E-1,2.259999886E-2
5.311990625E0,-6.549999714E-1,-7.436000109E-1,-2.726999819E-1
5.331990625E0,-2.291999906E-1,-6.976000071E-1,-8.371999860E-1
5.351992187E0,-6.830000132E-2,-6.728999615E-1,-1.672199965E0
5.381990625E0,-4.077000022E-1,-4.727999866E-1,-2.660300016E0
5.401990625E0,-5.616999865E-1,-4.177999794E-1,-2.750499964E0
5.421992187E0,-4.642999768E-1,-4.888999760E-1,-2.710599899E0
5.451990625E0,-7.589999586E-2,-4.687999785E-1,-2.874399900E0
5.471990625E0,1.561999917E-1,-3.924999833E-1,-3.131899834E0
5.491992187E0,3.202999830E-1,-1.334999949E-1,-3.358500004E0
5.511992187E0,2.775000036E-1,3.509999812E-1,-3.153399944E0
5.541990625E0,-2.737999856E-1,9.562000036E-1,-1.615000010E0
5.561990625E0,-7.763999701E-1,1.124599934E0,-1.586999893E-1
5.581990625E0,-1.038399935E0,1.085299969E0,8.094999790E-1
5.601990625E0,-1.073300004E0,1.021899939E0,1.128299952E0
5.621990625E0,-4.296999872E-1,9.098999500E-1,1.655200005E0
5.641992187E0,1.175999939E-1,1.025599957E0,1.791899920E0
5.671990625E0,-6.262999773E-1,1.836899996E0,1.862999916E0
5.691990625E0,-8.847999573E-1,2.240599871E0,1.895799994E0
5.711992187E0,-6.617999673E-1,1.536999941E0,2.179199934E0
5.741990625E0,-1.169999968E-2,-5.409999937E-2,2.293999910E0
5.761990625E0,3.140999973E-1,-1.517999917E-1,1.892699957E0
5.781992187E0,2.217999995E-1,-1.741999984E-1,1.424799919E0
5.811992187E0,-4.614999890E-1,-8.879999518E-1,2.123999894E-1
5.841990625E0,-1.875699997E0,-1.462099910E0,1.787400007E0
5.861992187E0,-2.333099842E0,-1.486099958E0,2.508999825E0
5.891992187E0,-2.114599943E0,-9.792999625E-1,8.070999980E-1
5.921992187E0,-1.274299979E0,-4.154999852E-1,-1.254299998E0
5.951990625E0,-4.479999840E-1,-2.540000081E-1,-2.590699911E0
5.971990625E0,-5.846999884E-1,6.250000000E-2,-2.819700003E0
5.991990625E0,-1.188699961E0,4.180999994E-1,-3.092999935E0
6.011990625E0,-1.673200011E0,8.116999865E-1,-2.911499977E0
6.031990625E0,-1.644500017E0,1.051100016E0,-2.303900003E0
6.051990625E0,-1.327000022E0,1.184700012E0,-2.026700020E0
6.071992187E0,-1.187600017E0,1.065799952E0,-1.984999895E0
6.101990625E0,-1.177600026E0,7.448999882E-1,-1.512199998E0
6.121990625E0,-1.401799917E0,7.856000066E-1,-1.339200020E0
6.141992187E0,-1.394199967E0,9.672999978E-1,-1.324999928E0
6.171990625E0,-9.361999631E-1,1.081799984E0,-1.462000012E0
6.191990625E0,-3.989999890E-1,1.068799973E0,-1.751999974E0
6.211992187E0,-2.770999968E-1,1.318599939E0,-1.670300007E0
6.241990625E0,-2.807999849E-1,1.028399944E0,3.964999914E-1
6.261990625E0,-2.369999886E-1,6.480000019E-1,1.789099932E0
6.281992187E0,6.889999658E-2,2.786000073E-1,2.422899961E0
6.311990625E0,-1.345499992E0,-1.702799916E0,3.310099840E0
6.331990625E0,-1.784399986E0,-1.723500013E0,5.760399818E0
6.351992187E0,-1.882799983E0,-1.953999996E0,5.921899796E0
6.381990625E0,-2.268699884E0,-2.395099878E0,4.383599758E0
6.401990625E0,-2.206500053E0,-1.892099977E0,4.313899994E0
6.421992187E0,-1.767300010E0,-1.204399943E0,3.796399832E0
6.441992187E0,-8.500999808E-1,-5.898999572E-1,2.000000000E0
6.471990625E0,1.448999941E-1,2.699999884E-2,-9.143999815E-1
6.491990625E0,3.980000019E-1,1.924999952E-1,-2.162099838E0
6.511992187E0,4.290999770E-1,2.166000009E-1,-2.269799948E0
6.541990625E0,2.777999938E-1,-1.560999900E-1,-2.050199986E0
6.561990625E0,1.867000014E-1,-2.468999922E-1,-2.129400015E0
6.581990625E0,3.210999966E-1,-1.077999994E-1,-2.488199949E0
6.601990625E0,4.314000010E-1,-6.529999524E-2,-2.971099854E0
6.621990625E0,4.457999766E-1,5.139999837E-2,-2.843499899E0
6.641992187E0,2.330999970E-1,2.761999965E-1,-2.674700022E0
6.671990625E0,1.119999960E-2,9.123999476E-1,-2.475999832E0
6.691990625E0,5.020000041E-2,1.193400025E0,-1.505999923E0
6.711990625E0,3.614999950E-1,1.124499917E0,-9.095000029E-1
6.731990625E0,3.931999803E-1,1.280799985E0,-2.679999918E-2
6.751992187E0,5.009999871E-1,1.159699917E0,1.454800010E0
6.781992187E0,6.191999912E-1,9.614999890E-1,3.088399887E0
6.811990625E0,3.439999744E-2,1.434499979E0,2.948499918E0
6.831990625E0,1.498000026E-1,2.074699879E0,2.601699829E0
6.852001562E0,4.891999960E-1,1.821599960E0,1.883699894E0
6.881990625E0,9.936999679E-1,9.038999677E-1,1.928299904E0
6.901990625E0,1.614699960E0,2.933999896E-1,1.887799978E0
6.921992187E0,1.920199990E0,-4.874999821E-1,1.444000006E0
6.951990625E0,1.608699918E0,-1.194399953E0,3.039000034E-1
6.971990625E0,4.095999897E-1,-1.674499989E0,3.895999789E-1
6.991990625E0,-8.700000048E-1,-1.249699950E0,1.465899944E0
7.011992187E0,-1.508700013E0,-7.356999516E-1,2.266499996E0
7.041990625E0,-5.809999704E-1,-7.649999857E-1,7.347999811E-1
7.061990625E0,3.179999813E-2,-6.742999554E-1,-7.224999666E-1
7.081992187E0,2.603999972E-1,-9.792999625E-1,-1.117599964E0
7.111990625E0,2.811000049E-1,-8.565999866E-1,-2.286099911E0
7.131990625E0,2.168999910E-1,-4.096999764E-1,-3.242899895E0
7.151992187E0,-1.429999918E-1,-6.329999864E-2,-3.641799927E0
7.181990625E0,-2.857999802E-1,1.189999953E-1,-2.914899826E0
7.201990625E0,-4.467999935E-1,3.610999882E-1,-2.498600006E0
7.221992187E0,-8.043999672E-1,5.798999667E-1,-1.870700002E0
7.251990625E0,-8.687999845E-1,5.727999806E-1,-1.127099991E0
7.271990625E0,-6.046999693E-1,5.144000053E-1,-1.258799911E0
7.291992187E0,-2.028999925E-1,6.678000093E-1,-1.750099897E0
7.321990625E0,1.869999990E-2,7.863999605E-1,-1.752900004E0
7.341990625E0,-1.528999954E-1,8.323000073E-1,-1.127300024E0
7.361992187E0,-1.982000023E-1,8.947999477E-1,-3.497000039E-1
7.391990625E0,2.246999890E-1,8.542000055E-1,6.445999742E-1
7.411990625E0,3.130999804E-1,1.214900017E0,1.361299992E0
7.431992187E0,1.041999981E-1,1.265799999E0,8.534999490E-1
7.461990625E0,-1.615399957E0,-2.368000001E-1,2.054399967E0
7.481990625E0,-1.976099968E0,-1.025399923E0,3.943499804E0
7.501992187E0,-1.607899904E0,-1.414099932E0,3.912400007E0
7.531990625E0,-1.452099919E0,-2.014499903E0,1.537400007E0
7.551990625E0,-1.971699953E0,-1.778800011E0,2.154299974E0
7.571992187E0,-2.573099852E0,-8.950999975E-1,2.004999876E0
7.601990625E0,-2.480099916E0,1.613999903E-1,6.029999852E-1
7.621990625E0,-1.725600004E0,3.366999924E-1,-1.451999992E-1
7.641992187E0,-6.822999716E-1,6.099999696E-2,-6.432999969E-1
7.671990625E0,6.542999744E-1,-1.579999924E-1,-1.855199933E0
7.691990625E0,1.018599987E0,-2.733999789E-1,-2.286700010E0
7.711990625E0,8.869999647E-1,-1.862999946E-1,-2.277699947E0
7.731990625E0,5.893999934E-1,1.114000008E-1,-2.519799948E0
7.751990625E0,6.710000038E-1,3.389999866E-1,-2.664199829E0
7.771990625E0,8.842999935E-1,3.339000046E-1,-2.613399982E0
7.791992187E0,8.858000040E-1,3.637000024E-1,-2.895200014E0
7.821990625E0,8.619999886E-1,6.287999749E-1,-2.078700066E0
7.841990625E0,5.187999606E-1,7.660999894E-1,-1.018100023E0
7.861992187E0,1.659999937E-1,1.016199946E0,-2.513000071E-1
7.891990625E0,9.239999950E-2,1.568300009E0,6.204000115E-1
7.911990625E0,4.262000024E-1,1.663899899E0,1.076300025E0
7.931992187E0,3.937000036E-1,1.800999999E0,1.118999958E0
7.961990625E0,1.023999974E-1,1.604299903E0,1.966199994E0
7.981990625E0,1.906999946E-1,1.851099968E0,2.631599903E0
8.001990625E0,-1.103999987E-1,1.557299972E0,2.541800022E0
8.021990625E0,-3.463000059E-1,8.701999784E-1,2.914000034E0
8.041990625E0,2.617999911E-1,-1.068999991E-1,3.397799969E0
8.061992187E0,1.452000022E0,-8.364999890E-1,2.281100035E0
8.081992187E0,2.082299948E0,-1.313300014E0,9.978999496E-1
8.101992187E0,1.733199954E0,-1.192999959E0,6.412000060E-1
8.121992187E0,6.287999749E-1,-1.127499938E0,1.445599914E0
8.141992187E0,-9.200000018E-2,-9.514999986E-1,1.843299985E0
8.161992187E0,-3.655000031E-1,-7.554999590E-1,1.356899977E0
8.181992187E0,-1.783999950E-1,-5.424999595E-1,2.364999950E-1
8.201992187E0,3.021000028E-1,-4.528999925E-1,-4.357999861E-1
8.221992187E0,5.780000091E-1,-8.998999596E-1,-3.504000008E-1
8.251990625E0,9.387999773E-1,-9.867999554E-1,-1.606799960E0
8.271992187E0,6.761999726E-1,-5.810999870E-1,-2.328799963E0
8.291992187E0,1.340999901E-1,1.039000005E-1,-2.969899893E0
8.321990625E0,-7.265999913E-1,7.049999833E-1,-3.307199955E0
8.341990625E0,-9.131000042E-1,6.412999630E-1,-2.798799992E0
8.361992187E0,-5.521000028E-1,5.320999622E-1,-2.155999899E0
8.391990625E0,-2.395999879E-1,5.741999745E-1,-1.483299971E0
8.411990625E0,-1.425999999E-1,7.198999524E-1,-1.377399921E0
8.431992187E0,4.989999905E-2,6.132000089E-1,-1.309899926E0
8.461990625E0,2.565000057E-1,6.208999753E-1,-1.468799949E0
8.481990625E0,1.187999994E-1,7.822999954E-1,-1.189899921E0
8.501992187E0,1.548999995E-1,6.571999788E-1,-1.277000010E-1
8.531990625E0,5.307999849E-1,8.202999830E-1,1.236599922E0
8.551992187E0,9.009999633E-1,1.211399913E0,1.329999924E0
8.571992187E0,3.856999874E-1,1.054600000E0,8.276999593E-1
8.601990625E0,-1.804399967E0,-2.166999876E-1,2.435299873E0
8.621990625E0,-2.656299829E0,-7.473999858E-1,4.091399670E0
8.641992187E0,-2.195299864E0,-9.752999544E-1,3.843599796E0
8.671990625E0,-1.283499956E0,-1.726799965E0,1.105499983E0
8.691990625E0,-1.413100004E0,-1.700999975E0,1.171800017E0
8.711992187E0,-1.534699917E0,-1.430799961E0,1.825699925E0
8.741990625E0,-1.227199912E0,-5.670999885E-1,6.193999648E-1
8.761990625E0,-6.897000074E-1,-1.865999997E-1,-5.619999766E-1
8.781992187E0,-3.874000013E-1,4.999999702E-2,-1.388799906E0
8.811990625E0,3.877999783E-1,8.590000123E-2,-2.200199842E0
8.831990625E0,8.532999754E-1,1.208999977E-1,-2.773200035E0
8.852001562E0,1.074800014E0,1.059999987E-1,-3.175599813E0
8.881990625E0,1.014899969E0,3.460000083E-2,-2.939999819E0
8.901990625E0,1.041399956E0,1.419999897E-1,-2.450500011E0
8.921992187E0,1.080600023E0,1.907999963E-1,-2.028599977E0
8.951990625E0,1.181399941E0,2.982999980E-1,-1.726199985E0
8.971990625E0,1.142199993E0,4.059999883E-1,-1.726099968E0
8.991990625E0,9.866999984E-1,5.952999592E-1,-1.239899993E0
9.011990625E0,5.881999731E-1,1.106599927E0,-2.784000039E-1
9.031990625E0,4.050999880E-1,1.532599926E0,6.782000065E-1
9.051990625E0,4.501999915E-1,1.520599961E0,1.069000006E0
9.071992187E0,4.244999886E-1,1.334999919E0,8.812999725E-1
9.091992187E0,3.446999788E-1,1.256099939E0,1.109499931E0
9.121990625E0,2.732999921E-1,1.171599984E0,2.855999947E0
9.141992187E0,5.806999803E-1,1.465899944E0,3.039399862E0
9.161992187E0,9.598000050E-1,1.349599957E0,1.990099907E0
9.191990625E0,1.283800006E0,4.378999770E-1,1.582799911E0
9.211992187E0,1.664399981E0,-3.833999932E-1,2.720000029E0
9.241990625E0,1.772599936E0,-9.639999866E-1,1.845299959E0
9.261990625E0,1.064399958E0,-7.695999742E-1,5.925999880E-1
9.281992187E0,6.809999794E-2,-2.590999901E-1,2.220999897E-1
9.311990625E0,-4.874999821E-1,-2.360000014E-1,1.509199977E0
9.331992187E0,-5.216999650E-1,-6.004999876E-1,1.472199917E0
9.351992187E0,-5.080999732E-1,-6.917999983E-1,4.908999801E-1
9.371992187E0,-6.517999768E-1,-5.667999983E-1,-1.720999926E-1
9.401990625E0,-4.041999876E-1,-3.774999976E-1,-1.652799964E0
9.421990625E0,2.499999851E-2,-4.107999802E-1,-2.487999916E0
9.441992187E0,1.922999918E-1,-4.161999822E-1,-3.273099899E0
9.471990625E0,-3.549999893E-1,-9.299999475E-2,-2.924099922E0
9.491990625E0,-8.158999681E-1,1.882999986E-1,-2.652999878E0
9.511993750E0,-1.077799916E0,3.912999928E-1,-2.537400007E0
9.541990625E0,-1.311399937E0,6.893999577E-1,-2.153800011E0
9.561990625E0,-1.278599977E0,7.402999997E-1,-1.763000011E0
9.581992187E0,-8.587999940E-1,5.699999928E-1,-1.551299930E0
9.611990625E0,-2.135999948E-1,3.826999962E-1,-1.309799910E0
9.631990625E0,1.277000010E-1,2.357999980E-1,-7.742999792E-1
9.651992187E0,2.626000047E-1,2.228999883E-1,3.161000013E-1
9.681990625E0,3.443999887E-1,1.053300023E0,1.312099934E0
9.701990625E0,6.219999790E-1,1.670099974E0,1.363899946E0
9.721992187E0,9.106999636E-1,2.021100044E0,9.423999786E-1
9.751990625E0,-3.430999815E-1,9.851999879E-1,2.467299938E0
9.771990625E0,-1.406099916E0,-2.479999959E-1,5.047199726E0
9.791992187E0,-1.522899985E0,-9.433999658E-1,5.901599884E0
9.821990625E0,-1.069399953E0,-1.387699962E0,3.482399940E0
9.841990625E0,-1.259500027E0,-1.393399954E0,2.396499872E0
9.861992187E0,-1.452700019E0,-1.265499949E0,1.484799981E0
9.891990625E0,-1.411199927E0,-3.536999822E-1,-5.167999864E-1
9.911990625E0,-1.335799932E0,1.132999957E-1,-1.562699914E0
9.931990625E0,-1.179999948E0,2.683999836E-1,-2.217200041E0
9.951990625E0,-7.712999582E-1,7.109999657E-2,-2.426800013E0
9.971990625E0,-2.194999903E-1,-1.259000003E-1,-2.611799955E0
9.991990625E0,7.859999686E-2,-4.391999841E-1,-2.868099928E0
1.001199063E1,4.259999841E-2,-7.285999656E-1,-2.798199892E0
1.003199062E1,9.699999541E-2,-6.171999574E-1,-2.597100019E0
1.005199062E1,4.467999935E-1,-3.822000027E-1,-3.167999983E0
1.007199219E1,8.073999882E-1,-3.118000031E-1,-3.816099882E0
1.009199219E1,7.376999855E-1,-1.451999992E-1,-3.386299849E0
1.012199062E1,-3.599999845E-1,4.745999873E-1,-1.285899997E0
1.014199219E1,-6.072999835E-1,7.301999927E-1,-8.779999614E-2
1.017199063E1,-2.588000000E-1,8.446999788E-1,8.905999660E-1
1.019199062E1,-6.412000060E-1,1.306499958E0,1.797599912E0
1.021199219E1,-1.129899979E0,1.446799994E0,2.329699993E0
1.024199063E1,-1.275900006E0,1.147499919E0,2.771999836E0
1.026199063E1,-1.020599961E0,9.545999765E-1,3.110999823E0
1.028199219E1,-9.099999666E-1,9.368999600E-1,2.815699816E0
1.030199219E1,-1.008599997E0,8.950999975E-1,1.741499901E0
1.033199063E1,-3.685999811E-1,3.504999876E-1,4.477999806E-1
1.035199219E1,7.819999754E-2,-6.759999692E-2,2.877999842E-1
1.037199219E1,1.999999949E-4,-5.044999719E-1,6.916999817E-1
1.040199219E1,-1.085199952E0,-7.773000002E-1,5.091999769E-1
1.043199219E1,-2.807499886E0,-7.928000093E-1,2.225999832E0
1.046199062E1,-3.249300003E0,-9.425999522E-1,3.234099865E0
1.048199219E1,-2.472499847E0,-1.356799960E0,1.658199906E0
1.050199219E1,-1.856099963E0,-1.821099997E0,3.854999840E-1
1.053199219E1,-1.416199923E0,-2.159699917E0,-1.532400012E0
1.056199219E1,-1.796899915E0,-1.455500007E0,-3.566999912E0
1.058199219E1,-2.510599852E0,-7.220000029E-1,-4.234200001E0
1.061199219E1,-2.656299829E0,-5.119999871E-2,-4.220499992E0
1.063199219E1,-2.097499847E0,-1.538999975E-1,-4.245100021E0
1.066199063E1,-1.600399971E0,4.494999945E-1,-3.607199907E0
1.068199063E1,-1.518399954E0,6.344999671E-1,-2.609699965E0
1.070199219E1,-1.153599977E0,6.409999728E-1,-2.512699842E0
1.072199219E1,-9.571999907E-1,9.514999986E-1,-2.211099863E0
1.075199063E1,-3.071999848E-1,1.319700003E0,-1.600999981E-1
1.077199062E1,3.037000000E-1,1.032999992E0,1.384000033E-1
1.079199219E1,-1.413999945E-1,1.223099947E0,-8.060000092E-2
1.082199063E1,-1.198499918E0,1.022199988E0,3.210799932E0
1.084199063E1,-5.115000010E-1,5.575999618E-1,4.884599686E0
1.086199219E1,2.798999846E-1,5.857999921E-1,4.021100044E0
1.089199062E1,-1.336199999E0,-1.816999912E-1,3.527400017E0
1.091199063E1,-2.258800030E0,-1.208899975E0,6.115900040E0
1.093199219E1,-2.214099884E0,-2.515399933E0,7.815599918E0
1.096199062E1,-2.048699856E0,-3.176599979E0,6.366199970E0
1.098199062E1,-1.299999952E0,-2.221400023E0,3.608199835E0
1.100199219E1,-1.657999903E-1,-1.761599898E0,1.774299979E0
1.103199062E1,8.502999544E-1,-1.376799941E0,-6.984999776E-1
1.105199062E1,1.219999976E-2,-7.357999682E-1,-1.236599922E0
1.107199219E1,-5.898000002E-1,-9.030000120E-2,-2.171999931E0
1.110199063E1,-2.843999863E-1,4.197999835E-1,-3.641299963E0
1.112199062E1,6.369000077E-1,2.917999923E-1,-4.636199951E0
1.114199219E1,1.196900010E0,-3.312999904E-1,-4.045499802E0
1.117199063E1,9.152999520E-1,-7.899000049E-1,-2.896499872E0
1.119199062E1,1.215099931E0,-1.287000030E-1,-2.396999836E0
1.121199219E1,1.197099924E0,3.470999897E-1,-2.842700005E0
1.124199063E1,1.200999990E-1,5.383999944E-1,-1.619499922E0
1.126199063E1,3.019999862E-1,1.116099954E0,-9.289999604E-1
1.128199219E1,6.565999985E-1,1.445899963E0,-1.479099989E0
1.131199062E1,7.033999562E-1,1.535200000E0,-1.591899991E0
1.133199063E1,9.711999893E-1,1.513999939E0,-7.050999999E-1
1.135199219E1,7.963999510E-1,1.754499912E0,3.382999897E-1
1.138199062E1,2.029999904E-2,1.756500006E0,1.806100011E0
1.140199062E1,-5.359999835E-2,1.487999916E0,3.244400024E0
1.142199063E1,3.119999915E-2,6.987000108E-1,3.562399864E0
1.144199219E1,9.149999917E-2,-3.438999951E-1,3.714999914E0
1.147199219E1,1.396099925E0,-1.136999965E0,5.067800045E0
1.150199219E1,2.170699835E0,-1.437899947E0,2.036099911E0
1.153199062E1,1.234599948E0,-9.771999717E-1,1.845999956E-1
1.155199219E1,5.070999861E-1,-7.586999536E-1,3.386999965E-1
1.157199219E1,1.524000019E-1,-4.712999761E-1,6.931999922E-1
1.160199063E1,2.685000002E-1,-3.752000034E-1,4.066999853E-1
1.162199062E1,5.643999577E-1,-4.948999882E-1,4.562999904E-1
1.164199219E1,6.572999954E-1,-4.901999831E-1,8.240000010E-1
1.167199063E1,2.236000001E-1,-3.048000038E-1,4.772000015E-1
1.169199062E1,-1.906999946E-1,0.000000000E0,-8.165000081E-1
1.171199219E1,-4.257999957E-1,2.745999992E-1,-1.959999919E0
1.174199063E1,-6.893000007E-1,5.683000088E-1,-3.316699982E0
1.176199219E1,-1.050499916E0,6.703000069E-1,-3.786000013E0
1.178199219E1,-1.268399954E0,8.285999894E-1,-3.879599810E0
1.180199219E1,-8.693999648E-1,1.195199966E0,-4.098099709E0
1.183199063E1,-1.270999908E-1,1.050400019E0,-3.682799816E0
1.185200156E1,6.939999759E-2,9.414999485E-1,-2.540499926E0
1.188199062E1,4.514999986E-1,9.171999693E-1,-1.629799962E0
1.190199063E1,6.304000020E-1,6.687999964E-1,-5.469999909E-1
1.192199063E1,8.443999887E-1,4.349999875E-2,1.161700010E0
1.194199062E1,7.466999888E-1,2.849999964E-1,2.292000055E0
1.196199062E1,9.980999827E-1,9.255999923E-1,2.496599913E0
1.198199062E1,1.283299923E0,1.089599967E0,2.244199991E0
1.200199219E1,8.125000000E-1,5.160999894E-1,2.109699965E0
1.203199062E1,-4.581999779E-1,-1.056900024E0,4.734200001E0
1.205199062E1,-6.096999645E-1,-2.115099907E0,6.181399822E0
1.207199219E1,-1.476999968E-1,-2.215999842E0,5.242899895E0
1.210199219E1,1.412999928E-1,-1.063400030E0,2.515999973E-1
1.213199219E1,4.366999865E-1,-1.042099953E0,-3.928999901E-1
1.215199219E1,9.449999779E-2,-9.483000040E-1,4.590999782E-1
1.218199219E1,-2.099999972E-2,-4.600999951E-1,3.439999744E-2
1.221199062E1,1.037999988E-1,2.889999934E-2,-1.828599930E0
1.223199062E1,4.382999837E-1,1.173999980E-1,-2.380199909E0
1.225199063E1,7.200999856E-1,9.879999608E-2,-3.142400026E0
1.227199062E1,1.077299953E0,1.151999980E-1,-3.768299818E0
1.229199219E1,1.210999966E0,9.829999506E-2,-3.513700008E0
1.232199063E1,1.133999944E0,4.353999794E-1,-2.998299837E0
1.234199063E1,1.034799933E0,5.611000061E-1,-2.745800018E0
1.236199219E1,1.045400023E0,5.159000158E-1,-2.174399853E0
1.239199062E1,9.909999967E-1,6.836999655E-1,-1.282299995E0
1.241199063E1,6.679999828E-1,8.967999816E-1,-3.838000000E-1
1.243199219E1,2.687000036E-1,9.333999753E-1,9.917999506E-1
1.246199062E1,7.468999624E-1,1.174099922E0,1.363099933E0
1.248199062E1,9.666999578E-1,1.134899974E0,1.103199959E0
1.250199219E1,6.679999828E-1,9.171999693E-1,1.577899933E0
1.253199062E1,1.068699956E0,8.305000067E-1,3.446300030E0
1.255199062E1,1.875099897E0,1.073899984E0,3.276199818E0
1.257199219E1,2.019099951E0,7.601000071E-1,2.716899872E0
1.260199063E1,2.546700001E0,2.754999995E-1,2.517999887E0
1.262199062E1,3.171599865E0,-5.669999868E-2,1.930199981E0
1.264199219E1,3.376499891E0,-4.394999743E-1,7.268999815E-1
1.267199063E1,2.219499826E0,-1.552699924E0,1.006999984E-1
1.269199062E1,8.033999801E-1,-1.527499914E0,1.514899969E0
1.271199219E1,4.719999805E-2,-1.250599980E0,2.751799822E0
1.274199063E1,2.054999918E-1,-1.089200020E0,8.714999557E-1
1.276199063E1,3.057999909E-1,-1.017499924E0,-6.618999839E-1
1.278199219E1,2.082999945E-1,-1.075699925E0,-1.139599919E0
1.280199219E1,-3.179999813E-2,-9.348999858E-1,-1.581399918E0
1.283199063E1,-3.350999951E-1,-2.791999876E-1,-2.877300024E0
1.285200000E1,-4.382999837E-1,3.619999811E-2,-3.335899830E0
1.288199062E1,-8.361999989E-1,2.565999925E-1,-3.564199924E0
1.290199063E1,-9.434999824E-1,5.363000035E-1,-3.456699848E0
1.292199063E1,-7.290999889E-1,5.288999677E-1,-2.893199921E0
1.294199219E1,-4.184999764E-1,4.008999765E-1,-2.309900045E0
1.297199219E1,-2.912999988E-1,5.762000084E-1,-2.123899937E0
1.300199219E1,-4.029999971E-1,8.493999839E-1,-1.941299915E0
1.303199062E1,-8.255999684E-1,9.473999739E-1,-1.291800022E0
1.305199062E1,-6.902999878E-1,8.025999665E-1,-5.232999921E-1
1.307199219E1,-7.259999961E-2,5.914999843E-1,-3.570000082E-2
1.310199063E1,8.915999532E-1,9.734999537E-1,-2.224999964E-1
1.312199062E1,7.846999764E-1,1.347700000E0,-1.309999973E-1
1.314199219E1,-3.463999927E-1,9.072999954E-1,1.195999980E-1
1.317199063E1,-1.992499948E0,-9.391999841E-1,4.371699810E0
1.319199062E1,-1.424499989E0,-1.694899917E0,6.243099689E0
1.321199062E1,0.000000000E0,-2.010799885E0,4.928699970E0
1.323199219E1,8.439999819E-1,-1.869599938E0,2.834499836E0
1.326199063E1,4.344999790E-1,-1.252200007E0,1.467899919E0
1.328199219E1,-6.406999826E-1,-7.145999670E-1,1.840799928E0
1.331199062E1,-8.700000048E-1,1.376999915E-1,9.126999974E-1
1.333199063E1,-3.845999837E-1,3.373999894E-1,-1.137999967E-1
1.335199063E1,4.122000039E-1,7.919999957E-2,-9.836999774E-1
1.337199219E1,7.142999768E-1,-6.019999832E-2,-1.358299971E0
1.340199063E1,5.467000008E-1,-2.041999996E-1,-1.277699947E0
1.342199063E1,5.187999606E-1,-1.483999938E-1,-1.707899928E0
1.344199062E1,5.148999691E-1,9.730000049E-2,-2.367799997E0
1.346199062E1,5.785999894E-1,3.551999927E-1,-3.034799814E0
1.348199063E1,7.504000068E-1,4.878000021E-1,-3.444999933E0
1.350199219E1,7.845999599E-1,4.878999889E-1,-3.238399982E0
1.353199062E1,7.827999592E-1,8.033999801E-1,-2.346600056E0
1.355199062E1,6.406999826E-1,8.750999570E-1,-1.274999976E0
1.357199219E1,6.069999933E-1,8.430999517E-1,1.784999967E-1
1.360199063E1,1.059399962E0,8.119999766E-1,1.367100000E0
1.362199062E1,1.143899918E0,5.615000129E-1,1.954999924E0
1.364199219E1,8.425999880E-1,6.424999833E-1,2.681200027E0
1.367199063E1,1.042699933E0,9.364999533E-1,2.719399929E0
1.369199062E1,1.728399992E0,1.392699957E0,2.072399855E0
1.371199219E1,2.203999996E0,1.495000005E0,1.742799997E0
1.373199219E1,2.222899914E0,8.276999593E-1,1.298900008E0
1.376199219E1,2.322499990E0,2.219999880E-1,2.052099943E0
1.378199219E1,2.836599827E0,-5.529999733E-2,1.970899940E0
1.381199063E1,3.019399881E0,-8.935999870E-1,8.988999724E-1
1.383199063E1,2.243099928E0,-1.465299964E0,5.690999627E-1
1.385200000E1,9.279999733E-1,-1.143299937E0,1.362599969E0
1.388199062E1,1.792999953E-1,-7.069999576E-1,1.603099942E0
1.390199063E1,4.481000006E-1,-8.631999493E-1,1.087299943E0
1.392199063E1,3.723999858E-1,-9.246000051E-1,-1.155999973E-1
1.394199219E1,1.556999981E-1,-6.130999923E-1,-1.650999904E0
1.396199219E1,3.499999940E-1,-3.175999820E-1,-2.952999830E0
1.398199219E1,3.242000043E-1,-1.997999996E-1,-3.419399977E0
1.400199219E1,2.252999991E-1,-7.136999965E-1,-2.749699831E0
1.403199062E1,1.782999933E-1,-6.233999729E-1,-3.606099844E0
1.405199062E1,-3.761999905E-1,2.241999954E-1,-4.146699905E0
1.407199219E1,-7.774999738E-1,8.329999447E-2,-3.303699970E0
1.410199063E1,-5.841999650E-1,1.212999970E-1,-3.104099989E0
1.412199062E1,1.729999930E-1,1.198999956E-1,-2.458699942E0
1.414199219E1,7.590999603E-1,-1.169999968E-2,-1.403999925E0
1.417199063E1,-3.792599916E0,2.009899855E0,4.339200020E0
1.419199062E1,-3.996099949E0,2.988899946E0,3.304699898E0
1.421199219E1,-1.030099988E0,1.758299947E0,7.369999588E-2
1.423199219E1,1.541899920E0,-5.791999698E-1,9.236999750E-1
1.426199063E1,2.654899836E0,4.381999969E-1,2.759999990E0
1.428199219E1,2.279999852E-2,2.583999932E-1,1.849299908E0
1.431199063E1,-2.330299854E0,-6.136999726E-1,3.264699936E0
1.433199063E1,-1.085600019E0,-7.866999507E-1,4.889299870E0
1.435199063E1,-2.755999863E-1,-9.258999825E-1,3.573799849E0
1.437199062E1,3.926999867E-1,1.057999954E-1,1.598099947E0
1.439199062E1,-1.940999925E-1,-8.503999710E-1,1.074999928E0
1.441199063E1,4.843999743E-1,-1.315999925E-1,1.958999991E0
1.443199219E1,7.430999875E-1,-5.794000030E-1,2.227699995E0
1.445199219E1,3.089999855E-1,-1.559000015E0,4.508999884E-1
1.448199063E1,6.255999804E-1,-7.479999661E-1,-2.586699963E0
1.450199219E1,1.011999965E0,-1.404999942E-1,-2.080199957E0
1.453199062E1,1.361099958E0,-4.587000012E-1,-1.281000018E0
1.455199062E1,1.409999967E0,-1.338000000E-1,-3.005599976E0
1.457199219E1,1.607299924E0,1.297999918E-1,-2.420099974E0
1.460199063E1,2.140699863E0,-1.353999972E-1,-1.777699947E0
1.462199062E1,1.526499987E0,1.841999888E-1,-2.033400059E0
1.464199062E1,9.971999526E-1,3.691999912E-1,-1.959599972E0
1.466199063E1,9.673999548E-1,4.707999825E-1,-1.646699905E0
1.468199063E1,6.825000048E-1,3.367999792E-1,-1.790199995E0
1.470199062E1,2.504999936E-1,7.268999815E-1,-1.481999993E0
1.472199062E1,4.299999680E-3,8.298999667E-1,-1.252099991E0
1.474199063E1,-3.055999875E-1,6.532999873E-1,-6.172999740E-1
1.476199063E1,-5.558999777E-1,9.729999900E-1,3.057000041E-1
1.478199062E1,9.179999679E-2,1.021999955E0,5.794000030E-1
1.480199062E1,7.918999791E-1,8.183000088E-1,6.516000032E-1
1.482199063E1,6.895999908E-1,7.265999913E-1,9.455999732E-1
1.484199063E1,5.018000007E-1,8.838999867E-1,1.521299958E0
1.486199219E1,1.331900001E0,8.666999936E-1,2.964699984E0
1.489199063E1,2.693500042E0,-6.711999774E-1,3.406899929E0
1.491199063E1,2.015599966E0,-1.000599980E0,2.518800020E0
1.493199063E1,1.451499939E0,-8.342999816E-1,1.449499965E0
1.495199062E1,9.423999786E-1,-5.191000104E-1,7.296999693E-1
1.497199219E1,4.450999796E-1,-4.009999931E-1,7.156999707E-1
1.500199219E1,2.903999984E-1,-7.799999714E-1,3.898999989E-1
1.503199062E1,-2.529999986E-2,-3.355000019E-1,-9.157999754E-1
1.505199062E1,-2.279999852E-2,-1.406999975E-1,-1.137799978E0
1.507199219E1,-4.932999909E-1,-7.849999517E-2,-9.625999928E-1
1.510199063E1,-6.913999915E-1,-3.989999741E-2,-1.539099932E0
1.512199062E1,-4.551999867E-1,1.231999993E-1,-1.928799987E0
1.514199219E1,-6.309999526E-2,1.899999976E-1,-2.343899965E0
1.516199219E1,-2.129999995E-1,4.444999993E-1,-2.599499941E0
1.519199062E1,-4.431999922E-1,6.579999924E-1,-3.072299957E0
1.521199219E1,-5.497999787E-1,7.846999764E-1,-2.576200008E0
1.523199219E1,-2.500000000E-1,9.034000039E-1,-1.374599934E0
1.526199063E1,7.506999969E-1,1.120499969E0,-3.616999984E-1
1.528199062E1,9.086999893E-1,1.188799977E0,-2.229999937E-2
1.530199219E1,5.019999743E-1,1.296100020E0,4.888999760E-1
1.533199063E1,6.076999903E-1,1.225999951E0,9.183999896E-1
1.535199063E1,3.125999868E-1,1.044399977E0,1.398100019E0
1.537199062E1,7.131999731E-1,1.100700021E0,2.158900023E0
1.539199063E1,1.559299946E0,1.060400009E0,2.473199844E0
1.541199063E1,2.413800001E0,4.114999771E-1,3.482899904E0
1.543199219E1,1.714399934E0,-4.766999781E-1,4.765100002E0
1.546199062E1,-2.293999940E-1,-9.904999733E-1,4.395499706E0
1.548199063E1,-1.065699935E0,-6.812999845E-1,2.453099966E0
1.550199219E1,2.588000000E-1,-4.138999879E-1,8.734999895E-1
1.553199062E1,1.348599911E0,-4.939999878E-1,7.100999951E-1
1.555199062E1,2.093999982E-1,-9.354999661E-1,1.702999920E-1
1.557199219E1,-9.774000049E-1,-9.501999617E-1,-7.164999843E-1
1.560199063E1,-1.521799922E0,-5.855999589E-1,-2.168799877E0
1.562199062E1,-1.156000018E0,-4.487999976E-1,-1.565400004E0
1.564199219E1,-6.068999767E-1,-4.382999837E-1,-1.520200014E0
1.566199219E1,-4.810999930E-1,-3.520999849E-1,-2.111000061E0
1.569199062E1,-4.086000025E-1,-2.890999913E-1,-2.597499847E0
1.571199219E1,-3.364000022E-1,-1.861999929E-1,-2.212300062E0
1.573199219E1,-1.406999975E-1,-1.709999889E-1,-2.011899948E0
1.576199063E1,9.979999810E-2,1.011999995E-1,-1.890899897E0
1.578199062E1,1.219999939E-1,3.696999848E-1,-1.706200004E0
1.580199219E1,7.159999758E-2,4.783999920E-1,-1.592299938E0
1.583199063E1,2.647999823E-1,5.640000105E-1,-8.417999744E-1
1.585200000E1,5.148999691E-1,3.805999756E-1,1.995999962E-1
1.588199062E1,1.007200003E0,2.240999937E-1,1.597399950E0
1.590199219E1,7.468000054E-1,2.023999989E-1,2.315999985E0
1.593199063E1,-6.250000000E-2,4.673999846E-1,1.905299902E0
1.595199062E1,2.724999785E-1,8.544999957E-1,1.715099931E0
1.597199219E1,1.991400003E0,3.721999824E-1,2.698199987E0
1.600199219E1,2.684299946E0,-1.036100030E0,4.503399849E0
1.603199063E1,5.083999634E-1,-9.425999522E-1,2.474699974E0
1.605199063E1,4.508999884E-1,-5.163999796E-1,1.002499938E0
1.607199219E1,1.577700019E0,-3.949999809E-2,5.345999599E-1
1.610199063E1,2.281199932E0,-1.699999906E-2,6.915000081E-1
1.612199063E1,1.242699981E0,7.319999486E-2,8.299999684E-2
1.614199219E1,6.529999524E-2,1.902999878E-1,-4.603999853E-1
1.617199062E1,-9.209999442E-2,-3.280000016E-2,-7.210999727E-1
1.619199063E1,1.034999937E-1,-1.206999943E-1,-1.709199905E0
1.621199219E1,4.144999981E-1,-3.639999777E-2,-2.827499866E0
1.623199219E1,3.454999924E-1,2.655999959E-1,-3.323999882E0
1.626199062E1,5.249999836E-2,2.471999973E-1,-3.830899954E0
1.628199063E1,1.039000005E-1,5.331999660E-1,-4.011600018E0
1.630199219E1,3.413999975E-1,8.139999509E-1,-3.406599998E0
1.633199062E1,5.810999870E-1,8.319000006E-1,-1.812399983E0
1.635199063E1,6.165999770E-1,9.300999641E-1,-1.073400021E0
1.637199219E1,5.455999970E-1,1.182899952E0,-2.945999801E-1
1.640199062E1,3.438999951E-1,1.364199996E0,7.983999848E-1
1.642199062E1,3.640999794E-1,1.295300007E0,1.543499947E0
1.644199219E1,6.642999649E-1,1.176699996E0,2.136100054E0
1.647199062E1,1.103899956E0,1.110299945E0,1.699199915E0
1.649199062E1,9.672999978E-1,1.321200013E0,1.377099991E0
1.651199219E1,1.013000011E0,8.211999536E-1,2.121700048E0
1.654199062E1,1.018100023E0,-3.829999864E-1,3.813599825E0
1.656199062E1,3.596999943E-1,-9.496999979E-1,3.692999840E0
1.658199219E1,-5.583999753E-1,-8.944999576E-1,2.181900024E0
1.661199062E1,2.883000076E-1,-3.606999815E-1,3.206000030E-1
1.663199531E1,1.446599960E0,-4.054999948E-1,5.457000136E-1
1.666199219E1,1.405699968E0,-9.160999656E-1,1.023699999E0
1.669199063E1,-2.370999902E-1,-8.100999594E-1,-6.505999565E-1
1.671199219E1,-8.644999862E-1,-6.148999929E-1,-1.241199970E0
1.673199531E1,-6.696999669E-1,-6.994000077E-1,-1.624599934E0
1.676199219E1,-1.006999984E-1,-5.942999721E-1,-2.716399908E0
1.679199219E1,-1.775999963E-1,-3.158999979E-1,-3.007900000E0
1.682199062E1,-5.669999719E-1,-3.213000000E-1,-2.727499962E0
1.684199062E1,-5.013999939E-1,-2.820000052E-1,-2.799199820E0
1.686199219E1,-3.648999929E-1,-1.171000004E-1,-2.733799934E0
1.689199063E1,-9.856999516E-1,4.271000028E-1,-2.379999876E0
1.691199062E1,-1.181900024E0,7.076999545E-1,-2.191400051E0
1.693199219E1,-1.036599994E0,9.192999601E-1,-1.609899998E0
1.695199219E1,-1.056200027E0,1.112699986E0,-1.873999983E-1
1.698199062E1,-8.481999636E-1,7.383999825E-1,1.892599940E0
1.700199062E1,-5.350999832E-1,4.255999923E-1,2.528300047E0
1.702199062E1,-2.982999980E-1,4.926999807E-1,2.802700043E0
1.704199062E1,-5.421999693E-1,6.333999634E-1,2.789899826E0
1.706199062E1,-6.330999732E-1,7.532999516E-1,2.739300013E0
1.708199219E1,2.476999909E-1,4.781999886E-1,2.594099998E0
1.710199219E1,1.615999937E0,-2.267999947E-1,2.751799822E0
1.712199219E1,1.813300014E0,-9.853999615E-1,3.043099880E0
1.714199219E1,4.396999776E-1,-1.246799946E0,3.268199921E0
1.717199062E1,-4.314999878E-1,-1.184399962E0,3.292599916E0
1.719199063E1,3.546999991E-1,-9.278999567E-1,2.538100004E0
1.721199219E1,7.102999687E-1,-6.302999854E-1,1.392300010E0
1.723199219E1,2.588999867E-1,-3.972999752E-1,6.499999762E-2
1.726199063E1,-6.996999979E-1,-3.586999774E-1,-1.379899979E0
1.728199063E1,-9.764999747E-1,-4.415999949E-1,-1.045799971E0
1.730199063E1,-1.481799960E0,-4.651999772E-1,-1.105899930E0
1.732199062E1,-1.984399915E0,-4.807999730E-1,-1.871999979E0
1.734199062E1,-2.112799883E0,-3.481999934E-1,-2.648399830E0
1.736199219E1,-1.767799973E0,-1.203999966E-1,-3.149699926E0
1.739199063E1,-1.740399957E0,-5.599999800E-3,-3.247399807E0
1.741199062E1,-2.130599976E0,-5.260000005E-2,-2.823999882E0
1.743199062E1,-2.410300016E0,-9.809999913E-2,-2.288800001E0
1.745199062E1,-2.420300007E0,-1.914999932E-1,-1.546599984E0
1.747199062E1,-2.222100019E0,-1.247999966E-1,-1.039899945E0
1.749199062E1,-2.123600006E0,-2.249999903E-2,-6.524999738E-1
1.751199219E1,-2.255499840E0,2.105999887E-1,-2.160999924E-1
1.754199062E1,-2.271899939E0,5.329999700E-2,9.307000041E-1
1.756199219E1,-1.649399996E0,-2.149999887E-1,2.062099934E0
1.758199219E1,-9.435999990E-1,-6.477999687E-1,3.363699913E0
1.761199062E1,-1.945400000E0,-2.307000011E-1,3.980099916E0
1.763199062E1,-2.758499861E0,6.260000169E-2,3.215899944E0
1.765199219E1,-2.731199980E0,9.470000118E-2,2.461699963E0
1.768199062E1,-1.421899915E0,-3.175999820E-1,2.361099958E0
1.770199062E1,-7.426999807E-1,-9.835999608E-1,2.401499987E0
1.772199219E1,-1.006099939E0,-1.425999999E0,2.089099884E0
1.775199062E1,-1.528199911E0,-1.569499969E0,8.781999946E-1
1.777199062E1,-1.714999914E0,-1.221699953E0,9.381999969E-1
1.779199219E1,-1.360399961E0,-1.411299944E0,9.618999958E-1
1.782199062E1,-1.338999987E0,-1.449999928E0,-7.720999718E-1
1.784199062E1,-1.650999904E0,-1.268700004E0,-2.088399887E0
1.786199219E1,-1.557399988E0,-1.144500017E0,-2.776199818E0
1.789199063E1,-1.180199981E0,-9.782999754E-1,-2.499500036E0
1.791199062E1,-1.019299984E0,-1.040799975E0,-1.967999935E0
1.793199219E1,-5.552999973E-1,-1.186200023E0,-1.737699986E0
1.796199063E1,-4.705999792E-1,-8.417999744E-1,-1.532699943E0
1.798199062E1,-4.524999857E-1,-5.859999657E-1,-1.405799985E0
1.800199219E1,1.519999932E-2,-4.486999810E-1,-1.562399983E0
1.803199063E1,3.200999796E-1,3.546999991E-1,-9.246999621E-1
1.805199219E1,5.054999590E-1,4.907999933E-1,2.594999969E-1
1.807199219E1,7.260999680E-1,5.708999634E-1,1.490299940E0
1.810199063E1,1.573499918E0,5.701999664E-1,3.034999847E0
1.812199063E1,1.407199979E0,9.145999551E-1,3.269999981E0
1.814199219E1,1.169499993E0,9.888999462E-1,3.201999903E0
1.816199219E1,1.337799907E0,6.624999642E-1,3.538800001E0
1.819199063E1,9.273999929E-1,-6.759999990E-1,4.931999683E0
1.821199063E1,7.396999598E-1,-1.194000006E0,4.553199768E0
1.823199219E1,1.067600012E0,-1.391199946E0,2.828799963E0
1.826199063E1,1.099799991E0,-8.441999555E-1,7.831999660E-1
1.828199063E1,8.535999656E-1,-5.913000107E-1,7.836999893E-1
1.830199219E1,4.799000025E-1,-6.593999863E-1,1.136199951E0
1.833199062E1,-3.525999784E-1,-8.761000037E-1,1.460999995E-1
1.835199063E1,-8.488999605E-1,-5.770999789E-1,-7.551999688E-1
1.837199063E1,-7.917999625E-1,-6.451999545E-1,-1.333599925E0
1.839199063E1,-5.880999565E-1,-5.518999696E-1,-1.383499980E0
1.841199062E1,-4.309999943E-1,-5.755000114E-1,-1.950599909E0
1.843199219E1,-5.392000079E-1,-5.823999643E-1,-2.830999851E0
1.846199063E1,-3.942999840E-1,-2.137999982E-1,-3.276899815E0
1.848199062E1,-4.891999960E-1,-1.451999992E-1,-3.191699982E0
1.850199062E1,-2.176999897E-1,7.079999894E-2,-3.196599960E0
1.852199062E1,-2.122000009E-1,1.662999988E-1,-2.839399815E0
1.854199062E1,2.131999880E-1,2.541999817E-1,-1.990799904E0
1.856199062E1,6.416000128E-1,-2.061999887E-1,-2.599999905E0
1.858199219E1,1.076999977E-1,8.939999938E-1,-1.800300002E0
1.861199062E1,3.683999777E-1,1.079499960E0,4.419999942E-2
1.863199062E1,1.359799981E0,1.141099930E0,3.910999894E-1
1.865199062E1,1.746199965E0,1.241199970E0,8.902999759E-1
1.867199062E1,1.123899937E0,1.117499948E0,1.023100019E0
1.869199063E1,1.503999978E-1,1.093400002E0,1.248700023E0
1.871199063E1,1.850000024E-1,4.109999835E-1,2.125499964E0
1.873199219E1,2.619999945E-1,-5.382999778E-1,2.949399948E0
1.876199063E1,-4.111000001E-1,-1.255800009E0,3.179999828E0
1.878199063E1,-4.566999972E-1,-1.611699939E0,2.490499973E0
1.880199063E1,6.430000067E-2,-1.458699942E0,2.295500040E0
1.882199062E1,4.828999937E-1,-1.154199958E0,1.795300007E0
1.884199062E1,5.794999599E-1,-1.120199919E0,1.170799971E0
1.886199219E1,3.552999794E-1,-1.060899973E0,8.827999830E-1
1.889199063E1,-1.601999998E-1,-8.249999881E-1,1.128999949E0
1.891199062E1,1.691000015E-1,-8.125000000E-1,5.795999765E-1
1.893199219E1,9.380000085E-2,-6.689999700E-1,4.864999950E-1
1.896199063E1,3.469999880E-2,-5.200999975E-1,-5.157999992E-1
1.898199062E1,1.261999905E-1,-2.003999949E-1,-1.160699964E0
1.900199219E1,3.595999777E-1,1.547999978E-1,-1.534299970E0
1.903199063E1,9.357999563E-1,3.399999812E-3,-2.127099991E0
1.905199063E1,4.802999794E-1,2.034000009E-1,-2.384500027E0
1.907199219E1,1.800999939E-1,4.792999923E-1,-2.159999847E0
1.909199219E1,4.311999977E-1,4.068999887E-1,-2.036099911E0
1.912199063E1,3.404999971E-1,3.457999825E-1,-1.905499935E0
1.914199219E1,-1.899999939E-2,2.338999957E-1,-1.762399912E0
1.917199063E1,8.249999583E-2,2.398999929E-1,-1.068300009E0
1.919199063E1,5.636999607E-1,1.376999915E-1,-2.408999950E-1
1.921199063E1,9.016000032E-1,-7.479999959E-2,3.765999973E-1
1.923199062E1,9.810999632E-1,-3.578999937E-1,1.108099937E0
1.925199062E1,6.807999611E-1,-1.784999967E-1,1.692499995E0
1.927199062E1,1.201599956E0,-4.060999751E-1,2.543900013E0
1.929199219E1,1.853299975E0,-7.565999627E-1,2.848399878E0
1.932199062E1,1.265599966E0,-9.957000017E-1,2.985499859E0
1.934199062E1,5.475999713E-1,-1.007799983E0,2.841199875E0
1.936199219E1,7.545999885E-1,-1.135499954E0,2.292099953E0
1.939199063E1,2.153699875E0,-1.052999973E0,1.850999951E0
1.941199062E1,2.243499994E0,-7.356999516E-1,1.464999914E0
1.943199219E1,1.533100009E0,-6.439999938E-1,7.489999533E-1
1.946199063E1,7.421999574E-1,-6.017999649E-1,-8.043999672E-1
1.948199062E1,7.756999731E-1,-4.941999912E-1,-1.280599952E0
1.950199219E1,5.166000128E-1,-2.426999956E-1,-1.116999984E0
1.953199063E1,1.735000014E-1,-9.559999406E-2,-1.787999988E0
1.955199063E1,1.389999967E-2,7.249999791E-2,-2.253200054E0
1.957199219E1,4.399999976E-3,2.410999984E-1,-2.325099945E0
1.960199063E1,3.384000063E-1,1.731999964E-1,-2.330999851E0
1.962199063E1,3.114999831E-1,3.359999955E-1,-2.483199835E0
1.964199219E1,7.050000131E-2,4.844999909E-1,-2.265799999E0
1.966199219E1,7.440000027E-2,6.635999680E-1,-1.764099956E0
1.969199063E1,4.732999802E-1,8.583999872E-1,-9.835999608E-1
1.971199063E1,2.179999948E-1,8.883999586E-1,-3.448999822E-1
1.973199062E1,-1.955999881E-1,7.815999985E-1,2.902999818E-1
1.975199062E1,-3.143999875E-1,6.538000107E-1,1.268899918E0
1.977199062E1,3.840999901E-1,5.386999846E-1,1.721300006E0
1.979199219E1,6.620000005E-1,7.746999860E-1,2.069900036E0
1.982199062E1,3.355000019E-1,6.557999849E-1,2.500900030E0
1.984199062E1,3.301999867E-1,-2.187999934E-1,2.729899883E0
1.986199219E1,-1.803999990E-1,-4.144999981E-1,2.210899830E0
1.989199063E1,-1.125399947E0,-6.128000021E-1,1.736099958E0
1.991199062E1,-9.457999468E-1,-9.465999603E-1,1.977399945E0
1.993199219E1,-3.940000013E-2,-1.310199976E0,2.168999910E0
1.996199219E1,7.716999650E-1,-1.395699978E0,8.931999803E-1
1.998199219E1,5.101999640E-1,-1.421599984E0,5.841999650E-1
2.000199219E1,2.830999792E-1,-1.483699918E0,7.719999552E-2
2.003199063E1,-2.532999814E-1,-1.287699938E0,-5.605999827E-1
2.005199063E1,-2.254000008E-1,-1.383599997E0,-1.506399989E0
2.007199219E1,1.116999984E-1,-1.256899953E0,-2.282099962E0
2.009199219E1,5.508999825E-1,-1.017799973E0,-2.599799871E0
2.012199063E1,4.375999868E-1,-1.056200027E0,-2.356999874E0
2.014199219E1,2.320999950E-1,-1.002799988E0,-2.364500046E0
2.016199219E1,2.275999933E-1,-6.028000116E-1,-2.396600008E0
2.019199063E1,4.620999992E-1,1.379999984E-2,-2.056400061E0
2.021199063E1,4.594999850E-1,8.020000160E-2,-2.199199915E0
2.023199062E1,4.330999851E-1,2.107999921E-1,-1.871499896E0
2.025199062E1,4.143999815E-1,3.686999977E-1,-1.150099993E0
2.027199062E1,2.338999957E-1,5.411999822E-1,-2.606000006E-1
2.029199062E1,-6.300000008E-3,5.972999930E-1,4.389999807E-1
2.031199062E1,-1.058999971E-1,8.229999542E-1,1.053399920E0
2.033199062E1,2.659999952E-2,8.671999574E-1,1.588999987E0
2.035199063E1,6.889999658E-2,9.492999911E-1,2.119899988E0
2.037199219E1,1.141999960E-1,8.783999681E-1,2.159399986E0
2.040199062E1,4.296000004E-1,9.229999781E-1,1.583099961E0
2.042199063E1,1.297500014E0,7.522999644E-1,2.289799929E0
2.044199219E1,1.904799938E0,1.550000012E-1,3.342000008E0
2.047199062E1,1.508999944E0,-8.870999813E-1,3.109799862E0
2.049199062E1,7.404999733E-1,-1.104300022E0,2.165499926E0
2.051199375E1,7.648999691E-1,-1.178200006E0,1.288900018E0
2.054199062E1,2.387099981E0,-1.412500024E0,9.987999797E-1
2.056199062E1,2.578799963E0,-1.351999998E0,4.062999785E-1
2.058199219E1,1.804999948E0,-1.034399986E0,-5.868999958E-1
2.060199219E1,8.389999866E-1,-7.872999907E-1,-1.575799942E0
2.062199219E1,3.589999974E-1,-6.092000008E-1,-1.676199913E0
2.065199219E1,2.195999920E-1,-6.003999710E-1,-7.828999758E-1
2.068199062E1,-7.660000026E-2,-5.429999828E-1,-1.188399911E0
2.070199062E1,-6.639999896E-2,-2.981999815E-1,-2.194900036E0
2.072199219E1,4.151999950E-1,1.549999975E-2,-2.655099869E0
2.075199062E1,5.755999684E-1,1.547999978E-1,-2.277600050E0
2.077199062E1,5.929999799E-2,1.715999991E-1,-2.223899841E0
2.079199219E1,-1.659999937E-1,2.180999964E-1,-2.247999907E0
2.082199062E1,8.959999681E-2,4.111000001E-1,-1.237599969E0
2.084199062E1,4.504999816E-1,3.526999950E-1,-4.888999760E-1
2.086199219E1,4.607999921E-1,5.218999982E-1,-6.148999929E-1
2.089199063E1,2.824999988E-1,7.761999965E-1,-6.116999984E-1
2.091199062E1,1.777999997E-1,1.050099969E0,5.608999729E-1
2.093199219E1,5.345000029E-1,9.612999558E-1,1.668499947E0
2.096199063E1,9.871999621E-1,1.203999996E0,1.981299996E0
2.098199062E1,9.781999588E-1,1.336300015E0,2.079299927E0
2.100199219E1,1.076799989E0,5.809999704E-1,3.031499863E0
2.103199063E1,7.802999616E-1,-4.003999829E-1,4.578499794E0
2.105199063E1,2.780999839E-1,-7.020999789E-1,3.649999857E0
2.107199219E1,-6.464999914E-1,-6.640999913E-1,1.526700020E0
2.110199063E1,-4.253000021E-1,-3.786999881E-1,4.344999790E-1
2.112199063E1,6.697999835E-1,-5.156999826E-1,5.209999681E-1
2.114199063E1,1.843199968E0,-8.127999902E-1,1.028299928E0
2.116199219E1,1.792299986E0,-1.177699924E0,8.143999577E-1
2.119199219E1,4.831999838E-1,-1.304499984E0,-4.955999851E-1
2.122199219E1,2.861999869E-1,-8.157999516E-1,-1.065899968E0
2.125199062E1,9.074999690E-1,-6.362999678E-1,-1.014799953E0
2.127199062E1,1.292099953E0,-5.712999701E-1,-1.457099915E0
2.129199219E1,1.281499982E0,-5.273999572E-1,-1.979299903E0
2.132199062E1,1.232599974E0,-2.814999819E-1,-2.605799913E0
2.134199062E1,1.635599971E0,-2.658999860E-1,-2.546200037E0
2.136199219E1,1.955799937E0,-1.466999948E-1,-1.564700007E0
2.139199063E1,1.806199908E0,-2.465000004E-1,-7.700999975E-1
2.141199062E1,1.690999985E0,-4.017999768E-1,-7.752000093E-1
2.143199219E1,1.337199926E0,3.039999902E-1,-1.092999935E0
2.146199063E1,1.691599965E0,1.858000010E-1,-7.694999576E-1
2.148199062E1,2.332900047E0,2.102999985E-1,-9.730000049E-2
2.150199219E1,3.050499916E0,-6.790000200E-2,7.996999621E-1
2.153199063E1,3.171200037E0,-7.105000019E-1,1.506599903E0
2.155199219E1,1.102999926E0,-6.072999835E-1,9.699999690E-1
2.157199219E1,1.058300018E0,-3.355000019E-1,1.382599950E0
2.159199219E1,2.387799978E0,-8.872999549E-1,1.440699935E0
2.162199063E1,4.010799885E0,-2.592200041E0,3.974900007E0
2.164199063E1,2.484200001E0,-2.952999830E0,4.774399757E0
2.166199219E1,1.679799914E0,-2.863999844E0,3.621899843E0
2.169199063E1,3.105199814E0,-1.950799942E0,2.057800055E0
2.171199063E1,4.344699860E0,-1.486199975E0,1.313799977E0
2.173199219E1,4.594899654E0,-1.613099933E0,9.145999551E-1
2.175199219E1,3.165499926E0,-1.674499989E0,-3.329999745E-2
2.177199219E1,1.876799941E0,-1.390399933E0,-1.110399961E0
2.179199219E1,1.467199922E0,-8.068000078E-1,-1.119499922E0
2.182199219E1,1.823099971E0,-3.170999885E-1,-1.336699963E0
2.185200000E1,1.780200005E0,2.886999846E-1,-1.068499923E0
2.188199062E1,1.189800024E0,3.061999977E-1,-6.548999548E-1
2.190199062E1,4.689999819E-1,3.427000046E-1,-7.094999552E-1
2.192199063E1,-2.303999960E-1,6.926000118E-1,-7.149999738E-1
2.194199219E1,-8.460000157E-2,7.608000040E-1,-8.685999513E-1
2.197199062E1,1.836999953E-1,7.274000049E-1,-1.093799949E0
2.199199062E1,-1.040999964E-1,6.570999622E-1,-1.343299985E0
2.201199219E1,-3.051999807E-1,7.335999608E-1,-1.103199959E0
2.204199062E1,-3.067999780E-1,5.801999569E-1,6.620999575E-1
2.206199062E1,-5.260000005E-2,4.257999957E-1,1.427899957E0
2.208199063E1,3.973999918E-1,2.690999806E-1,1.415399909E0
2.210199063E1,2.568999827E-1,4.408999979E-1,1.076399922E0
2.212199063E1,2.287999988E-1,2.241999954E-1,1.064999938E0
2.214199063E1,5.590000153E-1,-2.543999851E-1,1.713400006E0
2.216199219E1,7.858999968E-1,-7.516999841E-1,2.436499834E0
2.219199063E1,3.979999945E-2,-1.100799918E0,2.254400015E0
2.221199063E1,-1.447999924E-1,-8.962000012E-1,1.749099970E0
2.223199219E1,4.217999876E-1,-7.967999578E-1,1.837499976E0
2.226199063E1,1.396499991E0,-7.010999918E-1,2.437700033E0
2.228199063E1,1.150599957E0,-7.809999585E-1,1.932199955E0
2.230199219E1,6.922999620E-1,-5.874999762E-1,6.233999729E-1
2.233199063E1,4.858999848E-1,-2.157999873E-1,-1.000900030E0
2.235199063E1,6.904000044E-1,-1.119999960E-2,-1.684499979E0
2.237199219E1,9.560999870E-1,2.891999781E-1,-1.718599916E0
2.240199062E1,9.444999695E-1,6.345999837E-1,-1.668099999E0
2.242199063E1,6.826999784E-1,7.317000031E-1,-1.876500010E0
2.244199063E1,4.888999760E-1,8.086000085E-1,-2.139499903E0
2.246199063E1,4.467999935E-1,1.057299972E0,-2.301899910E0
2.248199062E1,3.567000031E-1,1.349699974E0,-2.061199903E0
2.250199219E1,2.284999937E-1,1.383099914E0,-1.508000016E0
2.253199063E1,-3.966999948E-1,1.376099944E0,-9.944999814E-1
2.255199063E1,-8.115999699E-1,1.315999985E0,-9.396999478E-1
2.257199219E1,-8.593999743E-1,1.335699916E0,-7.525999546E-1
2.260199063E1,-6.697999835E-1,1.279299974E0,-1.867000014E-1
2.262199063E1,-4.353999794E-1,1.173799992E0,3.667999804E-1
2.264199063E1,-3.979999945E-2,8.295999765E-1,1.075799942E0
2.266199219E1,3.419999778E-2,7.116000056E-1,1.510900021E0
2.269199063E1,3.700000048E-2,7.658999562E-1,1.192099929E0
2.271199063E1,1.176499963E0,2.694999874E-1,1.386600018E0
2.273199219E1,2.925799847E0,-6.622999907E-1,2.323699951E0
2.276199063E1,3.057600021E0,-1.400599957E0,3.383199930E0
2.278199063E1,2.019899845E0,-1.391999960E0,3.499399900E0
2.280199219E1,2.088799953E0,-1.466599941E0,2.498399973E0
2.283199063E1,2.976399899E0,-9.558999538E-1,7.712000012E-1
2.285200000E1,2.890699863E0,-6.628999710E-1,-2.387999892E-1
2.288199062E1,5.848999619E-1,5.119999871E-2,-1.019400001E0
2.290199062E1,-7.706999779E-1,3.885999918E-1,-9.632999897E-1
2.292199063E1,-1.207000017E0,2.412000000E-1,-1.009699941E0
2.294199219E1,-1.036499977E0,1.537999958E-1,-1.483099937E0
2.297199062E1,-6.599000096E-1,1.499999911E-1,-1.891399980E0
2.299199062E1,-5.963999629E-1,2.186999917E-1,-2.101999998E0
2.301199219E1,-8.458999991E-1,2.703999877E-1,-2.126600027E0
2.304199062E1,-7.653999925E-1,4.460999966E-1,-1.891399980E0
2.306199062E1,-5.097000003E-1,5.981999636E-1,-2.119600058E0
2.308199219E1,-4.653999805E-1,8.385999799E-1,-2.551499844E0
2.311199062E1,-2.322999984E-1,8.934999704E-1,-1.328999996E0
2.313199062E1,-7.859999686E-2,8.804000020E-1,-7.296999693E-1
2.315199219E1,-9.079999477E-2,9.179999828E-1,-3.342999816E-1
2.318199062E1,-8.760000020E-2,8.630999923E-1,8.208999634E-1
2.320199062E1,-2.020999938E-1,6.112999916E-1,1.245100021E0
2.322199219E1,3.642999828E-1,8.693000078E-1,7.501999736E-1
2.325199062E1,3.932999969E-1,1.296700001E0,4.041999876E-1
2.327199062E1,1.009199977E0,8.240000010E-1,1.381399989E0
2.329199219E1,1.625999928E0,3.249999881E-2,3.299799919E0
2.332199062E1,4.663999975E-1,-7.655000091E-1,1.987499952E0
2.334199219E1,-1.993999928E-1,-6.947999597E-1,1.652199984E0
2.336199219E1,2.657999992E-1,-4.990999997E-1,1.597800016E0
2.339199063E1,1.320199966E0,-5.752999783E-1,2.704999924E0
2.341199062E1,7.892999649E-1,-5.647000074E-1,1.812899947E0
2.343199219E1,-1.269999985E-2,-6.209999919E-1,-2.148000002E-1
2.346199063E1,-4.849999771E-2,-8.007000089E-1,-1.918399930E0
2.348199062E1,2.789999917E-2,-8.127999902E-1,-4.348999858E-1
2.350199219E1,3.612000048E-1,-9.623999596E-1,3.847000003E-1
2.353199063E1,6.949999928E-1,-7.621999979E-1,-1.137799978E0
2.355199063E1,1.083099961E0,-7.031999826E-1,-2.862099886E0
2.357199062E1,1.162099957E0,-2.683999836E-1,-3.015699863E0
2.359199062E1,9.618999958E-1,-1.193999946E-1,-2.222399950E0
2.361199062E1,7.967000008E-1,-1.836999953E-1,-1.687999964E0
2.363199062E1,8.442999721E-1,-9.869999439E-2,-2.348799944E0
2.365199219E1,8.492999673E-1,2.890999913E-1,-2.724799871E0
2.368199062E1,8.064999580E-1,3.096999824E-1,-2.019500017E0
2.370199062E1,4.640999734E-1,3.700000048E-1,-1.449299932E0
2.372199219E1,3.059999943E-1,4.108999968E-1,-6.067000031E-1
2.375199062E1,1.187999964E0,2.829999924E-1,4.591999948E-1
2.377199062E1,1.646699905E0,1.934999973E-1,8.977999687E-1
2.379199219E1,1.282699943E0,6.177999973E-1,8.453999758E-1
2.382199062E1,1.145200014E0,7.552999854E-1,9.304999709E-1
2.384199062E1,2.186300039E0,4.427999854E-1,1.671000004E0
2.386199219E1,2.995299816E0,-3.667999804E-1,2.862399817E0
2.389199063E1,2.730199814E0,-1.442699909E0,4.254600048E0
2.391199062E1,2.567199945E0,-1.685699940E0,4.218499660E0
2.393199219E1,2.669499874E0,-1.708199978E0,3.970499992E0
2.396199063E1,3.716300011E0,-1.741299987E0,2.187399864E0
2.398199062E1,3.176299810E0,-1.511399984E0,5.102999806E-1
2.400199219E1,2.004499912E0,-1.301699996E0,-8.549000025E-1
2.402199219E1,9.405999780E-1,-9.661999941E-1,-1.639099956E0
2.405199063E1,1.190999970E-1,-6.606000066E-1,-1.948899984E0
2.407199062E1,1.342999935E-1,-5.630999804E-1,-2.393699884E0
2.409199219E1,2.574999928E-1,-3.576999903E-1,-2.613399982E0
2.412199219E1,1.758999974E-1,-2.338999957E-1,-1.898999929E0
2.415199219E1,-2.277999967E-1,-2.171999961E-1,-2.324100018E0
2.418199219E1,-6.398000121E-1,3.309999779E-2,-3.082099915E0
2.421199063E1,-7.718999982E-1,4.176999927E-1,-2.420599937E0
2.423199219E1,-4.896999896E-1,6.232999563E-1,-1.567399979E0
2.426199063E1,-3.502999842E-1,8.520999551E-1,-4.909999967E-1
2.428199063E1,-7.540999651E-1,1.134799957E0,-1.128999963E-1
2.430199219E1,-8.948999643E-1,1.386199951E0,2.313999981E-1
2.433199063E1,-3.373999894E-1,1.606199980E0,8.768999577E-1
2.435199063E1,-1.515000015E-1,1.396199942E0,1.544099927E0
2.437199219E1,1.030999944E-1,1.388599992E0,1.987499952E0
2.440199062E1,5.618000031E-1,1.899199963E0,2.151000023E0
2.442199063E1,1.030699968E0,1.762300014E0,2.485100031E0
2.444199219E1,1.430199981E0,1.169899940E0,2.993700027E0
2.447199062E1,1.657099962E0,-4.156000018E-1,3.752399921E0
2.449199063E1,1.245599985E0,-1.319100022E0,3.333599806E0
2.451199219E1,6.848999858E-1,-1.234099984E0,2.184999943E0
2.454199062E1,1.278900027E0,-7.526999712E-1,5.599999800E-2
2.456199062E1,2.513000011E0,-8.026999831E-1,-3.281999826E-1
2.458199063E1,3.185599804E0,-1.097100019E0,2.515999973E-1
2.460199063E1,2.085099936E0,-1.293900013E0,1.338199973E0
2.462199063E1,5.317999721E-1,-1.298499942E0,1.475499988E0
2.464199063E1,-1.001999974E-1,-1.064599991E0,5.406999588E-1
2.466199219E1,4.871999919E-1,-8.506999612E-1,-8.659999967E-1
2.469199063E1,9.355999827E-1,-5.378999710E-1,-2.571599960E0
2.471199063E1,7.128999829E-1,-3.470000029E-1,-2.893599987E0
2.473199219E1,6.126999855E-1,-1.468999982E-1,-2.523799896E0
2.476199063E1,6.929999590E-1,1.605999917E-1,-2.030200005E0
2.478199063E1,7.879999876E-1,4.020999968E-1,-2.528300047E0
2.480199063E1,7.292000055E-1,8.064000010E-1,-3.179100037E0
2.482199062E1,7.538999915E-1,8.926999569E-1,-3.118199825E0
2.484199062E1,2.762999833E-1,9.441999793E-1,-2.260799885E0
2.486199219E1,-1.110999957E-1,8.754000068E-1,-1.679099917E0
2.489199063E1,-2.043999881E-1,1.004500031E0,-1.254299998E0
2.491199062E1,-1.652999967E-1,1.101300001E0,1.310000010E-2
2.493199062E1,2.653000057E-1,9.813999534E-1,1.522799969E0
2.495199219E1,8.312999606E-1,8.847999573E-1,2.227200031E0
2.498199062E1,8.938999772E-1,6.237999797E-1,2.632400036E0
2.500199219E1,8.054999709E-1,4.321999848E-1,2.800299883E0
2.503199063E1,2.955399990E0,-6.006999612E-1,3.826200008E0
2.505199219E1,3.183599949E0,-1.476199985E0,5.868499756E0
2.508199219E1,1.914799929E0,-2.579699993E0,5.890699863E0
2.511199062E1,2.235800028E0,-1.815599918E0,1.658800006E0
2.513199062E1,2.730599880E0,-1.355799913E0,-7.281999588E-1
2.515199219E1,2.285599947E0,-1.006699920E0,-1.762499928E0
2.518199062E1,5.015000105E-1,-1.032199979E0,-1.125499964E0
2.520199062E1,-4.115999937E-1,-9.904999733E-1,-5.792999864E-1
2.522199219E1,-7.184999585E-1,-9.106000066E-1,-8.517000079E-1
2.525199062E1,-7.832999825E-1,-5.297999978E-1,-2.453500032E0
2.527199062E1,-9.753999710E-1,-3.689000010E-1,-3.391099930E0
2.529199219E1,-1.302899957E0,-1.130999997E-1,-3.911499977E0
2.532199062E1,-8.361999989E-1,9.309999645E-2,-3.478199959E0
2.534199062E1,-6.108999848E-1,3.203999996E-1,-2.805699825E0
2.536199219E1,-7.340999842E-1,4.787999988E-1,-2.203599930E0
2.538199219E1,-8.926999569E-1,5.128999949E-1,-1.608099937E0
2.541199062E1,-1.017400026E0,9.115999937E-1,-1.020599961E0
2.543199219E1,-7.505999804E-1,1.131199956E0,-7.660999894E-1
2.545199219E1,-6.231999993E-1,1.367200017E0,-7.389999926E-2
2.548199062E1,-5.590999722E-1,1.663399935E0,1.075600028E0
2.550199219E1,-6.340999603E-1,1.726899981E0,1.621399999E0
2.553199063E1,-9.609999508E-2,1.377399921E0,1.907099962E0
2.555199063E1,1.198999956E-1,1.570500016E0,1.969799995E0
2.557199062E1,6.144999862E-1,1.586099982E0,2.071099997E0
2.559199219E1,1.184499979E0,1.079699993E0,2.756099939E0
2.561199219E1,1.572899938E0,6.049999967E-2,3.833899975E0
2.564199219E1,5.616999865E-1,-1.439099908E0,4.619800091E0
2.566199219E1,-8.215999603E-1,-1.527300000E0,3.245199919E0
2.569199063E1,-3.027999997E-1,-1.072799921E0,-1.489000022E-1
2.571199063E1,1.076099992E0,-8.836999536E-1,-9.463999867E-1
2.573199219E1,2.287600040E0,-1.140100002E0,-3.299999982E-3
2.576199063E1,9.699999690E-1,-1.480799913E0,1.271299958E0
2.578199063E1,-7.227999568E-1,-1.221899986E0,5.527999997E-1
2.580199219E1,-1.478799939E0,-1.110700011E0,-4.776999950E-1
2.583199063E1,-8.156999946E-1,-1.014199972E0,-2.112900019E0
2.585200000E1,-2.890999913E-1,-7.953000069E-1,-2.865499973E0
2.588199062E1,2.175999880E-1,-6.474999785E-1,-3.136399984E0
2.590199063E1,2.929999866E-2,-5.223000050E-1,-2.692600012E0
2.592199063E1,-1.587999910E-1,-4.720999897E-1,-2.396899939E0
2.594199063E1,-1.888999939E-1,-3.252999783E-1,-2.314599991E0
2.596199063E1,-2.001999915E-1,-1.799999923E-2,-2.434799910E0
2.598199062E1,-1.576000005E-1,2.854999900E-1,-2.447999954E0
2.600199219E1,-2.469999902E-2,4.461999834E-1,-2.091500044E0
2.603199063E1,-3.447999954E-1,7.549999952E-1,-1.300400019E0
2.605199219E1,-5.026999712E-1,9.257999659E-1,-3.640999794E-1
2.608199219E1,-5.040000007E-2,9.832999706E-1,1.473199964E0
2.611199062E1,9.541999698E-1,8.845999837E-1,1.990999937E0
2.613199062E1,1.054000020E0,8.901000023E-1,1.701099992E0
2.615199219E1,8.761000037E-1,7.777000070E-1,1.568399906E0
2.618199062E1,1.952099919E0,3.448999822E-1,2.590199947E0
2.620199062E1,3.123999834E0,-4.014999866E-1,3.983500004E0
2.622199219E1,3.571599960E0,-1.333400011E0,4.860799789E0
2.625199062E1,2.981799841E0,-2.060699940E0,3.130100012E0
2.627199062E1,2.891999960E0,-1.834899902E0,1.420499921E0
2.629199219E1,3.276799917E0,-1.501799941E0,4.820000008E-2
2.632199062E1,3.307299852E0,-1.165799975E0,-7.044999599E-1
2.634199062E1,2.075999975E0,-8.417999744E-1,-7.689999938E-1
2.636199219E1,6.385999918E-1,-6.710000038E-1,-5.388000011E-1
2.638199219E1,-2.223999947E-1,-6.147999763E-1,-7.701999545E-1
2.641199062E1,-1.541000009E-1,-4.708999991E-1,-1.593299985E0
2.643199219E1,3.720000014E-2,-2.140999883E-1,-2.177899837E0
2.645199219E1,-2.107999921E-1,6.699999794E-3,-2.588699818E0
2.648199062E1,-6.613000035E-1,2.899999917E-2,-2.526799917E0
2.650199062E1,-6.689999700E-1,2.040999979E-1,-2.397099972E0
2.652199219E1,-7.451999784E-1,2.983999848E-1,-2.286099911E0
2.655199219E1,-1.096499920E0,5.141000152E-1,-1.852800012E0
2.658199219E1,-1.054899931E0,7.387999892E-1,-1.086699963E0
2.661199062E1,-7.581999898E-1,9.303999543E-1,-5.339999869E-2
2.663199062E1,-7.355999947E-1,9.240999818E-1,5.654999614E-1
2.665199219E1,-3.684999943E-1,8.168999553E-1,9.751999974E-1
2.668199062E1,8.205999732E-1,4.626999795E-1,1.398199916E0
2.670199062E1,1.366999984E0,4.851999879E-1,1.535599947E0
2.672199062E1,1.352699995E0,7.770000100E-1,1.640900016E0
2.674199219E1,1.372599959E0,5.979999900E-1,2.141700029E0
2.676199219E1,1.616899967E0,-3.902999759E-1,3.113799810E0
2.679199219E1,6.706999540E-1,-1.427299976E0,4.123699665E0
2.682199062E1,1.743000001E-1,-1.248899937E0,2.077100039E0
2.684199062E1,1.097899914E0,-7.813999653E-1,6.840999722E-1
2.686199219E1,2.766399860E0,-1.028699994E0,1.188699961E0
2.689199063E1,2.187999964E0,-1.625800014E0,2.269899845E0
2.691199062E1,4.891999960E-1,-1.348399997E0,1.106799960E0
2.693199219E1,-5.989999697E-2,-1.144199967E0,-3.687999845E-1
2.695199219E1,-4.099999741E-2,-6.833999753E-1,-1.107100010E0
2.698199062E1,6.182000041E-1,-7.841999531E-1,-1.844299912E0
2.700199062E1,7.894999981E-1,-6.837999821E-1,-2.690299988E0
2.702199219E1,1.102200031E0,-6.956999898E-1,-3.164799929E0
2.705199063E1,5.726000071E-1,-6.143000126E-1,-2.744799852E0
2.707199062E1,1.629000008E-1,-3.735999763E-1,-2.836699963E0
2.709199219E1,1.741999984E-1,-1.193999946E-1,-3.034899950E0
2.712199063E1,-1.359999925E-2,4.223999977E-1,-2.845700026E0
2.714199063E1,-4.696999788E-1,7.825999856E-1,-2.608299971E0
2.716199062E1,-8.715999722E-1,1.166000009E0,-1.883299947E0
2.718199062E1,-9.997999668E-1,1.149999976E0,-5.252000093E-1
2.720199062E1,-8.219999671E-1,1.048200011E0,8.806999922E-1
2.722199219E1,-3.628999889E-1,9.752999544E-1,1.720999956E0
2.725199062E1,-7.867999673E-1,1.219200015E0,2.391199827E0
2.727199062E1,-1.032500029E0,1.199599981E0,2.850999832E0
2.729199219E1,-8.603999615E-1,1.197000027E0,3.030299902E0
2.731199219E1,9.609999508E-2,9.153999686E-1,2.920500040E0
2.734199062E1,1.481099963E0,3.469999880E-2,3.834999800E0
2.736199219E1,1.568499923E0,-1.131600022E0,4.876100063E0
2.739199063E1,7.656999826E-1,-2.155200005E0,3.968699932E0
2.741199062E1,9.028999805E-1,-2.211400032E0,2.371899843E0
2.743199219E1,1.532499909E0,-1.884199977E0,8.267999887E-1
2.745199219E1,1.851199985E0,-1.755299926E0,-2.944999933E-1
2.748199062E1,5.360000134E-1,-1.231799960E0,-1.138700008E0
2.750199062E1,-7.069000006E-1,-9.544000030E-1,-1.354900002E0
2.752199062E1,-1.005200028E0,-9.203999639E-1,-1.271600008E0
2.754199062E1,-1.034699917E0,-8.206999898E-1,-1.294899940E0
2.756199062E1,-9.766999483E-1,-7.374999523E-1,-1.831499934E0
2.758199063E1,-9.440000057E-1,-5.654000044E-1,-2.647599936E0
2.760199063E1,-7.117999792E-1,-4.404999912E-1,-3.289599895E0
2.762199063E1,-8.231999874E-1,-2.305999994E-1,-3.655399799E0
2.764199063E1,-8.701999784E-1,-2.157999873E-1,-3.634099960E0
2.766199219E1,-7.778999805E-1,-5.389999971E-2,-3.309399843E0
2.769199219E1,-5.540999770E-1,2.053999901E-1,-2.494999886E0
2.771199219E1,-3.480000049E-2,2.494999915E-1,-1.976999998E0
2.773199219E1,3.015999794E-1,4.828999937E-1,-1.126099944E0
2.776199219E1,4.299999774E-2,9.818999767E-1,-1.911999881E-1
2.779199219E1,-2.640999854E-1,1.489099979E0,9.259999543E-2
2.782199062E1,-4.293999970E-1,1.491299987E0,1.334299922E0
2.784199062E1,6.499999762E-2,1.288299918E0,2.322999954E0
2.786199219E1,3.605999947E-1,1.176599979E0,2.875399828E0
2.789199063E1,-5.299999937E-2,1.597999930E0,3.354199886E0
2.791199062E1,4.930000007E-2,1.366799951E0,3.485599995E0
2.793199219E1,4.399999976E-2,6.735000014E-1,3.649199963E0
2.795199219E1,2.245999873E-1,-4.816999733E-1,3.500399828E0
2.798199062E1,-1.366599917E0,-1.375899911E0,2.024499893E0
2.800199062E1,-1.821399927E0,-1.593199968E0,5.437999964E-1
2.802199219E1,-7.856000066E-1,-1.384299994E0,-8.399999887E-2
2.805199063E1,1.380800009E0,-1.625599980E0,8.192999959E-1
2.807199062E1,9.734999537E-1,-1.655299902E0,1.276999950E0
2.809199219E1,-5.336999893E-1,-1.508399963E0,8.230999708E-1
2.812199063E1,-1.329699993E0,-1.515799999E0,-2.143999934E-1
2.814199063E1,-7.451999784E-1,-1.447499990E0,-1.045499921E0
2.816199219E1,1.279999968E-2,-1.360599995E0,-1.930099964E0
2.819199063E1,2.062999904E-1,-1.214100003E0,-2.880899906E0
2.821199063E1,-4.380000010E-2,-1.033100009E0,-3.102399826E0
2.823199062E1,-1.887999922E-1,-9.229999781E-1,-3.100199938E0
2.825199062E1,-3.033999801E-1,-7.384999990E-1,-2.933099985E0
2.827199062E1,-4.761999846E-1,-5.094999671E-1,-2.941299915E0
2.829199062E1,-4.242999852E-1,-2.346999943E-1,-2.938899994E0
2.831199063E1,5.509999767E-2,2.239999920E-2,-2.821799994E0
2.833199063E1,1.793999970E-1,3.428999782E-1,-2.112900019E0
2.835199063E1,-1.191999987E-1,5.304999948E-1,-1.125599980E0
2.837199219E1,-3.878999949E-1,7.292999625E-1,-3.759999871E-1
2.840199063E1,-8.240000159E-2,8.985999823E-1,7.159000039E-1
2.842199063E1,7.849999517E-2,1.044299960E0,1.679399967E0
2.844199219E1,2.309999987E-2,9.981999993E-1,2.383299828E0
2.847199062E1,-3.498999774E-1,1.077199936E0,2.032899857E0
2.849199219E1,2.084999979E-1,7.635999918E-1,1.896600008E0
2.852199219E1,1.892199993E0,-2.363999933E-1,3.580299854E0
2.855199063E1,1.752499938E0,-1.521699905E0,4.414499760E0
2.857199062E1,5.142999887E-1,-1.785399914E0,2.983799934E0
2.859199219E1,2.551999986E-1,-1.736199975E0,1.264599919E0
2.862199063E1,2.123699903E0,-1.480499983E0,2.046999931E-1
2.864199063E1,2.457499981E0,-1.462700009E0,4.337999821E-1
2.866199219E1,1.054299951E0,-1.177699924E0,7.613999844E-1
2.869199063E1,-1.016199946E0,-8.065999746E-1,-1.614999920E-1
2.871199063E1,-1.271099925E0,-6.504999995E-1,-1.123299956E0
2.873199219E1,-1.055699944E0,-2.992999852E-1,-1.611999989E0
2.876199063E1,-8.702999949E-1,-8.929999918E-2,-2.262699842E0
2.878199063E1,-8.666999936E-1,8.349999785E-2,-2.746799946E0
2.880199063E1,-1.078400016E0,3.152999878E-1,-2.895200014E0
2.882199062E1,-8.471999764E-1,2.757999897E-1,-2.791100025E0
2.884199219E1,-7.247999907E-1,3.894999921E-1,-2.658699989E0
2.886199219E1,-6.983999610E-1,4.640999734E-1,-2.616699934E0
2.889199063E1,-3.752999902E-1,6.604999900E-1,-1.953899980E0
2.891199062E1,-2.797999978E-1,8.833000064E-1,-1.159299970E0
2.893199219E1,-4.432999790E-1,1.193899989E0,-4.346999824E-1
2.895199219E1,-7.408999801E-1,1.472700000E0,1.636999995E-1
2.898199219E1,-7.066999674E-1,1.461300015E0,9.538999796E-1
2.901199219E1,-4.129999876E-1,8.378999829E-1,1.818799973E0
2.904199062E1,-3.823999763E-1,7.817999721E-1,2.635699987E0
2.906199063E1,-2.203999907E-1,1.110100031E0,3.302399874E0
2.908199219E1,-6.699999794E-3,5.990999937E-1,4.359499931E0
2.911199062E1,-2.334999889E-1,-8.403999805E-1,4.892399788E0
2.913199062E1,-1.266399980E0,-1.457099915E0,3.114099979E0
2.915199219E1,-1.766199946E0,-1.477100015E0,6.893999577E-1
2.918199062E1,-5.928999782E-1,-1.089800000E0,-1.960999966E-1
2.920199062E1,5.616999865E-1,-1.403299928E0,1.100299954E0
2.922199219E1,3.667999804E-1,-1.184499979E0,1.604599953E0
2.925199062E1,-8.197000027E-1,-9.965999722E-1,-2.850999832E-1
2.927199062E1,-8.240000010E-1,-1.007900000E0,-1.654299974E0
2.929199219E1,-8.159999847E-1,-8.582999706E-1,-2.122699976E0
2.932199062E1,-3.222999871E-1,-8.919999599E-1,-2.368899822E0
2.934199062E1,-2.518000007E-1,-8.280999660E-1,-2.691400051E0
2.936199219E1,-2.973999977E-1,-8.084999919E-1,-3.039799929E0
2.938199219E1,-1.915999949E-1,-7.288999557E-1,-3.026999950E0
2.941199062E1,-1.414999962E-1,-6.270999908E-1,-2.468400002E0
2.943199062E1,-3.745999932E-1,-4.291999936E-1,-2.604799986E0
2.945199219E1,-6.852999926E-1,-4.309999943E-2,-2.709800005E0
2.948199062E1,-6.480999589E-1,3.454999924E-1,-2.075899839E0
2.950199062E1,-5.396000147E-1,5.105999708E-1,-1.221099973E0
2.952199219E1,-2.939999998E-1,5.462999940E-1,2.699999837E-3
2.955199063E1,-2.802999914E-1,5.834999681E-1,1.583799958E0
2.957199062E1,-4.138000011E-1,4.547999799E-1,2.210299969E0
2.959199219E1,-5.654000044E-1,5.587999821E-1,2.435499907E0
2.962199063E1,-9.512999654E-1,1.056999922E0,2.346600056E0
2.964199063E1,-3.511999846E-1,1.053099990E0,2.576400042E0
2.966199219E1,7.392999530E-1,4.700999856E-1,3.402699947E0
2.969199063E1,9.258999825E-1,-5.927000046E-1,4.221099854E0
2.971199063E1,-6.552999616E-1,-9.718999863E-1,3.213299990E0
2.973199219E1,-1.091300011E0,-1.272799969E0,1.835599899E0
2.976199063E1,3.346999884E-1,-1.288200021E0,1.806999922E0
2.978199063E1,8.660999537E-1,-1.345199943E0,2.145400047E0
2.980199063E1,5.259999633E-1,-1.365899920E0,1.254599929E0
2.982199062E1,-6.693999767E-1,-1.064000010E0,-2.970999777E-1
2.984199062E1,-1.338199973E0,-9.431999922E-1,-1.765999913E0
2.986199219E1,-1.362800002E0,-7.418000102E-1,-2.414799929E0
2.988199219E1,-9.508999586E-1,-6.000999808E-1,-2.624099970E0
2.991199062E1,-7.149999738E-1,-3.163999915E-1,-3.219699860E0
2.993199062E1,-1.046499968E0,-1.259000003E-1,-3.547699928E0
2.995199062E1,-1.175699949E0,-5.269999802E-2,-3.546700001E0
2.997199062E1,-1.045400023E0,-1.206999943E-1,-3.213500023E0
2.999199063E1,-1.137499928E0,-3.049999848E-2,-2.740900040E0
3.001199219E1,-1.177600026E0,6.839999557E-2,-1.990599990E0
3.004199062E1,-1.044499993E0,2.628000081E-1,-8.628999591E-1
3.006199063E1,-6.904999614E-1,4.817999899E-1,-3.766999841E-1
3.008199219E1,-3.904999793E-1,8.330000043E-1,2.243999988E-1
3.011199062E1,-3.660999835E-1,1.299700022E0,1.032799959E0
3.013199062E1,-3.254999816E-1,1.538100004E0,1.156299949E0
3.015199219E1,9.409999847E-2,1.483799934E0,1.673900008E0
3.018199219E1,2.491999865E-1,1.407299995E0,2.852999926E0
3.021199063E1,-9.139999747E-1,1.441699982E0,2.756199837E0
3.023199062E1,-1.241299987E0,6.827999949E-1,2.415400028E0
3.025199062E1,-1.548299909E0,-1.780999899E-1,2.035599947E0
3.027199062E1,-2.437799931E0,-9.684000015E-1,1.693499923E0
3.029199219E1,-3.244599819E0,-1.426599979E0,8.847999573E-1
3.032199062E1,-2.630800009E0,-1.690499902E0,3.734000027E-1
3.034199062E1,-1.282899976E0,-1.898199916E0,1.599699974E0
3.036199062E1,-4.984999895E-1,-2.056900024E0,2.508199930E0
3.038199062E1,-3.592999876E-1,-2.038300037E0,2.003499985E0
3.040199063E1,-6.887999773E-1,-1.850499988E0,5.881999731E-1
3.042199063E1,-5.670999885E-1,-1.740499973E0,-9.378999472E-1
3.044199219E1,-1.578999907E-1,-1.599399924E0,-2.008499861E0
3.046199219E1,3.781999946E-1,-1.371199965E0,-2.815999985E0
3.049199063E1,8.057999611E-1,-1.025599957E0,-3.298899889E0
3.051199219E1,5.722000003E-1,-8.434000015E-1,-3.149799824E0
3.054199062E1,1.829999872E-2,-6.505999565E-1,-2.963199854E0
3.056199063E1,-2.676999867E-1,-3.974999785E-1,-3.060400009E0
3.058199219E1,-2.127999961E-1,-7.589999586E-2,-2.884999990E0
3.061199062E1,-1.879999936E-1,4.147000015E-1,-1.933699965E0
3.063199062E1,-1.953999996E-1,5.254999995E-1,-1.192199945E0
3.065199219E1,-5.101000071E-1,7.080999613E-1,-2.096999884E-1
3.068199062E1,-6.424999833E-1,1.105399966E0,8.856999874E-1
3.070199062E1,-5.940999985E-1,1.272300005E0,1.315999985E0
3.072199219E1,-3.282999992E-1,1.313799977E0,1.529199958E0
3.075199062E1,-1.503999978E-1,1.567499995E0,1.756599903E0
3.077199062E1,-3.682999909E-1,1.727399945E0,1.977299929E0
3.079199219E1,-4.449999705E-2,1.460199952E0,2.371999979E0
3.081199219E1,3.375999928E-1,7.296999693E-1,3.247900009E0
3.084199062E1,2.379999869E-2,-3.436000049E-1,4.412799835E0
3.086199219E1,-3.321999907E-1,-7.574999928E-1,3.462699890E0
3.089199063E1,5.164999962E-1,-9.356999993E-1,9.454999566E-1
3.091199062E1,1.276700020E0,-9.014999866E-1,1.819999963E-1
3.093199062E1,1.599200010E0,-1.071900010E0,3.346999884E-1
3.095199219E1,1.117799997E0,-1.309899926E0,5.311999917E-1
3.098199062E1,-6.697999835E-1,-8.190000057E-1,-1.078999937E-1
3.100199062E1,-1.300499916E0,-5.501999855E-1,-6.984999776E-1
3.102199062E1,-1.281599998E0,-3.093999922E-1,-1.248000026E0
3.104199062E1,-6.618999839E-1,-2.254999876E-1,-1.869799972E0
3.106199063E1,-3.093000054E-1,-1.369999945E-1,-2.446300030E0
3.108199219E1,-4.930999875E-1,-8.559999615E-2,-3.042399883E0
3.111199062E1,-1.037099957E0,1.605999917E-1,-3.292199850E0
3.113199062E1,-1.055699944E0,3.768000007E-1,-2.931799889E0
3.115199219E1,-6.601999998E-1,4.197999835E-1,-2.622599840E0
3.118199062E1,-5.070999861E-1,5.414999723E-1,-2.388900042E0
3.120199062E1,-6.311999559E-1,8.136000037E-1,-1.792899966E0
3.122199219E1,-8.533999920E-1,9.902999997E-1,-8.849999905E-1
3.124199219E1,-8.027999997E-1,1.155799985E0,-3.181999922E-1
3.127199219E1,-4.434999824E-1,1.546999931E0,3.300999999E-1
3.129199219E1,-4.201000035E-1,1.548399925E0,9.927999973E-1
3.132199062E1,-3.879999816E-1,1.363999963E0,2.251800060E0
3.134199062E1,-4.575999975E-1,1.206799984E0,2.651799917E0
3.136199219E1,-4.131000042E-1,1.100799918E0,2.925899982E0
3.138199219E1,-2.067999989E-1,3.662999868E-1,3.650599957E0
3.141199062E1,-5.278999805E-1,-8.218999505E-1,4.455599785E0
3.143199062E1,-1.449499965E0,-1.348999977E0,3.661899805E0
3.145199219E1,-2.069700003E0,-1.182500005E0,1.643899918E0
3.148199062E1,-8.585000038E-1,-8.725000024E-1,-5.065000057E-1
3.150199062E1,2.474000007E-1,-6.509000063E-1,-4.059999809E-2
3.152199219E1,5.661000013E-1,-7.005999684E-1,6.480000019E-1
3.154199531E1,-2.712000012E-1,-7.980999947E-1,5.321999788E-1
3.157199062E1,-9.170999527E-1,-8.628999591E-1,-5.202999711E-1
3.159199219E1,-7.954999804E-1,-7.641999722E-1,-9.494999647E-1
3.162199063E1,-4.153999984E-1,-6.753000021E-1,-1.832999945E0
3.164199063E1,-3.862999976E-1,-6.396999955E-1,-2.646899939E0
3.166199219E1,-4.557999969E-1,-5.629999638E-1,-3.375799894E0
3.169199063E1,-6.301999688E-1,-1.484999955E-1,-3.390699863E0
3.171199063E1,-6.207999587E-1,1.209999993E-2,-2.930799961E0
3.173199219E1,-4.684000015E-1,1.181999967E-1,-2.774699926E0
3.176199219E1,-6.565999985E-1,3.813999891E-1,-2.162400007E0
3.178199219E1,-7.152999640E-1,5.715000033E-1,-1.600799918E0
3.180199219E1,-6.919999719E-1,8.775999546E-1,-1.005200028E0
3.183199063E1,-7.699999809E-1,1.285599947E0,5.360999703E-1
3.185200000E1,-9.769999981E-1,1.372799993E0,1.514599919E0
3.188199219E1,-4.684000015E-1,1.129899979E0,2.197099924E0
3.191199062E1,-5.444999933E-1,1.288699985E0,2.225199938E0
3.193199062E1,-5.561000109E-1,9.477999806E-1,2.157599926E0
3.195199219E1,5.931000113E-1,4.853999913E-1,2.811100006E0
3.198199219E1,1.008199930E0,-1.000800014E0,4.974499702E0
3.201199219E1,-2.459999919E-2,-1.779799938E0,3.879199982E0
3.204199063E1,6.453999877E-1,-1.525699973E0,7.286999822E-1
3.206199062E1,1.651999950E0,-1.345099926E0,-2.889999934E-2
3.208199219E1,2.086699963E0,-1.155699968E0,-6.667999625E-1
3.211199063E1,6.570999622E-1,-7.146999836E-1,-1.602699995E0
3.213199062E1,-8.039999753E-2,-6.754999757E-1,-1.493399978E0
3.215199219E1,-3.659999743E-2,-6.750999689E-1,-1.007799983E0
3.217199219E1,-5.200000014E-3,-4.649999738E-1,-1.138899922E0
3.219199219E1,-3.147999942E-1,-8.320000023E-2,-2.019599915E0
3.221199219E1,-4.236999750E-1,4.690000042E-2,-3.121999979E0
3.223199219E1,-3.352999985E-1,3.418000042E-1,-3.803999901E0
3.226199062E1,-3.509999812E-2,6.089000106E-1,-3.506899834E0
3.228199062E1,-7.759999484E-2,6.151999831E-1,-2.733999968E0
3.230199062E1,-2.716000080E-1,6.812999845E-1,-2.009599924E0
3.232199063E1,-3.849000037E-1,9.376999736E-1,-1.541000009E0
3.234199062E1,-3.174999952E-1,1.200899959E0,-1.088199973E0
3.236199219E1,-9.290000051E-2,1.411299944E0,-4.012999833E-1
3.238199219E1,-2.649999969E-2,1.699699998E0,7.082999945E-1
3.241199062E1,-5.073999763E-1,1.771699905E0,2.354899883E0
3.243199063E1,-6.467999816E-1,1.827499986E0,2.619299889E0
3.245199219E1,1.242999956E-1,1.348199964E0,2.674299955E0
3.248199062E1,7.461000085E-1,1.256999969E0,2.860999823E0
3.250199063E1,6.608999968E-1,1.142699957E0,3.221599817E0
3.252199219E1,4.509999752E-1,4.936999977E-1,3.755899906E0
3.255199062E1,-5.561000109E-1,-8.779999614E-1,3.756599903E0
3.257199063E1,-1.744300008E0,-1.289399981E0,1.864199996E0
3.259199062E1,-2.037099838E0,-1.071599960E0,-2.894999981E-1
3.261199063E1,-9.943999648E-1,-9.138999581E-1,-1.317299962E0
3.263199062E1,7.720999718E-1,-1.069700003E0,-1.299999952E-1
3.265199219E1,1.362999916E0,-1.194599986E0,1.803399920E0
3.268199063E1,2.038999945E-1,-1.327700019E0,1.866099954E0
3.270199062E1,-2.699999809E-1,-1.152799964E0,9.149999917E-2
3.272199063E1,-1.552999914E-1,-1.099900007E0,-1.694599986E0
3.274199062E1,2.023999989E-1,-8.744999766E-1,-2.766299963E0
3.276199062E1,6.984999776E-1,-7.109000087E-1,-3.426800013E0
3.278199062E1,9.081999660E-1,-5.490999818E-1,-3.903299809E0
3.280199062E1,5.320000052E-1,-3.737999797E-1,-3.675699949E0
3.282199063E1,-3.299999982E-3,-3.658999801E-1,-3.186599970E0
3.284199062E1,-6.493999958E-1,-1.278999895E-1,-3.011099815E0
3.286199063E1,-7.798999548E-1,1.406999975E-1,-2.853199959E0
3.288199062E1,-5.691999793E-1,3.515000045E-1,-2.517699957E0
3.290199062E1,-2.946999967E-1,6.061999798E-1,-2.066200018E0
3.292199062E1,-3.836999834E-1,7.160999775E-1,-1.442600012E0
3.294199062E1,-1.044999957E0,1.051299930E0,-3.141999841E-1
3.296199062E1,-1.070699930E0,1.108999968E0,9.104999900E-1
3.298199062E1,-5.913999677E-1,1.155900002E0,1.894199967E0
3.300199063E1,-2.254000008E-1,1.161100030E0,2.350999832E0
3.302199062E1,-2.836000025E-1,1.105799913E0,2.543699980E0
3.304199063E1,-5.633999705E-1,1.123000026E0,2.713199854E0
3.306199062E1,-6.444000006E-1,1.192999959E0,2.649499893E0
3.308199219E1,1.350999922E-1,1.059499979E0,2.781699896E0
3.311199063E1,1.729499936E0,-3.525999784E-1,3.950099945E0
3.313199062E1,1.176599979E0,-1.111299992E0,4.073599815E0
3.315199219E1,2.918999791E-1,-1.270900011E0,2.823499918E0
3.318199063E1,1.391499996E0,-1.500199914E0,7.109000087E-1
3.320199062E1,2.121799946E0,-1.169399977E0,6.362999678E-1
3.322199219E1,1.833499908E0,-1.059999943E0,5.758999586E-1
3.325199063E1,-1.300999969E-1,-4.936999977E-1,-9.315999746E-1
3.327199062E1,-5.033999681E-1,-3.456999958E-1,-1.598899961E0
3.329199219E1,-7.529999614E-1,-2.017000020E-1,-1.632900000E0
3.332199063E1,-8.047999740E-1,-2.329999954E-1,-2.564199924E0
3.334199062E1,-7.461000085E-1,-1.146999970E-1,-3.572099924E0
3.336199063E1,-7.186999917E-1,3.312000036E-1,-4.186100006E0
3.338199219E1,-5.515999794E-1,4.368999898E-1,-4.240900040E0
3.341199062E1,-6.933000088E-1,4.618999958E-1,-3.288199902E0
3.343199063E1,-5.953999758E-1,5.752999783E-1,-2.417399883E0
3.345199219E1,-5.374999642E-1,7.637000084E-1,-1.679499984E0
3.348199062E1,-5.266999602E-1,1.030399919E0,-6.182999611E-1
3.350199063E1,-4.831999838E-1,1.179199934E0,1.150999963E-1
3.352199219E1,-6.335999966E-1,1.288999915E0,7.242000103E-1
3.355199062E1,-8.881999850E-1,1.610499978E0,1.169600010E0
3.357199063E1,-5.428000093E-1,1.583099961E0,1.552999973E0
3.359199219E1,6.830000132E-2,1.246199965E0,2.135099888E0
3.362199062E1,3.075999916E-1,1.003099918E0,2.571499825E0
3.364199063E1,6.729999781E-1,2.236999869E-1,3.111599922E0
3.366199219E1,2.483999878E-1,-6.908999681E-1,4.300600052E0
3.369199062E1,-1.767599940E0,-1.628099918E0,4.261699677E0
3.371199063E1,-2.716399908E0,-1.397499919E0,2.245899916E0
3.373199219E1,-1.952799916E0,-1.116999984E0,3.199000061E-1
3.376200312E1,8.712999821E-1,-1.129799962E0,1.217100024E0
3.379199219E1,1.846999973E-1,-1.185799956E0,2.003499985E0
3.382199063E1,-1.295599937E0,-8.809999824E-1,-7.423999906E-1
3.384199062E1,-9.304999709E-1,-8.165999651E-1,-2.644899845E0
3.386199063E1,-1.039999947E-1,-5.295000076E-1,-3.591899872E0
3.388199219E1,2.893999815E-1,-4.682999849E-1,-3.359999895E0
3.391199062E1,-1.400000006E-1,-4.776999950E-1,-2.417700052E0
3.393199063E1,-4.109999910E-2,-5.449000001E-1,-2.409800053E0
3.395199219E1,-1.842999905E-1,-3.156999946E-1,-2.427000046E0
3.398199219E1,-2.671999931E-1,-2.168999910E-1,-2.364099979E0
3.401199062E1,-4.324999750E-1,1.726000011E-1,-2.428999901E0
3.403199062E1,-4.307999909E-1,4.807999730E-1,-2.234799862E0
3.405199219E1,-4.772999883E-1,6.782999635E-1,-1.437399983E0
3.408199062E1,-9.672999978E-1,1.087100029E0,-9.899999946E-2
3.410199062E1,-9.585999846E-1,1.217199922E0,7.777999640E-1
3.412199062E1,-7.103999853E-1,1.371399999E0,1.606999993E0
3.414199063E1,-2.913999856E-1,1.302500010E0,2.291399956E0
3.416199219E1,-1.317999959E-1,1.281199932E0,2.299099922E0
3.419199062E1,-8.779999614E-2,1.183899999E0,2.370100021E0
3.421199063E1,7.950999737E-1,5.465999842E-1,3.388599873E0
3.423199219E1,1.300999999E0,-5.859000087E-1,4.609799862E0
3.426199062E1,-2.453999966E-1,-1.338699937E0,4.547899723E0
3.428199062E1,-2.617000043E-1,-1.469599962E0,2.662799835E0
3.430199219E1,9.874999523E-1,-1.336099982E0,1.285399914E0
3.433199062E1,3.056499958E0,-1.343400002E0,7.405999899E-1
3.435199062E1,2.392599821E0,-1.058099985E0,-1.275999993E-1
3.437199219E1,5.284999609E-1,-8.905999660E-1,-1.339100003E0
3.440199062E1,-1.022400022E0,-6.259999871E-1,-2.325099945E0
3.442199062E1,-9.759999514E-1,-5.320000052E-1,-2.322799921E0
3.444199219E1,-7.713999748E-1,-2.822999954E-1,-2.438199997E0
3.446199219E1,-4.943999946E-1,-1.061000004E-1,-2.729300022E0
3.449199062E1,-3.568999767E-1,1.269000024E-1,-3.106400013E0
3.451199219E1,-5.600000024E-1,3.147999942E-1,-2.900599957E0
3.454199063E1,-6.933999658E-1,4.429000020E-1,-2.700899839E0
3.456199062E1,-5.709999800E-1,6.330999732E-1,-2.646999836E0
3.458199219E1,-4.062999785E-1,8.488000035E-1,-2.301300049E0
3.461199063E1,-5.689999834E-2,1.149899960E0,-1.287099957E0
3.463199062E1,-3.969999775E-2,1.398499966E0,-2.707000077E-1
3.465199219E1,-1.425999999E-1,1.518800020E0,7.559999824E-1
3.468199063E1,-5.385000110E-1,1.782699943E0,1.588799953E0
3.470199062E1,-3.082000017E-1,1.687299967E0,2.127799988E0
3.472199219E1,1.063999981E-1,1.371299982E0,2.972999811E0
3.474199219E1,4.384999871E-1,1.006099939E0,3.436800003E0
3.477199062E1,-2.016000003E-1,7.915999889E-1,3.425799847E0
3.479199219E1,-2.712999880E-1,-1.831000000E-1,4.203700066E0
3.481199219E1,-7.827999592E-1,-9.955999851E-1,4.752399921E0
3.484199062E1,-1.795699954E0,-1.431499958E0,2.107300043E0
3.486199063E1,-1.727699995E0,-1.115299940E0,-3.824999928E-1
3.488199219E1,-8.912999630E-1,-7.493000031E-1,-1.122699976E0
3.491199219E1,4.221999943E-1,-9.971999526E-1,9.226999879E-1
3.494199219E1,-4.161999822E-1,-1.212000012E0,8.083999753E-1
3.497199063E1,-1.172899961E0,-1.013999939E0,-1.485700011E0
3.499199062E1,-9.041999578E-1,-9.807999730E-1,-2.337699890E0
3.501199219E1,-5.015999675E-1,-7.332999706E-1,-2.672999859E0
3.504199063E1,-2.451999933E-1,-4.312999845E-1,-2.941699982E0
3.506199062E1,-9.950000048E-2,-4.090999961E-1,-3.157099962E0
3.508199219E1,4.499999806E-3,-2.657999992E-1,-2.969799995E0
3.511199063E1,-2.211999893E-1,-5.799999833E-2,-2.519000053E0
3.513199062E1,-5.217999816E-1,8.370000124E-2,-2.520099878E0
3.515199062E1,-6.851999760E-1,1.992999911E-1,-2.531499863E0
3.517199062E1,-6.811999679E-1,5.102999806E-1,-2.319900036E0
3.519199062E1,-5.658999681E-1,8.991000056E-1,-1.700399995E0
3.521199063E1,-3.759000003E-1,1.108299971E0,-4.968999922E-1
3.523199219E1,-1.048000008E-1,1.324800014E0,9.585999846E-1
3.526199062E1,-4.679999948E-1,1.532299995E0,3.233500004E0
3.528199062E1,-4.239999950E-1,1.135599971E0,3.856400013E0
3.530199062E1,-6.179000139E-1,1.308899999E0,3.757799864E0
3.532199063E1,-4.989999831E-1,1.174099922E0,3.423499823E0
3.534199062E1,7.504999638E-1,7.028999925E-1,3.273799896E0
3.536199063E1,2.122799873E0,-2.666999996E-1,4.248399734E0
3.538199219E1,1.423399925E0,-1.155300021E0,5.104899883E0
3.541199062E1,-7.102999687E-1,-1.678200006E0,3.107399940E0
3.543199063E1,-2.962000072E-1,-1.750599980E0,1.101099968E0
3.545199062E1,9.399999976E-1,-1.314000010E0,1.144999936E-1
3.547199063E1,1.404399991E0,-1.164799929E0,2.311999947E-1
3.549199062E1,9.813999534E-1,-1.107399940E0,-6.169999763E-2
3.551199531E1,-9.290000051E-2,-9.194999933E-1,-1.215600014E0
3.554199063E1,-7.153999805E-1,-8.259999752E-1,-2.586599827E0
3.556199219E1,-7.552999854E-1,-6.037999988E-1,-3.155599833E0
3.558199219E1,-5.252000093E-1,-5.194000006E-1,-3.659399986E0
3.561199063E1,-3.412999809E-1,-1.339000016E-1,-3.715499878E0
3.563199062E1,-3.594999909E-1,-8.039999753E-2,-3.345099926E0
3.565199219E1,-5.153999925E-1,-2.649999969E-2,-3.132499933E0
3.568199063E1,-8.024999499E-1,1.809999943E-1,-2.794699907E0
3.570199062E1,-8.316999674E-1,3.563999832E-1,-2.045099974E0
3.572199219E1,-5.731999874E-1,4.433999956E-1,-1.014299989E0
3.574199219E1,-1.449999958E-2,6.265000105E-1,-1.882999986E-1
3.577199062E1,-2.119999938E-2,1.323300004E0,8.420000076E-1
3.579199063E1,-3.405999839E-1,1.624799967E0,1.364699960E0
3.581199219E1,-4.557999969E-1,1.966099977E0,1.978299975E0
3.584199062E1,4.359999895E-1,2.117100000E0,2.616799831E0
3.586199063E1,7.150999904E-1,1.971799970E0,2.550299883E0
3.588199219E1,7.699999809E-1,1.793199897E0,2.388099909E0
3.591199062E1,7.256999612E-1,7.386999726E-1,3.303900003E0
3.593199063E1,3.495000005E-1,-2.750000060E-1,4.428400040E0
3.595199219E1,-3.283999860E-1,-1.075699925E0,4.769299984E0
3.598199062E1,-1.355099916E0,-1.333699942E0,1.701999903E0
3.600199063E1,-8.621000051E-1,-9.419999719E-1,-6.133999825E-1
3.602199219E1,1.648000032E-1,-7.073999643E-1,-1.374499917E0
3.605199062E1,8.457999825E-1,-9.400999546E-1,-2.034999877E-1
3.607199063E1,2.583000064E-1,-1.101099968E0,9.200000018E-2
3.609199219E1,-4.320999980E-1,-1.013299942E0,-2.088999897E-1
3.612199062E1,-6.564999819E-1,-1.044799924E0,-1.474499941E0
3.614199063E1,-5.199999809E-1,-9.399999976E-1,-2.362299919E0
3.616199219E1,-1.435000002E-1,-9.194999933E-1,-3.110100031E0
3.619199219E1,-9.399999864E-3,-4.994999766E-1,-3.812299967E0
3.622199219E1,-9.549999982E-2,-4.375999868E-1,-2.967399836E0
3.625199063E1,1.989999972E-2,-1.999999862E-3,-2.647599936E0
3.627199062E1,2.987000048E-1,1.899999976E-1,-2.402600050E0
3.629199063E1,1.692999899E-1,5.138999820E-1,-1.952199936E0
3.631199219E1,3.053999841E-1,7.512999773E-1,-1.278699994E0
3.634199062E1,6.556999683E-1,9.657999873E-1,-3.863999844E-1
3.636199063E1,5.597999692E-1,1.110100031E0,5.335000157E-1
3.638199062E1,2.009999938E-2,1.129400015E0,1.062699914E0
3.640199062E1,-2.732000053E-1,1.239799976E0,1.492200017E0
3.642199062E1,1.508999914E-1,1.059899926E0,2.246000051E0
3.644199219E1,5.575999618E-1,8.847000003E-1,2.623299837E0
3.646199219E1,3.835999966E-1,9.730999470E-1,2.514799833E0
3.649199062E1,1.047500014E0,1.800999939E-1,2.402099848E0
3.651199219E1,1.489099979E0,-5.618000031E-1,3.181999922E0
3.654199063E1,1.123999953E-1,-1.029899955E0,4.665499687E0
3.656199062E1,3.516999781E-1,-1.579899907E0,3.373299837E0
3.658199219E1,1.738799930E0,-1.579800010E0,1.416899920E0
3.661199063E1,3.398900032E0,-1.125800014E0,-3.014000058E-1
3.663199062E1,2.862200022E0,-1.083899975E0,-4.653999805E-1
3.665199219E1,1.416399956E0,-9.855999947E-1,-8.233000040E-1
3.667199219E1,3.531000018E-1,-7.439000010E-1,-1.059499979E0
3.670199062E1,1.092000008E-1,-4.366999865E-1,-1.062799931E0
3.672199219E1,-2.796999812E-1,-1.763999909E-1,-1.571299911E0
3.674199219E1,-3.328000009E-1,-4.160000011E-2,-2.741699934E0
3.676199219E1,-3.051999807E-1,2.830999792E-1,-3.587599993E0
3.679199063E1,-3.243999779E-1,6.826999784E-1,-3.810899973E0
3.681199219E1,-7.400000095E-1,8.177999854E-1,-3.306699991E0
3.684199062E1,-9.906999469E-1,9.283999801E-1,-2.231600046E0
3.686199063E1,-8.902999759E-1,1.128299952E0,-1.563300014E0
3.688199219E1,-5.464999676E-1,1.273499966E0,-7.277999520E-1
3.691199062E1,-4.400999844E-1,1.461300015E0,2.918999791E-1
3.693199063E1,-7.832999825E-1,1.539299965E0,1.000800014E0
3.695199219E1,-1.023900032E0,1.579499960E0,1.632200003E0
3.698199219E1,-9.209999442E-2,1.114899993E0,2.171900034E0
3.701199219E1,3.804000020E-1,7.384999990E-1,2.715299845E0
3.704199063E1,-4.140000045E-2,6.111999750E-1,2.654799938E0
3.706199062E1,4.032000005E-1,-2.144999951E-1,3.384299994E0
3.708199219E1,9.709999710E-2,-8.184999824E-1,4.256799698E0
3.711199063E1,-1.309999943E0,-1.282799959E0,2.803699970E0
3.713199062E1,-1.294299960E0,-9.926999807E-1,9.600999951E-1
3.715199219E1,1.103999987E-1,-8.466999531E-1,3.303000033E-1
3.718199063E1,1.343799949E0,-9.893999696E-1,1.690699935E0
3.720199062E1,1.393999904E-1,-9.919999838E-1,1.621099949E0
3.722199219E1,-8.331999779E-1,-8.947999477E-1,3.423999846E-1
3.725199063E1,-5.461999774E-1,-9.131000042E-1,-1.843299985E0
3.727199062E1,-9.299999475E-2,-7.271999717E-1,-2.567499876E0
3.729199063E1,1.119999960E-2,-5.843999982E-1,-2.782599926E0
3.731199219E1,8.879999816E-2,-6.222000122E-1,-2.987299919E0
3.734199062E1,5.971999764E-1,-2.915999889E-1,-3.100100040E0
3.736199219E1,4.429000020E-1,-1.850000024E-1,-2.792500019E0
3.738199219E1,8.049999923E-2,-1.873999983E-1,-2.886699915E0
3.741199062E1,-4.405999780E-1,1.896999925E-1,-3.318799973E0
3.743199063E1,-4.065999985E-1,3.989000022E-1,-2.864500046E0
3.745199219E1,-1.811999977E-1,5.636999607E-1,-1.991699934E0
3.748199062E1,2.063999921E-1,6.301000118E-1,-4.550999999E-1
3.750199063E1,-2.062999904E-1,8.476999998E-1,2.283999920E-1
3.752199219E1,-4.926999807E-1,8.359999657E-1,9.870999455E-1
3.755199062E1,3.937999904E-1,5.708000064E-1,2.133899927E0
3.757199063E1,8.125999570E-1,4.944999814E-1,2.870299816E0
3.759199062E1,5.568999648E-1,5.546000004E-1,2.841399908E0
3.761199063E1,6.011999846E-1,8.438999653E-1,2.519500017E0
3.763199062E1,1.309799910E0,6.369000077E-1,2.833600044E0
3.765199219E1,1.651899934E0,6.619999558E-2,4.144700050E0
3.768199063E1,6.159999967E-1,-8.746999502E-1,4.907899857E0
3.770199062E1,2.284999937E-1,-1.203999996E0,3.382299900E0
3.772199219E1,1.128799915E0,-1.331900001E0,1.202299953E0
3.774199219E1,2.372400045E0,-1.058799982E0,-6.459999830E-2
3.777199062E1,2.088599920E0,-8.326999545E-1,-2.504999936E-1
3.779199063E1,6.293999553E-1,-7.226999998E-1,-9.293999672E-1
3.781199062E1,-5.878999829E-1,-4.926999807E-1,-2.041399956E0
3.783199062E1,-9.510999918E-1,-2.888999879E-1,-2.985599995E0
3.785200156E1,-3.537999988E-1,-2.185999900E-1,-2.939800024E0
3.788199219E1,-6.709999591E-2,-4.199999943E-2,-3.008899927E0
3.791199062E1,-7.152000070E-1,8.460000157E-2,-3.753899813E0
3.793199063E1,-6.427999735E-1,2.377000004E-1,-3.504599810E0
3.795199219E1,-3.587999940E-1,3.901000023E-1,-2.721299887E0
3.798199219E1,-1.789999940E-2,4.927999973E-1,-1.961899996E0
3.801199219E1,8.879999816E-2,8.125999570E-1,-9.017999768E-1
3.803199219E1,2.538000047E-1,1.177199960E0,4.100000020E-3
3.805199219E1,5.223999619E-1,1.329699993E0,7.346000075E-1
3.808199219E1,6.933000088E-1,1.569499969E0,1.219299912E0
3.811199063E1,1.184700012E0,1.359499931E0,1.963400006E0
3.813199062E1,1.410200000E0,1.179399967E0,2.328699827E0
3.815199219E1,1.258199930E0,1.040599942E0,2.332700014E0
3.817199219E1,7.418999672E-1,1.101699948E0,2.336799860E0
3.820199062E1,1.178900003E0,-1.162999943E-1,4.193299770E0
3.822199063E1,4.775999784E-1,-7.831000090E-1,5.467199802E0
3.824199219E1,-5.575000048E-1,-1.498600006E0,4.722599983E0
3.827199062E1,-1.671299934E0,-9.598999619E-1,8.208000064E-1
3.829199063E1,-7.448999882E-1,-5.522999763E-1,-9.641999602E-1
3.831199219E1,6.556999683E-1,-5.623999834E-1,-3.886999786E-1
3.834199062E1,9.833999872E-1,-1.094200015E0,8.040999770E-1
3.836199063E1,-3.148999810E-1,-9.807999730E-1,1.578999907E-1
3.838199219E1,-1.069000006E0,-9.645999670E-1,-9.924999475E-1
3.841199062E1,-7.534999847E-1,-8.345999718E-1,-2.670099974E0
3.843199063E1,-2.098999918E-1,-7.084999681E-1,-3.013000011E0
3.845199219E1,3.346000016E-1,-6.202999949E-1,-3.189599991E0
3.848199062E1,2.060000002E-1,-4.505999982E-1,-3.578899860E0
3.850199063E1,7.469999790E-2,-3.799999952E-1,-3.791499853E0
3.852199219E1,1.560999900E-1,-2.759000063E-1,-3.573799849E0
3.855199062E1,2.547000051E-1,-1.539999992E-2,-2.722800016E0
3.857199219E1,2.912999988E-1,9.799999744E-2,-2.645599842E0
3.859199219E1,1.737999916E-1,3.753999770E-1,-2.215800047E0
3.862199062E1,3.940000013E-2,6.620999575E-1,-8.533999920E-1
3.864199063E1,3.529999778E-2,6.502000093E-1,3.317999840E-1
3.866199219E1,8.179999888E-2,9.226999879E-1,1.184800029E0
3.869199062E1,2.038999945E-1,1.312999964E0,1.698399901E0
3.871199063E1,4.860999882E-1,1.233999968E0,2.065899849E0
3.873199219E1,3.380999863E-1,1.230999947E0,2.315299988E0
3.876199062E1,9.208999872E-1,1.120499969E0,2.696799994E0
3.878199063E1,2.449899912E0,5.273999572E-1,3.762599945E0
3.880199219E1,2.268899918E0,-3.384000063E-1,5.030600071E0
3.883199062E1,7.356999516E-1,-1.189999938E0,5.010099888E0
3.885200156E1,8.653999567E-1,-1.448199987E0,3.141399860E0
3.888199219E1,2.630100012E0,-1.168399930E0,1.368499994E0
3.891199062E1,2.876699924E0,-1.155399919E0,4.851000011E-1
3.893199063E1,1.329399943E0,-7.475999594E-1,-6.147999763E-1
3.895199219E1,1.253999919E-1,-3.726999760E-1,-1.022599936E0
3.898199062E1,-3.168999851E-1,-1.701999903E-1,-1.158399940E0
3.900199063E1,-3.601000011E-1,-1.240999997E-1,-1.545300007E0
3.902199062E1,-2.261999995E-1,3.009999916E-2,-2.388299942E0
3.904199063E1,-1.046999991E-1,2.419999987E-1,-2.912199974E0
3.906199062E1,-2.547000051E-1,3.447999954E-1,-2.843699932E0
3.908199062E1,-2.698000073E-1,2.184000015E-1,-3.057199955E0
3.910199062E1,-3.273999989E-1,3.458999991E-1,-3.184899807E0
3.912199062E1,-4.314000010E-1,3.569999933E-1,-2.882599831E0
3.914199063E1,-1.898999959E-1,4.095999897E-1,-2.203299999E0
3.916199219E1,-2.509999871E-1,5.181999803E-1,-1.691799998E0
3.919199062E1,-1.661999971E-1,9.262999892E-1,-6.024999619E-1
3.921199063E1,4.120999873E-1,1.417400002E0,5.347999930E-1
3.923199219E1,5.335999727E-1,1.633999944E0,1.154299974E0
3.926199062E1,4.702999890E-1,1.632599950E0,1.697999954E0
3.928199063E1,7.530999780E-1,1.330600023E0,1.869599938E0
3.930199219E1,5.870999694E-1,1.161499977E0,1.923699975E0
3.933199062E1,6.999999750E-4,7.960999608E-1,2.717200041E0
3.935199062E1,2.184000015E-1,-4.328999817E-1,4.424299717E0
3.937199219E1,-2.400999963E-1,-1.019999981E0,5.373099804E0
3.940199062E1,-1.445899963E0,-1.444800019E0,2.539799929E0
3.942199062E1,-1.256099939E0,-6.764999628E-1,7.317000031E-1
3.944199219E1,3.531000018E-1,-7.337999940E-1,1.147999987E-1
3.947199063E1,1.413699985E0,-9.237999916E-1,4.144999981E-1
3.949199062E1,6.990000010E-1,-1.185899973E0,-7.957999706E-1
3.951199219E1,4.359000027E-1,-1.713999987E0,-2.671700001E0
3.954199063E1,3.079999983E-2,-1.304199934E0,-2.393399954E0
3.956199062E1,3.843999803E-1,-1.386399984E0,-1.824199915E0
3.958199219E1,7.182999849E-1,-1.368799925E0,-2.371199846E0
3.961199063E1,2.157999873E-1,-9.803999662E-1,-3.365799904E0
3.963199062E1,2.216999978E-1,-8.098999858E-1,-3.525099993E0
3.965199219E1,2.048999965E-1,-3.919000030E-1,-3.423499823E0
3.967199219E1,1.948999912E-1,1.300000004E-3,-3.168799877E0
3.970199062E1,1.237000003E-1,5.027999878E-1,-2.133100033E0
3.972199063E1,-2.361999899E-1,6.915000081E-1,-1.229799986E0
3.974199219E1,-2.674999833E-1,7.597999573E-1,-7.218999863E-1
3.977199219E1,-4.237999916E-1,7.335999608E-1,-1.712999940E-1
3.979199219E1,-7.771999836E-1,7.234999537E-1,5.511999726E-1
3.981199219E1,-6.651999950E-1,7.202000022E-1,1.447099924E0
3.984199062E1,1.948999912E-1,7.780999541E-1,2.428999901E0
3.986199063E1,-1.196999997E-1,9.452999830E-1,2.076999903E0
3.988199219E1,-2.387999892E-1,6.090999842E-1,1.562899947E0
3.991199219E1,6.819999814E-1,-1.077999994E-1,1.920799971E0
3.994199062E1,1.372099996E0,-1.083500028E0,3.833400011E0
3.996199063E1,9.879999757E-1,-1.361899972E0,3.495800018E0
3.998199062E1,9.183999896E-1,-1.327399969E0,1.735099912E0
4.000199063E1,1.283399940E0,-1.207700014E0,1.929999888E-2
4.002199062E1,1.840299964E0,-9.752999544E-1,3.448999822E-1
4.004199063E1,2.261100054E0,-1.142499924E0,1.121799946E0
4.006199062E1,1.187699914E0,-8.228999972E-1,7.827000022E-1
4.008199219E1,9.209999442E-2,-5.453999639E-1,-3.680000007E-1
4.010199219E1,-4.584999979E-1,-2.854999900E-1,-1.224399924E0
4.013199062E1,-4.361999929E-1,-6.899999920E-3,-1.610999942E0
4.015199219E1,-2.181999981E-1,2.838000059E-1,-1.964100003E0
4.017199219E1,1.272999942E-1,4.906999767E-1,-2.522399902E0
4.020199062E1,6.527000070E-1,8.303999901E-1,-2.006500006E0
4.022199063E1,6.561999917E-1,8.168999553E-1,-1.705699921E0
4.024199219E1,3.369999826E-1,1.024099946E0,-1.893099904E0
4.027199062E1,4.106999934E-1,1.232999921E0,-2.029700041E0
4.029199063E1,5.462999940E-1,1.370899916E0,-1.295499921E0
4.031199219E1,8.427999616E-1,1.248999953E0,-5.916999578E-1
4.034199062E1,6.922999620E-1,1.419899940E0,-4.420000017E-1
4.036199219E1,6.474999785E-1,1.331900001E0,2.469999939E-1
4.038199219E1,8.070999980E-1,1.099099994E0,1.366099954E0
4.041199062E1,1.524899960E0,4.260999858E-1,2.407199860E0
4.043199063E1,1.469999909E0,6.284999847E-1,2.275699854E0
4.045199219E1,1.821900010E0,9.156999588E-1,2.543200016E0
4.048199062E1,3.270200014E0,-8.294999599E-1,4.035599709E0
4.050199063E1,2.200599909E0,-1.526499987E0,4.615099907E0
4.052199219E1,6.475999951E-1,-2.001199961E0,3.590299845E0
4.055199062E1,2.272000015E-1,-1.218299985E0,1.417400002E0
4.057199063E1,1.760399938E0,-8.272999525E-1,1.260999918E0
4.059199219E1,2.451599836E0,-1.016399980E0,1.704800010E0
4.062199062E1,1.304499984E0,-1.048699975E0,1.323699951E0
4.064199063E1,3.759999871E-1,-1.068400025E0,1.474999934E-1
4.066199219E1,1.290999949E-1,-9.012999535E-1,-1.209800005E0
4.069199062E1,1.033200026E0,-5.302999616E-1,-2.314699888E0
4.071199063E1,1.370299935E0,-4.050999880E-1,-2.834100008E0
4.073199219E1,1.129999995E0,-3.325999975E-1,-3.333699942E0
4.076199062E1,6.772999763E-1,-1.739999950E-1,-3.582099915E0
4.078199063E1,4.531999826E-1,2.730000019E-2,-3.526599884E0
4.080199219E1,3.055999875E-1,1.264999956E-1,-3.532099962E0
4.083199062E1,-4.449999705E-2,5.562999845E-1,-3.002099991E0
4.085200156E1,3.675999939E-1,6.189999580E-1,-2.232499838E0
4.088199219E1,9.009999782E-2,7.766999602E-1,-7.279999852E-1
4.091199062E1,-3.233999908E-1,1.147599936E0,1.163999960E-1
4.093199063E1,-1.171999946E-1,1.194399953E0,7.874999642E-1
4.095199219E1,7.810999751E-1,1.004799962E0,2.031800032E0
4.098199219E1,1.107299924E0,9.399999976E-1,2.698699951E0
4.101199219E1,1.412199974E0,4.677999914E-1,1.944999933E0
4.104199063E1,3.417399883E0,-9.146999717E-1,4.111199856E0
4.106199062E1,2.708199978E0,-1.919499993E0,6.253699780E0
4.108199219E1,2.071500063E0,-2.723599911E0,6.164399624E0
4.111199063E1,2.756599903E0,-2.379799843E0,1.938899994E0
4.113199062E1,3.196799994E0,-1.518999934E0,-1.733999997E-1
4.115199062E1,2.952699900E0,-1.268499970E0,-6.742999554E-1
4.117199062E1,2.206199884E0,-1.133199930E0,-7.124999762E-1
4.119199062E1,6.732999682E-1,-7.346000075E-1,-1.144899964E0
4.121199063E1,-3.888999820E-1,-5.478999615E-1,-2.066900015E0
4.123199219E1,-7.946999669E-1,-2.469999939E-1,-2.458899975E0
4.126199062E1,-3.981999755E-1,-1.326999962E-1,-2.204799891E0
4.128199063E1,-2.827000022E-1,7.400000095E-2,-2.684099913E0
4.130199219E1,-5.252999663E-1,2.839999795E-1,-3.398000002E0
4.133199062E1,-7.096999884E-1,5.539000034E-1,-3.388999939E0
4.135199219E1,-5.623999834E-1,7.584999800E-1,-2.834599972E0
4.137199219E1,-5.031999946E-1,8.524999619E-1,-2.036799908E0
4.140199062E1,-4.566999972E-1,1.092599988E0,-1.193599939E0
4.142199062E1,-4.239999950E-1,1.275499940E0,-5.505999923E-1
4.144199219E1,-1.626999974E-1,1.458199978E0,-9.309999645E-2
4.147199063E1,4.142999947E-1,1.582399964E0,9.049999714E-1
4.149199062E1,6.218999624E-1,1.483099937E0,1.629199982E0
4.151199219E1,7.667999864E-1,1.333699942E0,2.187799931E0
4.154199063E1,1.154500008E0,1.319399953E0,2.522399902E0
4.156199219E1,1.331599951E0,1.248399973E0,2.729799986E0
4.158199219E1,2.267999887E0,5.088999867E-1,3.524299860E0
4.161199063E1,1.123899937E0,-8.499999642E-1,4.462599754E0
4.163199062E1,-4.490999877E-1,-1.606799960E0,3.993699789E0
4.165199062E1,-9.108999968E-1,-1.492999911E0,2.690500021E0
4.167199219E1,4.396999776E-1,-1.197799921E0,1.608599901E0
4.170199062E1,2.662400007E0,-1.218400002E0,1.996799946E0
4.172199063E1,2.233999968E0,-1.182199955E0,2.008399963E0
4.174199219E1,8.111999631E-1,-9.915999770E-1,4.425999820E-1
4.176199219E1,4.849999771E-2,-8.671999574E-1,-1.402199984E0
4.178199219E1,1.899999916E-3,-6.866999865E-1,-2.678699970E0
4.180199219E1,2.917999923E-1,-5.936999917E-1,-2.957299948E0
4.183199062E1,4.285999835E-1,-3.842999935E-1,-3.282199860E0
4.185200000E1,4.073999822E-1,-3.685999811E-1,-3.507399797E0
4.188199219E1,6.144999862E-1,-2.718999982E-1,-3.354799986E0
4.191199062E1,4.684000015E-1,-3.321999907E-1,-3.078199863E0
4.193199063E1,6.983999610E-1,-1.694999933E-1,-3.107399940E0
4.195199219E1,2.974999845E-1,4.332000017E-1,-3.166800022E0
4.198199062E1,2.649999969E-2,6.668999791E-1,-1.925799966E0
4.200199063E1,3.382999897E-1,7.240999937E-1,-1.345600009E0
4.202199219E1,4.723999798E-1,1.120800018E0,-6.690999866E-1
4.205199062E1,3.118999898E-1,1.381899953E0,1.699800014E0
4.207199063E1,5.220000148E-1,1.045499921E0,2.426599979E0
4.209199219E1,1.049399972E0,1.001699924E0,2.176599979E0
4.212199062E1,1.431199908E0,8.629999757E-1,2.374599934E0
4.214199063E1,2.871299982E0,-8.919999748E-2,3.550899982E0
4.216199219E1,3.994799852E0,-1.208899975E0,5.278599739E0
4.218199219E1,3.626600027E0,-2.464400053E0,6.540299892E0
4.221199063E1,1.955099940E0,-3.047899961E0,3.687699795E0
4.223199219E1,2.324300051E0,-2.629299879E0,1.167699933E0
4.226199062E1,3.802699804E0,-1.770200014E0,-9.238999486E-1
4.228199063E1,3.634599924E0,-1.680599928E0,-9.741999507E-1
4.230199219E1,1.992599964E0,-1.631099939E0,-5.455999970E-1
4.233199062E1,-2.859999985E-2,-1.362499952E0,-1.161399961E0
4.235199062E1,-2.904999852E-1,-9.806999564E-1,-2.004699945E0
4.237199219E1,-4.415999949E-1,-4.565999806E-1,-2.648399830E0
4.240199062E1,-3.585000038E-1,-6.099999882E-3,-3.369599819E0
4.242199062E1,-1.550000012E-1,2.133999914E-1,-3.770699978E0
4.244199219E1,-3.989999741E-2,5.175999999E-1,-3.832599878E0
4.246199219E1,-3.285999894E-1,8.743000031E-1,-3.328799963E0
4.249199062E1,-9.928999543E-1,1.060500026E0,-2.808799982E0
4.251199219E1,-1.421199918E0,1.164099932E0,-2.467999935E0
4.254199063E1,-1.495399952E0,1.290199995E0,-5.773999691E-1
4.256199062E1,-1.465699911E0,1.622499943E0,1.439000010E0
4.258199219E1,-1.288699985E0,1.849399924E0,2.482100010E0
4.261199063E1,-6.096000075E-1,1.963499904E0,2.168900013E0
4.263199062E1,1.820999980E-1,1.767799973E0,2.134500027E0
4.265199062E1,1.083199978E0,1.296999931E0,2.718099833E0
4.267199219E1,1.374699950E0,9.855999947E-1,3.095399857E0
4.270199062E1,2.190199852E0,1.615999937E-1,3.630599976E0
4.272199063E1,2.856600046E0,-9.049999714E-1,5.125799656E0
4.274199219E1,1.793900013E0,-1.753499985E0,6.089599609E0
4.277199219E1,-5.788999796E-1,-1.889799953E0,3.204200029E0
4.279199219E1,-8.804999590E-1,-1.374199986E0,2.277999967E-1
4.282199063E1,2.928999960E-1,-5.509999990E-1,-1.322600007E0
4.284199062E1,1.231599927E0,-8.082000017E-1,-2.764999866E-1
4.286199063E1,8.540999889E-1,-8.948999643E-1,5.633999705E-1
4.288199219E1,3.549999744E-2,-1.040199995E0,2.259999886E-2
4.291199062E1,-4.732999802E-1,-7.389999628E-1,-1.626599908E0
4.293199063E1,-1.367999911E-1,-5.681999922E-1,-2.461199999E0
4.295199219E1,1.970000006E-2,-2.818999887E-1,-2.951900005E0
4.298199062E1,1.706999987E-1,-2.448999882E-1,-3.172299862E0
4.300199063E1,1.182999983E-1,-1.878999919E-1,-3.101999998E0
4.302199219E1,1.841999888E-1,-7.149999589E-2,-2.737200022E0
4.305199062E1,2.815999985E-1,1.269000024E-1,-2.507699966E0
4.307199063E1,1.379999965E-1,3.623999953E-1,-2.416699886E0
4.309199062E1,1.210999936E-1,4.796999991E-1,-2.200099945E0
4.311199063E1,1.824999899E-1,6.252999902E-1,-1.897300005E0
4.313199062E1,2.628000081E-1,8.143999577E-1,-1.487900019E0
4.315199062E1,1.011999995E-1,9.117999673E-1,-7.366999984E-1
4.317199062E1,-4.551999867E-1,9.577999711E-1,2.195999920E-1
4.319199062E1,-6.069999933E-1,7.804999948E-1,1.214299917E0
4.321199063E1,1.726000011E-1,4.303999841E-1,2.080600023E0
4.323199219E1,7.807999849E-1,1.967999935E-1,2.651399851E0
4.326199062E1,9.106999636E-1,-1.640000008E-2,2.746899843E0
4.328199063E1,1.560899973E0,-3.788999915E-1,3.110399961E0
4.330199219E1,2.491400003E0,-1.134400010E0,4.090300083E0
4.333199062E1,1.901399970E0,-2.319999933E0,5.098799706E0
4.335199219E1,1.457499981E0,-2.601899862E0,3.357100010E0
4.337199219E1,2.036000013E0,-2.108999968E0,1.274099946E0
4.340199062E1,3.012199879E0,-1.331699967E0,-2.003999949E-1
4.342199062E1,2.034499884E0,-1.015699983E0,2.545999885E-1
4.344199062E1,4.790999889E-1,-8.987999558E-1,-8.799999952E-2
4.346199219E1,-4.831999838E-1,-5.783999562E-1,-9.975000024E-1
4.349199219E1,-8.014999628E-1,-2.436999977E-1,-2.479599953E0
4.351199219E1,-1.115999967E-1,-1.564999968E-1,-2.845499992E0
4.353199219E1,3.299999982E-2,1.499999911E-1,-2.654099941E0
4.356199062E1,-4.013999999E-1,9.759999812E-2,-2.970899820E0
4.358199219E1,-8.333999515E-1,2.723999918E-1,-3.084199905E0
4.360199219E1,-6.434999704E-1,3.431999981E-1,-2.972699881E0
4.363199062E1,-9.149999917E-2,6.502999663E-1,-2.640300035E0
4.365199062E1,-2.195999920E-1,9.197999835E-1,-2.400899887E0
4.367199219E1,5.249999836E-2,1.225399971E0,-1.536799908E0
4.370199062E1,4.649999738E-1,1.803999901E0,2.225999981E-1
4.372199063E1,5.807999969E-1,2.054699898E0,9.721999764E-1
4.374199062E1,6.365000010E-1,1.947299957E0,1.325099945E0
4.376199062E1,4.797999859E-1,1.793199897E0,1.634400010E0
4.378199063E1,6.597999930E-1,1.260800004E0,1.564000010E0
4.380199219E1,5.220999718E-1,8.363999724E-1,1.632900000E0
4.383199062E1,6.017999649E-1,4.356999993E-1,2.510599852E0
4.385200000E1,9.384999871E-1,-2.321999967E-1,3.722199917E0
4.388199219E1,-5.274999738E-1,-1.577700019E0,5.198599815E0
4.391199062E1,-2.024499893E0,-2.018399954E0,3.060899973E0
4.393199063E1,-1.028900027E0,-1.507300019E0,1.095999956E0
4.395199062E1,6.046999693E-1,-1.307799935E0,1.692999899E-1
4.397199063E1,2.022699833E0,-1.330999970E0,3.955999911E-1
4.399199062E1,1.432999969E0,-1.353799939E0,7.464999557E-1
4.401199219E1,1.837999970E-1,-1.412699938E0,2.872000039E-1
4.403199219E1,-6.011999846E-1,-1.259500027E0,-6.994000077E-1
4.405199219E1,-6.877999902E-1,-1.106299996E0,-1.956499934E0
4.408199062E1,-1.655000001E-1,-8.561999798E-1,-3.201299906E0
4.410199063E1,3.768000007E-1,-6.277999878E-1,-3.517899990E0
4.412199062E1,4.449999928E-1,-4.826999903E-1,-3.468999863E0
4.414199063E1,3.113999963E-1,-4.314000010E-1,-2.802799940E0
4.416199219E1,1.363999993E-1,-3.034999967E-1,-2.313699961E0
4.419199062E1,-2.039999962E-1,-1.442999989E-1,-2.476300001E0
4.421199063E1,-4.091999829E-1,2.270999998E-1,-2.613899946E0
4.423199219E1,-2.397999913E-1,5.867999792E-1,-2.322599888E0
4.426199062E1,1.099999994E-3,8.177999854E-1,-1.222999930E0
4.428199063E1,-3.883000016E-1,8.966999650E-1,-3.296000063E-1
4.430199219E1,-8.680999875E-1,1.009500027E0,4.371999800E-1
4.433199062E1,-5.878999829E-1,8.472999930E-1,1.525799990E0
4.435199063E1,2.800999880E-1,5.777999759E-1,2.536900043E0
4.437199219E1,8.646000028E-1,5.756999850E-1,3.105299950E0
4.440199062E1,1.135699987E0,2.101999968E-1,2.848399878E0
4.442199062E1,2.103999853E0,-3.773999810E-1,3.076999903E0
4.444199219E1,2.730999947E0,-1.206099987E0,4.025000095E0
4.446199219E1,2.125099897E0,-1.846599936E0,4.829799652E0
4.449199062E1,1.827499986E0,-2.268199921E0,2.605799913E0
4.451199219E1,2.717599869E0,-1.857800007E0,9.066999555E-1
4.454199063E1,2.618999958E0,-1.336899996E0,-1.589999944E-1
4.456199219E1,1.282999992E0,-1.146099925E0,-4.517999887E-1
4.459199219E1,-6.642999649E-1,-9.114999771E-1,-1.346099973E0
4.462199062E1,-3.298999965E-1,-8.799999952E-1,-1.468799949E0
4.464199063E1,1.958999932E-1,-4.623999894E-1,-1.560099959E0
4.466199219E1,-3.343999982E-1,-6.300000101E-2,-2.247799873E0
4.469199062E1,-1.022300005E0,-6.399999838E-3,-2.972199917E0
4.471199063E1,-1.049799919E0,2.358999997E-1,-3.259599924E0
4.473199219E1,-7.354999781E-1,3.455999792E-1,-3.597699881E0
4.476199062E1,-6.026999950E-1,5.924000144E-1,-3.277899981E0
4.478199063E1,-5.864999890E-1,6.152999997E-1,-2.651700020E0
4.480199219E1,-8.551999927E-1,9.484999776E-1,-1.630800009E0
4.483199062E1,-6.297999620E-1,9.633999467E-1,4.034999907E-1
4.485200156E1,-6.990999579E-1,1.067099929E0,1.545699954E0
4.488199219E1,-1.091799974E0,1.256600022E0,2.051699877E0
4.490199219E1,-8.133999705E-1,1.150399923E0,2.188899994E0
4.492199219E1,1.482999921E-1,5.264999866E-1,2.508800030E0
4.494199219E1,4.086999893E-1,5.209000111E-1,2.762199879E0
4.496199219E1,7.286999822E-1,5.827000141E-1,3.155900002E0
4.498199219E1,1.491099954E0,4.969999939E-2,4.290800095E0
4.501199219E1,8.294999599E-1,-1.163299918E0,5.287199974E0
4.503199219E1,-6.254999638E-1,-1.733799934E0,3.412299871E0
4.506199062E1,-1.026399970E0,-1.248399973E0,1.904999912E-1
4.508199062E1,6.403999925E-1,-8.738999963E-1,-5.037999749E-1
4.510199219E1,1.492499948E0,-1.108999968E0,2.351000011E-1
4.513199219E1,-1.964999884E-1,-1.380800009E0,7.034999728E-1
4.516199219E1,-1.225499988E0,-1.210899949E0,-8.618999720E-1
4.518199219E1,-7.896999717E-1,-1.152799964E0,-2.011499882E0
4.521199063E1,2.140000015E-1,-8.994999528E-1,-2.829799891E0
4.523199219E1,4.681999981E-1,-7.908999920E-1,-3.146199942E0
4.526199062E1,2.366999984E-1,-5.174999833E-1,-3.302999973E0
4.528199063E1,4.382999837E-1,-5.800999999E-1,-3.396999836E0
4.530199219E1,4.997999966E-1,-4.667999744E-1,-3.235499859E0
4.533199062E1,-1.288999915E-1,-2.386999875E-1,-2.831099987E0
4.535199063E1,-5.239999890E-1,2.179999948E-1,-2.722599983E0
4.537199219E1,-5.692999959E-1,6.049999595E-1,-2.155699968E0
4.539199219E1,-3.580999970E-1,6.148999929E-1,-1.151600003E0
4.542199062E1,-5.052999854E-1,6.276999712E-1,9.225999713E-1
4.544199219E1,-5.503999591E-1,6.633999944E-1,1.826900005E0
4.546199219E1,-2.619000077E-1,7.272999883E-1,2.400099993E0
4.549199062E1,5.101999640E-1,7.592999935E-1,3.004599810E0
4.551199219E1,4.481000006E-1,1.012599945E0,2.889099836E0
4.553199219E1,9.153999686E-1,6.887999773E-1,2.549000025E0
4.556199062E1,2.570899963E0,-2.377999872E-1,3.368000031E0
4.558199062E1,2.088899851E0,-9.149999619E-1,4.150099754E0
4.560199219E1,1.155200005E0,-1.724900007E0,3.601899862E0
4.563199062E1,9.582999945E-1,-1.996899962E0,8.520999551E-1
4.565199062E1,1.999599934E0,-1.763299942E0,-3.109999932E-2
4.567199219E1,2.808499813E0,-1.763000011E0,4.549999908E-2
4.570199062E1,1.905799985E0,-1.645200014E0,6.089999899E-2
4.572199063E1,6.262999773E-1,-1.232499957E0,-5.044999719E-1
4.574199219E1,-4.627999961E-1,-8.549999595E-1,-7.203999758E-1
4.577199219E1,-8.177999854E-1,-6.391999722E-1,-9.402999878E-1
4.579199219E1,-6.758999825E-1,-5.960999727E-1,-1.836699963E0
4.581199219E1,-4.689999819E-1,-1.931999922E-1,-3.019500017E0
4.584199062E1,4.209999740E-2,1.116999984E-1,-4.083399773E0
4.586199063E1,-1.997999996E-1,3.326999843E-1,-3.918699980E0
4.588199219E1,-5.103999972E-1,3.307999969E-1,-3.441399813E0
4.591199062E1,-6.340000033E-1,5.432000160E-1,-2.621399879E0
4.593199063E1,-6.183999777E-1,5.514999628E-1,-2.030099869E0
4.595199219E1,-4.844999909E-1,7.540000081E-1,-1.441499949E0
4.598199062E1,-3.454999924E-1,1.166299939E0,8.060000092E-2
4.600199063E1,-5.109999776E-1,1.241500020E0,9.659999609E-1
4.602199219E1,-7.177999616E-1,1.387699962E0,1.357499957E0
4.605199062E1,9.736999869E-1,7.267999649E-1,2.166800022E0
4.607199063E1,2.108599901E0,3.628999889E-1,2.814299822E0
4.609199219E1,2.561599970E0,6.816999912E-1,3.333499908E0
4.612199062E1,2.412600040E0,9.587000012E-1,4.345799923E0
4.614199063E1,2.088700056E0,2.658999860E-1,5.105400085E0
4.616199219E1,1.422899961E0,-5.593000054E-1,4.743799686E0
4.618199219E1,2.197999954E-1,-1.513099909E0,2.601099968E0
4.620199219E1,-3.607999980E-1,-1.578400016E0,1.837999970E-1
4.623199219E1,2.290999889E-1,-1.324199915E0,-1.032999992E0
4.626199062E1,1.256099939E0,-1.581599951E0,8.007999659E-1
4.628199063E1,5.850999951E-1,-1.698899984E0,9.893999696E-1
4.630199219E1,-1.777999997E-1,-1.497799993E0,4.072999954E-1
4.632199219E1,-3.328999877E-1,-1.533899903E0,-3.865999877E-1
4.635199063E1,-1.216999963E-1,-1.302600026E0,-1.968999982E0
4.637199219E1,2.987000048E-1,-1.105999947E0,-2.874699831E0
4.640199062E1,8.272999525E-1,-7.773000002E-1,-3.562500000E0
4.642199062E1,7.389000058E-1,-6.604999900E-1,-3.657499790E0
4.644199219E1,4.362999797E-1,-5.898000002E-1,-3.880100012E0
4.646199219E1,1.002999991E-1,-3.960999846E-1,-4.005599976E0
4.649199062E1,8.200000040E-3,-9.160000086E-2,-2.774699926E0
4.651199219E1,2.985000014E-1,6.099999882E-3,-1.811199903E0
4.653199219E1,7.256000042E-1,1.490999907E-1,-1.132699966E0
4.656199219E1,4.064999819E-1,3.578999937E-1,-1.289999932E-1
4.659199062E1,2.258999944E-1,5.969999731E-2,2.095499992E0
4.661199063E1,1.530099988E0,-1.112999991E-1,3.446099997E0
4.663199219E1,2.468899965E0,-6.459999830E-2,3.911599874E0
4.666199219E1,2.396100044E0,9.399999678E-2,2.506099939E0
4.669199062E1,2.846899986E0,5.389999971E-2,1.707700014E0
