"Time (s)","Acceleration x (m/s^2)","Acceleration y (m/s^2)","Acceleration z (m/s^2)"
0.000000000E0,-4.340457916E0,1.509228110E0,7.145628929E0
2.199843800E-2,-3.786698341E0,7.788913250E-1,8.389915466E0
4.401093800E-2,-3.865496159E0,2.604795396E-1,9.124762535E0
6.599843800E-2,-4.253174782E0,1.890748888E-1,9.466040611E0
8.599843800E-2,-4.644214630E0,3.995635509E-1,9.516778946E0
1.059984380E-1,-4.798363209E0,5.724632144E-1,9.763305664E0
1.259984380E-1,-4.060853481E0,7.409096956E-1,9.403121948E0
1.460015630E-1,-3.599078894E0,9.567804337E-1,9.016324043E0
1.679968750E-1,-3.507898092E0,9.975393414E-1,8.856698036E0
1.879984380E-1,-3.428104162E0,1.976173967E-1,1.002636147E1
2.099968750E-1,-3.051496267E0,4.498321712E-1,1.036661530E1
2.299968750E-1,-3.569591999E0,1.276751041E0,1.270516682E1
2.499968750E-1,-3.355023623E0,2.838536978E0,1.228340435E1
2.700078130E-1,-9.971753955E-1,1.944101334E0,9.725132942E0
2.919984380E-1,-1.160708964E-1,1.423621058E0,7.830341816E0
3.120031250E-1,4.996220022E-2,1.236863732E0,8.393334389E0
3.339968750E-1,9.566367865E-1,3.811377585E-1,9.846518517E0
3.539984380E-1,2.336223602E0,-1.832129240E0,1.087817001E1
3.759968750E-1,2.771049023E0,-3.598360538E0,1.086901474E1
3.959968750E-1,1.260920644E0,-2.661815882E0,9.636920929E0
4.159968750E-1,-1.478409886E0,-3.601166606E-1,9.529909134E0
4.359968750E-1,-2.744923592E0,3.263459682E0,1.057589722E1
4.559984380E-1,-1.623680592E0,1.981201887E0,1.053515816E1
4.780000000E-1,-4.744828939E-1,9.494446516E-1,1.029028797E1
4.999984380E-1,-7.863324881E-1,1.905842066E0,1.017765522E1
5.219968750E-1,-1.007767394E-1,1.418564439E0,9.766848564E0
5.419968750E-1,1.657936871E-1,1.374654889E0,9.286170006E0
5.619968750E-1,3.038816452E-1,1.088107228E0,9.610286713E0
5.819968750E-1,3.168295026E-1,6.261795163E-1,1.014633942E1
6.019968750E-1,4.963563085E-1,5.538746119E-1,1.033233070E1
6.219968750E-1,8.877891302E-1,8.508130908E-1,9.772825241E0
6.419968750E-1,8.236820102E-1,1.174892187E0,8.921207428E0
6.619984380E-1,7.514154315E-1,1.287477136E0,8.257246971E0
6.840031250E-1,7.410628796E-1,1.584913731E0,7.977671623E0
7.040031250E-1,6.179434657E-1,1.739684463E0,8.208663940E0
7.259984380E-1,8.495585620E-2,1.773509622E0,8.780313492E0
7.479968750E-1,-6.272425652E-1,1.834130883E0,9.055598259E0
7.679968750E-1,-9.884030819E-1,1.967114329E0,8.974099159E0
7.879968750E-1,-6.931405663E-1,2.218199253E0,8.905520439E0
8.079968750E-1,2.274491638E-2,2.345733404E0,8.801622391E0
8.279968750E-1,2.321322113E-1,2.439452171E0,8.881118774E0
8.479968750E-1,-6.983407587E-2,2.522521257E0,9.042860985E0
8.679968750E-1,-2.053746134E-1,2.519619703E0,8.978064537E0
8.879968750E-1,6.302496791E-2,2.591637135E0,8.880075455E0
9.079968750E-1,2.932609916E-1,2.664286852E0,8.991817474E0
9.279968750E-1,-5.512410030E-2,2.688113928E0,8.990820885E0
9.479968750E-1,-4.562199116E-1,2.805755377E0,9.078851700E0
9.679968750E-1,-5.656253695E-1,2.862076759E0,9.044201851E0
9.879968750E-1,-5.170900822E-1,2.967689753E0,9.042037964E0
1.007996875E0,-6.549386382E-1,3.017948627E0,9.223499298E0
1.027996875E0,-6.814759970E-1,2.992301941E0,9.261030197E0
1.047996875E0,-6.963871121E-1,2.922276258E0,9.456799507E0
1.067996875E0,-6.863313913E-1,2.980905533E0,9.691891670E0
1.087996875E0,-6.406883597E-1,3.158881187E0,9.723178864E0
1.107996875E0,-8.314296007E-1,2.817889214E0,9.819167137E0
1.127996875E0,-8.724566698E-1,3.090061903E0,1.061279678E1
1.147996875E0,-8.335652351E-1,3.124366283E0,1.186837387E1
1.167996875E0,-8.609836698E-1,2.528985500E0,1.099054527E1
1.187998438E0,-1.026173949E0,2.247485161E0,9.743002892E0
1.209996875E0,-6.116514802E-1,2.343559504E0,9.940322876E0
1.229996875E0,2.600103058E-2,2.081490278E0,1.080163288E1
1.249996875E0,-2.731401026E-1,1.545505166E0,1.070412064E1
1.269996875E0,-7.359488606E-1,1.221866488E0,1.159535885E1
1.289996875E0,-1.152482510E0,7.865719199E-1,1.175077057E1
1.309996875E0,-1.948669434E0,5.656253695E-1,1.052293777E1
1.329996875E0,-2.506681442E0,5.971330404E-1,8.909782410E0
1.349996875E0,-2.558261871E0,7.316009998E-1,8.126581192E0
1.369996875E0,-1.931201458E0,6.217550039E-1,8.732697487E0
1.389996875E0,-1.296278358E0,2.151908427E-1,9.527964592E0
1.409996875E0,-1.229700327E0,1.464581043E-1,9.977529526E0
1.430000000E0,-1.115056396E0,4.535575956E-2,9.769329071E0
1.451998438E0,-6.358808279E-1,2.746053338E-1,9.899487495E0
1.471998438E0,-9.465140700E-1,7.302027345E-1,9.484964371E0
1.493998438E0,-8.460246921E-1,9.047209620E-1,8.950072289E0
1.514003125E0,-1.269807935E0,1.473497033E0,9.072482109E0
1.535996875E0,-1.461612344E0,1.623881698E0,9.510477066E0
1.555996875E0,-8.197554946E-1,1.415337205E0,9.237414360E0
1.575996875E0,-8.574306369E-1,1.320699096E0,9.266222000E0
1.595998438E0,-8.478251100E-1,1.143777251E0,1.027340412E1
1.617996875E0,-1.198661923E0,1.631677270E0,9.551370621E0
1.637996875E0,-5.626086593E-1,1.885682821E0,7.536151886E0
1.657996875E0,-5.797703266E-1,2.326838493E0,7.140706539E0
1.677996875E0,-8.043847084E-1,2.162002325E0,1.191219711E1
1.697998438E0,-1.469350338E0,2.236376047E0,1.193900299E1
1.719996875E0,-6.747435331E-1,-6.714107394E-1,9.461818695E0
1.739996875E0,2.230792761E0,-6.487137675E-1,1.046872330E1
1.759996875E0,2.403883696E0,-1.597152829E0,8.457680702E0
1.779996875E0,6.306901574E-1,-2.075121641E0,8.593250275E0
1.799996875E0,3.364332020E-2,-2.010583401E0,8.930812836E0
1.819996875E0,3.549940348E0,-1.699844837E0,8.984893799E0
1.839996875E0,4.112788677E0,-1.997166514E0,8.883599281E0
1.859996875E0,2.084497213E0,-1.627310157E0,7.921551228E0
1.879996875E0,1.642949104E0,-1.879467487E0,5.197639465E0
1.899996875E0,7.907474041E-1,-2.501366138E0,-3.301221132E-1
1.919996875E0,3.096373379E-1,-4.821337700E0,4.211420059E0
1.939996875E0,1.068934441E0,-5.638096333E0,6.183533669E0
1.959996875E0,-5.201067924E-1,-6.105741024E0,5.083005428E0
1.979996875E0,-1.238893986E0,-8.190180779E0,2.262606621E0
1.999998438E0,4.214656949E-1,-1.055918694E1,8.495681286E-1
2.019998438E0,4.685146332E0,-1.323994541E1,1.977476597E0
2.041998438E0,1.048010063E1,-1.500310230E1,1.726018310E0
2.063998438E0,1.912409782E1,-1.489637756E1,1.135043129E-1
2.084000000E0,2.634175301E1,-1.300171185E1,-1.740527272E0
2.104004688E0,3.260535049E1,-1.090269661E1,-4.557745934E0
2.125996875E0,3.119973183E1,-9.667585373E0,-6.400878906E0
2.145998438E0,2.636330986E1,-9.342979431E0,-6.392288685E0
2.165998438E0,1.933162689E1,-8.378757477E0,-5.395668983E0
2.185998438E0,1.390020847E1,-7.104228497E0,-3.650496721E0
2.205998438E0,1.081746292E1,-6.322837830E0,-2.319158077E0
2.226003125E0,8.902196884E0,-6.010135651E0,-1.816126466E0
2.247998438E0,1.925867081E0,-5.751993179E0,-5.543314457E0
2.267998438E0,2.499517918E0,-6.207101822E0,-2.480239630E0
2.287998438E0,-3.915764570E0,-6.065327168E0,-6.278171539E-1
2.307998438E0,-1.814575076E0,-7.916849136E0,-2.079795122E0
2.327998438E0,-2.055106163E0,-9.159536362E0,2.774487019E0
2.347998438E0,2.873712480E-1,-7.509710312E0,4.186443806E0
2.368004688E0,4.793181896E0,-7.395622253E0,2.137677193E0
2.390003125E0,8.033417702E0,-7.449702263E0,2.661049843E0
2.411996875E0,7.599627018E0,-4.856992722E0,-4.512150764E0
2.431998438E0,9.490078926E0,-9.700270653E0,-1.584760427E0
2.453998438E0,9.920269966E0,-8.071447372E0,3.100586832E-1
2.475996875E0,5.943461895E0,4.317799211E-1,1.518498540E0
2.495996875E0,4.407687187E0,-2.450513244E-1,2.360883951E0
2.515998438E0,3.050519466E0,-2.323879242E0,2.374329805E0
2.537996875E0,1.426082253E0,-4.934545517E0,1.856425643E0
2.557996875E0,-1.648800492E0,-8.202764511E0,3.438743949E-1
2.577996875E0,-2.829122782E0,-8.526422501E0,-1.059108615E0
2.597996875E0,-4.065718651E0,-8.203875542E0,-2.101371527E0
2.617996875E0,-2.999953747E0,-8.413377762E0,-2.309399128E0
2.637996875E0,2.195061445E0,-1.724727249E1,9.950972795E-1
2.657996875E0,-3.297419071E0,-3.453297043E1,7.681336403E0
2.677996875E0,-1.319046211E1,-3.205390930E1,6.053978443E0
2.697998438E0,-6.928580284E0,-2.310758018E1,-2.437393069E-1
2.717998438E0,9.312677979E-1,-1.227674770E1,7.194767594E-1
2.737998438E0,1.558883905E0,-7.853518009E0,-4.471890032E-1
2.757998438E0,1.056398392E0,-6.448150158E0,-2.001169622E-1
2.777998438E0,1.425114989E0,-5.592184544E0,3.315979004E0
2.799998438E0,1.141555384E-1,-7.892476559E0,1.382009864E0
2.821998438E0,-1.486215115E0,-9.755949974E0,-9.634459019E-1
2.843998438E0,-2.162625074E0,-1.003917503E1,-1.392180443E0
2.863998438E0,-2.523239613E0,-1.011122131E1,-1.133520365E0
2.885998438E0,-2.654326916E0,-1.012422657E1,3.423516750E-1
2.905998438E0,-3.033204556E0,-9.947209358E0,1.267068982E0
2.925998438E0,-3.222116709E0,-8.483298302E0,2.348347902E0
2.945998438E0,-2.401748180E0,-6.817489147E0,4.295954704E0
2.965998438E0,-2.662036419E0,-5.227040291E0,4.418671608E0
2.987998438E0,-2.306028128E0,-6.084509373E0,3.258019924E0
3.007998438E0,-2.155040026E0,-8.109237671E0,1.545629621E0
3.027998438E0,-3.768185973E-1,-1.090247631E1,1.063312888E0
3.047998438E0,1.546673417E0,-1.080675602E1,9.397337437E-1
3.067998438E0,2.095807552E0,-1.101916027E1,3.522732556E-1
3.088003125E0,2.387373447E0,-1.188043022E1,-2.529521883E-1
3.109996875E0,2.560713530E0,-1.135704899E1,-1.147454739E0
3.129998438E0,1.409792066E0,-1.145487595E1,-7.730494142E-1
3.149998438E0,-7.895119488E-2,-1.181565285E1,-5.959742665E-1
3.171998438E0,-1.008677244E0,-1.326257515E1,-1.797087789E-1
3.191998438E0,-1.274759173E0,-1.370103073E1,4.774995893E-2
3.211998438E0,-2.434376478E0,-1.369392395E1,-1.667322218E-2
3.233998438E0,-2.170305490E0,-9.999067307E0,-1.211446881E0
3.253998438E0,-1.383005857E0,-8.747178078E0,-9.343133122E-2
3.273998438E0,-1.062125325E0,-8.556829453E0,3.894408643E-1
3.293998438E0,-6.826347709E-1,-9.362161636E0,1.259302258E0
3.313998438E0,-2.071999550E0,-1.075800991E1,1.233387351E0
3.335998438E0,-3.135561466E0,-1.189850330E1,1.801406980E0
3.355998438E0,-3.298865318E0,-1.109394550E1,1.807976723E0
3.375998438E0,-2.831890345E0,-8.306883812E0,1.873817086E0
3.396003125E0,-2.002778530E0,-1.184009361E1,4.685912609E0
3.417996875E0,-1.994906425E0,-4.855067253E0,1.595543981E0
3.437996875E0,-2.617657185E0,-8.761857986E0,2.901140451E0
3.457996875E0,-7.396646738E-1,-8.582734108E0,5.775867701E-1
3.477996875E0,1.878902435E0,-8.132892609E0,9.165578485E-1
3.497996875E0,-9.568954110E-1,-9.920374870E0,3.391425133E0
3.517996875E0,-3.977171183E0,-8.993789673E0,1.640238881E0
3.537996875E0,-3.954589128E0,-7.949199677E0,-3.196259260E0
3.557996875E0,-5.063114166E0,-8.131810188E0,-3.052281380E0
3.577996875E0,-5.565551758E0,-9.867865562E0,2.011818886E0
3.597996875E0,-3.254017115E0,-7.974990368E0,4.116600037E0
3.617998438E0,-6.004562378E-1,-5.438045979E0,2.054847717E0
3.639996875E0,3.868455291E-1,-6.200963497E0,-2.626391411E0
3.659996875E0,1.282334421E-2,-8.005807877E0,-6.317781448E0
3.679996875E0,4.467484653E-1,-9.140660286E0,-8.607298851E0
3.699996875E0,7.071801424E-1,-1.044101715E1,-9.751841545E0
3.719996875E0,2.272193193E0,-1.103296947E1,-1.091245461E1
3.739996875E0,7.464163303E-1,-8.175585747E0,-7.843433380E0
3.759998438E0,-1.260537624E0,-7.832487106E0,-7.722545624E0
3.781996875E0,-5.483047485E0,-8.255983353E0,-6.392039776E0
3.801996875E0,-5.908708096E0,-1.087096882E1,1.816337109E-1
3.821996875E0,-2.919537306E0,-1.466732979E1,6.665362120E-1
3.841998438E0,1.686475798E-2,-1.529039669E1,-1.810361147E0
3.863998438E0,2.407417744E-1,-1.526420403E1,-1.130570769E0
3.885998438E0,-1.794415951E0,-1.224435902E1,-1.412234306E0
3.905998438E0,-1.930808663E0,-1.040848541E1,-6.577925682E-1
3.927996875E0,-1.382680178E0,-1.115434647E1,-1.207376719E0
3.947998438E0,-1.283924222E0,-1.172101593E1,-1.058026433E0
3.967998438E0,-1.806712508E0,-9.616599083E0,-7.079175711E-1
3.987998438E0,-2.100835562E0,-7.809732914E0,-1.699193716E0
4.009998438E0,-1.434414029E0,-6.513732433E0,-2.078243732E0
4.031998438E0,-1.021663308E0,-5.957070827E0,-2.879611731E0
4.053996875E0,-3.380612936E-3,-6.251289368E0,-2.588218212E0
4.073996875E0,1.085052174E-2,-6.281935215E0,-2.062537909E0
4.093996875E0,-2.253805697E-1,-6.096336365E0,-2.035195827E0
4.113996875E0,-3.554240465E-1,-6.209045887E0,-1.912785172E0
4.133996875E0,-4.144746065E-1,-6.397412300E0,-2.109550238E0
4.153996875E0,-1.016932368E0,-6.555812359E0,-2.440323591E0
4.173996875E0,-7.249068022E-1,-7.237221718E0,-3.215929985E0
4.193996875E0,-8.862856030E-1,-8.205954552E0,-4.351078510E0
4.213998438E0,-8.404797316E-1,-8.931080818E0,-5.350676537E0
4.235996875E0,-2.396978885E-1,-1.014510441E1,-5.365406036E0
4.255996875E0,-5.944324285E-2,-1.132423973E1,-5.691314220E0
4.276000000E0,-5.478890985E-2,-1.193472195E1,-6.140658379E0
4.297996875E0,4.400542751E-2,-1.134482956E1,-6.722037315E0
4.317996875E0,4.186309576E-1,-1.088383961E1,-6.144709110E0
4.337996875E0,3.771059215E-1,-1.041514206E1,-5.738097191E0
4.357996875E0,8.255877495E-1,-1.043906403E1,-5.236837387E0
4.377996875E0,1.234507799E0,-1.056756496E1,-5.751331806E0
4.397996875E0,1.275238037E0,-1.043014812E1,-6.287451267E0
4.417996875E0,1.144916892E0,-9.706946373E0,-4.741496086E0
4.437996875E0,4.016512632E-1,-8.371306419E0,-3.287612438E0
4.457996875E0,-8.433144689E-1,-6.975659847E0,-1.489605188E0
4.477996875E0,-1.749596477E0,-7.346598148E0,-1.268314004E0
4.497996875E0,-3.183033705E0,-1.047483444E1,-2.452773333E0
4.517996875E0,-3.860544920E0,-1.086496353E1,-2.629456043E0
4.537998438E0,-4.360147953E0,-9.462364197E0,-1.363153100E0
4.557998438E0,-4.308499813E0,-1.002761650E1,-1.990050912E0
4.579996875E0,-3.607248068E0,-1.000507259E1,-2.716317654E0
4.599996875E0,-2.582491159E0,-9.889335632E0,-4.257235527E0
4.619996875E0,-1.222996593E0,-9.253187180E0,-5.109102249E0
4.639996875E0,1.707554221E0,-9.995044708E0,-6.273258686E0
4.659996875E0,-1.110430732E-1,-8.596362114E0,-4.388571739E0
4.679996875E0,-7.538192272E-1,-7.380576611E0,-3.519926548E0
4.699996875E0,-5.540278554E-1,-6.323316574E0,-2.116732836E0
4.719996875E0,-7.560888529E-1,-6.050511837E0,-2.258488655E0
4.739996875E0,-1.346680999E0,-6.207590103E0,-2.113850355E0
4.759996875E0,-1.568566084E0,-6.123381138E0,-1.882216096E0
4.779996875E0,-1.479080319E0,-6.090887070E0,-1.946189046E0
4.799996875E0,-9.885754585E-1,-6.588651180E0,-2.605494976E0
4.819996875E0,-1.644146144E-1,-7.414191246E0,-3.432078600E0
4.839996875E0,7.673129439E-1,-8.278230667E0,-4.088875294E0
4.859996875E0,1.009577394E0,-8.078985214E0,-4.731785297E0
4.879996875E0,4.206229150E-1,-8.602759361E0,-5.070478439E0
4.899996875E0,3.326120973E-1,-1.031061077E1,-5.554969311E0
4.919998438E0,2.545553446E0,-1.298862076E1,-9.448122978E0
4.939998438E0,-3.159771860E-1,-1.232386589E1,-7.817298412E0
4.961996875E0,-3.564583063E-1,-1.062744904E1,-7.232490540E0
4.981996875E0,-4.575310230E0,-8.720170975E0,-6.091509819E0
5.001996875E0,-5.539569855E0,-8.784919739E0,2.425125360E0
5.021996875E0,-4.121570110E0,-1.046852207E1,-2.259503841E0
5.041996875E0,-3.704318285E0,-9.951614380E0,-3.117537737E0
5.061996875E0,-5.295255661E0,-1.081763554E1,-2.533276081E0
5.081996875E0,-5.068697453E0,-1.227029324E1,-3.984909356E-1
5.101996875E0,-2.288205624E0,-1.358248806E1,-1.854577422E0
5.121996875E0,-1.799865127E0,-1.324858284E1,-2.195080757E0
5.141996875E0,-1.293922365E-1,-1.245232868E1,-2.672589779E0
5.161996875E0,5.537596941E-1,-1.085037899E1,-3.664411783E0
5.181996875E0,7.576020360E-1,-9.087738037E0,-3.226435900E0
5.201996875E0,8.870708346E-1,-7.814530849E0,-3.101803303E0
5.221996875E0,1.013628364E0,-6.952771664E0,-3.536954165E0
5.241996875E0,8.608592153E-1,-6.490613937E0,-3.541340351E0
5.261996875E0,5.011543036E-1,-6.219839573E0,-3.111150265E0
5.281996875E0,-2.033730596E-1,-6.194796085E0,-2.764192104E0
5.301996875E0,-8.861418962E-1,-6.258308887E0,-2.229135752E0
5.321996875E0,-1.379433751E0,-6.623980522E0,-1.847193599E0
5.341996875E0,-1.667551875E0,-7.323010921E0,-1.207826853E0
5.361996875E0,-1.924631715E0,-7.796708584E0,-1.031833887E0
5.381996875E0,-1.972965837E0,-8.273987770E0,-1.645429492E0
5.401996875E0,-1.308948398E0,-8.983399391E0,-2.500877619E0
5.421996875E0,-4.633642137E-1,-1.010177803E1,-3.680481672E0
5.441996875E0,2.001456916E-1,-1.125471115E1,-5.085887909E0
5.461996875E0,1.005344391E0,-1.183545780E1,-6.193627357E0
5.481996875E0,1.324788451E0,-1.152899075E1,-6.737637520E0
5.501996875E0,6.029078960E-1,-1.093659878E1,-6.024797916E0
5.521996875E0,-2.998498082E-1,-1.125796795E1,-5.224234581E0
5.541996875E0,-8.706370592E-1,-1.134253979E1,-4.710151196E0
5.561998438E0,-1.549326181E0,-1.075736809E1,-4.067049503E0
5.581998438E0,-1.346451163E0,-9.694754601E0,-3.134977341E0
5.604003125E0,-2.155662537E0,-8.181447029E0,-1.782368302E0
5.625998438E0,-3.538610935E0,-1.039633179E1,-7.697262764E-1
5.647996875E0,-4.123868465E0,-1.296066570E1,3.875446618E-1
5.667996875E0,-4.308672428E0,-1.098115921E1,-8.850885183E-2
5.687998438E0,-2.944379568E0,-1.066182995E1,-1.761758924E0
5.709996875E0,-1.419608355E0,-1.021601105E1,-3.103105783E0
5.729998438E0,-3.303519487E-1,-9.277656555E0,-3.863504171E0
5.751996875E0,2.085531712E0,-9.715450287E0,-6.361776829E0
5.771996875E0,1.346020252E-1,-7.276438713E0,-4.370107651E0
5.791996875E0,4.819048941E-1,-6.315626621E0,-2.110479355E0
5.811996875E0,1.636101753E-1,-6.337241173E0,-1.336663723E0
5.831996875E0,-2.262329161E-1,-6.551033497E0,-1.123158336E0
5.851996875E0,-4.999859333E-1,-6.636813641E0,-9.567230344E-1
5.871996875E0,-6.797234416E-1,-6.731729031E0,-1.040146589E0
5.891996875E0,-2.548100948E-1,-7.297986507E0,-1.479903936E0
5.911996875E0,4.546014369E-1,-8.140553474E0,-1.946821213E0
5.931996875E0,1.301047444E0,-8.844880104E0,-2.502381325E0
5.951996875E0,1.583438873E0,-8.715775490E0,-3.358653069E0
5.971996875E0,1.693102837E0,-9.198121071E0,-4.365568161E0
5.991996875E0,3.649050593E-1,-9.775965691E0,-4.996670246E0
6.011996875E0,-3.997742236E-1,-1.027668953E1,-5.426812649E0
6.031996875E0,-2.361257523E-1,-1.110017967E1,-5.727667809E0
6.051996875E0,9.675639868E-1,-1.077457809E1,-7.756418228E0
6.071996875E0,8.583692312E-1,-1.115356064E1,-1.072970104E1
6.091996875E0,-4.114483595E-1,-1.084323406E1,-8.866753578E0
6.111996875E0,-1.337027550E0,-1.037444878E1,-4.003201008E0
6.131996875E0,3.081241846E-1,-1.100464153E1,-5.987515450E-1
6.151996875E0,2.154015303E-1,-9.133314133E0,-1.181557775E0
6.171996875E0,3.190992177E-1,-9.208856583E0,-1.876623154E0
6.191996875E0,-6.187191606E-1,-1.023228264E1,-6.312647462E-1
6.211998438E0,-6.899227500E-1,-1.142560005E1,9.094519019E-1
6.231998438E0,8.456320502E-3,-1.282910919E1,1.694769144E0
6.251998438E0,5.120718479E-1,-1.218019390E1,1.022659302E0
6.273998438E0,5.629630089E-1,-1.046629143E1,-8.575839400E-1
6.293998438E0,2.055948973E-1,-9.919388771E0,-1.679647446E0
6.313998438E0,-1.835873872E-1,-9.188601494E0,-1.741896629E0
6.333998438E0,-2.671354413E-1,-8.714079857E0,-1.603837371E0
6.353998438E0,-1.649509221E-1,-8.587963104E0,-2.014663219E0
6.373998438E0,8.667010814E-2,-8.038627625E0,-2.775195837E0
6.393998438E0,-1.275630593E-1,-7.053576469E0,-3.293703318E0
6.414000000E0,-6.492308974E-1,-6.277778625E0,-3.444106817E0
6.435998438E0,-1.302991629E0,-5.842532158E0,-3.369905949E0
6.455998438E0,-1.583898544E0,-5.856169224E0,-3.513471842E0
6.475998438E0,-1.613624930E0,-6.215261459E0,-3.922037601E0
6.495998438E0,-1.248240948E0,-6.891364574E0,-4.206631184E0
6.515998438E0,-4.587769210E-1,-7.955826759E0,-4.069922447E0
6.537996875E0,4.034996033E-1,-9.684019089E0,-4.179893017E0
6.557996875E0,1.257118702E0,-1.163055229E1,-4.966350079E0
6.577996875E0,2.145750523E0,-1.195242977E1,-5.925649643E0
6.597996875E0,2.906685352E0,-1.132178688E1,-6.774087429E0
6.618001563E0,3.430708885E0,-1.164238930E1,-7.337940693E0
6.639996875E0,2.557409763E0,-1.212717819E1,-7.712193012E0
6.659996875E0,8.607347012E-1,-1.121597290E1,-4.615819931E0
6.679996875E0,3.118591309E-1,-1.074966908E1,-3.056495428E0
6.699996875E0,8.334694803E-2,-1.100019836E1,-2.389987707E0
6.719998438E0,-2.247868031E-1,-1.146095657E1,-1.077304602E0
6.741996875E0,-1.108582377E0,-1.137574291E1,-2.497822791E-1
6.761996875E0,-1.460127831E0,-1.044021416E1,-2.489299327E-1
6.781996875E0,-9.035142660E-1,-9.850156784E0,-8.267178535E-1
6.801996875E0,-3.479541242E-1,-8.966438293E0,-1.085579038E0
6.821996875E0,4.493437707E-2,-8.300170898E0,-7.902302146E-1
6.841996875E0,3.856580257E-1,-7.730168343E0,-1.702756137E-1
6.861996875E0,5.204324126E-1,-7.174206257E0,-1.557667702E-1
6.881996875E0,3.784275353E-1,-7.017855644E0,-8.818036318E-1
6.901998438E0,8.897811174E-2,-6.681316853E0,-2.085895538E0
6.921998438E0,1.804461926E-1,-7.033963203E0,-2.457226515E0
6.943998438E0,-2.451758236E-1,-7.693891525E0,-3.167969465E0
6.963998438E0,1.704671681E-1,-8.064054489E0,-3.677800179E0
6.984006250E0,-5.688623525E-3,-8.660286903E0,-3.624524355E0
7.006010938E0,-7.321851850E-1,-9.187519073E0,-4.070324898E0
7.027996875E0,-1.166206002E0,-9.054152489E0,-4.767660141E0
7.047996875E0,-8.237011433E-1,-9.303121567E0,-5.467284203E0
7.067996875E0,-9.803490043E-1,-9.569145203E0,-6.191022396E0
7.087996875E0,-9.009763598E-1,-9.662960052E0,-7.184089184E0
7.107996875E0,-7.981789708E-1,-9.889202118E0,-8.654722214E0
7.127996875E0,-1.958868742E0,-1.143350124E1,-9.653009415E0
7.147996875E0,-2.131241798E0,-1.212184238E1,-7.597721100E0
7.168007813E0,-1.675845504E0,-1.087995148E1,-4.974777699E0
7.189996875E0,9.329342246E-1,-1.020253658E1,-4.528249741E0
7.209998438E0,1.909960032E0,-9.062685966E0,-3.227881908E0
7.229998438E0,1.402571321E0,-9.476470947E0,-8.256356716E-1
7.251998438E0,1.131796598E0,-1.114093876E1,1.477423549E0
7.273998438E0,1.640219688E0,-1.401082039E1,3.097187281E0
7.293998438E0,1.721440554E0,-1.442666531E1,2.266313076E0
7.315996875E0,2.165067196E0,-1.208460808E1,-2.134861797E-1
7.335996875E0,2.266533136E0,-1.028163052E1,-1.299860001E0
7.355996875E0,1.399602413E0,-8.586651802E0,-2.436301231E0
7.375996875E0,8.359115720E-1,-6.948806763E0,-2.568767786E0
7.395996875E0,1.424549967E-1,-6.045665741E0,-2.416582823E0
7.415996875E0,-9.479123354E-2,-6.159486294E0,-2.058084488E0
7.435996875E0,-8.745539933E-2,-6.661894798E0,-2.126587391E0
7.455998438E0,-2.509410679E-1,-6.693096161E0,-2.301536560E0
7.477996875E0,3.678068519E-1,-6.258280277E0,-2.537451744E0
7.497996875E0,6.786221266E-1,-6.468108177E0,-3.384865046E0
7.517996875E0,4.141586125E-1,-7.105415821E0,-4.043327808E0
7.537996875E0,2.502610981E-1,-7.806945801E0,-4.427941799E0
7.557996875E0,2.418718189E-1,-8.502758980E0,-4.844236374E0
7.577996875E0,2.666182816E-1,-8.668810844E0,-5.361479282E0
7.597996875E0,4.863294065E-1,-9.158674240E0,-5.778980255E0
7.617998438E0,5.398254395E-1,-1.020329285E1,-6.100713253E0
7.639996875E0,3.185533285E-1,-1.092507744E1,-6.261603355E0
7.659996875E0,3.192619979E-1,-1.051990223E1,-6.316727638E0
7.679996875E0,3.323630691E-1,-1.086081696E1,-6.493716717E0
7.699996875E0,7.221199274E-1,-1.188294029E1,-6.238839149E0
7.719996875E0,7.212293148E-2,-1.205765915E1,-5.513473034E0
7.739998438E0,2.719813213E-2,-9.396724701E0,-4.080255985E0
7.761996875E0,4.637089744E-2,-7.863286018E0,-3.711146832E0
7.781996875E0,-9.314785004E-1,-7.878848553E0,-2.505302191E0
7.801996875E0,-2.669764757E0,-1.025073624E1,-2.253738880E0
7.821996875E0,-2.919144869E0,-1.144845963E1,-1.576792479E0
7.841996875E0,-2.368823290E0,-1.218576813E1,-1.518651724E0
7.861996875E0,-1.294851303E0,-1.174795532E1,-2.145185471E0
7.881996875E0,-5.250867605E-1,-1.080902576E1,-1.947328687E0
7.901996875E0,-4.720695615E-1,-9.774721146E0,-1.205308199E0
7.921996875E0,-7.831146121E-1,-8.743739128E0,-2.709949017E-1
7.941996875E0,-6.394912601E-1,-8.012875557E0,1.795172393E-1
7.961996875E0,-3.783796430E-1,-7.717977524E0,-3.307924867E-1
7.981996875E0,9.329725057E-2,-7.617516518E0,-1.260422707E0
8.001996875E0,4.879766107E-1,-7.357066154E0,-2.630298853E0
8.021996875E0,8.862090111E-1,-7.335278511E0,-3.480776548E0
8.041996875E0,1.609162092E0,-7.190889359E0,-3.300627232E0
8.061996875E0,1.860572338E0,-7.397422314E0,-3.250406504E0
8.081996875E0,2.051821232E0,-7.695213318E0,-2.974747896E0
8.101996875E0,2.138146639E0,-7.735368729E0,-3.412695169E0
8.121996875E0,2.153067350E0,-8.005741119E0,-4.147705555E0
8.141996875E0,2.559095144E0,-8.448429108E0,-4.436685562E0
8.161996875E0,2.757641554E0,-9.285231590E0,-5.539454937E0
8.181996875E0,1.650696754E0,-9.530302048E0,-6.812681675E0
8.201998438E0,7.167090178E-1,-9.496285439E0,-7.819530010E0
8.223998438E0,2.221311569E0,-9.906181335E0,-9.851698875E0
8.245998438E0,2.623154640E0,-9.389436722E0,-7.867433071E0
8.267996875E0,1.776267767E0,-1.062711430E1,-7.957914352E0
8.288000000E0,-2.333676338E0,-1.119573689E1,-4.010240078E0
8.309998438E0,2.293453664E-1,-1.301224709E1,2.645114064E-1
8.329998438E0,-4.487116933E-1,-1.196163273E1,-1.124997020E0
8.351996875E0,-9.979798794E-1,-1.191363335E1,5.566135645E-1
8.371996875E0,-7.795999646E-1,-1.308080769E1,6.134614944E-1
8.391996875E0,-3.039487004E-1,-1.357149410E1,-2.158899605E-1
8.411996875E0,3.380421102E-1,-1.269641304E1,-4.303050935E-1
8.431996875E0,4.942015409E-1,-1.069028282E1,-1.259560823E0
8.451996875E0,3.271436989E-1,-9.575369835E0,-2.161073446E0
8.471996875E0,-9.283756465E-2,-7.985131741E0,-2.370939732E0
8.491996875E0,5.228936672E-3,-6.920402050E0,-2.939409494E0
8.511996875E0,1.220947132E-1,-6.289548874E0,-3.193750143E0
8.531996875E0,-3.271436989E-1,-5.810603142E0,-2.877112150E0
8.551996875E0,-1.056369662E0,-5.775551796E0,-2.942943096E0
8.571996875E0,-1.214540124E0,-5.795950890E0,-3.100280523E0
8.591996875E0,-1.165516615E0,-5.855585575E0,-3.258182764E0
8.611996875E0,-1.320794940E0,-6.041940212E0,-3.129805803E0
8.631996875E0,-1.386242747E0,-6.276600838E0,-3.194774866E0
8.651996875E0,-1.454726577E0,-6.713370323E0,-3.203691006E0
8.671996875E0,-1.340417743E0,-7.560151577E0,-2.914442539E0
8.691996875E0,-1.041832089E0,-9.018010139E0,-2.671967268E0
8.711996875E0,-3.746638596E-1,-1.047576237E1,-3.133866549E0
8.731996875E0,6.303167343E-1,-1.210762215E1,-4.391301155E0
8.751996875E0,1.468871474E0,-1.242566681E1,-5.494319439E0
8.771996875E0,1.791140676E0,-1.185186291E1,-5.621394157E0
8.791996875E0,1.721670389E0,-1.225021076E1,-6.069071293E0
8.811996875E0,2.119644403E0,-1.335947227E1,-4.986537933E0
8.831996875E0,1.626362085E0,-1.319547939E1,-5.535384655E0
8.851996875E0,7.939555645E-1,-1.134541321E1,-6.164465904E0
8.871996875E0,1.064232230E0,-9.951164246E0,-6.244911194E0
8.891996875E0,4.374589622E-1,-7.963976383E0,-5.000338078E0
8.911996875E0,-6.325001717E-1,-7.945896149E0,-3.411536455E0
8.931996875E0,-2.279021502E0,-9.113011360E0,-3.497986078E0
8.951996875E0,-3.903372288E0,-9.840149879E0,-2.890758991E0
8.971996875E0,-4.139115334E0,-1.053394127E1,-1.082734585E0
8.991996875E0,-3.228734016E0,-1.041645336E1,-1.235044241E0
9.011996875E0,-1.891716242E0,-9.691555977E0,-1.727043033E0
9.031998438E0,-1.798533916E0,-8.881818771E0,-7.818217874E-1
9.051998438E0,-1.750017881E0,-8.274323463E0,-2.602593005E-1
9.074006250E0,-1.274845362E0,-7.713485718E0,-8.386696577E-1
9.095998438E0,-7.156747580E-1,-7.513235092E0,-1.903179646E0
9.117998438E0,3.516603410E-1,-7.364468575E0,-3.732876539E0
9.139996875E0,1.213209033E0,-7.194566250E0,-4.918571472E0
9.159996875E0,1.440591216E0,-7.067855835E0,-4.834419727E0
9.179996875E0,9.101126790E-1,-6.577733994E0,-2.630461454E0
9.199996875E0,1.181174517E0,-7.148856640E0,-1.940069556E0
9.219996875E0,9.894086123E-1,-7.570121288E0,-1.748744011E0
9.239996875E0,1.497008204E0,-7.988732815E0,-2.562925816E0
9.259996875E0,2.251066685E0,-8.287088394E0,-4.132593155E0
9.279996875E0,3.225305557E0,-8.474880219E0,-5.240524292E0
9.299996875E0,3.929890633E0,-9.093819618E0,-6.002704144E0
9.319998438E0,3.156735897E0,-1.124459743E1,-5.706464767E0
9.339998438E0,2.149427891E0,-1.197104645E1,-4.866951942E0
9.361996875E0,-6.578309089E-2,-1.397626781E1,-6.124760628E0
9.381996875E0,-2.248586416E0,-1.335176373E1,-5.299632549E0
9.401996875E0,-3.184728861E0,-1.262912655E1,-6.578212976E-1
9.421996875E0,-2.046649694E0,-1.174613571E1,-1.718500495E0
9.441996875E0,-1.497036815E0,-1.238374043E1,-3.054953337E0
9.461996875E0,-3.652507782E0,-1.324034786E1,-1.614142060E0
9.481996875E0,-2.455742121E0,-1.346318913E1,-3.705649674E-1
9.501996875E0,-1.055277944E0,-1.148129845E1,-4.632301331E-1
9.521996875E0,-1.801110059E-1,-9.979559898E0,-2.316744328E0
9.541996875E0,-2.210901678E-1,-7.802052021E0,-2.589568615E0
9.561996875E0,-1.346499100E-2,-6.508139133E0,-2.877284765E0
9.581996875E0,7.438688874E-1,-5.865535736E0,-2.973225117E0
9.601996875E0,1.045260668E0,-5.353626251E0,-2.277211428E0
9.621996875E0,9.093656540E-1,-5.206315994E0,-2.370987654E0
9.641996875E0,3.890290558E-1,-4.904224873E0,-2.496845961E0
9.661996875E0,-1.507676691E-1,-5.250791073E0,-2.485535622E0
9.681996875E0,-8.580627441E-1,-5.816597939E0,-2.532279968E0
9.701996875E0,-1.514926434E0,-6.725169182E0,-2.842597485E0
9.721996875E0,-1.608242750E0,-7.875439167E0,-3.085675716E0
9.741996875E0,-9.343707561E-1,-8.776195526E0,-2.885022640E0
9.761996875E0,-1.137916148E-1,-9.594456673E0,-3.416592836E0
9.781996875E0,8.800798059E-1,-1.032116413E1,-4.218066216E0
9.801996875E0,9.724193811E-1,-1.117125893E1,-5.526325226E0
9.821996875E0,1.526744127E0,-1.143164253E1,-6.401051044E0
9.841996875E0,2.150261164E0,-1.132562828E1,-5.950999260E0
9.861996875E0,2.597392797E0,-1.120487309E1,-5.297094822E0
9.881996875E0,2.702747345E0,-1.191637325E1,-5.251518726E0
9.901996875E0,2.674715996E0,-1.278853226E1,-4.294384003E0
9.921998438E0,1.163323522E0,-1.174715042E1,-3.831795454E0
9.943996875E0,2.597229779E-1,-9.636929512E0,-3.727542162E0
9.964014063E0,8.053424358E-1,-8.777536392E0,-3.333045006E0
9.985998438E0,4.050989076E-2,-8.459414482E0,-2.574418068E0
1.000599844E1,-1.794396758E0,-9.969005585E0,-2.634933949E0
1.002599844E1,-3.752259970E0,-1.074650860E1,-2.536283255E0
1.004799688E1,-4.600037098E0,-1.116647053E1,-2.919049025E0
1.006799688E1,-3.834189415E0,-1.124858189E1,-3.459094763E0
1.008799688E1,-7.106660604E-1,-9.785293579E0,-2.647987127E0
1.010799688E1,-3.500322998E-1,-8.861554146E0,-2.182985067E0
1.012799844E1,-2.565530837E-1,-7.870679855E0,-1.094025612E0
1.014999688E1,7.491648793E-1,-7.042946339E0,-2.150816679E0
1.016999688E1,1.681553245E0,-6.558532715E0,-3.589147806E0
1.018999688E1,1.435429335E0,-6.268872738E0,-3.443312168E0
1.020999688E1,1.018072009E0,-5.886528015E0,-2.228216648E0
1.022999688E1,1.206208348E0,-7.053644180E0,6.407841444E-1
1.024999688E1,9.608793259E-1,-6.612622261E0,-9.161652327E-1
1.026999688E1,1.298720360E0,-6.573577404E0,-8.148617744E-1
1.028999688E1,1.175016761E0,-7.891968727E0,-1.389307380E0
1.030999688E1,1.101045489E0,-8.184856415E0,-1.841562510E0
1.032999688E1,1.047128081E0,-8.745243073E0,-2.247073174E0
1.034999688E1,1.199868560E0,-9.293419838E0,-3.275756359E0
1.036999688E1,1.006570220E0,-9.844784737E0,-4.457266331E0
1.038999688E1,-2.533065379E-1,-1.059038734E1,-5.633901596E0
1.040999688E1,1.241211653E0,-1.254780102E1,-9.429601669E0
1.042999688E1,2.623767376E0,-1.276286697E1,-1.116611576E1
1.044999844E1,2.579397917E0,-1.138320351E1,-9.052466393E0
1.046999844E1,2.444326639E0,-1.268200016E1,-8.555622101E0
1.048999844E1,-8.635406196E-2,-1.182938671E1,-8.235919952E0
1.050999844E1,-3.585747957E0,-9.597444534E0,-2.206975073E-1
1.053199688E1,-1.854050636E0,-1.066124630E1,-4.754501581E-1
1.055199688E1,-8.463024497E-1,-9.960349083E0,-2.218179941E0
1.057199688E1,-4.189086854E-1,-1.064053154E1,-2.617264748E0
1.059199688E1,-2.269674540E0,-1.137179661E1,-4.887714982E-1
1.061199688E1,-2.321906567E0,-1.281889057E1,4.984440506E-1
1.063199688E1,-1.370824128E-1,-1.246335220E1,9.083313942E-1
1.065199688E1,3.143778443E-1,-1.158185482E1,3.030580580E-1
1.067199688E1,-1.771326214E-1,-9.930851936E0,-9.718064666E-1
1.069199688E1,-3.127210438E-1,-8.158204079E0,-2.087973595E0
1.071199688E1,-1.934514940E-1,-7.221841335E0,-2.955603838E0
1.073199844E1,2.973694205E-1,-7.059044838E0,-3.254467010E0
1.075399688E1,6.640079021E-1,-7.019933701E0,-2.443206310E0
1.077399844E1,2.014960200E-1,-6.617267132E0,-1.113409162E0
1.079599688E1,-3.679983914E-1,-6.435020447E0,-1.243979335E0
1.081599688E1,-4.454939067E-1,-6.140351772E0,-1.630834460E0
1.083599688E1,-5.245887637E-1,-5.980284691E0,-2.532011986E0
1.085599688E1,-9.635704160E-1,-5.897091389E0,-3.181989670E0
1.087599688E1,-1.183022976E0,-6.621854305E0,-3.562591314E0
1.089599688E1,-9.165770411E-1,-7.506521702E0,-2.693390608E0
1.091599688E1,-5.459641814E-1,-8.994881630E0,-2.388072491E0
1.093599688E1,4.297017455E-1,-1.057380009E1,-3.106457472E0
1.095599688E1,9.620381594E-1,-1.211282253E1,-4.528306961E0
1.097599688E1,1.397686958E0,-1.246533489E1,-5.098174572E0
1.099599844E1,2.129967928E0,-1.206601048E1,-6.093138218E0
1.101799688E1,2.360424280E0,-1.275531101E1,-7.430653572E0
1.103799688E1,1.342122436E0,-1.375812721E1,-7.033542156E0
1.105799844E1,1.196009040E0,-1.223204422E1,-4.827438354E0
1.107999688E1,6.739869118E-1,-1.044865036E1,-3.829851389E0
1.109999688E1,-3.103843033E-1,-1.115073586E1,-3.006437540E0
1.111999688E1,-2.230467081E0,-1.171307659E1,-2.626803160E0
1.113999688E1,-3.458625555E0,-1.233663177E1,-1.424272299E0
1.115999688E1,-4.153154850E0,-1.163600159E1,-1.456546187E0
1.117999688E1,-3.264149189E0,-1.029765320E1,-2.116934061E0
1.119999688E1,-2.609277487E0,-9.617162704E0,-1.635163069E0
1.121999688E1,-2.476887941E0,-8.731529236E0,-4.797501266E-1
1.123999688E1,-2.226444721E0,-7.694313049E0,4.832935631E-1
1.125999688E1,-1.134459019E0,-7.348590374E0,-1.119720265E-1
1.127999844E1,3.433381021E-1,-6.966437340E0,-1.548406839E0
1.129999844E1,1.655513883E0,-6.984757900E0,-2.910324574E0
1.132199844E1,1.345876575E0,-6.539924622E0,-2.391989470E0
1.134199844E1,1.271809578E0,-6.012108326E0,-1.247522712E0
1.136399688E1,1.430382371E0,-6.519765854E0,-3.855143487E-1
1.138399688E1,1.059108615E0,-6.747118950E0,-2.032198310E-1
1.140400313E1,9.011870623E-1,-7.071705341E0,-9.534285665E-1
1.142600313E1,8.525561094E-1,-7.688681602E0,-1.945394158E0
1.144799844E1,1.195041895E0,-8.881242752E0,-2.697077990E0
1.146799844E1,1.907058239E0,-9.675534248E0,-4.080715656E0
1.148800312E1,1.832359076E0,-9.949201584E0,-5.116887569E0
1.150999688E1,3.188597858E-1,-1.047426891E1,-5.925208569E0
1.152999688E1,1.393080592E0,-1.157563972E1,-7.851315498E0
1.154999688E1,2.244171381E0,-1.235580444E1,-1.130204964E1
1.156999688E1,6.244556904E-1,-1.310029602E1,-1.106049347E1
1.158999688E1,-1.132706404E0,-1.284856892E1,-1.009617615E1
1.160999688E1,-1.402322292E0,-1.039073944E1,-5.080285072E0
1.162999688E1,-2.166695118E0,-9.259038925E0,3.080121279E0
1.164999688E1,-1.599336267E0,-8.927327156E0,-8.400295973E-1
1.166999688E1,-2.907231152E-1,-9.685906410E0,-3.208910227E0
1.168999688E1,-8.982086778E-1,-1.223432350E1,-2.810007572E0
1.170999688E1,-2.520529270E0,-1.097328758E1,-6.845022440E-1
1.172999688E1,-1.063676715E0,-1.253352165E1,8.441668153E-1
1.174999688E1,1.235408068E0,-1.278134060E1,-3.179212511E-1
1.176999688E1,9.561579823E-1,-1.076556683E1,-9.820440412E-1
1.178999688E1,-4.330440462E-1,-8.931157112E0,-1.313976169E0
1.180999688E1,-9.850894809E-1,-7.536525249E0,-1.718088746E0
1.182999688E1,-9.663381577E-1,-6.842474937E0,-2.189622164E0
1.184999688E1,-7.858727574E-1,-6.409890652E0,-2.759853840E0
1.186999688E1,-7.567592710E-2,-6.597855091E0,-3.401404142E0
1.188999688E1,3.431082368E-1,-6.770045757E0,-2.914088249E0
1.190999688E1,3.968245685E-1,-6.853765965E0,-2.119031191E0
1.192999688E1,2.096458673E-1,-6.628768444E0,-1.988652706E0
1.194999688E1,-1.545505077E-1,-6.186636448E0,-2.562829971E0
1.196999688E1,-5.430432558E-1,-6.402918816E0,-2.688918352E0
1.198999688E1,-5.727696419E-1,-6.971924782E0,-2.502026796E0
1.200999688E1,-5.786689520E-1,-7.810077667E0,-2.615282297E0
1.202999688E1,3.419398665E-1,-8.268059731E0,-2.863819599E0
1.204999688E1,4.849311709E-1,-9.514318466E0,-3.780636072E0
1.206999688E1,1.143614411E0,-1.085150909E1,-4.837312222E0
1.208999688E1,1.534922719E0,-1.216454601E1,-5.316525936E0
1.210999688E1,1.899770260E0,-1.260739613E1,-5.746275425E0
1.212999688E1,2.830760479E0,-1.249352837E1,-6.226026058E0
1.214999688E1,2.709259510E0,-1.319094086E1,-5.961092949E0
1.216999688E1,1.721067190E0,-1.291778088E1,-5.292114735E0
1.218999688E1,1.210632920E0,-1.128511715E1,-5.665791988E0
1.220999688E1,1.239372969E0,-9.445843697E0,-4.890846729E0
1.222999688E1,3.198366165E-1,-9.394560814E0,-3.999447107E0
1.224999688E1,-1.180590510E0,-1.005372238E1,-2.976241589E0
1.226999844E1,-3.195158005E0,-1.138972473E1,-2.500054121E0
1.228999844E1,-4.399259090E0,-1.164780045E1,-2.093145370E0
1.231199688E1,-2.906991720E0,-1.129742336E1,-2.627215147E0
1.233199688E1,-1.972199678E0,-1.041489220E1,-2.326302290E0
1.235199688E1,-2.021951199E0,-9.204277992E0,-1.542967319E0
1.237199688E1,-1.900670528E0,-7.964934349E0,-1.600188613E-1
1.239199688E1,-1.337506413E0,-7.114284039E0,-1.207060665E-1
1.241199688E1,-7.286992669E-2,-6.689916611E0,-1.631887913E0
1.243199688E1,1.160239697E0,-6.801496029E0,-2.588179827E0
1.245199688E1,1.373304605E0,-7.078371048E0,-3.521956682E0
1.247199688E1,9.322829843E-1,-6.740798473E0,-2.209771395E0
1.249199688E1,9.168068767E-1,-6.762020588E0,-1.071548939E0
1.251199688E1,3.117346466E-1,-6.655009270E0,-5.422770977E-1
1.253199688E1,8.260953426E-2,-6.771549225E0,-6.305944324E-1
1.255199688E1,2.662831247E-1,-7.038752079E0,-1.360739708E0
1.257199688E1,1.588888019E-1,-7.456645489E0,-1.735652566E0
1.259199688E1,7.277320027E-1,-8.290517807E0,-2.683028460E0
1.261199688E1,1.768079638E0,-9.162178993E0,-3.750220060E0
1.263199688E1,2.208220243E0,-1.043845081E1,-5.111122608E0
1.265199688E1,1.288023114E0,-1.062901115E1,-6.004600525E0
1.267199688E1,3.407935619E0,-1.222974491E1,-9.359097481E0
1.269199688E1,3.746600151E0,-1.225919342E1,-1.368891525E1
1.271199688E1,2.236739635E0,-1.155879402E1,-1.217311764E1
1.273199688E1,5.078101754E-1,-1.117261887E1,-1.126455688E1
1.275199688E1,-2.394699812E0,-9.331305504E0,-4.585221767E0
1.277199688E1,-1.982590556E0,-9.715929031E0,3.851092577E0
1.279199844E1,-2.231166363E0,-1.012978172E1,9.214133024E-1
1.281399688E1,-8.321478963E-1,-1.042151928E1,-2.255022049E0
1.283399844E1,-2.128474236E0,-1.146646404E1,-1.369981289E0
1.285599688E1,-2.429118633E0,-1.337106133E1,1.542105317E0
1.287599844E1,-9.957580566E-1,-1.441595840E1,1.138960123E0
1.289599844E1,1.089246869E0,-1.359504318E1,3.402064741E-1
1.291799844E1,1.342199087E0,-1.079182625E1,-1.604201317E0
1.293999688E1,4.308797121E-1,-8.930449486E0,-2.325191259E0
1.295999688E1,-3.996497095E-1,-7.693623543E0,-2.387411833E0
1.297999688E1,-4.345667660E-1,-6.766694069E0,-2.786065340E0
1.299999688E1,2.668098509E-1,-6.144948959E0,-3.090330362E0
1.301999844E1,4.332930744E-1,-5.577675819E0,-3.130255938E0
1.304199844E1,3.296720088E-1,-5.068209171E0,-3.349038124E0
1.306400469E1,-3.023397736E-2,-4.812077045E0,-3.493073225E0
1.308599688E1,-6.395870447E-1,-4.795394421E0,-3.370059013E0
1.310599688E1,-9.150351286E-1,-5.194632530E0,-3.104465485E0
1.312599688E1,-7.307678461E-1,-6.147879124E0,-2.743487120E0
1.314599688E1,-3.963265717E-1,-7.285374165E0,-2.456201792E0
1.316599844E1,4.890875146E-2,-8.700537682E0,-2.485995293E0
1.318799688E1,2.653445601E-1,-1.056411839E1,-3.123111486E0
1.320799688E1,6.143617630E-1,-1.267264366E1,-4.380297184E0
1.322799688E1,1.362434864E0,-1.371076965E1,-5.407055855E0
1.324799688E1,2.260049820E0,-1.354132748E1,-6.137833118E0
1.326799688E1,2.940769196E0,-1.270043564E1,-6.115193367E0
1.328799688E1,3.254323483E0,-1.288014412E1,-5.050443649E0
1.330799688E1,2.661212683E0,-1.328897858E1,-4.913677692E0
1.332799688E1,2.188798428E0,-1.218346024E1,-4.344709873E0
1.334799688E1,2.379099131E0,-9.939576149E0,-3.823243141E0
1.336799688E1,2.173456192E0,-8.301635742E0,-3.188483000E0
1.338799688E1,1.309522986E0,-8.576585770E0,-2.549413204E0
1.340799688E1,-1.004855990E0,-1.183280563E1,-3.313738108E0
1.342799688E1,-3.256028175E0,-1.233383465E1,-2.510329962E0
1.344799688E1,-4.078934193E0,-1.186228275E1,-2.303154945E0
1.346799688E1,-2.519667387E0,-1.069091511E1,-2.543532848E0
1.348800156E1,-2.066875935E0,-9.191532135E0,-1.715732813E0
1.350999688E1,-2.002175093E0,-8.157974243E0,-3.335410058E-1
1.352999688E1,-1.128952265E0,-7.157743454E0,2.243366987E-1
1.354999688E1,8.879998326E-1,-6.895645618E0,-1.959931731E0
1.356999688E1,2.280620813E0,-6.774001122E0,-4.012883186E0
1.358999688E1,1.601194263E0,-6.189087868E0,-3.439644337E0
1.360999688E1,1.616555452E0,-5.598831177E0,-1.467798829E0
1.362999688E1,1.057940364E0,-6.296635628E0,-6.025343537E-1
1.364999688E1,2.492747009E-1,-6.519689083E0,-1.467262506E-1
1.366999688E1,-1.832330525E-1,-6.742790222E0,-2.443139255E-1
1.368999688E1,-1.238472685E-1,-7.454691887E0,-1.320306540E0
1.370999688E1,7.995580435E-1,-8.084117889E0,-1.920465827E0
1.372999688E1,1.298078775E0,-8.899505615E0,-2.879458427E0
1.374999688E1,1.534491658E0,-9.410811424E0,-3.826068401E0
1.376999688E1,1.533965111E0,-9.777469635E0,-4.843049049E0
1.378999688E1,1.102367043E0,-1.059054089E1,-7.098501682E0
1.380999844E1,3.227431774E0,-1.235342026E1,-9.739468575E0
1.383199688E1,3.199256897E0,-1.349782944E1,-1.336629200E1
1.385199688E1,5.112099648E-1,-1.159729290E1,-1.165040493E1
1.387199688E1,-4.278534353E-1,-1.070668888E1,-1.318257999E1
1.389199688E1,-2.915208817E0,-7.427350044E0,-1.749251604E0
1.391199688E1,-1.863541245E0,-8.789086342E0,3.285677910E0
1.393199688E1,-1.939686388E-1,-1.144316387E1,6.150320768E-1
1.395199688E1,-5.746179819E-1,-1.287932968E1,-2.752134800E0
1.397199688E1,-2.229748726E0,-1.274730492E1,-4.007702172E-1
1.399199688E1,-3.029565334E0,-1.386674690E1,1.700754642E0
1.401199688E1,-8.343792558E-1,-1.416207600E1,1.182256818E0
1.403199688E1,1.590717196E0,-1.273194313E1,-4.108450115E-1
1.405199688E1,1.095213294E0,-1.056409836E1,-1.138835549E0
1.407199688E1,-1.147301495E-2,-8.930784225E0,-5.846832395E-1
1.409199688E1,-1.891419441E-1,-7.865230560E0,-3.824785054E-1
1.411199688E1,-6.645346433E-2,-7.007110119E0,-9.564356804E-1
1.413199688E1,5.488467962E-2,-5.992763519E0,-1.894167900E0
1.415199688E1,2.978099585E-1,-5.080888748E0,-2.806377888E0
1.417199688E1,-1.063217074E-1,-4.535652161E0,-3.049073219E0
1.419199688E1,-5.084326863E-1,-4.566461086E0,-2.651616812E0
1.421199688E1,-6.431113482E-1,-4.577435970E0,-3.173610210E0
1.423199688E1,-1.118360400E0,-4.728347301E0,-3.687262297E0
1.425199688E1,-9.560813308E-1,-5.898278713E0,-3.924680710E0
1.427199688E1,-1.502217799E-1,-7.375395775E0,-3.899790764E0
1.429199688E1,5.560964346E-1,-9.094116211E0,-3.541120052E0
1.431199688E1,1.513508916E0,-1.103458786E1,-4.326398849E0
1.433199688E1,2.475911140E0,-1.207202435E1,-4.752710342E0
1.435199688E1,3.447631359E0,-1.310572529E1,-5.197812080E0
1.437199688E1,4.361546040E0,-1.352938461E1,-5.398991585E0
1.439199688E1,4.651416779E0,-1.335398579E1,-5.554011822E0
1.441199688E1,3.587615490E0,-1.315356255E1,-5.032870770E0
1.443199688E1,2.204839706E0,-1.362931824E1,-4.602652073E0
1.445199688E1,1.380439162E0,-1.253069592E1,-3.498828888E0
1.447199688E1,1.270602822E0,-1.040265369E1,-3.509305954E0
1.449199688E1,1.173321605E0,-9.432494164E0,-3.680749893E0
1.451199688E1,-8.270242810E-1,-9.523971558E0,-2.702431202E0
1.453199688E1,-3.635595322E0,-1.103541183E1,-1.434289694E0
1.455199688E1,-4.347975731E0,-1.147072601E1,-3.293176591E-1
1.457199688E1,-2.825320721E0,-1.090901756E1,-8.106575608E-1
1.459199688E1,-1.291384578E0,-1.043805885E1,-1.577146888E0
1.461199844E1,-2.734082639E-1,-9.308474541E0,-2.270210743E0
1.463399844E1,4.577426314E-1,-7.832602024E0,-2.710063934E0
1.465599688E1,1.320574641E0,-7.259161949E0,-2.454736710E0
1.467599688E1,1.776306152E0,-7.016236782E0,-2.145396233E0
1.469599688E1,1.945796490E0,-6.936787605E0,-2.068092346E0
1.471599688E1,1.805716515E0,-6.866685390E0,-1.074326158E0
1.473599688E1,1.736476183E0,-7.361643791E0,-2.320268750E-1
1.475599688E1,1.222785830E0,-7.759684086E0,-4.843374193E-1
1.477599688E1,9.214611650E-1,-7.558456421E0,-9.122195840E-1
1.479599688E1,7.462726235E-1,-7.089576244E0,-1.816519141E0
1.481599688E1,7.616146803E-1,-6.999352932E0,-1.610636950E0
1.483599688E1,9.439380169E-1,-7.279426575E0,-1.010209441E0
1.485599688E1,1.105067730E0,-8.332003593E0,-1.637040138E0
1.487599844E1,1.117575049E0,-9.220032692E0,-3.932706118E0
1.489599844E1,6.864080429E-1,-9.797916412E0,-6.978427887E0
1.491799844E1,1.751253128E0,-1.086378574E1,-7.818830490E0
1.493799844E1,2.559526205E0,-1.243463039E1,-6.505543709E0
1.495799844E1,3.306373358E0,-1.460238934E1,-9.450373650E0
1.497799844E1,7.791594267E-1,-1.278990269E1,-1.112315464E1
1.499799844E1,8.726865053E-1,-1.069468880E1,-7.938330173E0
1.501999688E1,-4.580874145E-1,-9.894948006E0,-7.777228951E-1
1.503999688E1,6.829507947E-1,-9.415304184E0,3.016310930E-1
1.505999688E1,1.052960277E0,-9.626921654E0,-1.751617074E0
1.507999688E1,-4.002722204E-1,-9.921955109E0,-1.327240109E0
1.509999688E1,-4.792808890E-1,-1.173104191E1,3.232363760E-1
1.511999688E1,2.618969381E-1,-1.354563713E1,1.204599500E0
1.513999688E1,1.267001987E0,-1.281758881E1,9.556599855E-1
1.515999688E1,1.404170513E0,-1.086850739E1,-2.127487659E-1
1.517999688E1,9.812396169E-1,-9.437828064E0,-7.726280689E-1
1.519999688E1,4.695604146E-1,-8.169112206E0,-1.157079339E0
1.521999844E1,4.652221203E-1,-7.460533619E0,-1.238846183E0
1.524199688E1,7.164217234E-1,-6.960633755E0,-1.360730171E0
1.526199844E1,1.004310131E0,-6.717919350E0,-1.761577010E0
1.528400469E1,1.047367454E0,-6.643440247E0,-2.313909769E0
1.530599844E1,6.376429200E-1,-6.612823009E0,-2.581112385E0
1.532599844E1,1.208209917E-1,-6.513818264E0,-2.626448631E0
1.534799688E1,-3.485670388E-1,-6.318624020E0,-2.608003855E0
1.536799688E1,-4.936843812E-1,-6.380451679E0,-2.765753269E0
1.538799688E1,-4.674726427E-1,-6.813677788E0,-2.859548330E0
1.540799844E1,-2.728432417E-1,-7.825132370E0,-2.955488682E0
1.542799844E1,4.494970143E-1,-8.915422440E0,-3.297218084E0
1.544999688E1,1.375593424E0,-1.039211941E1,-4.213651180E0
1.546999688E1,1.965668321E0,-1.188445282E1,-5.686219215E0
1.548999688E1,2.756339073E0,-1.217100143E1,-6.053873062E0
1.550999688E1,3.238215446E0,-1.227324295E1,-6.005701542E0
1.552999688E1,3.777954578E0,-1.363555336E1,-6.753679276E0
1.554999688E1,3.089860916E0,-1.488269329E1,-6.058967590E0
1.556999688E1,1.496529341E0,-1.293820858E1,-4.714211941E0
1.558999688E1,1.252004623E0,-1.017936039E1,-3.693419933E0
1.560999688E1,1.097320080E0,-8.214621544E0,-3.078972101E0
1.562999688E1,7.294270396E-1,-9.011315346E0,-2.197896242E0
1.564999688E1,-1.011128902E0,-1.035698128E1,-1.156830311E0
1.566999688E1,-3.026366711E0,-1.069769573E1,-1.858762354E-1
1.568999688E1,-3.253499746E0,-1.085196781E1,-4.127124846E-1
1.570999688E1,-1.883738756E0,-1.024911785E1,-1.418736935E0
1.572999688E1,-5.523040295E-1,-9.586967468E0,-2.109990835E0
1.574999688E1,1.320067048E-1,-8.782515526E0,-1.151505589E0
1.576999688E1,1.669620574E-1,-8.191473961E0,-1.146726832E-1
1.578999688E1,2.730826437E-1,-7.598985195E0,-5.069578290E-1
1.580999688E1,1.022841215E0,-7.392068863E0,-1.216848254E0
1.582999688E1,1.825205326E0,-7.548870087E0,-2.954416275E0
1.584999688E1,2.126491785E0,-7.684669495E0,-4.135456562E0
1.586999688E1,1.356458902E0,-6.633471012E0,-3.566756964E0
1.588999688E1,1.127554059E0,-6.567218781E0,-1.879065275E0
1.590999688E1,1.084343553E0,-7.316938877E0,-1.473765254E0
1.592999688E1,1.072008491E0,-7.496628284E0,-1.085109591E0
1.594999688E1,8.853662014E-1,-7.890100956E0,-2.005277872E0
1.596999688E1,1.136020064E0,-8.472572327E0,-3.148614645E0
1.598999688E1,1.929726601E0,-9.405122757E0,-4.214282990E0
1.600999688E1,2.072986126E0,-1.036044788E1,-5.133503437E0
1.602999688E1,9.920327067E-1,-1.139605522E1,-6.044966698E0
1.604999844E1,7.983322144E-1,-1.220788097E1,-8.294252396E0
1.607199688E1,1.288415670E0,-1.195334816E1,-1.104684639E1
1.609199688E1,3.812814057E-1,-1.191836548E1,-9.774242401E0
1.611200000E1,9.701209664E-1,-1.198015404E1,-6.860566139E0
1.613399844E1,-6.750404239E-1,-1.017267609E1,-2.129134655E0
1.615399844E1,-1.483456850E0,-8.890389442E0,6.425462365E-1
1.617599688E1,9.090975523E-1,-9.369143486E0,-1.516745925E0
1.619599688E1,-1.049110532E0,-9.409672737E0,-1.245061517E0
1.621599688E1,-8.139806986E-1,-1.127636433E1,3.528095782E-1
1.623599844E1,-1.165688932E-1,-1.261501122E1,1.192551851E0
1.625799688E1,1.272671342E0,-1.251001072E1,4.321151078E-1
1.627799688E1,2.015687943E0,-1.088591766E1,-8.970307708E-1
1.629799688E1,1.751396894E0,-9.269898415E0,-1.006512761E0
1.631799688E1,1.002289414E0,-8.115098953E0,-9.484199286E-1
1.633799688E1,6.954485178E-1,-7.050732613E0,-1.048430562E0
1.635799688E1,6.107608676E-1,-6.372100353E0,-1.763607264E0
1.637799688E1,4.283322692E-1,-5.581573963E0,-2.177641392E0
1.639799688E1,1.915457100E-1,-5.414956570E0,-2.573728561E0
1.641799844E1,-1.244889125E-1,-5.937476635E0,-3.053143501E0
1.643999688E1,-7.111737132E-2,-6.757624626E0,-3.241892815E0
1.645999688E1,-1.535162143E-2,-7.465676308E0,-3.144285917E0
1.647999688E1,2.112547755E-1,-8.111076355E0,-3.115622520E0
1.649999688E1,5.911858678E-1,-8.688241959E0,-3.355291843E0
1.651999688E1,1.129162908E0,-9.594772339E0,-3.656415224E0
1.653999688E1,1.468316078E0,-1.015784073E1,-3.873780012E0
1.655999688E1,1.653991103E0,-1.111840439E1,-4.416612625E0
1.657999688E1,1.986392617E0,-1.210421181E1,-5.097992897E0
1.659999688E1,2.121540546E0,-1.274369431E1,-6.075947762E0
1.661999688E1,2.443110466E0,-1.189529419E1,-6.066763878E0
1.663999688E1,2.894695282E0,-1.172906971E1,-5.699253559E0
1.665999844E1,2.680442810E0,-1.247678852E1,-5.342354298E0
1.668199844E1,1.409294248E0,-1.174956417E1,-4.400389671E0
1.670199844E1,1.010401011E0,-9.783167839E0,-3.911608458E0
1.672199844E1,7.377110124E-1,-9.058874130E0,-3.570865631E0
1.674399844E1,3.651157618E-1,-1.039879417E1,-2.967450142E0
1.676401563E1,-1.054894924E0,-1.211718845E1,-2.221177578E0
1.678599844E1,-2.896045446E0,-1.190987968E1,-1.409016490E0
1.680599844E1,-2.879764795E0,-1.109821701E1,-1.491999507E0
1.682599844E1,-2.419044018E0,-1.004752636E1,-2.086632967E0
1.684599844E1,-1.945700645E0,-8.809464455E0,-1.119461656E0
1.686799688E1,-1.602065682E0,-7.752300739E0,2.729390003E-2
1.688799688E1,-8.476527929E-1,-7.065308571E0,4.220498800E-1
1.690799844E1,-2.072325349E-1,-6.356921196E0,6.555324793E-2
1.692999688E1,1.490026593E0,-6.551684856E0,-2.099781990E0
1.694999688E1,2.039055347E0,-6.998270512E0,-3.897932768E0
1.696999688E1,1.246881127E0,-6.438295841E0,-2.908840179E0
1.698999688E1,1.483600616E0,-6.195236206E0,-1.413258910E0
1.700999688E1,1.309944391E0,-6.823819637E0,-1.069432497E0
1.702999688E1,1.218131423E0,-6.952531815E0,-7.215453386E-1
1.704999688E1,8.926062584E-1,-7.268269539E0,-1.490524650E0
1.706999688E1,1.448721886E0,-8.291464806E0,-2.662907600E0
1.708999688E1,2.290226221E0,-9.034405708E0,-3.829362869E0
1.710999688E1,2.578258276E0,-9.981292725E0,-4.983358383E0
1.712999688E1,1.433360696E0,-1.113966465E1,-5.680645943E0
1.714999688E1,2.478592634E0,-1.243312836E1,-8.327406883E0
1.716999688E1,1.809135318E0,-1.228467751E1,-1.170979214E1
1.718999688E1,1.139668703E0,-1.258033276E1,-1.208099842E1
1.720999844E1,9.428845048E-1,-1.250222492E1,-1.174247742E1
1.722999844E1,-1.658645511E0,-9.447816849E0,-3.290686607E-1
1.724999844E1,-1.532088041E0,-1.041125298E1,2.615818501E0
1.726999844E1,-5.200397372E-1,-1.112235069E1,-2.544174492E-1
1.729199688E1,-1.055555701E0,-1.202300072E1,-1.336625338E0
1.731199688E1,-1.906177282E0,-1.332915306E1,2.734465599E-1
1.733199688E1,-1.698772311E0,-1.396731377E1,6.623511314E-1
1.735199688E1,6.581373215E-1,-1.313568306E1,-7.884201407E-1
1.737199688E1,1.413651586E0,-1.097721386E1,-1.928347588E0
1.739199688E1,6.407266855E-1,-9.064208031E0,-1.466802835E0
1.741199688E1,-1.710800827E-1,-7.797876358E0,-1.218074083E0
1.743199688E1,-3.824785054E-1,-6.716732025E0,-1.072477937E0
1.745199688E1,-9.493488073E-2,-5.850834846E0,-1.952825785E0
1.747199688E1,1.650849879E-1,-5.182096004E0,-2.533975124E0
1.749199688E1,-2.267404795E-1,-4.613368034E0,-2.996113539E0
1.751199688E1,-7.770141959E-1,-4.461671352E0,-3.346777916E0
1.753199688E1,-1.283828378E0,-4.522081852E0,-3.198308706E0
1.755199688E1,-1.645802975E0,-4.888710976E0,-2.938241005E0
1.757199688E1,-1.634808779E0,-5.834908962E0,-2.690737963E0
1.759199688E1,-1.062020063E0,-7.091127396E0,-2.585498571E0
1.761199688E1,-3.394978046E-1,-8.685331345E0,-3.005087137E0
1.763199688E1,2.959616482E-1,-1.057497883E1,-3.323563814E0
1.765199688E1,1.369492888E0,-1.257563114E1,-3.987542868E0
1.767199688E1,2.733757019E0,-1.382063484E1,-4.806571007E0
1.769199688E1,3.733451128E0,-1.363316917E1,-5.089393139E0
1.771199688E1,4.567121506E0,-1.357633018E1,-5.209390163E0
1.773199844E1,4.863083363E0,-1.362709713E1,-4.625166416E0
1.775400938E1,3.582980156E0,-1.366381454E1,-5.137123585E0
1.777599688E1,1.564084053E0,-1.165198612E1,-5.720101833E0
1.779599688E1,1.054368138E0,-9.240383148E0,-5.900079250E0
1.781599688E1,7.701284885E-1,-7.846344948E0,-4.500916958E0
1.783599688E1,-3.445735201E-2,-8.807951927E0,-3.155500412E0
1.785599844E1,-1.658377290E0,-1.116389465E1,-2.171569586E0
1.787799688E1,-3.512131214E0,-1.158841515E1,-5.313978195E-1
1.789799688E1,-3.047531605E0,-1.096009064E1,-4.424197376E-1
1.791799688E1,-1.526849508E0,-1.042810822E1,-1.403222442E0
1.793799688E1,-3.730166256E-1,-9.320071220E0,-1.090865374E0
1.795799688E1,-3.212156594E-1,-8.012962341E0,-4.641399682E-1
1.797799844E1,1.297178566E-1,-7.236110687E0,2.197972834E-1
1.799999688E1,2.231597185E0,-7.308770180E0,-1.776804090E0
1.801999688E1,2.257856607E0,-7.458675861E0,-4.395438671E0
1.803999688E1,1.778269410E0,-6.387730122E0,-3.327834845E0
1.805999688E1,1.841054916E0,-5.944601536E0,-1.877140403E0
1.807999688E1,9.571539164E-1,-6.760133743E0,-1.045950055E0
1.809999688E1,4.524945319E-1,-6.865430832E0,-1.471284777E-1
1.811999688E1,2.805142403E-1,-7.280834675E0,-2.835980058E-1
1.813999688E1,3.473028839E-1,-7.678884983E0,-1.311744809E0
1.815999688E1,4.188991189E-1,-8.432560921E0,-2.205979347E0
1.817999688E1,1.421935558E0,-9.420752525E0,-3.193328857E0
1.819999688E1,2.106284618E0,-9.759542465E0,-3.976749659E0
1.821999688E1,1.761730194E0,-1.084648991E1,-5.243206024E0
1.823999844E1,2.229480594E-1,-1.096821213E1,-6.400706768E0
1.826199844E1,7.082719207E-1,-1.150540352E1,-8.834728241E0
1.828399844E1,3.299545050E0,-1.201396084E1,-1.244666862E1
1.830400312E1,3.324578762E0,-1.168640518E1,-1.286596107E1
1.832599844E1,1.895786405E0,-1.110621262E1,-1.180912209E1
1.834599844E1,-2.992991447E0,-7.964771271E0,-7.286992669E-2
1.836799844E1,-1.866088748E0,-1.008686733E1,4.833107948E0
1.838799844E1,-5.805652142E-1,-1.212403584E1,7.443381548E-1
1.840799844E1,-1.371638179E0,-1.293727970E1,-2.207856178E0
1.842799844E1,-1.967832685E0,-1.234059715E1,-1.303499192E-1
1.844999844E1,-1.392582655E0,-1.317115402E1,1.186614275E0
1.847199688E1,9.830209613E-1,-1.311966991E1,-2.087456584E-1
1.849199688E1,9.511876106E-1,-1.094593525E1,-1.138720632E0
1.851199688E1,-3.743573651E-2,-9.291427612E0,-1.111560822E0
1.853199688E1,-5.811110735E-1,-7.832190514E0,-1.141641617E0
1.855199688E1,-7.346847653E-1,-6.517505169E0,-1.542038321E0
1.857199688E1,-5.950070024E-1,-5.624477863E0,-2.320163250E0
1.859199688E1,-3.293655515E-1,-4.923273563E0,-2.834648609E0
1.861199688E1,-6.269743443E-1,-4.533487797E0,-3.181510925E0
1.863199688E1,-1.020839691E0,-4.502382278E0,-3.165776253E0
1.865199688E1,-1.337640524E0,-4.740710735E0,-2.940338373E0
1.867199688E1,-1.479674101E0,-5.074395657E0,-2.959424734E0
1.869199688E1,-1.285466075E0,-5.860497952E0,-2.978894472E0
1.871199688E1,-6.114791036E-1,-7.102045059E0,-2.977218390E0
1.873199688E1,-2.868828177E-1,-8.613456726E0,-3.304850578E0
1.875199688E1,8.319371939E-2,-1.040626335E1,-3.508893967E0
1.877199688E1,9.501245618E-1,-1.310109043E1,-3.715417862E0
1.879199688E1,2.284575939E0,-1.436260509E1,-3.814384699E0
1.881199844E1,3.282708883E0,-1.410169411E1,-4.735060692E0
1.883199844E1,4.261860847E0,-1.460521507E1,-5.389606476E0
1.885399844E1,3.654672384E0,-1.539384556E1,-5.176033974E0
1.887399844E1,2.051419020E0,-1.359938145E1,-5.392240047E0
1.889599844E1,1.675424099E0,-1.118834400E1,-6.191223621E0
1.891799844E1,9.313349128E-1,-8.763342857E0,-5.294078350E0
1.893999844E1,1.635431349E-1,-8.756189346E0,-3.653235912E0
1.896199688E1,-1.922553539E0,-9.961938858E0,-2.878520012E0
1.898199688E1,-4.291616440E0,-1.046880913E1,-2.209570646E0
1.900199688E1,-4.898230076E0,-1.043750286E1,-1.530479074E0
1.902199688E1,-3.949139833E0,-1.040618610E1,-1.812793732E0
1.904199688E1,-2.833212137E0,-9.310647964E0,-1.729743600E0
1.906199688E1,-2.269751072E0,-8.078170776E0,-1.128789425E0
1.908199688E1,-1.745382547E0,-6.928043842E0,-7.560409904E-1
1.910199688E1,-8.035420179E-1,-6.560974598E0,-1.135531664E0
1.912199688E1,7.705020308E-1,-6.721204281E0,-1.632529497E0
1.914199688E1,2.295091391E0,-7.478317738E0,-2.607544184E0
1.916199688E1,1.916079640E0,-7.585051060E0,-3.257656336E0
1.918199688E1,2.050451994E0,-6.656292439E0,-1.838038206E0
1.920199688E1,2.115736723E0,-6.728779316E0,-8.848490715E-1
1.922199688E1,1.542651296E0,-6.959273815E0,-1.623077244E-1
1.924199688E1,1.324060559E0,-6.782783031E0,2.254284471E-1
1.926199688E1,1.198403358E0,-7.361174107E0,-2.676142752E-1
1.928199688E1,1.077706814E0,-8.332348824E0,-1.333560824E0
1.930199688E1,1.560837507E0,-9.716819763E0,-3.481121302E0
1.932199688E1,1.934323430E0,-1.082924175E1,-5.824115753E0
1.934199688E1,8.853278756E-1,-1.213295174E1,-8.226314545E0
1.936199688E1,1.291212201E0,-1.246656990E1,-1.068017006E1
1.938199688E1,1.491309881E0,-1.241168594E1,-1.326166534E1
1.940199688E1,1.000364542E0,-1.124524879E1,-1.313322067E1
1.942199688E1,-1.424214840E0,-1.102532673E1,-1.123744392E1
1.944199688E1,-2.490438938E0,-9.825937271E0,-3.675846577E0
1.946199688E1,-3.283140182E0,-9.017157555E0,4.335985184E0
1.948199688E1,-2.230907440E0,-1.145208931E1,2.007011414E0
1.950199688E1,-1.394967318E0,-1.293343925E1,-2.309552193E0
1.952199688E1,-2.314024687E0,-1.226573467E1,-1.985003948E0
1.954199688E1,-3.668261766E0,-1.243371201E1,2.046276182E-1
1.956199688E1,-2.323438644E0,-1.264875031E1,1.170553923E0
1.958199688E1,5.591322780E-1,-1.197037601E1,-6.171198487E-1
1.960199688E1,7.301932573E-1,-9.979089737E0,-1.271033764E0
1.962199688E1,4.309850335E-1,-8.494503021E0,-1.541473269E0
1.964199688E1,2.138500959E-1,-7.339339256E0,-2.174950123E0
1.966199688E1,1.670003533E-1,-6.283764362E0,-2.570740461E0
1.968199688E1,4.483860731E-2,-5.744082451E0,-3.266122103E0
1.970199688E1,-4.280832596E-3,-5.513942242E0,-3.531619787E0
1.972199688E1,-1.666077077E-1,-5.377568245E0,-3.515626669E0
1.974199688E1,-7.058393955E-1,-5.128293991E0,-3.132228851E0
1.976199688E1,-1.283311248E0,-4.955844402E0,-2.541224957E0
1.978199688E1,-1.427729487E0,-5.280785084E0,-2.207070827E0
1.980199844E1,-1.162222147E0,-6.060854435E0,-2.115095139E0
1.982200000E1,-5.680387020E-1,-7.210291386E0,-2.247705221E0
1.984400000E1,1.833479553E-1,-8.874022484E0,-2.830770016E0
1.986599844E1,1.129019260E0,-1.085917950E1,-2.720579386E0
1.988599844E1,1.982964039E0,-1.273781395E1,-2.708703995E0
1.990599844E1,2.807641983E0,-1.390251637E1,-2.779735088E0
1.992799688E1,3.722409010E0,-1.396737003E1,-4.179567337E0
1.994799688E1,4.640020370E0,-1.425203133E1,-5.019386292E0
1.996799688E1,4.309907913E0,-1.454707432E1,-5.065661430E0
1.998799688E1,2.755390882E0,-1.291195869E1,-6.013640881E0
2.000799688E1,1.806367636E0,-1.065092182E1,-6.713341713E0
2.002799688E1,1.610627294E0,-8.104717255E0,-6.027182579E0
2.004799688E1,7.225987911E-1,-7.504806995E0,-4.293043137E0
2.006799688E1,-7.397891879E-1,-9.645606041E0,-3.301920176E0
2.008799688E1,-3.090598345E0,-1.115294838E1,-2.520749569E0
2.010799688E1,-4.269790649E0,-1.141193390E1,-1.695544958E0
2.012799688E1,-3.619544506E0,-1.073929691E1,-2.138443708E0
2.014799688E1,-2.494049549E0,-9.664261818E0,-2.168045521E0
2.016800781E1,-2.018905878E0,-8.546360970E0,-1.047558904E0
2.018999688E1,-1.266417742E0,-7.712317467E0,-1.501068771E-1
2.020999844E1,-4.869806394E-2,-7.179147720E0,-1.160325885E0
2.022999844E1,1.751712918E0,-7.233592033E0,-2.776182175E0
2.024999844E1,1.701195240E0,-7.353206635E0,-4.774153233E0
2.026999844E1,1.613193989E0,-5.882821560E0,-3.839121580E0
2.028999844E1,1.061158061E0,-5.337106228E0,-2.577444315E0
2.030999844E1,1.221617535E-1,-5.715285301E0,-1.892415285E0
2.033199844E1,-3.528861701E-1,-5.979987621E0,-1.104004741E0
2.035199844E1,-3.902261257E-1,-6.625560760E0,-8.252142668E-1
2.037199844E1,-4.938950837E-1,-7.586487770E0,-1.448501587E0
2.039399688E1,-5.537117720E-1,-8.628080368E0,-3.083856106E0
2.041399844E1,2.462771535E-1,-9.342931747E0,-4.081405163E0
2.043399844E1,1.747863054E0,-1.012270451E1,-4.824192047E0
2.045599844E1,2.991813421E0,-1.187349701E1,-6.284224033E0
2.047799688E1,3.644702911E0,-1.373595619E1,-1.253663349E1
2.049799844E1,3.322797537E0,-1.218152523E1,-1.383919430E1
2.051999844E1,2.885376930E0,-1.094889545E1,-1.061192608E1
2.054199844E1,2.643964887E-1,-1.101682281E1,-1.102168846E1
2.056400469E1,-3.196402788E0,-7.067386627E0,6.633710384E0
2.058599844E1,-2.782838106E0,-9.699447632E0,1.933049679E0
2.060599844E1,-2.406728268E0,-1.207474422E1,-2.015745401E0
2.062599844E1,-2.732387543E0,-1.509602642E1,-3.806541204E0
2.064599844E1,-5.015258789E0,-1.409336281E1,-6.174933314E-1
2.066599844E1,-4.952358246E0,-1.362820816E1,2.509477854E0
2.068599844E1,-2.491798878E0,-1.269069672E1,6.743603945E-1
2.070599844E1,-4.801523685E-1,-1.167472172E1,-1.744290948E0
2.072599844E1,1.714535654E-1,-1.021100235E1,-2.100931168E0
2.074599844E1,-1.567627490E-1,-8.339665413E0,-3.046631336E0
2.076599844E1,6.014809608E-1,-7.248273373E0,-3.318076134E0
2.078599844E1,9.279063940E-1,-6.309209824E0,-3.678020477E0
2.080799844E1,9.755222797E-1,-5.381524086E0,-3.987600327E0
2.082799844E1,8.436879516E-1,-4.753668308E0,-3.977544785E0
2.084799844E1,-1.689348817E-1,-4.083751678E0,-3.816644669E0
2.086799844E1,-8.110789061E-1,-3.624696732E0,-3.180505276E0
2.088799844E1,-9.110128880E-1,-3.743918419E0,-2.368315697E0
2.090799844E1,-8.336993456E-1,-4.651148319E0,-1.380582929E0
2.092799844E1,-5.391646624E-1,-5.923369884E0,-9.223423004E-1
2.094999844E1,-3.245866895E-1,-8.413244247E0,-1.508691907E0
2.097199844E1,5.944324285E-2,-1.217337608E1,-2.003401041E0
2.099199844E1,7.370215058E-1,-1.502963924E1,-2.735136032E0
2.101199844E1,1.522578239E0,-1.564546680E1,-4.198941231E0
2.103199844E1,2.992187023E0,-1.609641838E1,-6.698852062E0
2.105199844E1,5.154275894E0,-1.566766548E1,-7.683922291E0
2.107399844E1,4.830770969E0,-1.365096188E1,-7.658840179E0
2.109399844E1,2.658138514E0,-1.114678001E1,-7.026330471E0
2.111400156E1,1.266867876E0,-8.527925491E0,-5.572025299E0
2.113599688E1,8.054956794E-1,-7.280891895E0,-3.595162153E0
2.115599844E1,8.399817348E-1,-8.078266144E0,-1.970820665E0
2.117599844E1,4.431188479E-2,-9.104459763E0,-7.394827008E-1
2.119599844E1,-2.146679401E0,-1.242207623E1,-7.278755903E-1
2.121599844E1,-4.613492489E0,-1.098678112E1,2.339518070E-1
2.123599844E1,-4.537519932E0,-9.630197525E0,9.131485224E-1
2.125599844E1,-2.668538809E0,-9.975355148E0,-1.148958206E0
2.127599844E1,-7.617775202E-1,-9.369075775E0,-2.272068501E0
2.129599844E1,8.142775893E-1,-8.172263145E0,-2.586360455E0
2.131599844E1,3.981796980E0,-8.038646698E0,-5.911149979E0
2.133599844E1,9.950781465E-1,-6.043041706E0,-6.556425571E0
2.135599844E1,5.116121769E-1,-4.211966038E0,-4.404440403E0
2.137599844E1,2.725271881E-1,-4.594616890E0,-1.780376196E0
2.139599844E1,-1.036018953E-1,-5.799858093E0,-1.192695573E-1
2.141599844E1,-8.949143291E-1,-6.899562359E0,7.681269646E-1
2.143599844E1,-1.225055575E0,-6.725427628E0,1.552352548E0
2.145599844E1,-6.495661139E-1,-7.174139023E0,1.913158745E-1
2.147599844E1,-1.009883881E0,-7.786126137E0,-1.298404336E0
2.149599844E1,-1.048018694E0,-8.825027466E0,-2.420461416E0
2.151599844E1,-1.826009899E-1,-9.528942108E0,-3.655620337E0
2.153599844E1,2.093298435E-1,-1.043495560E1,-6.808487415E0
2.155799844E1,7.322617769E-1,-1.106169033E1,-1.150670624E1
2.157999844E1,1.149743557E0,-1.350991535E1,-1.798909378E1
2.159999844E1,1.901838899E0,-1.270465946E1,-1.739003563E1
2.162199844E1,1.860093594E0,-9.409165382E0,-1.805582428E1
2.164399844E1,-4.050817013E0,-9.251194954E0,-1.021607780E1
2.166599844E1,-4.574993610E0,-8.199833870E0,1.402513742E0
2.168599844E1,-9.042420983E-1,-9.968794823E0,2.821001768E0
2.170799844E1,1.564275622E-1,-1.327411556E1,1.380180717E0
2.172799844E1,-1.578315139E0,-1.218605614E1,-9.104766250E-1
2.174799844E1,-2.177536249E0,-1.253450775E1,1.522310019E0
2.176799844E1,-2.102022886E0,-1.324400616E1,2.066646338E0
2.178799844E1,-9.940629601E-1,-1.285727501E1,8.049976230E-1
2.180800938E1,-3.685251176E-1,-1.166938686E1,-1.010429740E0
2.182999688E1,-6.681067348E-1,-9.682679176E0,-1.585421324E0
2.184999844E1,-8.520771861E-1,-8.147085190E0,-2.463097095E0
2.186999844E1,-8.848969936E-1,-6.710659981E0,-2.973924160E0
2.188999844E1,-8.149383664E-1,-5.595555782E0,-3.388456345E0
2.190999844E1,-8.762203455E-1,-4.755861282E0,-3.642260790E0
2.192999844E1,-1.093652248E0,-4.116753578E0,-3.946812630E0
2.194999844E1,-1.250089407E0,-4.035225868E0,-3.945108175E0
2.196999844E1,-1.140023112E0,-4.456614971E0,-3.564391613E0
2.198999844E1,-9.643844366E-1,-5.231962681E0,-3.523690224E0
2.200999844E1,-7.015106678E-1,-6.104639530E0,-3.621900320E0
2.202999844E1,-4.840117991E-1,-6.955692291E0,-3.852634430E0
2.205199688E1,-4.077613056E-1,-8.176495552E0,-3.730530262E0
2.207199688E1,-4.139958024E-1,-1.007656288E1,-3.764355421E0
2.209199688E1,6.798575073E-2,-1.234976196E1,-3.703226805E0
2.211199688E1,1.233147979E0,-1.408915901E1,-3.685097933E0
2.213199688E1,2.776345015E0,-1.423796272E1,-4.730147362E0
2.215199688E1,3.026328325E0,-1.476594257E1,-5.605841160E0
2.217199688E1,3.436225414E0,-1.554094505E1,-5.776174545E0
2.219199688E1,1.895872593E0,-1.300833988E1,-6.393629551E0
2.221199688E1,1.430114150E0,-1.069009209E1,-5.615006447E0
2.223199688E1,1.360873818E0,-9.050838470E0,-4.012270451E0
2.225199688E1,-2.412589043E-1,-9.006613731E0,-3.058726788E0
2.227199688E1,-3.312971830E0,-1.127100086E1,-2.971166134E0
2.229199688E1,-5.171130657E0,-1.212099075E1,-1.909031153E0
2.231199688E1,-4.660121918E0,-1.034702110E1,-1.410558343E0
2.233199688E1,-3.582022667E0,-9.245353699E0,-2.674735069E0
2.235199688E1,-2.796935081E0,-7.683864594E0,-2.970103025E0
2.237199688E1,-1.485314846E0,-7.138350487E0,-3.029756784E0
2.239199688E1,8.156853914E-1,-7.064092159E0,-3.771950006E0
2.241199844E1,1.120591760E0,-7.120413303E0,-4.520463467E0
2.243399844E1,1.268476844E0,-6.469898701E0,-2.469456196E0
2.245599844E1,1.811270952E0,-6.235343933E0,-7.100819349E-1
2.247799688E1,1.389699936E0,-5.835752010E0,2.848333716E-1
2.249799688E1,6.445094943E-1,-6.119023800E0,-1.666364376E-3
2.251799688E1,9.504023194E-2,-6.599234104E0,-6.833817959E-1
2.253799844E1,2.104311883E-1,-7.191636086E0,-1.835021496E0
2.255799844E1,5.948250890E-1,-7.799772739E0,-2.537403822E0
2.257999844E1,1.059702396E0,-8.395584106E0,-3.849684715E0
2.259999844E1,1.963877439E0,-9.379820824E0,-5.174348831E0
2.262199844E1,2.054378271E0,-1.005481339E1,-6.658418655E0
2.264400156E1,2.654374838E0,-1.194047737E1,-9.393421173E0
2.266599844E1,1.427480459E0,-1.230273914E1,-1.272786331E1
2.268599844E1,2.696435928E0,-1.128363323E1,-9.402307510E0
2.270599844E1,1.527586937E0,-1.146562099E1,-1.053853798E1
2.272599844E1,-3.371198654E0,-9.674451828E0,-2.817726374E0
2.274599844E1,-2.819325686E0,-9.192039490E0,6.871205330E0
2.276599844E1,-2.409802198E0,-1.117382526E1,-4.105289876E-1
2.278599844E1,-1.624092460E0,-1.379133034E1,-4.219675064E0
2.280599844E1,-3.132611752E0,-1.409712696E1,-1.721383214E0
2.282599844E1,-3.444317579E0,-1.443599224E1,1.365738869E0
2.284599844E1,-1.960238338E0,-1.332660580E1,-5.640739202E-1
2.286599844E1,1.052874178E-1,-1.273542976E1,-2.042225361E0
2.288599844E1,5.813217759E-1,-1.043366337E1,-1.697584748E0
2.290599844E1,2.656797767E-1,-8.439838409E0,-2.071281195E0
2.292799688E1,1.481723487E-1,-7.054151535E0,-2.220076084E0
2.294799688E1,5.305263400E-1,-6.224694252E0,-2.525997877E0
2.296800000E1,9.528539181E-1,-5.423939228E0,-2.644884348E0
2.298999844E1,5.304018259E-1,-4.699904442E0,-2.750420570E0
2.300999844E1,-2.277652025E-1,-4.326083183E0,-2.745957851E0
2.303199688E1,-1.008255839E0,-4.317885399E0,-2.383599997E0
2.305199844E1,-1.296287894E0,-4.544232845E0,-1.960161567E0
2.307199844E1,-1.236317873E0,-5.228840828E0,-2.414485455E0
2.309199844E1,-9.688472152E-1,-6.477886200E0,-3.032706499E0
2.311199844E1,-1.890844703E-1,-7.801228523E0,-3.163755655E0
2.313399844E1,6.681738496E-1,-9.779959679E0,-3.676334858E0
2.315399844E1,1.904012799E0,-1.204745960E1,-4.059340477E0
2.317399844E1,3.312722921E0,-1.350462914E1,-5.096747875E0
2.319399844E1,4.541944504E0,-1.389955711E1,-5.934679985E0
2.321399844E1,5.136395931E0,-1.306419182E1,-5.460455894E0
2.323399844E1,4.316534996E0,-1.416962337E1,-5.043625355E0
2.325399844E1,2.363115549E0,-1.406128025E1,-4.711290836E0
2.327399844E1,3.955221176E-1,-1.191335678E1,-4.337977409E0
2.329399844E1,3.133243918E-1,-9.492741585E0,-4.364036083E0
2.331399844E1,2.073282897E-1,-7.772067070E0,-4.023972988E0
2.333399844E1,-1.110229611E0,-1.017773247E1,-4.320595741E0
2.335399844E1,-3.721068382E0,-1.314541245E1,-3.689369202E0
2.337399844E1,-4.748688698E0,-1.293048954E1,-1.519178510E0
2.339400156E1,-2.430593491E0,-1.156025028E1,-1.587729216E0
2.341599844E1,-1.396767735E0,-9.980421066E0,-2.928415060E0
2.343599844E1,-1.019747972E0,-8.616137505E0,-1.750937104E0
2.345799688E1,-6.311019659E-1,-7.421632767E0,-4.139862061E-1
2.347800469E1,1.130063203E-3,-6.716732025E0,1.811069995E-1
2.349999688E1,1.605264425E0,-6.326706409E0,-1.522128105E0
2.351999688E1,1.780912638E0,-6.217856884E0,-2.886104822E0
2.353999688E1,1.711815953E0,-5.769116402E0,-1.745890141E0
2.355999844E1,1.560195923E0,-5.891871452E0,-7.194097042E-1
2.358199688E1,7.707605362E-1,-6.153069973E0,1.093288288E-1
2.360199688E1,2.286558449E-1,-6.367838860E0,-5.084134936E-1
2.362199688E1,-8.714894066E-4,-6.861877918E0,-1.107212901E0
2.364199688E1,7.997687459E-1,-7.474257469E0,-1.627884746E0
2.366199688E1,1.248394251E0,-8.612987518E0,-3.150462866E0
2.368199688E1,1.324606419E0,-9.620246887E0,-4.423153877E0
2.370199844E1,2.918627560E-1,-1.025264168E1,-5.571834087E0
2.372400938E1,-8.612900972E-1,-1.142671108E1,-8.806237221E0
2.374599688E1,1.634578943E0,-1.254624939E1,-1.688682175E1
2.376599688E1,2.189775229E0,-1.062744045E1,-1.406769753E1
2.378599688E1,1.734857678E0,-9.747043610E0,-1.179383755E1
2.380599844E1,-1.222757101E0,-1.061147594E1,-8.815067291E0
2.382600000E1,-3.911914825E0,-9.532552719E0,5.837762833E0
2.384799844E1,-2.100816250E0,-1.142072582E1,2.870858669E0
2.386799844E1,-1.123062491E0,-1.230377388E1,-1.956101060E0
2.388799844E1,-1.193997979E0,-1.222197819E1,-1.138337493E0
2.390799844E1,-2.960957050E0,-1.326692295E1,6.364650130E-1
2.392799844E1,-1.857335448E0,-1.453002739E1,1.264205575E0
2.394999844E1,7.462535501E-1,-1.323796272E1,-8.037622571E-1
2.397199688E1,1.219041228E0,-1.143573284E1,-1.973099947E0
2.399199688E1,7.635396719E-1,-9.685838699E0,-1.934744835E0
2.401199844E1,4.943451881E-1,-8.184358597E0,-2.736170292E0
2.403199844E1,2.671450078E-1,-6.714241505E0,-3.592547655E0
2.405199844E1,4.624639750E-1,-5.461528301E0,-4.205721855E0
2.407400312E1,8.691909909E-2,-4.342306137E0,-4.378927708E0
2.409599844E1,-3.975141048E-1,-3.866683483E0,-3.814308167E0
2.411599844E1,-1.027026415E0,-3.850326300E0,-2.975015879E0
2.413799844E1,-1.225630164E0,-4.295695782E0,-2.163218737E0
2.415999844E1,-8.240076303E-1,-5.434952736E0,-1.837578535E0
2.418199844E1,-1.430200338E-1,-6.820899010E0,-1.966003537E0
2.420199844E1,4.395083785E-1,-8.254058838E0,-2.310347080E0
2.422400625E1,1.315671206E0,-1.058456421E1,-3.238866568E0
2.424599844E1,2.409716129E0,-1.300197029E1,-4.315587044E0
2.426599844E1,3.917249203E0,-1.338716888E1,-5.929029942E0
2.428599844E1,4.553599358E0,-1.302857494E1,-7.240439415E0
2.430599844E1,4.839093208E0,-1.323195839E1,-6.768916130E0
2.432599844E1,3.690958738E0,-1.302099991E1,-5.611874580E0
2.434799844E1,2.102540016E0,-1.221959400E1,-5.865966320E0
2.436799844E1,1.020485401E0,-9.835036278E0,-5.111093521E0
2.438799844E1,5.546790957E-1,-8.948538780E0,-3.916186094E0
2.440800156E1,-2.982887924E-1,-9.404003143E0,-2.685719728E0
2.442999688E1,-1.920695662E0,-1.156645489E1,-1.895527840E0
2.444999844E1,-2.180591106E0,-1.212257099E1,-8.374438286E-1
2.447199844E1,-1.211284041E0,-1.202638149E1,-1.400416493E0
2.449199844E1,-5.353722572E-1,-1.060907173E1,-1.892175913E0
2.451399844E1,-3.776805401E-1,-9.116382599E0,-1.502141356E0
2.453399844E1,-1.948592812E-1,-7.585338593E0,-1.086526990E0
2.455399844E1,4.065258801E-1,-7.299260139E0,-2.651166439E0
2.457399844E1,1.207759857E0,-6.409296989E0,-3.040004253E0
2.459399844E1,1.162308335E0,-5.972221375E0,-3.645622253E0
2.461399844E1,8.612231016E-1,-5.328238487E0,-2.234872341E0
2.463399844E1,2.271714360E-1,-5.281024933E0,-8.118163347E-1
2.465399844E1,-2.505867183E-1,-5.820668221E0,-6.910049319E-1
2.467399844E1,-3.207463920E-1,-6.582665920E0,-1.216417193E0
2.469399844E1,1.711949855E-1,-7.282816887E0,-1.334087491E0
2.471399844E1,9.823217988E-1,-8.450201035E0,-2.406823874E0
2.473599688E1,1.322097301E0,-9.446715355E0,-4.376629353E0
2.475599844E1,1.135110259E0,-1.035401249E1,-5.886623383E0
2.477799688E1,1.472089291E0,-1.157293892E1,-6.207724571E0
2.479799688E1,-8.725428581E-2,-1.202133465E1,-8.317658424E0
2.481799688E1,-1.281999230E0,-1.202141094E1,-1.300516987E1
2.483799688E1,-9.108500928E-2,-1.107663918E1,-1.034758663E1
2.485799688E1,7.358244061E-1,-1.198353481E1,-7.049037457E0
2.487799688E1,1.331645370E0,-1.203961754E1,-6.988789558E0
2.489799688E1,-1.643648148E0,-7.511999607E0,6.482923627E-1
2.491799844E1,-2.298127174E0,-5.731537342E0,1.739837646E0
2.493799844E1,4.132008851E-1,-8.855682373E0,-2.663434505E0
2.495999688E1,-1.557380319E0,-1.153819466E1,-5.579926968E-1
2.497999688E1,-3.556347489E-1,-1.264276409E1,2.531418324E0
2.499999688E1,1.006982088E0,-1.334576893E1,1.120122433E0
2.501999688E1,3.374866724E0,-1.322917080E1,-2.803849697E0
2.503999688E1,4.144554615E0,-1.229964638E1,-3.659384012E0
2.505999688E1,2.657688379E0,-1.019776630E1,-3.253949881E0
2.507999688E1,1.646387219E0,-8.919243813E0,-3.980015516E0
2.509999688E1,6.859387755E-1,-7.122817039E0,-4.005097389E0
2.511999688E1,1.524340361E-1,-5.950366974E0,-3.793708324E0
2.513999844E1,2.012087032E-2,-5.692262173E0,-3.625539541E0
2.515999844E1,-1.663970202E-1,-5.714289188E0,-3.374291897E0
2.518199844E1,-3.962212205E-1,-5.723913670E0,-2.753207445E0
2.520199844E1,-5.064885616E-1,-5.756091595E0,-2.199313641E0
2.522400313E1,-3.971118629E-1,-6.127949715E0,-1.725817084E0
2.524400469E1,-1.165688932E-1,-6.929920673E0,-1.346652269E0
2.526599844E1,5.540853143E-1,-8.121917725E0,-1.466640115E0
2.528599844E1,1.275151849E0,-9.797503471E0,-2.533180475E0
2.530599844E1,2.292266130E0,-1.017377758E1,-3.581524611E0
2.532599844E1,2.926145554E0,-1.091995430E1,-5.564909935E0
2.534599844E1,2.751656055E0,-1.083052540E1,-6.232154846E0
2.536599844E1,2.717179537E0,-1.033812523E1,-5.262292385E0
2.538599844E1,3.473067284E0,-1.135886860E1,-5.481084347E0
2.540599844E1,4.034498215E0,-1.228391075E1,-5.389510632E0
2.542599844E1,3.312674999E0,-1.164672852E1,-5.203136921E0
2.544599844E1,1.747192621E0,-1.067695236E1,-5.729353428E0
2.546599844E1,1.177535415E0,-9.562901497E0,-5.764079094E0
2.548599844E1,2.146449685E-1,-9.331334114E0,-5.066734314E0
2.550599844E1,-1.611987352E0,-1.104852200E1,-4.647557259E0
2.552599844E1,-2.604584932E0,-1.259313679E1,-2.809423447E0
2.554599844E1,-2.383332014E0,-1.219898415E1,-1.693236947E0
2.556599844E1,-2.234058380E0,-1.108162022E1,-2.017881155E0
2.558599844E1,-2.193107843E0,-1.006321335E1,-1.735748291E0
2.560601094E1,-1.999733090E0,-8.826186180E0,-3.267031908E-1
2.562800000E1,-1.507504225E0,-7.637598991E0,7.517793030E-2
2.564999688E1,-3.239546418E-1,-7.060328484E0,-5.997474790E-1
2.566999844E1,2.893057466E-1,-6.077345848E0,-9.063202739E-1
2.569199844E1,9.665104747E-1,-5.744206905E0,-1.580604076E0
2.571399844E1,1.814785719E0,-5.773933411E0,-2.828519583E0
2.573400625E1,2.122814178E0,-6.003652573E0,-4.627264023E0
2.575599844E1,9.051805735E-1,-6.087123394E0,-3.685270309E0
2.577799844E1,1.562427282E0,-7.243226051E0,-2.593811035E0
2.579799844E1,1.833201885E0,-8.202898979E0,-3.346950531E0
2.581799844E1,1.262740254E0,-8.662595749E0,-4.369016171E0
2.583799844E1,1.882263899E0,-9.662969589E0,-5.760726929E0
2.585799844E1,2.542239904E0,-1.023010731E1,-7.070824623E0
2.587799844E1,1.610962510E0,-1.092758656E1,-8.249671936E0
2.589799844E1,8.296196461E-1,-1.065572071E1,-1.029292202E1
2.591799844E1,5.874509215E-1,-1.028148746E1,-1.187548923E1
2.593799844E1,1.984668732E0,-9.531125069E0,-9.374965668E0
2.595799844E1,3.050998211E0,-9.433586121E0,-8.522870064E0
2.597999688E1,-1.325822711E0,-8.916179657E0,-6.424026489E0
2.599999844E1,-3.229749203E0,-8.974051476E0,5.107406974E-1
2.601999844E1,-3.763206303E-1,-1.168876076E1,8.955176473E-1
2.604199844E1,-1.550168991E0,-1.165023327E1,-9.674011469E-1
2.606199844E1,-1.826182127E0,-1.245410061E1,-3.368641734E-1
2.608399844E1,-1.344861507E0,-1.344748402E1,-9.042325616E-1
2.610399844E1,-7.644781470E-1,-1.330056667E1,-9.746603370E-1
2.612400312E1,-5.560868382E-1,-1.239434147E1,-6.776548624E-1
2.614599844E1,-2.893919349E-1,-1.065922546E1,-9.540319443E-1
2.616599844E1,1.068771631E-1,-9.132242203E0,-1.552017331E0
2.618599844E1,4.597154558E-1,-7.809588909E0,-1.951236129E0
2.620599844E1,5.492011309E-1,-6.834325314E0,-2.290360451E0
2.622599844E1,4.804300964E-1,-5.917891979E0,-2.598714352E0
2.624599844E1,2.672024965E-1,-5.294154644E0,-3.076108694E0
2.626599844E1,-7.968860865E-2,-4.973686218E0,-3.212645292E0
2.628599844E1,-3.889045417E-1,-4.952300549E0,-2.997540474E0
2.630799688E1,-4.529542327E-1,-5.350303173E0,-2.965745687E0
2.632799844E1,-2.330228537E-1,-5.955988884E0,-3.163200140E0
2.634799844E1,-1.874181256E-2,-6.605171204E0,-3.290820599E0
2.636800625E1,2.263095230E-1,-7.706101894E0,-3.507773638E0
2.638999844E1,7.919061184E-1,-9.308311462E0,-4.317693710E0
2.641199844E1,1.782674670E0,-1.089390564E1,-5.300226212E0
2.643400469E1,2.873214245E0,-1.200971794E1,-5.416393280E0
2.645600000E1,3.167557716E0,-1.230910873E1,-5.147026062E0
2.647799688E1,3.447066069E0,-1.268890572E1,-5.034336090E0
2.649799688E1,3.205615759E0,-1.393245316E1,-4.933214188E0
2.651799688E1,2.558549404E0,-1.462746239E1,-4.438715935E0
2.653799688E1,1.340436935E0,-1.225341892E1,-4.495257378E0
2.655799844E1,2.214579105E0,-1.040755653E1,-4.089210033E0
2.657999688E1,1.540879488E0,-8.397825241E0,-3.670330286E0
2.659999688E1,1.930588484E-1,-8.103970528E0,-2.458146095E0
2.661999688E1,-2.028655052E0,-9.455372810E0,-2.443148613E0
2.663999844E1,-3.742558479E0,-9.882029533E0,-2.177603006E0
2.666199688E1,-3.411038399E0,-9.960693359E0,-1.727780342E0
2.668199844E1,-1.811089158E0,-9.112551689E0,-3.465817690E0
2.670199844E1,-1.105642319E0,-8.111220360E0,-4.125458717E0
2.672400469E1,-6.901621819E-1,-7.400984764E0,-2.610359907E0
2.674599844E1,-7.044699043E-2,-7.401559353E0,-1.465567470E0
2.676799844E1,1.051887751E0,-7.323173523E0,-1.629043579E0
2.678799844E1,2.338579655E0,-7.757807255E0,-2.939639091E0
2.680799844E1,1.938968182E0,-7.400620937E0,-3.349574566E0
2.682799844E1,1.853935719E0,-7.040044785E0,-1.840384483E0
2.684999688E1,1.251286387E0,-7.095752716E0,-8.668638468E-1
2.686999688E1,8.460246921E-1,-7.194394112E0,-1.274395227E0
2.688999688E1,9.472802877E-1,-7.243474960E0,-1.489940405E0
2.690999688E1,8.053998947E-1,-7.661627293E0,-2.358662128E0
2.692999688E1,1.850440145E0,-8.434216499E0,-3.052377462E0
2.694999688E1,2.774946690E0,-9.192719460E0,-3.749616623E0
2.696999688E1,3.088931799E0,-1.097049999E1,-3.975715637E0
2.698999688E1,5.644186735E-1,-1.191127872E1,-6.740415096E0
2.700999688E1,1.108218551E0,-1.215635872E1,-1.389587975E1
2.702999688E1,1.056168556E0,-1.066980743E1,-1.442231655E1
2.704999688E1,8.727918863E-1,-1.337576389E1,-1.248391342E1
2.706999688E1,-2.037456036E0,-1.037737942E1,5.821644664E-1
2.708999844E1,-1.507159591E0,-9.788962364E0,8.779834747E0
2.711199688E1,-1.991391659E0,-1.131619453E1,7.112311125E-1
2.713199688E1,-1.519120932E0,-1.302594185E1,-4.655247688E0
2.715199688E1,-2.646694183E0,-1.220026779E1,-3.694253266E-1
2.717199688E1,-1.531656981E0,-1.287399578E1,2.215201616E0
2.719199688E1,-1.252646372E-2,-1.335928154E1,-6.932841539E-1
2.721199844E1,1.478505731E0,-1.294491196E1,-2.517541409E0
2.723199844E1,9.725534916E-1,-1.061403179E1,-3.629992962E0
2.725400625E1,8.588001728E-1,-8.557671547E0,-4.038012505E0
2.727400938E1,7.697550058E-1,-7.414699078E0,-3.939342737E0
2.729599844E1,3.611318171E-1,-6.086979866E0,-3.069625139E0
2.731599844E1,-8.964849263E-2,-5.472426891E0,-2.620243073E0
2.733599844E1,-5.827869773E-1,-5.264457226E0,-2.539931774E0
2.735599844E1,-9.715574980E-1,-5.082363129E0,-2.560378313E0
2.737799688E1,-1.206064701E0,-5.027363777E0,-2.568988085E0
2.739799688E1,-1.236202955E0,-5.125162125E0,-2.423037291E0
2.741799688E1,-1.274558067E0,-5.554269791E0,-2.205586433E0
2.743799688E1,-1.105824351E0,-6.461059570E0,-1.746675491E0
2.745799688E1,-4.685644209E-1,-7.603055477E0,-2.249361992E0
2.747800312E1,6.578212976E-1,-9.254624367E0,-3.705438852E0
2.749999688E1,1.622129202E0,-1.167193413E1,-5.132833481E0
2.751999688E1,3.220909834E0,-1.310751629E1,-5.589311600E0
2.753999688E1,4.595057011E0,-1.353609848E1,-6.413003445E0
2.755999688E1,4.997560978E0,-1.309223270E1,-6.081185818E0
2.757999688E1,3.981442451E0,-1.456034756E1,-5.649875641E0
2.759999688E1,1.850392342E0,-1.319270229E1,-4.681200504E0
2.761999688E1,2.971778810E-1,-1.108224201E1,-4.700679779E0
2.763999688E1,3.647901714E-1,-9.506177902E0,-3.508645058E0
2.765999688E1,-5.046785474E-1,-9.326105118E0,-3.200310230E0
2.767999688E1,-1.945978403E0,-1.230358219E1,-2.271225929E0
2.769999688E1,-3.307177782E0,-1.251380253E1,-5.920190215E-1
2.771999688E1,-2.432738781E0,-1.082524872E1,-1.637624383E0
2.773999844E1,-1.183923244E0,-1.015353107E1,-2.176453829E0
2.776199844E1,-3.642921448E-1,-8.581738472E0,-1.344928503E0
2.778399844E1,6.243120134E-2,-7.540815830E0,-5.126560926E-1
2.780400469E1,5.393370390E-1,-6.699637413E0,-3.510091305E-1
2.782599844E1,1.453768849E0,-6.589437008E0,-1.037522435E0
2.784599844E1,1.757813334E0,-6.742675304E0,-1.896677017E0
2.786599844E1,1.862554789E0,-7.148846626E0,-2.962403297E0
2.788599844E1,1.287898540E0,-6.934298038E0,-3.359505653E0
2.790799688E1,1.271876574E0,-6.890139103E0,-1.622014165E0
2.792799688E1,1.342850208E0,-7.553198814E0,-1.294870496E0
2.794799688E1,1.517818451E0,-7.901737213E0,-1.116876006E0
2.796799688E1,1.607553244E0,-8.542665482E0,-2.236395121E0
2.798799688E1,1.764928818E0,-9.243504524E0,-2.564036846E0
2.800799688E1,2.495112658E0,-9.880353928E0,-3.635873079E0
2.802799688E1,7.752425075E-1,-1.005660439E1,-6.860508442E0
2.804799688E1,-1.727330327E0,-9.411884308E0,-7.844333649E0
2.806799688E1,-1.513671756E0,-1.033527088E1,-6.112741470E0
2.808799688E1,-1.568297863E0,-1.059704304E1,-7.093674660E0
2.810799688E1,-1.082753763E-1,-9.921543121E0,-1.147109985E1
2.812799688E1,1.536589146E0,-1.036611748E1,-1.229672527E1
2.814799688E1,2.339173317E0,-1.087433052E1,-6.418318272E0
2.816799688E1,4.705564082E-1,-1.049594021E1,-2.531964064E0
2.818799688E1,8.542703390E-1,-9.315915108E0,2.474838346E-1
2.820799844E1,1.484271049E0,-8.493420601E0,-3.496492207E-1
2.822799844E1,1.097731948E0,-1.103626442E1,-8.675629646E-2
2.824799844E1,1.280351996E0,-1.238088703E1,2.248318195E0
2.826799844E1,2.072622061E0,-1.354264832E1,3.666652918E0
2.828799844E1,2.438465834E0,-1.332152081E1,1.534185290E0
2.830799844E1,2.294047356E0,-1.170929432E1,-1.778719425E0
2.832799844E1,1.846513629E0,-1.029413891E1,-3.372644663E0
2.834999688E1,1.372701168E0,-8.624585152E0,-2.814431906E0
2.836999688E1,6.651954055E-1,-7.411222458E0,-2.425805092E0
2.838999688E1,1.454621106E-1,-6.410216331E0,-2.483361721E0
2.840999688E1,-2.550207973E-1,-5.909818649E0,-3.061417818E0
2.842999688E1,-2.036699504E-1,-6.216669559E0,-3.472387552E0
2.844999688E1,1.585727632E-1,-6.570206642E0,-3.693113565E0
2.846999688E1,3.763397932E-1,-6.585778236E0,-3.751570225E0
2.848999688E1,5.539034009E-1,-6.723253250E0,-3.606395483E0
2.850999688E1,7.542788982E-1,-6.725542545E0,-3.269023895E0
2.852999688E1,5.820400119E-1,-7.099200726E0,-2.980982065E0
2.854999688E1,5.188043714E-1,-7.700126171E0,-2.912374020E0
2.856999688E1,4.384549558E-1,-8.466232300E0,-3.640383720E0
2.858999688E1,7.390421629E-1,-9.201128006E0,-4.744713783E0
2.860999688E1,1.605360150E0,-9.854342461E0,-5.794188499E0
2.862999688E1,1.915083647E0,-1.082086277E1,-7.117511749E0
2.864999688E1,1.920379639E0,-1.122256184E1,-7.130871296E0
2.866999688E1,1.976920962E0,-1.201329041E1,-5.970995426E0
2.868999688E1,1.343367457E0,-1.363177013E1,-5.083196640E0
2.870999844E1,5.364927649E-1,-1.225491333E1,-2.809710741E0
2.873000000E1,1.385409594E0,-1.038282871E1,-2.781832457E0
2.875199688E1,8.189797997E-1,-8.182069778E0,-2.944188118E0
2.877199844E1,1.020217240E-1,-9.262103081E0,-1.902873158E0
2.879399844E1,-2.133875132E0,-9.341581345E0,-1.757277012E0
2.881400000E1,-2.317175627E0,-1.017138290E1,-2.091392517E0
2.883599844E1,-7.936204076E-1,-1.088181973E1,-2.963973761E0
2.885599844E1,5.070057511E-1,-1.119139004E1,-2.664248466E0
2.887599844E1,6.729334593E-1,-1.080883408E1,-1.419771194E0
2.889599844E1,6.668043137E-1,-1.014721107E1,-6.080315113E-1
2.891599844E1,1.038010955E0,-9.250774384E0,-6.832956076E-1
2.893799688E1,1.394699097E0,-8.305897713E0,-1.578439713E0
2.895799688E1,1.486914158E0,-7.659664154E0,-2.879946947E0
2.897799688E1,1.619007111E0,-7.092161655E0,-3.808638573E0
2.899799688E1,1.093642592E0,-6.957282066E0,-4.670015335E0
2.901799688E1,7.131656408E-1,-6.663925171E0,-4.110241413E0
2.903799688E1,7.305762768E-1,-6.722794056E0,-3.004177332E0
2.905799844E1,7.738730311E-1,-7.056401730E0,-2.506432295E0
2.907999688E1,7.403733730E-1,-7.296904087E0,-2.284882545E0
2.909999688E1,9.936128259E-1,-7.615314007E0,-3.180620432E0
2.911999688E1,1.630259752E0,-8.148148537E0,-4.336339951E0
2.913999688E1,2.019623995E0,-8.622363091E0,-5.840846539E0
2.915999688E1,1.553262353E0,-8.870029449E0,-7.207140923E0
2.917999688E1,8.167867064E-1,-9.731884003E0,-6.784296036E0
2.919999688E1,2.634675205E-1,-1.041072655E1,-5.209265709E0
2.921999688E1,-2.719142735E-1,-1.072881985E1,-6.523241997E0
2.923999688E1,5.413289666E-1,-1.041555309E1,-9.577696800E0
2.925999688E1,3.751618266E-1,-9.572918892E0,-8.724471092E0
2.927999688E1,3.320566118E-1,-1.074240875E1,-6.704195976E0
2.929999688E1,-1.458653092E0,-1.086909199E1,-1.859001875E0
2.931999844E1,-1.142618418E0,-1.089823341E1,6.334674954E-1
2.934199688E1,-1.026327252E0,-9.468416214E0,3.307637572E-1
2.936199688E1,-2.811750397E-2,-1.021406651E1,3.906953931E-1
2.938199688E1,-9.047209471E-2,-1.177452183E1,-9.808182120E-1
2.940199688E1,2.699797750E-1,-1.192455196E1,-6.868965030E-1
2.942199688E1,1.118101835E0,-1.256827545E1,-1.895901203E0
2.944199688E1,1.535717487E0,-1.179754353E1,-3.544730425E0
2.946199688E1,1.669515133E0,-1.045697308E1,-4.123035431E0
2.948199688E1,1.930942893E0,-9.518177986E0,-4.051813126E0
2.950199688E1,1.307722569E0,-8.394559860E0,-3.314532757E0
2.952199688E1,5.352285504E-1,-7.419181347E0,-2.806722641E0
2.954199688E1,-1.141555421E-2,-6.731719017E0,-2.936268091E0
2.956199688E1,-2.547526360E-1,-6.320568085E0,-3.030925274E0
2.958199688E1,-4.501482248E-1,-6.116696835E0,-2.638228178E0
2.960199688E1,-6.226073503E-1,-6.376218796E0,-1.995423436E0
2.962199688E1,-4.245111048E-1,-6.541984081E0,-1.802508354E0
2.964199688E1,1.297657285E-2,-6.522437572E0,-1.890777707E0
2.966199688E1,4.755746424E-1,-6.812519073E0,-2.209302187E0
2.968199688E1,9.732047319E-1,-7.071763039E0,-2.951322794E0
2.970199844E1,1.462148547E0,-7.622544289E0,-3.683163404E0
2.972400781E1,1.873271227E0,-8.763601303E0,-5.795720577E0
2.974599844E1,2.538524151E0,-1.053236103E1,-8.031512260E0
2.976800156E1,2.707315445E0,-1.130221176E1,-7.607269764E0
2.978999688E1,2.610714197E0,-1.214088154E1,-5.936882973E0
2.980999844E1,2.600447655E0,-1.282322979E1,-5.570081711E0
2.982999844E1,1.726784468E0,-1.329165077E1,-4.847616673E0
2.984999844E1,5.663148761E-1,-1.247145367E1,-4.322817326E0
2.986999844E1,2.710044980E-1,-1.022333717E1,-4.516240120E0
2.989199688E1,-4.702595174E-1,-8.935438156E0,-3.934152365E0
2.991199844E1,-1.793180466E0,-9.595710754E0,-2.542833805E0
2.993400000E1,-2.803140879E0,-1.107585430E1,-5.834574103E-1
2.995599844E1,-3.120324612E0,-1.141276646E1,-4.271543324E-1
2.997599844E1,-2.256295681E0,-1.108059597E1,-2.687730789E0
2.999599844E1,-1.175045371E0,-1.047859764E1,-3.409094334E0
3.001599844E1,-6.641898751E-1,-9.700088501E0,-2.314723969E0
3.003599844E1,-2.184469551E-1,-8.600480080E0,-1.671315551E0
3.005599844E1,4.543237090E-1,-7.793011665E0,-2.327288628E0
3.007799688E1,1.163323522E0,-6.677400112E0,-2.588993788E0
3.009799688E1,1.478907943E0,-6.212637424E0,-2.633008957E0
3.011799688E1,1.608635426E0,-6.654674053E0,-3.046247959E0
3.013799688E1,1.146880150E0,-6.542749882E0,-3.482442856E0
3.015799688E1,7.142861485E-1,-6.397642136E0,-2.399737120E0
3.017799688E1,5.987994671E-1,-6.599866390E0,-1.622990966E0
3.019799688E1,3.777858913E-1,-6.803584099E0,-1.425555587E0
3.021799688E1,4.193492234E-1,-7.119024754E0,-2.471342802E0
3.023799688E1,9.847543240E-1,-7.472054482E0,-4.567955017E0
3.025799688E1,1.293223262E0,-8.050483704E0,-6.020028591E0
3.027799688E1,1.127017856E0,-8.997179985E0,-7.463761330E0
3.029799688E1,3.951390386E-1,-1.007834339E1,-7.324619770E0
3.031799844E1,3.823923171E-1,-1.118521214E1,-6.273909569E0
3.033799844E1,3.234030247E0,-1.162396431E1,-9.911132812E0
3.035799844E1,6.063172221E-1,-1.091493511E1,-1.203034687E1
3.037799844E1,6.232585907E-1,-1.214829350E1,-9.762462616E0
3.039799844E1,-1.831468463E0,-1.036819649E1,-5.403080940E0
3.041799844E1,-3.460751534E0,-7.935322762E0,4.941709042E0
3.043999688E1,-1.432651997E0,-1.097694492E1,-1.860591531E0
3.045999688E1,-5.015757084E-1,-1.193922234E1,-2.418009520E0
3.047999688E1,-2.775013924E0,-1.242528439E1,-9.191532135E-1
3.049999688E1,-1.878452420E0,-1.379974842E1,-2.356469184E-1
3.051999688E1,9.659454226E-1,-1.397573185E1,-1.215430856E0
3.053999688E1,1.359389424E0,-1.217086697E1,-2.488131046E0
3.055999688E1,2.860783637E-1,-9.942276955E0,-2.587461710E0
3.057999688E1,-5.501875654E-2,-8.339358330E0,-3.098623753E0
3.059999688E1,-1.746809483E-1,-6.904963970E0,-3.813723803E0
3.061999688E1,7.902780920E-2,-5.928666115E0,-3.438696146E0
3.063999688E1,3.786094785E-1,-5.901851177E0,-2.429760456E0
3.065999688E1,2.767888904E-1,-5.802012920E0,-2.357819319E0
3.067999688E1,2.942090631E-1,-5.914013386E0,-1.748973846E0
3.069999688E1,-1.758397520E-1,-6.099372387E0,-1.582213044E0
3.071999688E1,-3.853419721E-1,-6.490288258E0,-1.619246483E0
3.073999688E1,-9.167876840E-2,-6.967902660E0,-2.040807962E0
3.075999688E1,-4.743392393E-2,-7.302631378E0,-2.516334772E0
3.077999844E1,1.320928931E-1,-8.060779572E0,-2.753159761E0
3.080199688E1,9.187988192E-2,-8.566118240E0,-3.727494478E0
3.082199688E1,4.313776791E-1,-9.903443336E0,-5.331322193E0
3.084199844E1,1.008399487E0,-1.040076637E1,-7.196500778E0
3.086399844E1,2.293645382E0,-1.116705513E1,-8.060070038E0
3.088400469E1,2.857968330E0,-1.156045151E1,-5.427453995E0
3.090599688E1,2.978760481E0,-1.350232029E1,-1.945298433E0
3.092599688E1,3.996525764E0,-1.540760708E1,-1.672464848E0
3.094599688E1,1.789684892E0,-1.130455875E1,-1.021126986E0
3.096599844E1,1.037876844E0,-7.110740662E0,-4.462983608E0
3.098799844E1,6.248483062E-1,-8.128928185E0,-4.089162350E0
3.100999688E1,-1.529722571E0,-1.107948399E1,-5.634878635E0
3.102999688E1,-4.666605473E0,-1.134569073E1,-5.873455524E0
3.104999688E1,-4.306517601E0,-9.823504448E0,-4.572149277E0
3.106999688E1,-2.920945406E0,-1.088536263E1,-2.619323730E0
3.108999688E1,-2.827341557E0,-1.019753742E1,-2.308958530E0
3.110999688E1,-1.685106158E0,-9.245995522E0,-3.189067125E0
3.112999688E1,-8.675150275E-1,-7.871819496E0,-3.680338144E0
3.114999688E1,-2.818262577E-1,-6.348360062E0,-4.392296791E0
3.116999688E1,-5.002923608E-1,-5.423623562E0,-4.451395512E0
3.118999688E1,-9.331257343E-1,-4.828654766E0,-3.188588142E0
3.120999688E1,-7.659051418E-1,-4.901055336E0,-1.741092205E0
3.122999688E1,-4.296155274E-1,-5.922651768E0,-4.217242599E-1
3.124999688E1,5.478412509E-1,-7.669892311E0,-9.032940269E-1
3.126999688E1,1.589797854E0,-9.189645767E0,-1.628775358E0
3.128999688E1,1.851694703E0,-9.493230820E0,-2.156610489E0
3.130999688E1,1.407302141E0,-9.391735077E0,-3.659786463E0
3.132999688E1,8.510716558E-1,-9.245469093E0,-5.785894871E0
3.134999688E1,9.272168875E-1,-8.985295296E0,-7.179885387E0
3.136999688E1,1.265230179E0,-9.575150490E0,-7.927354813E0
3.138999688E1,8.459097743E-1,-1.078585911E1,-8.919579506E0
3.140999844E1,1.996017218E0,-1.164150906E1,-1.034383202E1
3.142999844E1,2.062441826E0,-1.071695423E1,-1.018651485E1
3.144999844E1,-5.138914660E-2,-9.061345100E0,-9.697847366E0
3.147199844E1,-3.358758450E0,-8.035658836E0,-5.174703121E0
3.149399844E1,-2.472578287E0,-8.107169151E0,-1.062862754E0
3.151399844E1,-1.996735454E0,-1.002163029E1,-7.333535552E-1
3.153599844E1,-2.963916302E0,-1.216394234E1,-1.707544737E-2
3.155799688E1,-2.397591829E0,-1.304530525E1,1.484309286E-1
3.157799688E1,-6.158940196E-1,-1.179949665E1,-9.232999086E-1
3.159799688E1,1.311831027E-1,-1.139015579E1,-3.355253458E0
3.161799688E1,6.120728850E-1,-9.828514099E0,-3.160719633E0
3.163799844E1,1.280323267E0,-8.905606270E0,-3.147111177E0
3.165999688E1,1.668040276E0,-7.701007366E0,-3.005403042E0
3.167999688E1,1.188156128E0,-6.815353394E0,-2.806761026E0
3.169999844E1,8.651208282E-1,-6.204018116E0,-2.427021503E0
3.172199844E1,5.168507099E-1,-6.008900166E0,-2.007815838E0
3.174399844E1,2.344593853E-1,-6.286139011E0,-1.939303398E0
3.176400625E1,-4.517379776E-2,-6.558216095E0,-2.056044579E0
3.178599844E1,-1.403959841E-1,-7.064494133E0,-2.508481741E0
3.180600000E1,-4.043327868E-1,-7.664758682E0,-2.946429253E0
3.182799844E1,-3.737827837E-1,-8.220271111E0,-3.601655006E0
3.184799844E1,-1.148354858E-1,-8.706552505E0,-4.313068390E0
3.186799844E1,3.926394880E-1,-9.791624069E0,-5.004178047E0
3.188999688E1,1.000316620E0,-9.762098312E0,-5.770811558E0
3.190999844E1,1.485219121E0,-1.059677505E1,-6.791899681E0
3.192999844E1,1.762553811E0,-1.138062668E1,-7.002599716E0
3.194999844E1,1.779801607E0,-1.103487587E1,-7.160799026E0
3.196999844E1,1.735279083E0,-1.086335564E1,-7.629899502E0
3.198999844E1,8.089241385E-1,-1.165298176E1,-7.543248653E0
3.200999844E1,-8.579574227E-1,-1.108823776E1,-4.961121082E0
3.202999844E1,-2.373994589E-1,-1.054616070E1,-3.068332195E0
3.205199688E1,-1.003132224E0,-9.315637589E0,-2.315968752E0
3.207199688E1,-2.695775509E0,-1.059063625E1,-1.624178648E0
3.209199688E1,-4.579571724E0,-1.029144764E1,-6.461184025E-1
3.211199688E1,-4.536916733E0,-9.542847633E0,-9.210876822E-1
3.213199688E1,-2.462551355E0,-9.755884171E0,-2.282191515E0
3.215199688E1,-1.473851442E0,-9.208195686E0,-3.121837854E0
3.217199688E1,-9.071246982E-1,-8.124282837E0,-3.661634445E0
3.219199688E1,-4.846438766E-1,-6.630933285E0,-3.845806122E0
3.221199688E1,-1.798715889E-1,-6.079165459E0,-3.513624907E0
3.223199688E1,1.851867139E-1,-6.253788948E0,-3.001390457E0
3.225199688E1,5.512314439E-1,-6.729124069E0,-3.172729015E0
3.227199688E1,9.399253130E-1,-7.207954884E0,-3.793555260E0
3.229199688E1,5.682973266E-1,-7.263021469E0,-3.027477503E0
3.231199688E1,5.381686687E-1,-7.327588558E0,-2.471639633E0
3.233199688E1,2.219329178E-1,-7.416039467E0,-2.405224562E0
3.235199688E1,3.479062617E-1,-7.855212688E0,-3.057979822E0
3.237199688E1,8.846958876E-1,-8.678292274E0,-4.897138596E0
3.239199688E1,1.274117589E0,-9.366729736E0,-6.264553070E0
3.241199844E1,1.378696322E0,-9.852934837E0,-6.806696415E0
3.243199844E1,3.483754992E-1,-1.062440395E1,-7.371526718E0
3.245199844E1,9.028342962E-1,-1.093922234E1,-9.511837959E0
3.247199844E1,2.044025660E0,-1.045996094E1,-1.258911514E1
3.249199844E1,-3.143251657E0,-1.096625805E1,-9.131724358E0
3.251399844E1,-4.128724098E0,-8.992190361E0,1.172852397E0
3.253399844E1,-8.525751829E-1,-1.131524563E1,2.911540866E-1
3.255399844E1,1.557093114E-1,-1.180070400E1,-8.845234513E-1
3.257399844E1,-1.346834183E0,-1.205825329E1,-1.000182509E0
3.259400781E1,-2.295301914E0,-1.268838787E1,-4.888481200E-1
3.261599844E1,-9.746986628E-1,-1.240511513E1,3.256114200E-2
3.263799688E1,1.874659956E-1,-1.136637688E1,-1.519226313E0
3.265799688E1,1.097406298E-1,-9.923410416E0,-2.154312372E0
3.267799688E1,5.287355185E-2,-8.830429077E0,-2.144553423E0
3.269799688E1,-8.043560386E-2,-8.260887146E0,-2.068762779E0
3.271799688E1,8.714893833E-3,-7.477302551E0,-2.516708136E0
3.273799688E1,2.568404078E-1,-6.947130203E0,-3.347476959E0
3.275799844E1,1.709364355E-1,-6.628548145E0,-4.102187157E0
3.277799844E1,-2.583822310E-1,-6.354929924E0,-4.082161903E0
3.279799844E1,-9.624690413E-1,-6.269580841E0,-3.530777216E0
3.281999688E1,-1.565214157E0,-6.142343521E0,-3.118486166E0
3.283999688E1,-1.238721728E0,-6.311077118E0,-2.688152075E0
3.285999688E1,-5.485020280E-1,-6.768350601E0,-2.665263653E0
3.287999688E1,6.061160937E-2,-7.610640526E0,-3.123034954E0
3.289999688E1,7.015106678E-1,-8.567075729E0,-3.857834816E0
3.291999688E1,1.134142995E0,-9.855195045E0,-5.224761009E0
3.293999688E1,1.394325614E0,-1.066226196E1,-6.954275131E0
3.295999688E1,1.842922330E0,-9.926217079E0,-7.421546459E0
3.297999688E1,2.245646238E0,-1.060688782E1,-7.275375366E0
3.299999688E1,2.132936716E0,-1.172103500E1,-6.098118305E0
3.301999844E1,3.936546445E-1,-1.199969101E1,-5.184308529E0
3.304199688E1,-4.002530575E-1,-1.089976597E1,-3.959118843E0
3.306199688E1,-2.353691906E-1,-1.076462746E1,-3.400053740E0
3.308199688E1,-9.420513511E-1,-1.129800797E1,-2.066694021E0
3.310199688E1,-2.655677319E0,-1.222538757E1,-1.045040250E0
3.312199688E1,-3.744713306E0,-1.133621025E1,-1.713951588E0
3.314199688E1,-2.862133980E0,-1.026282215E1,-3.175659657E0
3.316199688E1,-1.773471475E0,-9.636728287E0,-3.749712467E0
3.318199688E1,-1.303853512E0,-8.716042519E0,-3.427730799E0
3.320199844E1,-8.160397410E-1,-7.465331554E0,-3.528698921E0
3.322400312E1,-1.813655645E-1,-5.781862736E0,-3.912125587E0
3.324400312E1,6.088359356E-1,-5.738566399E0,-3.325009823E0
3.326599688E1,6.154438853E-1,-5.518797874E0,-2.379961014E0
3.328599688E1,4.408395588E-1,-5.847589016E0,-1.658846617E0
3.330599688E1,3.991996050E-1,-6.415062428E0,-1.530526996E0
3.332599844E1,6.897599697E-1,-7.016820908E0,-1.412100196E0
3.334799688E1,8.474037647E-1,-7.753545284E0,-1.681783080E0
3.336800312E1,8.079856038E-1,-8.423663139E0,-2.458079100E0
3.339000625E1,5.564124584E-1,-8.990936279E0,-3.933711767E0
3.341199688E1,4.629332721E-1,-9.572564125E0,-5.547700882E0
3.343199688E1,4.297975302E-1,-9.910022736E0,-7.196548939E0
3.345199688E1,-1.906550825E-1,-9.884202957E0,-8.607787132E0
3.347199688E1,-1.264301300E0,-9.901996613E0,-8.709262848E0
3.349199688E1,-1.204187751E0,-1.066799831E1,-7.798709869E0
3.351199688E1,5.505610108E-1,-1.083987331E1,-9.260838509E0
3.353199688E1,2.514926910E0,-9.664578438E0,-1.060352612E1
3.355199844E1,-3.671364784E-1,-9.699227333E0,-9.102908134E0
3.357199844E1,-3.138491869E0,-8.489418030E0,-3.508405685E0
3.359199844E1,-1.201420069E0,-1.026349258E1,1.594155282E-1
3.361399688E1,-9.844574332E-1,-1.131660652E1,-1.162892461E0
3.363399844E1,-2.318114042E0,-1.345213890E1,-8.183189631E-1
3.365399844E1,-2.125007391E0,-1.292085552E1,-2.662352286E-3
3.367399844E1,-1.108189821E0,-1.229213810E1,-5.285535455E-1
3.369399844E1,-1.462675333E0,-1.101731110E1,-1.638285160E0
3.371399844E1,-1.679283500E0,-9.156623840E0,-2.288473606E0
3.373399844E1,-1.129411936E0,-8.042697906E0,-2.828318357E0
3.375399844E1,-1.031230539E-1,-7.636373520E0,-2.472980499E0
3.377399844E1,6.060011387E-1,-7.498333454E0,-2.144898176E0
3.379399844E1,8.945887089E-1,-7.237403870E0,-2.173494577E0
3.381399844E1,8.782506585E-1,-6.922748089E0,-2.787281752E0
3.383399844E1,3.226138949E-1,-6.730407238E0,-2.669420004E0
3.385599844E1,-1.055651382E-1,-6.628902912E0,-2.625950813E0
3.387599844E1,-9.770258516E-2,-6.504662991E0,-2.683344841E0
3.389599844E1,1.493598819E-1,-6.711320877E0,-2.665828705E0
3.391599844E1,5.483966470E-1,-7.088015079E0,-2.965276480E0
3.393599844E1,9.418406487E-1,-7.868763924E0,-3.806273222E0
3.395799688E1,1.716182947E0,-8.544426918E0,-5.192889690E0
3.397799688E1,2.355654955E0,-9.568829536E0,-6.156335354E0
3.399799844E1,2.618404388E0,-1.015493965E1,-6.188877583E0
3.401999844E1,2.380880356E0,-1.055388069E1,-6.492998600E0
3.404199688E1,1.596041918E0,-1.001362419E1,-6.280383587E0
3.406199844E1,1.534530044E0,-1.034307575E1,-5.603303432E0
3.408400156E1,1.471792340E0,-1.137574291E1,-5.497881889E0
3.410400469E1,7.882478237E-1,-1.172107315E1,-6.246893406E0
3.412599844E1,4.134882092E-1,-1.065597820E1,-4.410090923E0
3.414599844E1,1.385763939E-2,-1.029326630E1,-3.450581074E0
3.416599844E1,-8.329810500E-1,-1.060144806E1,-1.860945940E0
3.418599844E1,-2.695162296E0,-1.182583427E1,-5.190533400E-1
3.420799844E1,-3.546933174E0,-1.198293209E1,-1.850612521E0
3.422999844E1,-2.025877714E0,-1.079354000E1,-3.580911636E0
3.424999844E1,-1.472998977E0,-9.509242058E0,-3.959090233E0
3.427199844E1,-1.289536119E0,-8.127557755E0,-3.600649357E0
3.429399844E1,-4.044285715E-1,-6.837772846E0,-3.927142143E0
3.431399844E1,4.837341011E-1,-6.151795864E0,-3.716088295E0
3.433399844E1,1.072113872E0,-5.866675377E0,-3.160154819E0
3.435399844E1,1.459591508E0,-5.829182148E0,-2.545295000E0
3.437399844E1,1.146640658E0,-5.959234715E0,-2.128962517E0
3.439399844E1,7.329896092E-1,-6.247343540E0,-1.299170375E0
3.441400312E1,7.712106705E-1,-7.057225704E0,-9.340355396E-1
3.443599844E1,9.278010130E-1,-7.901287079E0,-9.192202091E-1
3.445799688E1,9.805021882E-1,-8.284550667E0,-1.487823963E0
3.447799688E1,6.126762033E-1,-8.585214615E0,-3.515655279E0
3.449799844E1,1.342515111E0,-8.518272400E0,-5.188110352E0
3.451799844E1,2.836238384E0,-9.837132454E0,-6.673148155E0
3.453799844E1,2.871145725E0,-1.092834282E1,-7.053816319E0
3.455799844E1,1.365853786E0,-1.120745945E1,-7.389665127E0
3.457799844E1,1.207376719E0,-1.163873100E1,-8.142910004E0
3.459999844E1,3.031030416E0,-1.175331879E1,-1.155584431E1
3.461999844E1,7.176476121E-1,-1.050252914E1,-9.076399803E0
3.464199844E1,-4.070123672E0,-8.747982025E0,-1.318640113E0
3.466199844E1,-2.862555504E0,-9.885974884E0,3.022411346E0
3.468401250E1,6.695145369E-2,-1.182356453E1,-7.147458792E-1
3.470599844E1,9.420704842E-2,-1.208130455E1,-4.980418384E-1
3.472599844E1,-2.462493896E0,-1.278252792E1,-3.365481496E-1
3.474599844E1,-2.649777889E0,-1.223462009E1,-1.579598486E-1
3.476599844E1,-1.685010433E0,-1.109504700E1,-1.543656707E0
3.478599844E1,-5.516815186E-1,-1.017911148E1,-2.493714333E0
3.480602344E1,1.881650984E-1,-9.546276093E0,-3.394776821E0
3.482799844E1,7.780677080E-1,-8.937890053E0,-3.690795898E0
3.484799844E1,8.776856065E-1,-7.930007935E0,-3.992542028E0
3.486799844E1,9.524230361E-1,-7.408062458E0,-3.259341717E0
3.488799844E1,5.128476024E-1,-7.005137444E0,-2.207099676E0
3.490799844E1,7.009264827E-2,-6.720112324E0,-1.799865127E0
3.492799844E1,-1.745085716E-1,-6.537923336E0,-1.940768719E0
3.494799844E1,-3.723270893E-1,-6.705804825E0,-1.947855473E0
3.496799844E1,-5.876902938E-1,-6.804599285E0,-2.168648720E0
3.498799844E1,-5.720514059E-1,-6.933186531E0,-2.394259214E0
3.500799844E1,-3.340294361E-1,-7.287816048E0,-2.975379944E0
3.502799844E1,1.264138520E-1,-7.946700096E0,-3.752872705E0
3.504799844E1,8.076025248E-1,-8.960261345E0,-5.153557777E0
3.506799844E1,1.738324404E0,-1.007399654E1,-5.684304237E0
3.508799844E1,2.266408682E0,-1.105663395E1,-6.209525108E0
3.510799844E1,2.074652433E0,-1.119000053E1,-5.930360794E0
3.512999688E1,2.670942545E0,-1.113824844E1,-5.005117416E0
3.514999688E1,2.325899839E0,-1.186477375E1,-4.201345444E0
3.516999688E1,1.131786942E0,-1.201212215E1,-4.521401882E0
3.518999688E1,6.690548658E-1,-1.109899235E1,-3.301824570E0
3.520999688E1,5.728462338E-1,-1.025337982E1,-3.309236765E0
3.522999688E1,9.977117181E-2,-1.064938927E1,-2.412321091E0
3.524999688E1,-1.932379365E0,-1.201216984E1,-1.491319418E0
3.526999688E1,-3.897166491E0,-1.253364563E1,-1.444460154E0
3.528999688E1,-2.899110079E0,-1.152956581E1,-2.584531307E0
3.530999688E1,-1.441941500E0,-1.077344799E1,-3.960737467E0
3.532999688E1,-8.929510713E-1,-9.325396538E0,-3.974164009E0
3.534999688E1,-7.202621102E-1,-7.667191505E0,-4.058066845E0
3.536999688E1,-2.611786723E-1,-6.441063404E0,-3.508013010E0
3.538999688E1,7.904121876E-1,-6.265213966E0,-3.080523491E0
3.540999688E1,1.289181828E0,-5.950299740E0,-2.447870016E0
3.542999688E1,9.602280855E-1,-5.932554245E0,-1.837300777E0
3.544999688E1,8.549406528E-1,-5.969654560E0,-8.661647439E-1
3.546999688E1,9.235585332E-1,-6.434244633E0,-5.323555470E-1
3.548999688E1,7.937353253E-1,-6.959647655E0,-4.584896266E-1
3.550999688E1,7.608964443E-1,-7.562124729E0,-4.580969810E-1
3.552999688E1,8.423950672E-1,-7.918190002E0,-1.381856561E0
3.554999688E1,1.054023266E0,-8.325932503E0,-2.910439491E0
3.556999688E1,1.486013889E0,-8.946902275E0,-4.472828388E0
3.558999688E1,1.519341230E0,-9.811390877E0,-6.032670021E0
3.560999844E1,5.971235037E-1,-1.059158421E1,-7.212169170E0
3.562999844E1,2.332239747E-1,-1.109951019E1,-9.147057533E0
3.564999844E1,1.082169533E0,-1.188222122E1,-1.093840790E1
3.566999844E1,1.242897153E0,-1.273201084E1,-1.098574734E1
3.568999844E1,-6.056851149E-1,-1.266332531E1,-8.251491547E0
3.570999844E1,-1.807220101E0,-1.087530708E1,-2.947520733E0
3.572999844E1,-2.152406454E0,-1.006530094E1,3.021338940E0
3.575199688E1,3.704404533E-1,-1.004183674E1,-1.432134867E0
3.577199844E1,1.211351156E0,-1.105145359E1,-1.220889688E0
3.579399844E1,-1.126749635E0,-1.192039585E1,3.867976367E-1
3.581400000E1,-8.372044563E-1,-1.267187786E1,8.888234496E-1
3.583599844E1,5.343571305E-1,-1.187065315E1,-1.863646694E-2
3.585799688E1,7.371364236E-1,-1.102803802E1,-1.243586659E0
3.587799688E1,-2.479626834E-1,-9.526949883E0,-1.939217210E0
3.589799688E1,-5.619670153E-1,-8.444857597E0,-2.521075249E0
3.591799688E1,-5.673491955E-1,-7.332826614E0,-3.368651390E0
3.593799688E1,-2.262807935E-1,-6.708352089E0,-3.581429005E0
3.595799688E1,-2.065238357E-1,-6.562334538E0,-3.043480396E0
3.597799688E1,-4.393360019E-1,-5.969616413E0,-2.936804533E0
3.599799688E1,-4.991048574E-1,-5.747204781E0,-2.832024574E0
3.601799688E1,-4.456854165E-1,-5.732264519E0,-2.629609108E0
3.603799688E1,-4.970075488E-1,-6.133264542E0,-2.396931171E0
3.605799844E1,-3.454641402E-1,-6.703429699E0,-2.236318350E0
3.607999688E1,1.104971990E-1,-7.553773403E0,-2.153182030E0
3.609999688E1,6.755575538E-1,-8.609693527E0,-2.543053865E0
3.611999688E1,1.140386939E0,-9.587101936E0,-3.460780382E0
3.613999844E1,1.577280879E0,-1.082096767E1,-4.848363876E0
3.615999844E1,1.978434205E0,-1.175772381E1,-6.538249016E0
3.617999844E1,2.462838650E0,-1.179257298E1,-7.141654968E0
3.620199844E1,3.042139530E0,-1.097015572E1,-7.234569073E0
3.622399844E1,2.379635572E0,-1.064144135E1,-6.988186359E0
3.624399844E1,6.942322850E-1,-1.034710789E1,-6.310943127E0
3.626599688E1,-4.515177011E-1,-1.083981514E1,-4.333591461E0
3.628599688E1,-1.271618009E0,-1.144404507E1,-2.802872896E0
3.630599688E1,-1.331741214E0,-1.214716434E1,-1.454659581E0
3.632599844E1,-1.991774678E0,-1.281430340E1,2.154781520E-1
3.634799688E1,-2.310232162E0,-1.373146439E1,7.780867815E-1
3.636799844E1,-1.705744267E0,-1.130261421E1,-1.147751570E0
3.638999688E1,-1.295473814E0,-1.005710220E1,-2.115152597E0
3.640999688E1,-1.024478912E0,-8.657395363E0,-2.551548481E0
3.642999688E1,-4.299124479E-1,-7.194001675E0,-3.014165878E0
3.644999688E1,5.985312462E-1,-6.232394695E0,-3.492498636E0
3.646999688E1,2.662246943E0,-5.631593227E0,-4.722438335E0
3.648999688E1,2.184412003E0,-5.544118881E0,-4.535269260E0
3.650999688E1,1.543379068E0,-5.542108059E0,-1.946313620E0
3.652999688E1,1.129929066E0,-5.533095837E0,-1.088499799E-1
3.654999688E1,4.704893529E-1,-6.169991493E0,2.597996294E-1
3.656999688E1,9.126696736E-3,-6.772784710E0,2.027888745E-1
3.658999688E1,-1.378389746E-1,-7.776252270E0,-3.756885827E-1
3.660999688E1,4.444021285E-1,-8.649426460E0,-1.581465960E0
3.662999688E1,9.799275994E-1,-9.530847549E0,-3.296748877E0
3.664999844E1,1.519504070E0,-9.736433029E0,-4.984210968E0
3.667199688E1,1.401355028E0,-9.864551544E0,-7.170959473E0
3.669199844E1,7.915901542E-1,-1.058317566E1,-9.997697830E0
3.671399844E1,3.249410629E0,-1.230346775E1,-1.108646584E1
3.673399844E1,2.842539787E0,-1.338213158E1,-1.294598579E1
3.675399844E1,1.293692470E0,-1.304115963E1,-1.079421997E1
3.677399844E1,-1.668250918E0,-1.163223839E1,-9.236284256E0
3.679399844E1,-5.114503384E0,-7.453791618E0,1.558912635E0
3.681599844E1,-3.345417976E0,-9.733158112E0,1.199111938E0
3.683599844E1,-1.801588833E-1,-1.360586548E1,-2.684330940E0
3.685799688E1,4.931768179E-1,-1.374957561E1,-1.727943182E0
3.687799688E1,-2.020217657E0,-1.296383572E1,-1.830711961E0
3.689799688E1,-1.631409049E0,-1.184560013E1,3.228341788E-2
3.691799688E1,-3.375249803E-1,-1.049342155E1,-1.638457537E0
3.693799688E1,-1.415739357E-1,-8.666953087E0,-9.194405079E-1
3.695799688E1,-2.531149983E-2,-7.655795097E0,-1.038633466E0
3.697799688E1,2.411535680E-1,-6.735186100E0,-1.617541909E0
3.699799844E1,5.150119662E-1,-6.235056877E0,-2.376551867E0
3.701999688E1,4.993442595E-1,-6.027872086E0,-2.656117678E0
3.703999844E1,3.641293347E-1,-5.944170952E0,-2.467157602E0
3.705999844E1,2.677675188E-1,-5.962271214E0,-2.283599138E0
3.708199688E1,3.852749243E-2,-6.156785488E0,-2.454190969E0
3.710199688E1,-2.238291353E-1,-6.172405243E0,-2.530776501E0
3.712199844E1,-4.114387929E-1,-6.577685833E0,-2.322212934E0
3.714199844E1,-4.629428387E-1,-7.221305370E0,-2.165210724E0
3.716199844E1,-7.191223651E-2,-8.210933685E0,-2.500408411E0
3.718399844E1,4.538927674E-1,-9.448975563E0,-3.553723097E0
3.720400156E1,8.864005208E-1,-1.067978668E1,-5.020947456E0
3.722599844E1,1.666728258E0,-1.151703930E1,-7.240630627E0
3.724599844E1,1.944130182E0,-1.125620461E1,-7.903355598E0
3.726599844E1,2.453750134E0,-1.071924305E1,-7.895109653E0
3.728599844E1,2.761251926E0,-1.085850906E1,-7.062712669E0
3.730599844E1,2.715091705E0,-1.204391670E1,-6.333238125E0
3.732599844E1,1.296986938E0,-1.082500935E1,-4.467427254E0
3.734599844E1,-2.079124749E-2,-1.002374744E1,-3.183493376E0
3.736599844E1,-4.731804430E-1,-1.054856586E1,-1.962038755E0
3.738599844E1,-1.162135959E0,-1.345526028E1,-5.815994740E-1
3.740599844E1,-2.642700672E0,-1.369109821E1,-8.014542460E-1
3.742599844E1,-3.421352625E0,-1.168577290E1,-2.190608501E0
3.744599844E1,-2.989955902E0,-1.044865036E1,-2.460760593E0
3.746599844E1,-2.833221674E0,-9.125786781E0,-2.255979776E0
3.748599844E1,-2.328954935E0,-7.472169399E0,-2.606634617E0
3.750599844E1,-1.364522576E0,-5.880925179E0,-3.143663406E0
3.752599844E1,1.090194941E0,-6.066706181E0,-4.762996197E0
3.754599844E1,2.403452873E0,-5.657757282E0,-5.990781307E0
3.756599844E1,1.381032944E0,-5.687895298E0,-3.892330408E0
3.758600313E1,7.415608764E-1,-5.399327278E0,-1.628737092E0
3.760799844E1,3.492182493E-1,-5.791296482E0,2.607668638E-1
3.762799844E1,1.289804429E-1,-7.063201427E0,-7.631182671E-1
3.764799844E1,3.231693506E-1,-7.822335720E0,-1.761816382E0
3.766999844E1,7.164409012E-2,-8.592214584E0,-2.592125416E0
3.768999844E1,2.530192435E-1,-9.209115028E0,-3.710849762E0
3.770999844E1,1.075935006E0,-9.277435303E0,-5.205808640E0
3.772999844E1,1.619533777E0,-1.017729187E1,-7.065643787E0
3.774999844E1,3.751120329E0,-1.311251545E1,-1.106020641E1
3.777199844E1,2.560493469E0,-1.251530647E1,-1.418791485E1
3.779399844E1,1.216426849E0,-1.040568924E1,-1.141090965E1
3.781599844E1,-1.990615964E0,-9.721272469E0,-9.497588158E0
3.783599844E1,-3.340486050E0,-7.686546326E0,4.849024296E0
3.785599844E1,-3.245761633E0,-8.050378799E0,7.049746037E0
3.787599844E1,-2.128502607E0,-1.268857956E1,-4.165815115E-1
3.789599844E1,-6.402190924E-1,-1.550461006E1,-2.285706043E0
3.791599844E1,-1.379337907E0,-1.284788990E1,-2.625481486E-1
3.793599844E1,-2.559277058E0,-1.154393101E1,-8.318318725E-1
3.795599844E1,-1.162078500E0,-1.176848698E1,-1.175524235E0
3.797599844E1,-2.315480411E-1,-1.044336414E1,-8.659061193E-1
3.799599844E1,1.492736787E-1,-9.141234398E0,-1.602669120E0
3.801599844E1,6.164590716E-1,-8.029137611E0,-2.658531189E0
3.803599844E1,1.184938252E-1,-6.668359280E0,-3.829075336E0
3.805599844E1,2.875435948E-1,-6.170518398E0,-4.547000885E0
3.807599844E1,1.138969660E-1,-6.235545158E0,-4.145359039E0
3.809599844E1,-1.374367476E-1,-6.428460598E0,-3.401432753E0
3.811599844E1,-2.751416564E-1,-6.351415157E0,-2.740527868E0
3.813599844E1,-2.646454871E-1,-6.827947140E0,-2.520165443E0
3.815599844E1,-3.205548823E-1,-6.868313313E0,-2.680126905E0
3.817599844E1,-1.205193281E0,-6.970660686E0,-3.143586874E0
3.819599844E1,-6.804129481E-1,-8.270587921E0,-2.796695709E0
3.821599844E1,-4.068227485E-2,-9.484400749E0,-3.000461340E0
3.823599844E1,6.476985812E-1,-1.101096153E1,-3.873550177E0
3.825599844E1,1.209684849E0,-1.166375542E1,-4.677130222E0
3.827599844E1,1.849061131E0,-1.144132519E1,-5.648831367E0
3.829599844E1,2.733536720E0,-1.180022526E1,-6.398848534E0
3.831599844E1,1.536320925E0,-1.329703236E1,-5.839247227E0
3.833599844E1,-2.653924525E-1,-1.096902561E1,-2.805860758E0
3.835799844E1,-2.436818480E-1,-1.077545929E1,-2.831268072E0
3.837999844E1,-1.451355457E0,-1.265222549E1,-2.840768337E0
3.840199844E1,-3.997962475E0,-1.465619278E1,-2.546453953E0
3.842199844E1,-5.651752472E0,-1.251957703E1,-3.075371265E0
3.844401250E1,-4.372683525E0,-1.051659775E1,-4.402544498E0
3.846599844E1,-3.250866175E0,-8.721491814E0,-4.118668556E0
3.848599844E1,-2.664391994E0,-7.055415630E0,-3.563673258E0
3.850599844E1,-5.589694977E-1,-6.572821140E0,-4.012931347E0
3.852599844E1,-1.955009252E-1,-5.331944942E0,-3.274999857E0
3.854599844E1,6.653007865E-2,-4.621518135E0,-1.838775635E0
3.856599844E1,4.190906286E-1,-4.795662403E0,-2.167039812E-1
3.858599844E1,4.862719476E-1,-5.239001751E0,3.148375154E-1
3.860600156E1,6.140265465E-1,-5.735722065E0,6.986759901E-1
3.862799844E1,7.962636352E-1,-6.593708038E0,-1.614458114E-1
3.864799844E1,1.543991923E0,-7.333784580E0,-1.048966765E0
3.866799844E1,2.325995684E0,-7.868936539E0,-2.239881039E0
3.868799844E1,2.920495033E0,-8.978907585E0,-3.739302397E0
3.870799844E1,3.051764488E0,-9.678905487E0,-5.018715858E0
3.872799844E1,2.596023321E0,-1.032806969E1,-5.506261826E0
3.874799844E1,1.658683896E0,-1.118656254E1,-6.431859970E0
3.876799844E1,4.307264805E0,-1.291586590E1,-1.437943172E1
3.878799844E1,1.864422321E0,-1.255937862E1,-1.273540020E1
3.880799844E1,-1.272518158E0,-1.243132687E1,-1.305309200E1
3.882799844E1,-2.872620583E0,-8.680541992E0,3.608358860E0
3.884799844E1,-2.046659470E0,-1.147845364E1,3.302350998E0
3.886799844E1,-5.996708870E-1,-1.511713314E1,-1.909883380E0
3.888799844E1,-1.069068432E0,-1.449670029E1,-1.235274076E0
3.890799844E1,-3.561432362E0,-1.401582909E1,-1.158113599E0
3.892799844E1,-2.953832150E0,-1.355157375E1,-5.510782003E-1
3.894799844E1,-4.171656966E-1,-1.288823605E1,-6.960327029E-1
3.896800000E1,-3.821050227E-1,-1.056637764E1,-8.989174366E-1
3.898999688E1,-1.065994382E0,-8.009830475E0,-1.125322580E0
3.900999844E1,-1.153085828E0,-6.211220264E0,-1.942099810E0
3.902999844E1,-1.007010818E0,-5.402669430E0,-2.878041029E0
3.905199844E1,-6.883138418E-1,-4.501434803E0,-3.205845594E0
3.907399844E1,-6.587406397E-1,-4.009100437E0,-3.575663567E0
3.909399844E1,-8.430367708E-1,-3.879344225E0,-3.168180227E0
3.911599844E1,-7.149373889E-1,-3.842607498E0,-2.610206604E0
3.913599844E1,-7.589619160E-1,-4.599951267E0,-1.931009889E0
3.915599844E1,-5.823847651E-1,-5.724948406E0,-1.615741372E0
3.917599844E1,-1.121731400E-1,-7.042659283E0,-1.960209608E0
3.919599844E1,4.004924893E-1,-8.627266884E0,-2.943690300E0
3.921599844E1,1.190914154E0,-1.089017963E1,-3.996152639E0
3.923799844E1,2.510502338E0,-1.264445877E1,-5.293024540E0
3.925799844E1,3.912776947E0,-1.321318722E1,-7.354719162E0
3.927799844E1,3.887158871E0,-1.229033756E1,-7.767872334E0
3.929999688E1,2.715714455E0,-1.120683670E1,-6.077211857E0
3.931999844E1,2.242648602E0,-1.121401978E1,-5.088521481E0
3.934199844E1,1.047204733E0,-1.133889198E1,-4.741419315E0
3.936399844E1,9.111086130E-1,-1.003208828E1,-3.490927935E0
3.938400938E1,5.111525059E-1,-1.061220360E1,-3.161323071E0
3.940401250E1,-6.416460499E-3,-1.238112640E1,-1.971462250E0
3.942402344E1,-2.290341377E0,-1.454367352E1,-1.769487381E0
3.944599844E1,-4.235649586E0,-1.496161556E1,-2.069739580E0
3.946599844E1,-3.535555840E0,-1.377612209E1,-3.018829823E0
3.948599844E1,-2.791026354E0,-1.166173553E1,-2.528095007E0
3.950599844E1,-2.293673992E0,-9.885543823E0,-1.647804618E0
3.952799688E1,-6.478518248E-1,-8.130182266E0,-2.887368917E0
3.954799688E1,1.446681976E0,-7.637455463E0,-5.776231766E0
3.956800000E1,6.574094892E-1,-5.457343102E0,-4.967250347E0
3.958999688E1,1.025542021E0,-4.322242737E0,-2.066339493E0
3.960999688E1,1.261983752E0,-4.183177948E0,-1.905976087E-1
3.962999688E1,6.027163267E-1,-4.303769112E0,8.769003153E-1
3.964999688E1,-1.952998191E-1,-4.442124844E0,1.264205575E0
3.966999688E1,-6.671203375E-1,-5.351883888E0,6.656646729E-1
3.968999688E1,-3.382911384E-1,-6.220317841E0,-4.378803372E-1
3.970999688E1,6.893385202E-2,-7.074665070E0,-1.447639704E0
3.972999688E1,8.598631620E-1,-8.679221153E0,-3.139679432E0
3.974999688E1,1.725644827E0,-9.958461761E0,-4.795394421E0
3.976999688E1,1.298969388E0,-1.069848061E1,-7.002293110E0
3.978999688E1,-1.974354535E-1,-1.089052486E1,-9.147956848E0
3.980999844E1,3.291471958E0,-1.183427048E1,-1.155116081E1
3.982999844E1,2.602344036E0,-1.236625290E1,-1.450738811E1
3.985199688E1,-2.601922750E-1,-1.177141762E1,-1.127891254E1
3.987199688E1,-2.921289921E0,-1.083577347E1,-9.766667366E0
3.989199688E1,-4.114483356E0,-7.599263191E0,1.969795942E0
3.991199688E1,-2.596818209E0,-1.029236603E1,4.492987633E0
3.993199688E1,-3.730549216E-1,-1.462699223E1,-1.421571612E0
3.995199688E1,-7.766023874E-1,-1.539897823E1,-2.064491510E0
3.997199688E1,-3.226340055E0,-1.491640377E1,1.250951290E0
3.999199688E1,-1.817706704E0,-1.473341942E1,1.138988733E0
4.001199688E1,3.236481845E-1,-1.285412407E1,3.346136212E-1
4.003199688E1,5.510590076E-1,-1.113322926E1,-8.841307461E-2
4.005199688E1,-1.353968978E-1,-9.163204193E0,-1.455923557E0
4.007199688E1,-2.838374078E-1,-7.182241440E0,-2.238147736E0
4.009199688E1,-2.963159680E-1,-5.754291534E0,-3.026893616E0
4.011199688E1,-2.979344502E-2,-4.728835583E0,-3.235533714E0
4.013199688E1,1.212327927E-1,-4.128590107E0,-3.315710783E0
4.015199688E1,-7.376056910E-2,-3.807738304E0,-2.707535744E0
4.017199688E1,-3.011331260E-1,-3.838633060E0,-2.322605371E0
4.019199688E1,-3.998508155E-1,-4.163640976E0,-2.567302465E0
4.021199688E1,-6.333429813E-1,-5.055835724E0,-2.270009756E0
4.023199688E1,-5.797511339E-1,-6.491523266E0,-2.010947466E0
4.025199688E1,-2.109961957E-1,-8.143781662E0,-2.226310730E0
4.027199688E1,4.252293706E-1,-9.769559860E0,-2.742855072E0
4.029199688E1,1.262567878E0,-1.126666355E1,-3.892167568E0
4.031199688E1,2.141862392E0,-1.249772358E1,-5.454594612E0
4.033199844E1,3.705036640E0,-1.330866814E1,-6.113996029E0
4.035199844E1,4.271859169E0,-1.361029911E1,-6.918371677E0
4.037399844E1,4.611395359E0,-1.276792240E1,-5.997111320E0
4.039399844E1,3.900719404E0,-1.252626133E1,-6.335105419E0
4.041599844E1,1.786371350E0,-1.140009689E1,-5.410541534E0
4.043599844E1,-3.222116828E-1,-1.001597023E1,-4.297295570E0
4.045799688E1,-7.021810412E-1,-1.047403908E1,-3.313488960E0
4.047799688E1,-1.323294401E0,-1.311811829E1,-2.642030239E0
4.049799688E1,-2.789024591E0,-1.455504227E1,-1.652181149E0
4.051799688E1,-2.890845299E0,-1.445253086E1,-5.712277889E-1
4.053799688E1,-2.062422752E0,-1.213993359E1,-1.416457653E0
4.055799688E1,-2.156620264E0,-1.026381874E1,-1.459045649E0
4.057799688E1,-1.974517345E0,-8.373079300E0,-4.936173260E-1
4.059799688E1,-1.124642730E0,-7.016332626E0,-1.224586293E-1
4.061799688E1,-3.142628968E-1,-5.756254673E0,-1.871595234E-1
4.063799688E1,4.239460826E-1,-5.061074257E0,-7.648995519E-1
4.065799688E1,1.965275645E0,-4.840673923E0,-1.822543025E0
4.067799688E1,1.562159181E0,-5.022173405E0,-2.908773184E0
4.069799688E1,4.876318276E-1,-5.246806622E0,-5.919232965E-1
4.071799688E1,9.368319511E-1,-5.965038776E0,1.413000345E0
4.073799688E1,5.823369026E-1,-6.733184338E0,4.433391094E-1
4.075799688E1,3.956849277E-1,-7.227999210E0,-8.851171732E-1
4.077799688E1,1.161724091E0,-7.537914276E0,-1.574867606E0
4.079799844E1,1.817227840E0,-8.626778603E0,-2.436732292E0
4.081999844E1,1.938546777E0,-9.677076340E0,-4.397219658E0
4.084199844E1,1.340944409E0,-1.086779881E1,-5.713207245E0
4.086400312E1,2.858188391E0,-1.160077000E1,-8.185650826E0
4.088599688E1,5.372540474E0,-1.237275600E1,-1.286845112E1
4.090599844E1,3.666872978E0,-1.150843906E1,-1.250280857E1
4.092799688E1,3.756301165E0,-1.242785072E1,-1.137596321E1
4.094799688E1,-5.417589664E0,-9.096108437E0,-6.577360153E0
4.096800469E1,-4.110355854E0,-7.655412197E0,7.432128906E0
4.098999688E1,-1.395379066E0,-1.332506371E1,3.104494333E0
4.100999688E1,-8.205503821E-1,-1.648625183E1,-2.926882744E0
4.102999688E1,-1.059338450E0,-1.575939274E1,-1.339115381E0
4.104999688E1,-1.671717763E0,-1.567494392E1,1.990615964E0
4.106999688E1,-9.842084646E-1,-1.341380310E1,4.707766771E-1
4.108999688E1,4.258710444E-1,-1.220316982E1,-1.284355044E0
4.110999688E1,3.288675547E-1,-1.021282101E1,-1.076050043E0
4.112999688E1,1.180341393E-1,-8.665286064E0,-1.405271888E0
4.114999688E1,8.917539716E-1,-7.120116234E0,-2.459448576E0
4.116999844E1,1.451010704E0,-5.846726418E0,-3.634398222E0
4.119199844E1,1.048832774E0,-4.168247700E0,-3.449422121E0
4.121199844E1,7.899525166E-1,-3.336023092E0,-3.623940229E0
4.123199844E1,2.552410662E-1,-2.532136440E0,-3.477175713E0
4.125199844E1,-5.966350436E-1,-2.204044580E0,-3.276905537E0
4.127199844E1,-1.109195352E0,-2.617053986E0,-2.980417252E0
4.129399844E1,-1.226492047E0,-4.320499897E0,-2.872840881E0
4.131400000E1,-1.027524233E0,-5.836814880E0,-2.538859367E0
4.133599844E1,-4.175008833E-1,-8.697473526E0,-2.792721510E0
4.135799844E1,9.552481771E-1,-1.211944962E1,-3.091565609E0
4.137999844E1,3.086470604E0,-1.496341610E1,-3.954052687E0
