"Time (s)","Gyroscope x (rad/s)","Gyroscope y (rad/s)","Gyroscope z (rad/s)"
8.510000000E-4,-4.487590492E-1,-1.477194309E0,-6.312856078E-2
2.284943800E-2,-5.217487216E-1,-1.402878165E0,-3.351381123E-1
4.486193800E-2,-4.597371817E-1,-1.160975575E0,-6.692639589E-1
6.684943800E-2,-4.012686610E-1,-9.259495139E-1,-9.146921635E-1
8.684943800E-2,-4.317595363E-1,-8.322427869E-1,-9.821665883E-1
1.068494380E-1,-4.346916974E-1,-1.169422984E0,-9.185318947E-1
1.268494380E-1,-4.054923356E-1,-1.552348137E0,-9.415876865E-1
1.468525630E-1,-4.159119725E-1,-1.927855730E0,-1.198168516E0
1.688478750E-1,-5.312433243E-1,-2.348916531E0,-1.672636271E0
1.888494380E-1,-7.623074651E-1,-3.043208361E0,-2.030184507E0
2.108478750E-1,-1.013896704E0,-3.277361870E0,-2.289400816E0
2.308478750E-1,-7.515213490E-1,-3.678438425E0,-2.155534029E0
2.508478750E-1,-1.496096253E-1,-3.672050476E0,-1.358162880E0
2.708588130E-1,3.325899541E-1,-3.117419720E0,-3.661700785E-1
2.928494380E-1,5.757142901E-1,-1.823694587E0,5.374741554E-1
3.128541250E-1,7.951196432E-1,-5.299343467E-1,1.162598729E0
3.348478750E-1,1.028365493E0,8.189084530E-1,1.716793060E0
3.548494380E-1,1.106713295E0,1.601758480E0,1.946984529E0
3.768478750E-1,1.117010713E0,1.772294641E0,1.383452654E0
3.968478750E-1,1.176892996E0,1.828808308E0,4.105014503E-1
4.168478750E-1,1.099487662E0,1.662164330E0,-6.148271561E-1
4.368478750E-1,8.742353916E-1,5.857499242E-1,-1.193805218E0
4.568494380E-1,9.232268333E-1,-2.998650074E-1,-1.102489591E0
4.788510000E-1,1.024752617E0,-6.529800296E-1,-1.167363524E0
5.008494380E-1,1.152161598E0,-5.370029211E-1,-1.085175872E0
5.228478750E-1,9.547998309E-1,-6.272538900E-1,-1.095351219E0
5.428478750E-1,5.631653666E-1,-5.120097995E-1,-1.164693117E0
5.628478750E-1,3.156777024E-1,-8.299040794E-2,-1.190279603E0
5.828478750E-1,2.590243220E-1,1.014385372E-1,-1.131654024E0
6.028478750E-1,3.026924431E-1,4.183554277E-2,-9.715898633E-1
6.228478750E-1,4.388281405E-1,1.715658605E-2,-7.500901222E-1
6.428478750E-1,5.368109345E-1,9.370672703E-2,-5.789082646E-1
6.628494380E-1,4.029790759E-1,3.543018550E-2,-5.166872740E-1
6.848541250E-1,9.222319722E-2,-1.372526884E-1,-5.504419208E-1
7.048541250E-1,-1.837308109E-1,-1.770636588E-1,-6.706427336E-1
7.268494380E-1,-2.940879762E-1,-1.393994540E-1,-7.720987797E-1
7.488478750E-1,-2.369458973E-1,-1.060636565E-1,-7.160038948E-1
7.688478750E-1,-1.139699966E-1,-9.930923581E-2,-5.239303708E-1
7.888478750E-1,-2.981022373E-2,-1.503601074E-1,-3.227986395E-1
8.088478750E-1,-5.462880712E-3,-1.479864717E-1,-2.558652759E-1
8.288478750E-1,-3.656464815E-2,-8.656833321E-2,-3.457148075E-1
8.488478750E-1,-2.885029279E-2,-7.014477998E-2,-3.826459944E-1
8.688478750E-1,1.598721556E-2,-1.164309159E-1,-3.148224950E-1
8.888478750E-1,7.976154797E-3,-1.241278127E-1,-2.698628008E-1
9.088478750E-1,-5.567600206E-2,-5.808455870E-2,-3.586826026E-1
9.288478750E-1,-1.175130159E-1,6.620033830E-2,-4.571017325E-1
9.488478750E-1,-1.396437883E-1,1.204102635E-1,-4.047767520E-1
9.688478750E-1,-1.247386783E-1,1.386838555E-1,-2.791654170E-1
9.888478750E-1,-1.249830276E-1,1.466774642E-1,-2.336472273E-1
1.008847875E0,-1.480039209E-1,1.449496001E-1,-2.404889166E-1
1.028847875E0,-1.621061862E-1,1.428377479E-1,-1.955641359E-1
1.048847875E0,-1.520705372E-1,3.197443187E-1,-8.491026610E-2
1.068847875E0,-1.483006328E-1,5.120621324E-1,-5.354670063E-2
1.088847875E0,-1.705710292E-1,6.071127653E-1,-5.190609023E-2
1.108847875E0,-2.381327152E-1,4.677482247E-1,-1.038819999E-1
1.128847875E0,-2.020916790E-1,3.305304646E-1,-9.286896884E-2
1.148847875E0,4.939281940E-2,1.752659678E-1,-9.480628371E-2
1.168847875E0,3.055198789E-1,7.548549026E-2,-1.700125188E-1
1.188849438E0,1.326973885E-1,-2.870368361E-1,-4.391248524E-2
1.210847875E0,-2.742435932E-1,-2.827433348E-1,9.327039123E-2
1.230847875E0,-5.924869180E-1,-1.541300267E-1,-7.859217376E-2
1.250847875E0,-7.985754013E-1,3.156253397E-1,-2.829004228E-1
1.270847875E0,-6.480931044E-1,6.295751929E-1,-1.849001795E-1
1.290847875E0,-2.056695968E-1,3.865555227E-1,-4.242895544E-2
1.310847875E0,2.252870947E-1,-3.317870945E-2,2.448697016E-2
1.330847875E0,4.808905721E-1,-2.613979578E-1,5.167919770E-2
1.350847875E0,3.928561509E-1,-3.833441138E-1,1.282817032E-2
1.370847875E0,1.657888293E-1,-7.041356564E-1,-2.993239649E-2
1.390847875E0,6.492624991E-3,-1.103466988E0,-1.287354827E-1
1.410847875E0,-1.897172816E-2,-1.401516795E0,-2.117433399E-1
1.430851000E0,2.439970337E-2,-1.442200422E0,-2.423913330E-1
1.452849438E0,1.386838555E-1,-6.520375609E-1,-1.910611987E-1
1.472849438E0,1.635897160E-1,-1.080009714E-1,-2.104867063E-2
1.494849438E0,9.794788063E-2,3.598170877E-1,1.153488085E-1
1.514854125E0,-3.721041977E-2,3.454704583E-1,1.594532728E-1
1.536847875E0,-3.682644805E-3,1.680752076E-2,2.339962870E-1
1.556847875E0,5.717698485E-2,-6.059783325E-2,1.743932962E-1
1.576847875E0,6.150540337E-2,1.874134541E-1,8.237954229E-2
1.596849438E0,1.086292937E-1,2.467720956E-1,1.645670980E-1
1.618847875E0,9.876818210E-2,2.478367537E-1,3.184527755E-1
1.638847875E0,-3.620510995E-1,4.295080602E-1,3.090105355E-1
1.658847875E0,-1.138513207E0,1.231277466E0,5.472828746E-1
1.678847875E0,-1.272257805E0,9.261938930E-1,1.430105329E0
1.698849438E0,-8.039858937E-1,-7.320259809E-1,2.345181465E0
1.720847875E0,7.166321576E-2,-1.234244466E0,2.569124699E0
1.740847875E0,6.897889972E-1,-1.053096771E0,1.452899337E0
1.760847875E0,1.437383294E0,9.487609565E-2,5.591336489E-1
1.780847875E0,1.439739585E0,1.006321907E0,4.379729331E-1
1.800847875E0,9.737366438E-1,-6.635741889E-2,1.342803955E0
1.820847875E0,5.771105886E-1,-1.761700392E0,1.358023286E0
1.840847875E0,5.434431434E-1,-2.914996624E0,9.477661252E-1
1.860847875E0,7.971093059E-1,-4.678494453E0,1.335421205E0
1.880847875E0,6.011961102E-1,-5.934311390E0,2.003969669E0
1.900847875E0,-8.698022962E-1,-3.992300987E0,3.201370239E0
1.920847875E0,-1.480056643E0,-4.039390087E0,4.571575642E0
1.940847875E0,-1.116155505E0,-5.820428848E0,5.327181339E0
1.960847875E0,-2.656041980E-1,-7.682154179E0,6.490705013E0
1.980847875E0,1.374097764E-1,-8.676869392E0,7.995964050E0
2.000849438E0,2.389530241E-1,-9.245794296E0,9.600358009E0
2.020849438E0,6.617764831E-1,-9.303966522E0,1.060870457E1
2.042849438E0,1.725781560E0,-9.403240204E0,1.081090069E1
2.064849438E0,2.878344536E0,-8.160059929E0,9.429752350E0
2.084851000E0,3.485980988E0,-6.292208672E0,6.982975006E0
2.104855688E0,3.616618872E0,-3.469243288E0,3.616967916E0
2.126847875E0,2.926288843E0,-2.496169955E-1,-1.886700839E-2
2.146849438E0,2.278265476E0,2.003009558E0,-2.370401382E0
2.166849438E0,1.552749634E0,2.487321138E0,-3.773907900E0
2.186849438E0,8.273383975E-1,2.068546772E0,-4.357319355E0
2.206849438E0,4.265061021E-1,1.753270507E0,-4.699700356E0
2.226854125E0,1.952499896E-1,1.497824073E0,-5.006581783E0
2.248849438E0,-9.690242410E-1,2.020812035E0,-4.620270252E0
2.268849438E0,-1.084565043E0,1.528681517E0,-4.548694611E0
2.288849438E0,-1.306274176E0,7.974409461E-1,-3.840160608E0
2.308849438E0,-1.938432455E0,1.096590400E0,-2.983151674E0
2.328849438E0,-2.345617771E0,6.519677639E-1,-2.071409225E0
2.348849438E0,-1.777757406E0,-5.345245600E-1,-9.445198178E-1
2.368855688E0,-1.068682551E0,-1.518069983E0,-1.991246194E-1
2.390854125E0,-1.209757566E0,-2.066976070E0,-2.101376466E-2
2.412847875E0,-1.126278400E0,-9.951867461E-1,6.470459104E-1
2.432849438E0,-1.215429783E0,2.946115732E-1,6.427174807E-1
2.454849438E0,-2.341045141E0,-5.117654204E-1,6.267127991E-1
2.476847875E0,-2.911017179E0,-9.305222631E-1,2.344204187E0
2.496847875E0,-2.926254034E0,-1.136418819E0,4.276405811E0
2.516849438E0,-2.535212994E0,-1.953232884E0,6.110345364E0
2.538847875E0,-1.260913134E0,-3.271811724E0,7.700165749E0
2.558847875E0,5.840395093E-1,-3.686798573E0,8.652539253E0
2.578847875E0,1.768681765E0,-3.082024574E0,9.953595161E0
2.598847875E0,2.172009945E0,-7.204369903E-1,1.071028233E1
2.618847875E0,1.744037747E0,2.074917316E0,1.061474323E1
2.638847875E0,9.319010973E-1,3.406603336E0,7.441263676E0
2.658847875E0,1.227839142E-1,7.368081808E-1,-1.105543852E0
2.678847875E0,6.099053025E-1,-1.721697450E0,-3.535670519E0
2.698849438E0,1.760653257E0,2.052192926E0,-1.202165365E0
2.718849438E0,1.710056186E0,3.262072802E0,-4.878893495E-1
2.738849438E0,8.293281198E-1,2.476255655E0,-5.080478787E-1
2.758849438E0,-6.166248396E-2,1.578807354E0,-4.864930809E-1
2.778849438E0,-8.155923337E-2,1.621061862E-1,-3.129898906E-1
2.800849438E0,2.694962919E-1,-1.496165991E0,-1.265887320E-1
2.822849438E0,1.340412796E-1,-1.910088301E0,1.048768312E-1
2.844849438E0,-1.593311131E-1,-9.186016917E-1,2.840872407E-1
2.864849438E0,-3.543891013E-1,-6.860889494E-2,2.460390627E-1
2.886849438E0,-5.120446682E-1,2.628116906E-1,-1.406037211E-1
2.906849438E0,-6.347064376E-1,1.390154809E-1,-7.576648593E-1
2.926849438E0,-7.044847012E-1,-3.405137360E-2,-8.783892989E-1
2.946849438E0,-3.903428912E-1,-6.405358315E-1,-7.407003045E-1
2.966849438E0,1.960702837E-1,-1.281891942E0,-3.869743943E-1
2.988849438E0,1.076868176E0,-1.583729267E0,6.096434966E-2
3.008849438E0,1.740302682E0,-1.374115109E0,4.985358417E-1
3.028849438E0,1.599367380E0,-1.090987802E0,9.485515356E-1
3.048849438E0,1.221206903E0,-7.501075864E-1,9.117599726E-1
3.068849438E0,1.050984859E0,4.077089205E-2,6.013531685E-1
3.088854125E0,8.948128223E-1,8.783020377E-1,1.804670393E-1
3.110847875E0,3.360631466E-1,2.054392099E0,-3.117332458E-1
3.130849438E0,-1.509709805E-1,2.616091490E0,-5.375090241E-1
3.150849438E0,-5.220977664E-1,2.805058241E0,-4.816759527E-1
3.172849438E0,-9.053022861E-1,2.647542238E0,-6.724753231E-2
3.192849438E0,-1.083099008E0,2.025157928E0,2.062106431E-1
3.212849438E0,-8.911302090E-1,1.344898343E0,2.477843910E-1
3.234849438E0,-7.374365330E-1,6.712885499E-1,4.499982297E-1
3.254849438E0,-6.465222836E-1,6.588617712E-2,2.856056690E-1
3.274849438E0,-5.218709111E-1,-6.004630923E-1,2.027025372E-1
3.294849438E0,-1.925272644E-1,-7.685906291E-1,2.459168993E-2
3.314849438E0,2.462136000E-1,-3.991393447E-1,-6.120869517E-2
3.336849438E0,5.200208426E-1,4.981867671E-1,-1.220857799E-1
3.356849438E0,1.509186178E-1,1.478468418E0,-1.872563809E-1
3.376849438E0,-5.484522581E-1,1.938380122E0,-8.646360785E-2
3.396854125E0,-1.159090638E0,1.517214656E0,7.272786647E-2
3.418847875E0,-1.268068910E0,5.924171209E-1,1.116312593E-1
3.438847875E0,-9.042899609E-1,-1.048244715E0,1.496445239E-1
3.458847875E0,-1.100255609E0,-1.180226564E0,4.125260115E-1
3.478847875E0,-1.254752159E0,-1.531753302E0,9.410815239E-1
3.498847875E0,-1.399928570E0,-2.261370659E0,3.493625522E-1
3.518847875E0,-1.082435727E0,-2.715505362E0,1.391900033E-1
3.538847875E0,-1.552871823E0,-4.338713884E-1,1.922131032E-1
3.558847875E0,-3.303786039E0,4.317490578E0,-5.891009569E-1
3.578847875E0,-3.006556511E0,4.930048943E0,-9.753074646E-1
3.598847875E0,-1.501367092E0,2.198137522E0,-8.826828003E-1
3.618849438E0,-6.684610993E-2,-1.002342582E0,-3.536211550E-1
3.640847875E0,6.496289968E-1,-2.362844229E0,-1.460142434E-1
3.660847875E0,5.953317881E-1,-2.073625565E0,-2.781705856E-1
3.680847875E0,4.544837400E-2,-1.507859707E0,-4.950800836E-1
3.700847875E0,-9.932494164E-1,-1.735677600E0,-8.350003958E-1
3.720847875E0,-2.151903629E0,-2.263709545E0,-1.480719924E0
3.740847875E0,-2.141152382E0,-1.662129402E0,-1.839088321E0
3.760849438E0,-1.354672194E0,-6.913423538E-1,-1.308700204E0
3.782847875E0,-6.090500951E-1,2.401416063E0,-8.691739291E-2
3.802847875E0,9.578366578E-2,4.852713585E0,1.153016806E0
3.822847875E0,3.700970709E-1,2.721072912E0,1.356539726E0
3.842849438E0,4.241848290E-1,5.910382867E-1,3.968704045E-1
3.864849438E0,5.563760400E-1,-1.962971836E-1,-5.712462664E-1
3.886849438E0,4.333652556E-1,-1.670105606E-1,-6.222797036E-1
3.906849438E0,5.308418870E-1,-1.122421250E-1,-3.319790661E-1
3.928847875E0,9.637708217E-2,-8.272860944E-2,-1.890540570E-1
3.948849438E0,-5.045397878E-1,-4.211305082E-1,-3.368485570E-1
3.968849438E0,-5.669876337E-1,-7.298966646E-1,-4.062602818E-1
3.988849438E0,-3.708999157E-1,-6.211103201E-1,-3.636393547E-1
4.010849438E0,-2.671924531E-1,-6.186842918E-1,-2.597049773E-1
4.032849438E0,-3.637266159E-1,-5.889438987E-1,-1.194677874E-1
4.054847875E0,-4.895125031E-1,-1.742362231E-1,-1.666265875E-1
4.074847875E0,-4.855855107E-1,3.604104742E-2,-1.798736304E-1
4.094847875E0,-4.332605302E-1,-5.745624006E-2,-1.609891653E-1
4.114847875E0,-3.955614269E-1,-2.642428577E-1,-1.123817489E-1
4.134847875E0,-2.776469886E-1,-4.590564966E-1,-4.014257283E-4
4.154847875E0,2.635447076E-3,-4.361752272E-1,1.035329327E-1
4.174847875E0,2.867575884E-1,-1.958957613E-1,2.663372457E-1
4.194847875E0,4.323354959E-1,-1.322959512E-1,3.905523121E-1
4.214849438E0,4.440466762E-1,-6.236061454E-2,5.029166341E-1
4.236847875E0,4.083197713E-1,4.614650458E-2,5.730788708E-1
4.256847875E0,3.407755494E-1,4.026474431E-2,5.306673646E-1
4.276851000E0,2.328618318E-1,1.186823938E-3,4.866327047E-1
4.298847875E0,1.530130208E-1,2.623404264E-1,5.009967685E-1
4.318847875E0,1.456826329E-1,4.290193915E-1,4.767890573E-1
4.338847875E0,2.773502767E-1,5.831843019E-1,4.949928224E-1
4.358847875E0,4.552516937E-1,4.909785688E-1,5.199859142E-1
4.378847875E0,3.396410644E-1,7.084291428E-2,3.844785690E-1
4.398847875E0,-8.108799905E-2,4.550073296E-2,3.455228209E-1
4.418847875E0,-3.599916101E-1,3.326772153E-1,3.356268108E-1
4.438847875E0,-4.348138869E-1,5.274908543E-1,2.493202835E-1
4.458847875E0,-2.990272641E-1,6.695257425E-1,1.716182232E-1
4.478847875E0,4.206243437E-3,6.285454035E-1,3.164980114E-1
4.498847875E0,3.591713011E-1,1.015711784E0,3.813195229E-1
4.518847875E0,4.563861489E-1,1.582507491E0,2.899166346E-1
4.538849438E0,6.336417794E-1,1.678273678E0,3.037919998E-1
4.558849438E0,7.251493931E-1,1.463580728E0,4.421617091E-1
4.580847875E0,6.253863573E-1,1.186754107E0,4.622679055E-1
4.600847875E0,2.503151298E-1,6.950075626E-1,2.942101657E-1
4.620847875E0,-4.478863776E-1,-1.019446775E-1,1.724385284E-2
4.640847875E0,-1.287389755E0,-8.636412621E-1,-4.360181391E-1
4.660847875E0,-1.617693305E0,-1.261105061E0,-6.576749682E-1
4.680847875E0,-1.183385611E0,-7.021983266E-1,-4.475547671E-1
4.700847875E0,-4.974188209E-1,-1.229060888E-1,-3.003188074E-1
4.720847875E0,6.314601004E-2,1.062905490E-1,-1.246339604E-1
4.740847875E0,3.867824078E-1,2.568601072E-1,-1.284562331E-2
4.760847875E0,7.273485065E-1,3.743207753E-1,4.797910154E-2
4.780847875E0,1.035538793E0,2.822022736E-1,1.002342552E-1
4.800847875E0,1.215133071E0,1.334653348E-1,1.897871047E-1
4.820847875E0,1.223929644E0,-2.844886621E-3,2.187421173E-1
4.840847875E0,1.050374031E0,-1.629090309E-1,1.213178337E-1
4.860847875E0,7.572808862E-1,-3.694338500E-1,-6.019640714E-2
4.880847875E0,3.118379712E-1,-5.711240768E-1,-1.604306698E-1
4.900847875E0,-4.310963154E-1,-1.216372371E0,-3.191334605E-1
4.920849438E0,-2.271650791E0,-2.686288595E0,-1.175287247E0
4.940849438E0,-3.060539484E0,-2.623125076E0,-1.566834450E0
4.962847875E0,-2.520255327E0,-2.036624670E0,-1.427103400E0
4.982847875E0,-1.480091572E0,-5.865702629E-1,-5.696754456E-1
5.002847875E0,3.543367386E-1,5.344896317E-1,4.990594387E-1
5.022847875E0,8.998917341E-1,3.900636435E-1,7.296000123E-1
5.042847875E0,8.437794447E-1,8.040033579E-1,4.975584745E-1
5.062847875E0,7.597418427E-1,9.099797606E-1,5.305626392E-1
5.082847875E0,1.490423918E0,1.345125198E0,8.526456952E-1
5.102847875E0,1.575526118E0,1.074634075E0,6.651275158E-1
5.122847875E0,1.255624771E0,5.311385989E-1,4.497189820E-1
5.142847875E0,1.078927636E0,1.562418789E-1,2.851170003E-1
5.162847875E0,8.901877403E-1,2.682222128E-1,9.648180008E-2
5.182847875E0,7.447668910E-1,4.039913714E-1,1.155408006E-2
5.202847875E0,5.961869955E-1,3.131993413E-1,-2.197369561E-2
5.222847875E0,3.733608425E-1,4.414984882E-1,-2.789036185E-2
5.242847875E0,1.830326766E-1,5.446997881E-1,-7.380997390E-2
5.262847875E0,2.942625061E-2,5.146103501E-1,-9.922196716E-2
5.282847875E0,-7.639306039E-2,5.001938939E-1,-3.234095126E-2
5.302847875E0,-7.649777830E-2,5.318367481E-1,3.832742944E-2
5.322847875E0,-8.691739291E-3,5.842838883E-1,1.402895600E-1
5.342847875E0,8.454374969E-2,5.964662433E-1,1.718276590E-1
5.362847875E0,2.051809132E-1,4.416206479E-1,1.950929016E-1
5.382847875E0,2.911209166E-1,2.671400905E-1,2.428276539E-1
5.402847875E0,3.873758316E-1,8.672541380E-2,2.834414840E-1
5.422847875E0,4.588470459E-1,-1.005135104E-1,2.532647252E-1
5.442847875E0,4.660901725E-1,-1.713040620E-1,1.471487135E-1
5.462847875E0,3.012612760E-1,-1.143714264E-1,1.174606569E-2
5.482847875E0,-5.099852011E-2,1.678483188E-1,-9.550441802E-2
5.502847875E0,-3.570594490E-1,4.732983708E-1,-3.317870945E-2
5.522847875E0,-4.692317545E-1,6.080552340E-1,-7.312929723E-3
5.542847875E0,-5.253964663E-1,6.956882477E-1,6.260495633E-2
5.562849438E0,-6.325247884E-1,1.001906276E0,1.809208244E-1
5.582849438E0,-7.929205298E-1,1.273846030E0,3.061307371E-1
5.604854125E0,-8.639554381E-1,1.491244197E0,4.311312437E-1
5.626849438E0,-6.910980344E-1,1.309345961E0,4.630707502E-1
5.648847875E0,-3.043679595E-1,1.100604653E0,1.120501384E-1
5.668847875E0,1.866978705E-1,7.559021115E-1,-7.949974388E-2
5.688849438E0,3.098308444E-1,8.035670519E-1,7.555530220E-2
5.710847875E0,1.781981252E-2,6.288945079E-1,9.730210900E-2
5.730849438E0,-5.190434456E-1,8.265879005E-2,-3.689625859E-2
5.752847875E0,-1.499499679E0,-7.694807649E-1,-4.928111732E-1
5.772847875E0,-1.730022669E0,-7.069630623E-1,-4.893030524E-1
5.792847875E0,-1.101390004E0,-2.195100635E-1,-2.580120265E-1
5.812847875E0,-4.220729768E-1,3.289945796E-2,-1.465029418E-1
5.832847875E0,5.178391933E-2,2.522698939E-1,-5.691518635E-2
5.852847875E0,4.950277209E-1,3.348065019E-1,4.909611121E-2
5.872847875E0,8.589114547E-1,2.966710627E-1,1.219286993E-1
5.892847875E0,1.080184221E0,1.406909972E-1,9.847147763E-2
5.912847875E0,1.113903999E0,2.457423508E-2,-4.537856206E-3
5.932847875E0,1.019202471E0,-2.797762752E-1,-1.616000384E-1
5.952847875E0,9.271712303E-1,-5.894849300E-1,-2.845410407E-1
5.972847875E0,7.603178024E-1,-9.223366976E-1,-4.388630390E-1
5.992847875E0,4.931602180E-1,-1.283235908E0,-5.769186020E-1
6.012847875E0,1.611637026E-1,-1.639038682E0,-5.198986530E-1
6.032847875E0,-1.484227926E-1,-1.931712985E0,-6.406405568E-1
6.052847875E0,-6.725277305E-1,-2.725872755E0,-8.499928117E-1
6.072847875E0,-1.481679797E0,-3.217653990E0,-1.279221654E0
6.092847875E0,-8.353145719E-1,-1.134882927E0,-8.633270860E-1
6.112847875E0,-5.876523629E-2,6.332578063E-1,-3.304082751E-1
6.132847875E0,-2.172934823E-2,3.003362417E-1,-1.078264415E-1
6.152847875E0,-2.378709167E-1,-4.718497694E-1,-3.134785891E-1
6.172847875E0,-5.230926275E-1,-5.988922715E-1,-4.327543974E-1
6.192847875E0,-6.372371316E-1,-6.090675592E-1,-4.294731617E-1
6.212849438E0,-3.912329972E-1,-6.548126340E-1,-4.165926278E-1
6.232849438E0,1.034980267E-2,-7.967427969E-1,-5.142089128E-1
6.252849438E0,2.568601072E-1,-9.656208754E-1,-6.633123755E-1
6.274849438E0,2.698802650E-1,-9.046739340E-1,-5.955761671E-1
6.294849438E0,2.446078956E-1,-9.113585949E-1,-5.493772626E-1
6.314849438E0,2.411870509E-1,-9.249023199E-1,-5.336693525E-1
6.334849438E0,2.637017965E-1,-9.940522909E-1,-5.020090342E-1
6.354849438E0,3.702715933E-1,-9.137322307E-1,-4.465425014E-1
6.374849438E0,4.770508409E-1,-5.271592736E-1,-3.470238149E-1
6.394849438E0,5.375090241E-1,-1.893158704E-1,-2.456900030E-1
6.414851000E0,5.496041775E-1,1.841322333E-2,-1.454906464E-1
6.436849438E0,5.286427736E-1,2.141519077E-2,-4.094542563E-2
6.456849438E0,5.181184411E-1,-1.214923710E-1,1.204277202E-2
6.476849438E0,4.199436605E-1,-2.120226026E-1,9.271188825E-2
6.496849438E0,2.869146764E-1,-2.201034725E-1,2.434385270E-1
6.516849438E0,1.995085925E-1,-2.431941777E-1,3.017150760E-1
6.538847875E0,2.040813416E-1,-3.219434321E-1,2.412394136E-1
6.558847875E0,2.413615882E-1,-3.938160837E-1,1.284562349E-1
6.578847875E0,1.994911283E-1,-3.198839426E-1,5.148721114E-2
6.598847875E0,8.712683618E-2,-1.284911335E-1,6.581636518E-2
6.618852563E0,-1.875879914E-1,-5.031784251E-2,3.476695716E-2
6.640847875E0,-6.638010740E-1,3.467794657E-1,-7.400196046E-3
6.660847875E0,-8.603426218E-1,7.747691274E-1,1.703964919E-1
6.680847875E0,-8.202523589E-1,8.989318013E-1,3.204250038E-1
6.700847875E0,-9.096307158E-1,7.593229413E-1,1.843765825E-1
6.720849438E0,-8.510050774E-1,4.280594587E-1,-1.191885322E-1
6.742847875E0,-5.104739070E-1,4.073598608E-2,-3.540574908E-1
6.762847875E0,-1.881115884E-1,-1.816364080E-1,-3.532546461E-1
6.782847875E0,-5.867796764E-2,-4.185823202E-1,-3.588047922E-1
6.802847875E0,-8.609709144E-2,-5.937435627E-1,-3.705334067E-1
6.822847875E0,-9.407324344E-2,-7.086734772E-1,-3.810926378E-1
6.842847875E0,-3.560471535E-2,-9.213418365E-1,-4.649906158E-1
6.862847875E0,4.513421282E-2,-1.193613172E0,-5.641252995E-1
6.882847875E0,6.393141299E-2,-1.556781292E0,-5.806710124E-1
6.902849438E0,8.402015269E-2,-1.545262098E0,-5.729392171E-1
6.922849438E0,1.309520602E-1,-1.636874437E0,-5.255884528E-1
6.944849438E0,2.170666009E-1,-1.699008226E0,-5.834286809E-1
6.964849438E0,2.563714087E-1,-1.626507282E0,-6.441835761E-1
6.984857250E0,3.150668442E-1,-1.523794651E0,-6.682690978E-1
7.006861938E0,4.627391398E-1,-1.462341547E0,-7.867769599E-1
7.028847875E0,4.750960767E-1,-1.553500056E0,-8.433256149E-1
7.048847875E0,3.941476941E-1,-1.688571095E0,-9.342224002E-1
7.068847875E0,3.945840299E-1,-1.706600428E0,-9.794787765E-1
7.088847875E0,5.401445031E-1,-1.471644163E0,-8.957902193E-1
7.108847875E0,4.972442985E-1,-1.105404258E0,-8.249472976E-1
7.128847875E0,1.098859310E-1,-9.076584578E-1,-6.323502660E-1
7.148847875E0,-3.570943773E-1,-6.285454035E-1,-4.650255144E-1
7.168858813E0,-5.151164532E-1,-7.079753280E-1,-1.281246245E-1
7.190847875E0,-6.820223331E-1,-7.909832001E-1,-1.873436421E-1
7.210849438E0,-7.840018868E-1,-2.619041204E-1,-4.184601307E-1
7.230849438E0,-8.344070315E-1,4.598419070E-1,-1.466600150E-1
7.252849438E0,-8.198160529E-1,7.427423000E-1,7.138396613E-3
7.274849438E0,-5.987002850E-1,-8.939576149E-2,-1.884431988E-1
7.294849438E0,-1.098859310E-1,-7.842462659E-1,-3.302337527E-1
7.316847875E0,3.132167757E-1,-8.308116198E-1,-2.397384197E-1
7.336847875E0,2.789908946E-1,-6.982189417E-1,-2.477494925E-1
7.356847875E0,3.049962819E-1,-2.211855799E-1,-2.564412355E-1
7.376847875E0,3.241076469E-1,1.367814541E-1,-1.625948697E-1
7.396847875E0,3.031811416E-1,4.065918922E-1,2.099631168E-2
7.416847875E0,2.750289738E-1,4.562290609E-1,1.607622802E-1
7.436847875E0,2.901086211E-1,4.269249737E-1,1.605702937E-1
7.456849438E0,3.358187973E-1,4.001167417E-1,1.367465407E-1
7.478847875E0,4.312708676E-1,2.976135314E-1,1.735555381E-1
7.498847875E0,4.664217830E-1,3.499036133E-1,2.412045002E-1
7.518847875E0,4.386361539E-1,4.387234151E-1,3.241949081E-1
7.538847875E0,3.981096148E-1,4.779235125E-1,3.961548209E-1
7.558847875E0,3.248930275E-1,5.079082847E-1,4.160341322E-1
7.578847875E0,2.132443339E-1,5.953841805E-1,4.282863438E-1
7.598847875E0,1.109854877E-1,7.309089899E-1,4.819203019E-1
7.618849438E0,-3.228859045E-3,8.262912035E-1,5.211552978E-1
7.640847875E0,-7.555530220E-2,9.479930401E-1,5.646663904E-1
7.660847875E0,-1.358040720E-1,1.078822970E0,5.991715193E-1
7.680847875E0,-2.405587286E-1,1.159090638E0,6.912550926E-1
7.700847875E0,-4.214621186E-1,1.225186229E0,6.241995692E-1
7.720847875E0,-5.558350086E-1,1.316257477E0,5.671622157E-1
7.740849438E0,-5.512273312E-1,1.507755041E0,6.911329031E-1
7.762847875E0,-7.780852318E-1,1.886753321E0,7.508406639E-1
7.782847875E0,-8.566948771E-1,1.965589762E0,7.094763517E-1
7.802847875E0,-6.104812622E-1,2.014336824E0,6.609387398E-1
7.822847875E0,-3.306002617E-1,1.792418242E0,7.398101687E-1
7.842847875E0,-2.368935347E-1,1.351251364E0,7.540345788E-1
7.862847875E0,-4.030314386E-1,1.134743214E0,6.903998852E-1
7.882847875E0,-4.455476403E-1,1.290653467E0,7.196690440E-1
7.902847875E0,-3.711268008E-1,1.582821608E0,6.614099741E-1
7.922847875E0,-2.069785893E-1,1.634483337E0,6.359979510E-1
7.942847875E0,3.588397056E-2,1.400050759E0,6.219305992E-1
7.962847875E0,2.318320870E-1,1.002045870E0,5.636191964E-1
7.982847875E0,3.110874891E-1,6.326295137E-1,4.959876537E-1
8.002847875E0,2.122320384E-1,3.086963892E-1,4.905422330E-1
8.022847875E0,1.125039235E-1,2.032261342E-1,4.180237949E-1
8.042847875E0,6.759659946E-2,5.469861999E-2,3.629586697E-1
8.062847875E0,1.441467404E-1,2.410299703E-2,2.908591330E-1
8.082847875E0,3.424685001E-1,2.815216035E-2,2.839650810E-1
8.102847875E0,5.116956234E-1,-6.726498902E-2,2.494075447E-1
8.122847875E0,5.399350524E-1,-1.939235330E-1,1.700823307E-1
8.142847875E0,5.181184411E-1,-5.423261523E-1,2.001892589E-2
8.162847875E0,4.698775411E-1,-7.226186395E-1,-1.548805237E-1
8.182847875E0,2.450616807E-1,-7.332128286E-1,-2.646617293E-1
8.202849438E0,-2.476098537E-1,-1.179912329E0,-2.882236838E-1
8.224849438E0,-9.874723554E-1,-1.725065947E0,-5.796412826E-1
8.246849438E0,-5.945464373E-1,-6.770132184E-1,-7.787135243E-1
8.268847875E0,6.003932655E-2,3.053627908E-1,-6.633123755E-1
8.288851000E0,3.959977627E-1,1.179022312E0,3.003711626E-2
8.310849438E0,3.402868509E-1,1.743583940E-2,2.893755957E-2
8.330849438E0,-2.249031216E-1,-6.186144948E-1,-4.656713009E-1
8.352847875E0,-3.741985857E-1,-6.750235558E-1,-4.617443085E-1
8.372847875E0,-5.553637818E-2,-7.171034217E-1,-4.587772489E-1
8.392847875E0,2.002939880E-1,-6.323502660E-1,-4.959352911E-1
8.412847875E0,2.970026731E-1,-7.881034017E-1,-5.476843119E-1
8.432847875E0,2.954493463E-1,-1.223353624E0,-5.293757915E-1
8.452847875E0,1.848129183E-1,-1.198430300E0,-5.707750320E-1
8.472847875E0,1.987929940E-1,-1.138932109E0,-5.923298597E-1
8.492847875E0,2.073451132E-1,-9.428268671E-1,-5.678254366E-1
8.512847875E0,2.101027369E-1,-5.605822802E-1,-5.465323925E-1
8.532847875E0,2.145882249E-1,-2.958158553E-1,-4.352501929E-1
8.552847875E0,2.496693432E-1,-9.203121066E-2,-2.390577495E-1
8.572847875E0,2.981894910E-1,1.208116934E-1,-3.862413764E-2
8.592847875E0,3.092723489E-1,3.065321743E-1,1.291543692E-1
8.612847875E0,2.579073012E-1,3.501479626E-1,2.631258368E-1
8.632847875E0,1.885130107E-1,2.900038958E-1,3.328692019E-1
8.652847875E0,1.655619293E-1,3.341432810E-1,3.836059272E-1
8.672847875E0,1.587551534E-1,2.946115732E-1,4.488637745E-1
8.692847875E0,1.986010075E-1,1.452288479E-1,4.835958183E-1
8.712847875E0,2.481683642E-1,-1.159073189E-1,4.349360466E-1
8.732847875E0,1.931555867E-1,-2.840872407E-1,3.208438754E-1
8.752847875E0,3.480186686E-2,-2.166477144E-1,2.398431450E-1
8.772847875E0,-3.090978041E-2,-4.838052765E-2,3.885277510E-1
8.792847875E0,-1.174781099E-1,4.371351600E-1,4.684638083E-1
8.812847875E0,-1.140747219E-1,4.756545722E-1,4.274136722E-1
8.832847875E0,4.956734832E-3,2.695137560E-1,4.066966176E-1
8.852847875E0,4.579744115E-2,6.048089266E-1,5.111545920E-1
8.872847875E0,-1.263443828E-1,9.784665108E-1,6.181955934E-1
8.892847875E0,-4.684289098E-1,1.277546048E0,6.614099741E-1
8.912847875E0,-6.554583907E-1,1.301893473E0,5.382769704E-1
8.932847875E0,-6.653718948E-1,1.314721584E0,4.717101455E-1
8.952847875E0,-4.518482983E-1,1.638846755E0,4.821472168E-1
8.972847875E0,-6.108652428E-2,1.610903978E0,4.813094437E-1
8.992847875E0,7.562511414E-2,1.229985833E0,4.427551329E-1
9.012847875E0,-1.250353903E-1,1.230300069E0,4.107108712E-1
9.032849438E0,-2.074672878E-1,1.323256254E0,3.413514793E-1
9.052849438E0,-3.090978041E-2,1.242063522E0,3.543018401E-1
9.074857250E0,1.639911383E-1,1.091336966E0,3.629237711E-1
9.096849438E0,2.930233181E-1,8.561363816E-1,3.631681204E-1
9.118849438E0,1.565734893E-1,4.780980349E-1,2.552543879E-1
9.140847875E0,-1.860346496E-1,2.499835044E-1,1.139699966E-1
9.160847875E0,-4.057017863E-1,1.837831736E-1,2.220058814E-2
9.180847875E0,-3.007202223E-2,2.883807421E-1,2.238733768E-1
9.200847875E0,3.768689334E-1,2.618866563E-1,2.146755010E-1
9.220847875E0,6.263114214E-1,1.306029856E-1,1.054353416E-1
9.240847875E0,7.705279589E-1,-1.636769772E-1,7.627088577E-3
9.260847875E0,7.317991257E-1,-3.129549921E-1,-5.230751634E-2
9.280847875E0,5.251346827E-1,-3.921405673E-1,-1.358040720E-1
9.300847875E0,1.836609989E-1,-5.443507433E-1,-3.097086847E-1
9.320849438E0,-2.169793248E-1,-8.093440533E-1,-7.214667797E-1
9.340849438E0,-2.885901928E-1,-7.864104509E-1,-9.857968688E-1
9.362847875E0,-2.786767185E-1,-6.156823635E-1,-9.490402341E-1
9.382847875E0,-5.985257626E-1,-4.293335378E-1,-8.355938196E-1
9.402847875E0,-5.553637818E-2,2.151118368E-1,-1.871167421E-1
9.422847875E0,1.217367128E-1,3.446327150E-1,6.314601004E-2
9.442847875E0,-1.289972812E-1,5.498310924E-1,-3.090977967E-1
9.462847875E0,-1.712866127E-1,4.924795628E-1,-3.288549483E-1
9.482847875E0,2.734931000E-2,1.404291838E-1,-2.221105993E-1
9.502847875E0,1.560149789E-1,-4.387932122E-1,-2.469117343E-1
9.522847875E0,7.548549026E-2,-5.359557271E-1,-2.713812590E-1
9.542847875E0,3.623303398E-2,-3.311587572E-1,-2.418677211E-1
9.562847875E0,1.016828790E-1,-2.148151249E-1,-2.083399594E-1
9.582847875E0,1.141096279E-1,-1.006356850E-1,-2.535788715E-1
9.602847875E0,3.968878835E-2,-2.384294271E-1,-3.185225725E-1
9.622847875E0,-6.464699656E-2,-3.074397445E-1,-3.282615244E-1
9.642847875E0,-4.743804783E-2,6.035348400E-2,-1.591740251E-1
9.662847875E0,7.288494706E-2,4.513595998E-1,8.524188399E-2
9.682847875E0,1.690351367E-1,6.703286171E-1,3.184004128E-1
9.702847875E0,1.893158704E-1,7.217983603E-1,4.985707402E-1
9.722847875E0,1.444259882E-1,6.653195024E-1,6.154031157E-1
9.742847875E0,9.541714936E-2,5.223246813E-1,5.924345851E-1
9.762847875E0,8.398524672E-2,2.429323792E-1,4.976631701E-1
9.782847875E0,1.566781998E-1,-7.709119469E-2,3.809879124E-1
9.802847875E0,1.597325355E-1,-2.056695968E-1,3.440916538E-1
9.822847875E0,2.298598550E-2,-1.523323357E-1,3.906046748E-1
9.842847875E0,-2.075545490E-1,-4.691445082E-2,4.026823640E-1
9.862847875E0,-3.315252960E-1,1.509011686E-1,4.276929200E-1
9.882847875E0,-4.216191769E-1,4.398753345E-1,4.090702832E-1
9.902847875E0,-4.958131313E-1,5.178217292E-1,3.452086747E-1
9.922849438E0,-3.406882584E-1,6.630680561E-1,4.159643054E-1
9.944847875E0,-2.315877378E-1,9.881530404E-1,5.534089804E-1
9.964865063E0,-4.363672137E-1,1.159684062E0,6.472902298E-1
9.986849438E0,-6.720739603E-1,1.208308935E0,4.419697225E-1
1.000684944E1,-6.204820275E-1,1.142614722E0,2.766521275E-1
1.002684944E1,-1.717927605E-1,1.455098391E0,1.436056942E-1
1.004884788E1,3.182258904E-1,1.560359240E0,2.282017916E-1
1.006884788E1,1.905899495E-1,1.148828030E0,4.737172723E-1
1.008884788E1,-1.071283072E-1,7.930252552E-1,4.331209064E-1
1.010884788E1,-2.240479141E-1,7.120943069E-1,3.221005201E-1
1.012884944E1,-7.590436935E-2,5.627639890E-1,3.141243458E-1
1.015084788E1,-7.532840967E-2,2.200860158E-2,1.534144431E-1
1.017084788E1,-4.272216856E-1,-5.573359728E-1,-1.375144869E-1
1.019084788E1,-6.291912198E-1,-5.482951999E-1,-1.898045540E-1
1.021084788E1,-3.531499207E-1,-1.236391217E-1,-1.497492474E-2
1.023084788E1,5.647885427E-2,-4.494571984E-1,-3.120648675E-2
1.025084788E1,4.566304982E-1,-4.193328023E-1,4.986405745E-2
1.027084788E1,6.569768190E-1,-2.539279461E-1,1.747947186E-1
1.029084788E1,7.197039723E-1,-1.560498923E-1,1.661553383E-1
1.031084788E1,8.057661653E-1,-1.968731359E-2,1.168847010E-1
1.033084788E1,8.741830587E-1,-3.455577493E-1,3.607595712E-2
1.035084788E1,8.985652924E-1,-6.156998277E-1,-7.780677825E-2
1.037084788E1,9.124755859E-1,-7.639306188E-1,-1.710073650E-1
1.039084788E1,7.418172956E-1,-8.929976821E-1,-7.356562465E-2
1.041084788E1,-7.864453644E-2,-1.675184488E0,-9.334021062E-2
1.043084788E1,-1.812908411E0,-2.799071789E0,-8.225561976E-1
1.045084944E1,-1.905463219E0,-2.084359407E0,-1.303184986E0
1.047084944E1,-1.136052251E0,-1.265101910E0,-1.288908243E0
1.049084944E1,-4.397182465E-1,4.394739121E-2,-9.274505377E-1
1.051084944E1,9.286897182E-1,1.374778390E0,-5.991715193E-2
1.053284788E1,1.285504818E0,6.506936550E-1,1.739220619E-1
1.055284788E1,5.098804832E-1,-6.272713095E-2,-1.308996975E-1
1.057284788E1,-3.298148811E-1,-2.743657492E-2,-5.163033009E-1
1.059284788E1,-4.149345756E-1,1.661553420E-2,-4.062602818E-1
1.061284788E1,-7.965682447E-2,-1.219112501E-1,-1.333780587E-1
1.063284788E1,1.247910410E-1,-2.662499845E-1,-2.011841089E-1
1.065284788E1,2.406983525E-1,-6.946759224E-1,-4.256683588E-1
1.067284788E1,3.242996335E-1,-9.918357134E-1,-5.035274625E-1
1.069284788E1,3.940604329E-1,-1.083413124E0,-4.243593514E-1
1.071284788E1,4.138175547E-1,-9.058433175E-1,-3.034429550E-1
1.073284944E1,4.400847554E-1,-4.686034620E-1,-1.524545103E-1
1.075484788E1,3.543542027E-1,-3.281916976E-1,-2.316924632E-1
1.077484944E1,3.772354722E-1,-5.485744476E-1,-3.222052455E-1
1.079684788E1,5.442809463E-1,-6.385985017E-1,-2.334726900E-1
1.081684788E1,6.993708611E-1,-5.205444694E-1,-6.878342479E-2
1.083684788E1,7.174175978E-1,-3.685437143E-1,7.305948436E-2
1.085684788E1,5.411742330E-1,-1.598896086E-1,3.315601945E-1
1.087684788E1,2.758318484E-1,9.543460608E-2,5.682442784E-1
1.089684788E1,1.161342114E-1,1.357691586E-1,6.548126340E-1
1.091684788E1,7.979645580E-2,-1.220683306E-1,6.501351595E-1
1.093684788E1,1.588075012E-1,-4.285830557E-1,4.471009970E-1
1.095684788E1,1.906248629E-1,-4.956560433E-1,1.661902517E-1
1.097684788E1,1.231155246E-1,-5.661673546E-1,6.185446680E-2
1.099684944E1,7.291985303E-2,-5.371599793E-1,1.420698017E-1
1.101884788E1,-1.309520602E-1,-7.236135006E-2,2.304881811E-1
1.103884788E1,-4.564559460E-1,4.498586059E-1,2.149198502E-1
1.105884944E1,-5.366712809E-1,8.146848083E-1,3.163758218E-1
1.108084788E1,-7.469485402E-1,1.194625497E0,4.111821055E-1
1.110084788E1,-8.285427094E-1,1.326938868E0,3.012089133E-1
1.112084788E1,-6.911503673E-1,1.594602585E0,7.833037525E-2
1.114084788E1,-4.301189482E-1,1.659441590E0,1.249655709E-2
1.116084788E1,-2.442762852E-1,1.451607823E0,7.052875310E-2
1.118084788E1,-2.864783406E-1,1.480632663E0,2.404889166E-1
1.120084788E1,-3.298497796E-1,1.589436412E0,3.059562147E-1
1.122084788E1,-2.553765774E-1,1.437348485E0,3.172310293E-1
1.124084788E1,-1.280198991E-1,9.396852851E-1,3.214198351E-1
1.126084788E1,-7.412413508E-2,3.104591668E-1,2.854311466E-1
1.128084944E1,-4.088957310E-1,-2.957634926E-1,2.659881860E-2
1.130084944E1,-8.464846611E-1,-7.212049365E-1,-2.699849904E-1
1.132284944E1,-8.906415105E-1,-5.305626392E-1,-2.515368462E-1
1.134284944E1,-4.334699810E-1,-1.685289890E-1,-1.733111963E-2
1.136484788E1,9.656906873E-2,-1.525417715E-2,2.434734255E-2
1.138484788E1,4.680449367E-1,-1.753008664E-1,2.455678210E-2
1.140485412E1,7.404559255E-1,-2.971772254E-1,2.809980139E-2
1.142685412E1,8.681616783E-1,-4.543441236E-1,5.754350498E-2
1.144884944E1,8.945161700E-1,-6.511299610E-1,6.108652335E-3
1.146884944E1,7.813140750E-1,-7.838971615E-1,-1.069886833E-1
1.148885413E1,6.100972891E-1,-8.239175677E-1,-2.671749890E-1
1.151084788E1,4.204323590E-1,-9.986948371E-1,-3.380702734E-1
1.153084788E1,-1.960353851E-1,-1.676668048E0,-5.364269614E-1
1.155084788E1,-1.618077278E0,-2.645744562E0,-1.182530403E0
1.157084788E1,-2.036083698E0,-2.011265039E0,-1.243389964E0
1.159084788E1,-1.418481469E0,-1.135231972E0,-5.914746523E-1
1.161084788E1,-8.115780950E-1,1.203701258E0,-1.682148278E-1
1.163084788E1,5.757142901E-1,1.270390272E0,5.088507533E-1
1.165084788E1,1.185305476E0,9.612749815E-1,5.789082646E-1
1.167084788E1,8.205839992E-1,1.069851875E0,2.167698927E-2
1.169084788E1,-1.292765439E-1,6.081599593E-1,-3.215419948E-1
1.171084788E1,-3.395014405E-1,3.458195329E-1,-1.046673954E-1
1.173084788E1,5.834635720E-2,-8.466592431E-2,-2.385865152E-2
1.175084788E1,8.028514683E-2,-5.732708573E-1,-2.379058301E-1
1.177084788E1,-9.169960022E-2,-4.673991799E-1,-3.602708578E-1
1.179084788E1,6.318091601E-2,-2.652725875E-1,-3.033207655E-1
1.181084788E1,2.681523860E-1,-2.248507738E-1,-1.778141409E-1
1.183084788E1,3.472332656E-1,-3.566405773E-1,-6.098180264E-2
1.185084788E1,2.812772691E-1,-5.394114852E-1,-2.886774577E-2
1.187084788E1,1.424363256E-1,-5.377359390E-1,-4.527384043E-2
1.189084788E1,7.148868591E-2,-3.964340985E-1,-4.181808978E-2
1.191084788E1,9.847147763E-2,-3.153286278E-1,-2.747148275E-2
1.193084788E1,1.737126261E-1,-2.329490930E-1,2.127556317E-2
1.195084788E1,2.382374406E-1,-9.372417815E-3,1.631010175E-1
1.197084788E1,3.071081340E-1,1.821425557E-1,2.956936955E-1
1.199084788E1,3.571467102E-1,1.463633180E-1,3.744603992E-1
1.201084788E1,3.783873916E-1,1.490511186E-2,4.305378199E-1
1.203084788E1,4.176398218E-1,-1.055924222E-1,4.088957310E-1
1.205084788E1,4.232074320E-1,-2.649584413E-1,4.072725773E-1
1.207084788E1,4.312708676E-1,-1.697681695E-1,3.174055815E-1
1.209084788E1,3.338814974E-1,-1.850049049E-1,2.587450743E-1
1.211084788E1,2.304358184E-1,-2.857627571E-1,2.328269184E-1
1.213084788E1,4.270820692E-2,-8.892452717E-2,1.392947286E-1
1.215084788E1,-1.736777127E-1,-3.422590718E-2,-2.080432512E-2
1.217084788E1,-2.278178334E-1,8.168140426E-3,-1.089434549E-1
1.219084788E1,-2.372251451E-1,4.099429250E-1,3.419100121E-2
1.221084788E1,-3.902032673E-1,9.395805597E-1,2.247111350E-1
1.223084788E1,-6.127501726E-1,1.223004580E0,2.295631617E-1
1.225084788E1,-6.971717477E-1,1.248608589E0,2.878047898E-2
1.227084944E1,-5.446649194E-1,1.137361288E0,-1.730668545E-1
1.229084944E1,-2.403143793E-1,1.066378713E0,-1.095543131E-1
1.231284788E1,-1.554739326E-1,9.032078981E-1,5.244714394E-2
1.233284788E1,-3.018372357E-1,1.031472087E0,8.225736767E-2
1.235284788E1,-3.260100484E-1,1.185392737E0,1.242674440E-1
1.237284788E1,-1.996133029E-1,9.402961135E-1,1.421221644E-1
1.239284788E1,-7.798130810E-2,4.497888088E-1,1.255066246E-1
1.241284788E1,-2.076069117E-1,-8.288568258E-2,2.057743259E-2
1.243284788E1,-5.669178367E-1,-7.331430316E-1,-1.811302751E-1
1.245284788E1,-8.560665250E-1,-9.683784842E-1,-3.417005539E-1
1.247284788E1,-6.315473914E-1,-5.583133698E-1,-1.603957564E-1
1.249284788E1,-1.627170444E-1,-2.343453616E-1,-2.059488557E-2
1.251284788E1,2.523571551E-1,-1.748994440E-1,5.557128415E-2
1.253284788E1,6.045296788E-1,-2.054077983E-1,9.899507463E-2
1.255284788E1,8.103389144E-1,-2.549402416E-1,4.902629927E-2
1.257284788E1,9.063669443E-1,-4.549549818E-1,1.137954649E-2
1.259284788E1,9.473646879E-1,-6.889861822E-1,-1.966986060E-2
1.261284788E1,9.621999860E-1,-9.236282110E-1,-1.906248629E-1
1.263284788E1,8.708145618E-1,-1.218204856E0,-4.739441574E-1
1.265284788E1,6.569593549E-1,-1.584427357E0,-5.913175344E-1
1.267284788E1,-3.099879324E-1,-2.489991426E0,-8.753699064E-1
1.269284788E1,-1.952971101E0,-3.221284389E0,-1.455150843E0
1.271284788E1,-1.875391126E0,-1.674329281E0,-1.149055004E0
1.273284788E1,-1.211607575E0,-1.571843475E-1,-4.908738434E-1
1.275284788E1,-7.425328493E-1,2.413161993E0,7.920303941E-2
1.277284788E1,3.828903437E-1,2.138813734E0,7.048861384E-1
1.279284944E1,1.056901574E0,1.170766830E0,6.854431629E-1
1.281484788E1,7.983310223E-1,9.918357134E-1,3.771656379E-2
1.283484944E1,3.256435394E-1,7.970220447E-1,-5.176821351E-1
1.285684788E1,4.126830995E-1,4.053178132E-1,-4.892681539E-1
1.287684944E1,4.236612320E-1,-3.351032138E-1,-4.144807756E-1
1.289684944E1,1.847256422E-1,-9.861808419E-1,-5.941624641E-1
1.291884944E1,1.054178849E-1,-9.580286741E-1,-4.331907332E-1
1.294084788E1,3.181560636E-1,-3.718074858E-1,-2.060884833E-1
1.296084788E1,4.728271365E-1,-2.726553380E-1,-1.354724616E-1
1.298084788E1,4.688827097E-1,-4.345869720E-1,-1.515818387E-1
1.300084788E1,3.024306595E-1,-5.102469921E-1,-2.238908410E-1
1.302084944E1,2.342406362E-1,-3.875678182E-1,-1.582315564E-1
1.304284944E1,2.493726462E-1,8.548622578E-2,1.771509275E-2
1.306485569E1,2.379930913E-1,4.673119187E-1,1.869771183E-1
1.308684788E1,1.827359647E-1,6.451085806E-1,3.512475193E-1
1.310684788E1,1.027649865E-1,6.536607146E-1,4.902629852E-1
1.312684788E1,2.932153083E-2,5.857848525E-1,5.762204528E-1
1.314684788E1,4.166100919E-2,4.879067838E-1,6.690545082E-1
1.316684944E1,1.164483652E-1,3.979001641E-1,7.193025351E-1
1.318884788E1,1.725432426E-1,2.125985622E-1,7.046766877E-1
1.320884788E1,1.433962435E-1,-1.587551534E-1,6.695955396E-1
1.322884788E1,4.244640842E-2,-3.216292858E-1,6.066240668E-1
1.324884788E1,-8.230973035E-2,-1.101302728E-1,6.216513515E-1
1.326884788E1,-1.632580906E-1,4.237833917E-1,6.096085906E-1
1.328884788E1,-1.881464869E-1,6.353347301E-1,4.883082211E-1
1.330884788E1,-2.830575109E-1,6.466270089E-1,3.057991266E-1
1.332884788E1,-3.434284329E-1,7.513816953E-1,3.403392136E-1
1.334884788E1,-5.262866020E-1,8.292233944E-1,4.663868845E-1
1.336884788E1,-7.991164327E-1,8.625940681E-1,4.565606713E-1
1.338884788E1,-8.820545077E-1,8.686154485E-1,2.043431550E-1
1.340884788E1,-6.894574165E-1,9.058607817E-1,-5.410520826E-4
1.342884788E1,-3.382447958E-1,1.385424852E0,-1.388060302E-1
1.344884788E1,5.602506921E-3,1.334670782E0,7.641051710E-2
1.346884788E1,-7.084291428E-2,1.318753362E0,2.068913281E-1
1.348885256E1,-2.708227336E-1,1.304668546E0,2.548878789E-1
1.351084788E1,-1.744980216E-1,1.131549358E0,2.624800801E-1
1.353084788E1,-1.256637042E-3,4.993037879E-1,1.633977294E-1
1.355084788E1,-2.813819945E-1,-5.690820813E-1,-1.555961072E-1
1.357084788E1,-9.200851917E-1,-1.514073133E0,-5.714033246E-1
1.359084788E1,-1.066029668E0,-1.162075162E0,-5.107182264E-1
1.361084788E1,-5.937784910E-1,-5.299517512E-1,-2.493377328E-1
1.363084788E1,-5.386086181E-2,-2.659881711E-1,-9.370672703E-2
1.365084788E1,3.998200297E-1,-2.434210628E-1,-1.809906401E-2
1.367084788E1,8.127998114E-1,-2.991668880E-1,4.328416660E-2
1.369084788E1,1.046324849E0,-2.941403389E-1,-8.098327555E-3
1.371084788E1,1.098178625E0,-4.885874689E-1,-9.473647177E-2
1.373084788E1,1.114392757E0,-6.212325096E-1,-2.025105506E-1
1.375084788E1,1.053829789E0,-7.510151863E-1,-2.883807421E-1
1.377084788E1,9.727592468E-1,-1.123747706E0,-4.072551131E-1
1.379084788E1,6.246882677E-1,-1.327061057E0,-4.726875126E-1
1.381084944E1,-3.727848828E-1,-1.969237566E0,-8.480904102E-1
1.383284788E1,-2.281459570E0,-3.310191393E0,-1.494228721E0
1.385284788E1,-2.331515551E0,-2.640787840E0,-1.231137753E0
1.387284788E1,-1.786658645E0,-5.263389349E-1,-6.984633207E-1
1.389284788E1,-5.177170038E-1,2.552020311E0,1.045277715E-1
1.391284788E1,9.512568116E-1,2.426566124E0,7.727445364E-1
1.393284788E1,1.580378175E0,1.496689677E0,6.028192639E-1
1.395284788E1,9.950470924E-1,1.113415360E0,-9.656906873E-2
1.397284788E1,1.373748630E-1,7.832863331E-1,-4.623726308E-1
1.399284788E1,3.363249451E-2,-4.948008433E-2,-2.620262802E-1
1.401284788E1,2.326174825E-1,-7.422710657E-1,-1.877974272E-1
1.403284788E1,1.326275766E-1,-9.180955291E-1,-2.868099511E-1
1.405284788E1,1.549677849E-1,-5.810724497E-1,-2.979451418E-1
1.407284788E1,3.581764698E-1,-3.496243656E-1,-2.393893600E-1
1.409284788E1,5.185547471E-1,-6.308143735E-1,-2.249205858E-1
1.411284788E1,5.143311024E-1,-1.054684997E0,-3.183131516E-1
1.413284788E1,4.282514453E-1,-1.165757775E0,-3.343701661E-1
1.415284788E1,3.920184076E-1,-7.739837170E-1,-2.555685639E-1
1.417284788E1,4.347615242E-1,-1.565036774E-1,-1.262920201E-1
1.419284788E1,5.021312237E-1,9.531243145E-2,2.832669392E-2
1.421284788E1,4.668755829E-1,1.839227974E-1,1.052258983E-1
1.423284788E1,3.702541590E-1,2.230181694E-1,2.352529317E-1
1.425284788E1,3.129375279E-1,2.461437881E-1,4.173605740E-1
1.427284788E1,2.835287452E-1,2.439621240E-1,5.334947705E-1
1.429284788E1,2.917841375E-1,1.583537161E-1,5.767266154E-1
1.431284788E1,2.632305622E-1,1.192059834E-2,5.081176758E-1
1.433284788E1,2.302438319E-1,-1.317199916E-1,4.374318719E-1
1.435284788E1,1.120152324E-1,-9.704030305E-2,3.871314824E-1
1.437284788E1,-4.014257342E-2,3.277728334E-2,2.930407822E-1
1.439284788E1,-1.626123190E-1,3.096213937E-1,1.135162115E-1
1.441284788E1,-2.570346296E-1,4.826708138E-1,-5.939355493E-2
1.443284788E1,-3.786840737E-1,6.217910051E-1,-1.630312055E-1
1.445284788E1,-3.955265284E-1,7.384662628E-1,-6.023131311E-2
1.447284788E1,-4.126132727E-1,8.169886470E-1,2.564063072E-1
1.449284788E1,-7.452206612E-1,1.120571136E0,1.629264802E-1
1.451284788E1,-8.717570305E-1,1.250790238E0,7.330382941E-4
1.453284788E1,-5.788384676E-1,1.430751085E0,8.831366152E-2
1.455284788E1,-1.658760905E-1,1.193176866E0,8.576548100E-2
1.457284788E1,-5.782275647E-2,7.240847349E-1,1.705012172E-1
1.459284788E1,-9.904743731E-2,3.607595563E-1,1.515294909E-1
1.461284944E1,-1.576555967E-1,2.366142869E-1,1.254891753E-1
1.463484944E1,-3.771656454E-1,2.851868048E-2,6.743951887E-2
1.465684788E1,-7.263013124E-1,-3.135483861E-1,-8.662068844E-2
1.467684788E1,-9.014102221E-1,-5.974087715E-1,-2.058441341E-1
1.469684788E1,-9.446245432E-1,-6.372720599E-1,-2.552718520E-1
1.471684788E1,-6.559121609E-1,-3.847403824E-1,-1.946216673E-1
1.473684788E1,-1.128878966E-1,-2.071007639E-1,-1.609717160E-1
1.475684788E1,2.975611687E-1,-1.262571216E-1,-1.649685204E-1
1.477684788E1,6.088755727E-1,-7.993607782E-3,-1.859124750E-1
1.479684788E1,7.350803018E-1,1.879196018E-1,-1.188394651E-1
1.481684788E1,8.115082979E-1,3.176848292E-1,-2.700024284E-2
1.483684788E1,9.943315387E-1,9.014625847E-2,-9.145525284E-3
1.485684788E1,1.220595956E0,-5.699546933E-1,-1.091703475E-1
1.487684944E1,1.311091304E0,-1.234611034E0,-3.031287789E-1
1.489684944E1,1.039378524E0,-1.557531834E0,-3.611435294E-1
1.491884944E1,1.308124214E-1,-1.544267297E0,-2.963743508E-1
1.493884944E1,-6.172880530E-1,-2.074533224E0,-5.517509580E-1
1.495884944E1,-1.305418968E0,-2.975646734E0,-1.037755370E0
1.497884944E1,-1.458973050E0,-2.130139351E0,-8.839219809E-1
1.499884944E1,-1.117621541E0,1.198517606E-1,-3.765373230E-1
1.502084788E1,-2.784149349E-1,1.497125983E0,2.270673364E-1
1.504084788E1,1.354026496E-1,7.979994416E-1,1.078962535E-1
1.506084788E1,1.604132056E-1,6.942919642E-2,-2.644697428E-1
1.508084788E1,8.806931227E-2,3.705159426E-1,-3.734306395E-1
1.510084788E1,2.366666496E-1,4.839972556E-1,-1.073901057E-1
1.512084788E1,2.467197478E-1,9.283406287E-2,-1.075820923E-1
1.514084788E1,1.062032878E-1,-5.832192302E-1,-2.579596639E-1
1.516084788E1,-1.960004680E-2,-7.226884961E-1,-2.965838015E-1
1.518084788E1,1.040565297E-1,-6.309365034E-1,-3.239505589E-1
1.520084788E1,2.438399494E-1,-6.298893094E-1,-3.424859643E-1
1.522084944E1,2.626197040E-1,-7.773522139E-1,-3.673394322E-1
1.524284788E1,2.373822331E-1,-9.224588871E-1,-3.314205706E-1
1.526284944E1,2.829527855E-1,-8.086110353E-1,-2.362303138E-1
1.528485569E1,3.727325201E-1,-4.266457260E-1,-9.534733742E-2
1.530684944E1,4.075343907E-1,-1.029395163E-1,1.436406001E-2
1.532684944E1,4.430692792E-1,6.579891592E-2,9.704030305E-2
1.534884788E1,4.622504413E-1,1.278279126E-1,2.046747655E-1
1.536884788E1,4.412716031E-1,1.379857361E-1,3.000220954E-1
1.538884788E1,4.069758654E-1,8.808676898E-2,3.672347367E-1
1.540884944E1,4.255810976E-1,-6.370451767E-3,4.086863101E-1
1.542884944E1,4.996528625E-1,-1.422966868E-1,4.068188071E-1
1.545084788E1,5.152561069E-1,-3.044203222E-1,3.461337090E-1
1.547084788E1,3.460289836E-1,-3.127455413E-1,2.947162986E-1
1.549084788E1,1.323483139E-1,-1.483878940E-1,2.575931549E-1
1.551084788E1,-2.452187613E-2,3.455751762E-2,2.643824816E-1
1.553084788E1,-2.174505740E-1,3.532720804E-1,1.216145381E-1
1.555084788E1,-3.815115094E-1,5.308768153E-1,1.708677411E-2
1.557084788E1,-4.062602818E-1,8.292582631E-1,1.618094742E-1
1.559084788E1,-5.294805169E-1,1.128896356E0,4.474326074E-1
1.561084788E1,-8.072322011E-1,1.272484660E0,4.803320765E-1
1.563084788E1,-1.008294106E0,1.351356030E0,3.021514118E-1
1.565084788E1,-8.692786694E-1,1.246042967E0,1.349139493E-2
1.567084788E1,-3.607944548E-1,1.262204647E0,-9.320057929E-3
1.569084788E1,1.223301291E-1,1.093029857E0,1.888446212E-1
1.571084788E1,1.795594692E-1,8.874824643E-1,3.062529266E-1
1.573084788E1,-8.367108554E-2,7.781899571E-1,3.253293633E-1
1.575084788E1,-2.065771669E-1,7.444178462E-1,2.435781509E-1
1.577084788E1,-1.328893751E-1,5.428497791E-1,1.858775616E-1
1.579084788E1,-1.502553970E-1,-4.276056774E-3,1.304633617E-1
1.581084788E1,-2.134537697E-1,-5.448219776E-1,-6.143558770E-3
1.583084788E1,-3.617543876E-1,-9.148492217E-1,-1.487544179E-1
1.585084788E1,-6.187192202E-1,-9.948027730E-1,-2.457423508E-1
1.587084788E1,-5.201430321E-1,-4.535063505E-1,-1.243896186E-1
1.589084788E1,-1.239183731E-2,-8.970992267E-2,3.738495335E-2
1.591084788E1,4.110075831E-1,-2.729694918E-2,3.897320107E-2
1.593084788E1,7.632673979E-1,-1.119628698E-1,-2.328269184E-2
1.595084788E1,1.008172035E0,-2.952573597E-1,-6.302383542E-2
1.597084788E1,1.049518824E0,-5.048190355E-1,-9.564404190E-2
1.599084788E1,8.973959088E-1,-7.989069819E-1,-2.120924145E-1
1.601084788E1,6.189810038E-1,-1.128878951E0,-3.639883995E-1
1.603084788E1,3.149795830E-1,-1.428901076E0,-4.052305520E-1
1.605084944E1,-3.698876202E-1,-2.305440426E0,-4.974711835E-1
1.607284788E1,-1.166263938E0,-2.475051403E0,-7.482575774E-1
1.609284788E1,-9.424952269E-1,-8.435350657E-1,-5.583133698E-1
1.611285100E1,-6.346191764E-1,4.001167417E-1,-2.062106431E-1
1.613484944E1,-2.256885320E-1,1.763672709E0,7.103490084E-2
1.615484944E1,1.685813516E-1,1.436720133E0,4.217937291E-1
1.617684788E1,1.706932038E-1,4.769984782E-1,-2.064724453E-2
1.619684788E1,4.633849114E-2,6.310237646E-1,-2.077988982E-1
1.621684788E1,2.321985960E-1,5.617341995E-1,8.569566533E-3
1.623684944E1,2.977880836E-1,1.628566682E-1,6.318091601E-2
1.625884788E1,1.520879865E-1,-5.107706189E-1,6.763150543E-2
1.627884788E1,-4.996877536E-2,-5.473178029E-1,1.153662615E-2
1.629884788E1,-4.623377323E-2,-3.666936755E-1,-5.033529550E-2
1.631884788E1,6.019640714E-2,-2.259154171E-1,-1.060462072E-1
1.633884788E1,1.887748092E-1,-2.928487957E-1,-1.583537161E-1
1.635884788E1,2.527411282E-1,-2.909812927E-1,-1.585457027E-1
1.637884788E1,2.946639359E-1,-1.603957564E-1,-1.111774743E-1
1.639884788E1,3.510904312E-1,-6.859143730E-3,1.106538717E-2
1.641884944E1,3.648610711E-1,1.613731384E-1,1.620363742E-1
1.644084788E1,3.113318384E-1,2.832843959E-1,2.958158553E-1
1.646084788E1,2.868274152E-1,2.664768696E-1,3.761359155E-1
1.648084788E1,2.973691821E-1,2.191609889E-1,4.337841272E-1
1.650084788E1,2.548006177E-1,1.434835196E-1,4.691270590E-1
1.652084788E1,1.925796270E-1,7.407177240E-2,4.519879222E-1
1.654084788E1,1.685464382E-1,6.225589290E-2,4.209734201E-1
1.656084788E1,1.933999360E-1,1.209513173E-1,4.118453562E-1
1.658084788E1,1.989326328E-1,1.912182719E-1,4.066791534E-1
1.660084788E1,8.953539282E-2,2.575407922E-1,3.945491314E-1
1.662084788E1,-1.143016145E-1,4.194375277E-1,3.817034960E-1
1.664084788E1,-2.661452591E-1,5.240002275E-1,3.034080267E-1
1.666084944E1,-4.035899341E-1,6.692115664E-1,2.565284967E-1
1.668284944E1,-5.028642416E-1,8.458389044E-1,2.813994288E-1
1.670284944E1,-6.286501288E-1,1.003791213E0,5.000019073E-1
1.672284944E1,-8.030958176E-1,1.136174440E0,5.814913511E-1
1.674484944E1,-9.177464843E-1,1.215813756E0,3.548777997E-1
1.676486662E1,-7.978597879E-1,1.290339351E0,9.840166569E-2
1.678684944E1,-3.431666493E-1,1.524946570E0,4.639085010E-2
1.680684944E1,-6.668902934E-2,1.412756801E0,1.328719109E-1
1.682684944E1,-1.382475346E-1,1.317531586E0,1.574112475E-1
1.684684944E1,-3.003537059E-1,1.201292634E0,1.714436859E-1
1.686884788E1,-2.712939680E-1,8.655087948E-1,2.142740786E-1
1.688884788E1,-1.401499361E-1,4.990943372E-1,2.090904415E-1
1.690884944E1,1.551597659E-2,2.114117295E-1,1.497841626E-1
1.693084788E1,-1.381428093E-1,-2.050238252E-1,-7.763224840E-2
1.695084788E1,-6.753202677E-1,-7.690443993E-1,-3.687357008E-1
1.697084788E1,-6.454576850E-1,-5.002462864E-1,-1.665567756E-1
1.699084788E1,-5.599016324E-2,-1.278453618E-1,2.340486459E-2
1.701084788E1,3.945142329E-1,-6.044075266E-2,7.199483365E-2
1.703084788E1,7.471405268E-1,-1.822472811E-1,4.077089205E-2
1.705084788E1,9.939301014E-1,-4.401371181E-1,4.731587693E-2
1.707084788E1,1.063149810E0,-6.698399186E-1,-4.422664270E-2
1.709084788E1,9.743649364E-1,-8.978672028E-1,-1.969080418E-1
1.711084788E1,7.716100812E-1,-1.077618599E0,-3.720343709E-1
1.713084788E1,4.805065989E-1,-1.349017382E0,-5.431988239E-1
1.715084788E1,-5.658531785E-1,-2.754147053E0,-8.833111525E-1
1.717084788E1,-1.672845721E0,-3.480937004E0,-1.186178088E0
1.719084788E1,-1.620206594E0,-2.431627512E0,-9.016196132E-1
1.721084944E1,-1.407101870E0,-7.103140950E-1,-6.859841943E-1
1.723084944E1,-4.801749885E-1,1.672234893E0,-4.290019348E-2
1.725084944E1,6.007598042E-1,1.451206326E0,3.808308542E-1
1.727084944E1,8.339881301E-1,9.415876865E-1,1.599419713E-1
1.729284788E1,4.244117141E-1,6.929655075E-1,-3.578972220E-1
1.731284788E1,3.190112710E-1,3.846181929E-1,-4.408352673E-1
1.733284788E1,4.542568326E-1,-1.010545641E-1,-2.332807034E-1
1.735284788E1,2.637366951E-1,-8.029910922E-1,-1.852492392E-1
1.737284788E1,-6.082472578E-2,-7.519751191E-1,-2.115513533E-1
1.739284788E1,-7.155849785E-2,-4.908564091E-1,-1.944296807E-1
1.741284788E1,4.946263134E-2,-3.231477141E-1,-1.765400469E-1
1.743284788E1,1.960528344E-1,-4.976631701E-1,-1.584235430E-1
1.745284788E1,2.095267773E-1,-5.758015513E-1,-2.113593668E-1
1.747284788E1,1.836784482E-1,-4.191233516E-1,-2.313084900E-1
1.749284788E1,2.152863592E-1,-3.296926990E-2,-7.911577821E-2
1.751284788E1,2.383247018E-1,4.397706091E-1,1.239881888E-1
1.753284788E1,2.192831635E-1,7.497934699E-1,3.266034722E-1
1.755284788E1,1.685289890E-1,7.888538837E-1,4.795815647E-1
1.757284788E1,1.442340016E-1,7.219380140E-1,5.884552002E-1
1.759284788E1,2.296678722E-1,6.268524528E-1,7.035422325E-1
1.761284788E1,3.332008123E-1,5.847725868E-1,7.653093934E-1
1.763284788E1,4.218111634E-1,4.956735075E-1,7.961319089E-1
1.765284788E1,4.373271465E-1,2.135584801E-1,7.576299906E-1
1.767284788E1,3.079284430E-1,5.358160939E-3,6.576575041E-1
1.769284788E1,1.147728488E-1,2.640683204E-2,5.751208663E-1
1.771284788E1,1.818633080E-2,3.471983373E-1,4.497364461E-1
1.773284944E1,-4.735078290E-2,5.434780717E-1,1.838529855E-1
1.775486038E1,-9.025097638E-2,4.815014303E-1,-2.513274085E-3
1.777684788E1,-1.696110964E-1,6.524389982E-1,1.187696531E-1
1.779684788E1,-4.286004901E-1,1.077862978E0,3.780732155E-1
1.781684788E1,-8.246855140E-1,1.389596224E0,5.433558822E-1
1.783684788E1,-1.038540721E0,1.472726226E0,4.349360466E-1
1.785684944E1,-9.201899171E-1,1.511053681E0,2.117258906E-1
1.787884788E1,-3.530277610E-1,1.537530303E0,1.182635128E-1
1.789884788E1,1.446354389E-1,1.227612257E0,2.083923072E-1
1.791884788E1,7.757988572E-2,8.942717910E-1,1.871167421E-1
1.793884788E1,-2.030865103E-1,5.521872640E-1,8.222246170E-2
1.795884788E1,-2.630734742E-1,3.997851312E-1,6.424556673E-2
1.797884944E1,-1.449146867E-1,2.276258469E-1,7.876671106E-2
1.800084788E1,-4.082674086E-1,-5.678428411E-1,-2.284810543E-1
1.802084788E1,-1.175252318E0,-1.470614433E0,-5.984908342E-1
1.804084788E1,-1.100342870E0,-9.680992365E-1,-4.316024780E-1
1.806084788E1,-4.967381656E-1,-4.333128929E-1,-2.412568629E-1
1.808084788E1,-2.649409883E-2,-4.071504176E-1,-1.237089336E-1
1.810084788E1,3.872536421E-1,-5.237558484E-1,-9.468410909E-2
1.812084788E1,7.793593407E-1,-6.825633645E-1,-1.077566296E-1
1.814084788E1,9.984330535E-1,-7.819947600E-1,-1.541474760E-1
1.816084788E1,1.081632853E0,-1.041577578E0,-1.563465893E-1
1.818084788E1,1.056360483E0,-1.291456342E0,-2.507165372E-1
1.820084788E1,9.913644791E-1,-1.498295307E0,-3.927863538E-1
1.822084788E1,7.951719761E-1,-1.682741761E0,-5.543165803E-1
1.824084944E1,3.689800501E-1,-2.074149370E0,-6.507459879E-1
1.826284944E1,-5.185722113E-1,-3.169605255E0,-7.240847349E-1
1.828484944E1,-1.410819411E0,-3.443272829E0,-1.056273222E0
1.830485413E1,-1.441589594E0,-2.042401791E0,-9.831963181E-1
1.832684944E1,-1.588842988E0,2.077290863E-1,-8.456643820E-1
1.834684944E1,-7.328288555E-1,2.756799936E0,4.953244328E-2
1.836884944E1,5.676683187E-1,1.860329032E0,6.261368394E-1
1.838884944E1,9.903696179E-1,2.366317362E-1,3.501130641E-2
1.840884944E1,5.573011041E-1,1.232202426E-1,-5.452932119E-1
1.842884944E1,2.223898470E-1,1.126610041E-1,-5.767964125E-1
1.845084944E1,3.156951666E-1,-3.292912543E-1,-2.724458873E-1
1.847284788E1,2.591813803E-1,-7.692015171E-1,-2.665990293E-1
1.849284788E1,1.930334233E-2,-6.240075827E-1,-3.177895546E-1
1.851284788E1,1.086816490E-1,-4.453207552E-1,-2.803173363E-1
1.853284788E1,2.680476606E-1,-4.750786126E-1,-2.874033749E-1
1.855284788E1,3.652101457E-1,-6.781476736E-1,-2.956762314E-1
1.857284788E1,3.312984109E-1,-7.223743200E-1,-2.745926380E-1
1.859284788E1,2.935469151E-1,-4.719544947E-1,-2.081305087E-1
1.861284788E1,3.483677208E-1,-1.371828746E-2,-1.010545623E-2
1.863284788E1,3.662748039E-1,3.994185925E-1,2.241351753E-1
1.865284788E1,3.117507100E-1,4.945914149E-1,3.921231329E-1
1.867284788E1,2.284112424E-1,4.277278483E-1,4.843637645E-1
1.869284788E1,2.051983625E-1,3.893829584E-1,6.048961878E-1
1.871284788E1,2.734581828E-1,3.951599896E-1,7.140665650E-1
1.873284788E1,3.095341325E-1,3.571118116E-1,7.738091946E-1
1.875284788E1,2.817310393E-1,2.884331048E-1,7.954512835E-1
1.877284788E1,2.442413718E-1,1.411098689E-1,7.261267900E-1
1.879284788E1,2.545911670E-1,3.391174600E-2,5.316447616E-1
1.881284944E1,2.548529804E-1,1.522276103E-1,4.898091853E-1
1.883284944E1,2.096140385E-1,5.733581185E-1,4.526336789E-1
1.885484944E1,9.581857920E-2,6.239203215E-1,2.172411382E-1
1.887484944E1,7.745771110E-2,6.450737119E-1,2.734581828E-1
1.889684944E1,-1.777617782E-1,8.904320598E-1,3.808831871E-1
1.891884944E1,-7.212921977E-1,1.241714478E0,5.294979811E-1
1.894084944E1,-1.081405997E0,1.279588103E0,4.516737461E-1
1.896284788E1,-9.998467565E-1,1.432723284E0,2.515717447E-1
1.898284788E1,-5.745798349E-1,1.893158674E0,3.167423606E-1
1.900284788E1,-8.002334833E-2,2.188555717E0,5.673542023E-1
1.902284788E1,1.093274206E-1,2.068930626E0,6.335894465E-1
1.904284788E1,-4.405210912E-2,1.839524627E0,5.407029986E-1
1.906284788E1,-1.300793886E-1,1.321249127E0,4.834212959E-1
1.908284788E1,-1.970651299E-1,7.437894940E-1,4.703138769E-1
1.910284788E1,-3.039316237E-1,1.766447723E-1,3.878994286E-1
1.912284788E1,-5.107356906E-1,-3.726801574E-1,1.775872558E-1
1.914284788E1,-7.402814031E-1,-9.475916028E-1,-1.231155246E-1
1.916284788E1,-8.929628134E-1,-8.193098903E-1,-2.346595228E-1
1.918284788E1,-5.733231902E-1,-2.702642381E-1,-5.345943570E-2
1.920284788E1,-2.466150187E-2,6.269222498E-2,5.466371030E-2
1.922284788E1,3.331484497E-1,6.892304868E-2,6.183701381E-2
1.924284788E1,6.731211543E-1,-1.332733482E-1,-4.276056774E-3
1.926284788E1,1.008381367E0,-3.145781457E-1,-6.211626902E-2
1.928284788E1,1.299362659E0,-6.674138904E-1,-1.349488646E-1
1.930284788E1,1.379944563E0,-1.104950547E0,-2.695311904E-1
1.932284788E1,1.143033624E0,-1.517633557E0,-4.782551229E-1
1.934284788E1,5.655913949E-1,-1.787129879E0,-5.924171209E-1
1.936284788E1,-5.501626730E-1,-2.634347677E0,-7.971442342E-1
1.938284788E1,-1.744334459E0,-2.934683800E0,-1.087881207E0
1.940284788E1,-2.173406124E0,-1.979325533E0,-1.107934952E0
1.942284788E1,-1.709654689E0,-5.356938839E-1,-6.318091750E-1
1.944284788E1,-1.044527173E0,1.691381097E0,-2.013935447E-1
1.946284788E1,5.792922378E-1,2.316174030E0,5.181009769E-1
1.948284788E1,1.500145435E0,1.831670642E0,5.985432267E-1
1.950284788E1,1.112141252E0,1.349558353E0,4.951499030E-2
1.952284788E1,1.828930527E-1,1.014001369E0,-4.538728595E-1
1.954284788E1,-8.435176313E-2,6.886894703E-1,-3.159569502E-1
1.956284788E1,8.070402592E-2,-7.159340382E-2,-7.393214852E-2
1.958284788E1,-6.864380091E-2,-7.268598080E-1,-2.001718134E-1
1.960284788E1,-1.226093769E-1,-7.189709544E-1,-3.401995897E-1
1.962284788E1,7.909832150E-2,-5.838475227E-1,-3.353999257E-1
1.964284788E1,2.091602534E-1,-4.133637846E-1,-2.952398956E-1
1.966284788E1,2.147802114E-1,-3.415958285E-1,-2.336821258E-1
1.968284788E1,1.478642970E-1,-1.406909972E-1,-1.251401007E-1
1.970284788E1,9.648180008E-2,1.797863692E-1,-2.268928074E-4
1.972284788E1,6.316346675E-2,5.275781155E-1,1.008102149E-1
1.974284788E1,2.733185515E-2,7.753450871E-1,1.997005790E-1
1.976284788E1,4.045673087E-2,8.730486035E-1,3.323281407E-1
1.978284788E1,1.172686741E-1,8.202523589E-1,4.288797677E-1
1.980284944E1,2.033308595E-1,7.109075189E-1,5.200383067E-1
1.982285100E1,2.835461795E-1,6.118600965E-1,6.524389982E-1
1.984485100E1,3.338814974E-1,5.362873077E-1,6.977651715E-1
1.986684944E1,2.825688124E-1,3.065147102E-1,6.550395489E-1
1.988684944E1,2.243795246E-1,8.161159605E-2,5.597270727E-1
1.990684944E1,2.254092693E-1,-1.705361158E-1,4.854982495E-1
1.992884788E1,3.615972996E-1,1.956514083E-2,4.028045237E-1
1.994884788E1,4.244815111E-1,3.437076807E-1,2.539105117E-1
1.996884788E1,2.978229821E-1,9.318313003E-2,-5.281366408E-2
1.998884788E1,2.059313953E-1,2.450442314E-2,-5.122541264E-2
2.000884788E1,4.033455998E-2,5.035973191E-1,1.092750654E-1
2.002884788E1,-3.869743943E-1,8.630304337E-1,2.335250527E-1
2.004884788E1,-8.466941118E-1,8.552462459E-1,2.738072574E-1
2.006884788E1,-9.429490566E-1,7.775092721E-1,6.998769939E-2
2.008884788E1,-6.872408390E-1,9.230348468E-1,-5.738642439E-2
2.010884788E1,-1.732064784E-1,1.201449752E0,9.817477316E-2
2.012884788E1,1.339191198E-1,1.384028673E0,3.351555765E-1
2.014884788E1,-9.512044489E-3,1.238939404E0,3.387509584E-1
2.016885881E1,-2.035577446E-1,8.441808224E-1,2.445729822E-1
2.019084788E1,-2.571218908E-1,1.132020578E-1,1.668534726E-1
2.021084944E1,-4.282863438E-1,-5.015203357E-1,-2.165953629E-2
2.023084944E1,-8.748113513E-1,-1.265311360E0,-2.962870896E-1
2.025084944E1,-1.391167045E0,-1.459374547E0,-4.833514690E-1
2.027084944E1,-1.179126978E0,-5.703212619E-1,-2.890788913E-1
2.029084944E1,-5.778086782E-1,2.453932911E-2,-2.912954427E-2
2.031084944E1,-3.909537569E-3,2.676636875E-1,1.116487086E-1
2.033284944E1,5.488013029E-1,3.736226261E-1,2.435956001E-1
2.035284944E1,1.019324660E0,2.962347269E-1,2.697580755E-1
2.037284944E1,1.380904555E0,1.055575162E-1,2.760063708E-1
2.039484788E1,1.486601591E0,-3.310714960E-1,2.989400029E-1
2.041484944E1,1.303202391E0,-9.021083117E-1,1.739918739E-1
2.043484944E1,8.718792200E-1,-1.313901305E0,-1.169894189E-1
2.045684944E1,1.046848446E-1,-1.963530302E0,-3.968180716E-1
2.047884788E1,-1.758977771E0,-3.538445711E0,-9.960419536E-1
2.049884944E1,-2.657019377E0,-2.329159260E0,-1.139089108E0
2.052084944E1,-1.981105804E0,-1.309607744E0,-7.409969568E-1
2.054284944E1,-2.057568550E0,7.608762980E-1,-5.277875662E-1
2.056485569E1,-1.003040746E-1,2.094936132E0,3.215419948E-1
2.058684944E1,1.999257207E0,1.835911870E0,8.513192534E-1
2.060684944E1,2.106577396E0,1.921537638E0,6.301162243E-1
2.062684944E1,8.179659843E-1,9.426872134E-1,-1.887922585E-1
2.064684944E1,-2.713812590E-1,9.277471900E-1,-3.658733666E-1
2.066684944E1,-3.810751736E-1,1.189965457E-1,-1.257509738E-1
2.068684944E1,6.927211583E-2,-6.087883115E-1,-7.316420227E-2
2.070684944E1,5.009094998E-2,-8.929802775E-1,-6.686356664E-2
2.072684944E1,1.512676924E-1,-8.524537086E-1,8.552113432E-4
2.074684944E1,3.338814974E-1,-6.795439124E-1,8.129743487E-2
2.076684944E1,3.912678957E-1,-5.328140855E-1,9.494590759E-2
2.078684944E1,3.432189822E-1,-3.636742532E-1,6.763150543E-2
2.080884944E1,3.417180181E-1,1.579522900E-2,7.822565734E-2
2.082884944E1,3.367438316E-1,4.668755829E-1,1.549852341E-1
2.084884944E1,2.901260853E-1,9.165421724E-1,3.037047386E-1
2.086884944E1,1.854237765E-1,1.261279583E0,5.088507533E-1
2.088884944E1,5.934119597E-2,1.344479442E0,6.278996468E-1
2.090884944E1,-4.740314186E-2,1.199669480E0,6.886370778E-1
2.092884944E1,-6.307619810E-2,9.283406138E-1,7.684161067E-1
2.095084944E1,3.518583626E-2,7.714878917E-1,7.786262631E-1
2.097284944E1,2.306278050E-1,8.139691949E-1,6.494719386E-1
2.099284944E1,4.280070961E-1,5.191656351E-1,4.663170576E-1
2.101284944E1,4.836132824E-1,2.213775665E-1,3.908315897E-1
2.103284944E1,3.926292658E-1,-2.742784917E-1,2.861467302E-1
2.105284944E1,1.581268385E-2,-5.055695176E-1,1.040216256E-2
2.107484944E1,-3.421194255E-1,-2.651154995E-1,-2.429672778E-1
2.109484944E1,-4.299094975E-1,4.073249400E-1,2.321287990E-2
2.111485256E1,-5.599539876E-1,1.003965735E0,3.654370308E-1
2.113684788E1,-8.299738765E-1,1.427818894E0,6.270269752E-1
2.115684944E1,-1.067373514E0,1.262728214E0,5.051506162E-1
2.117684944E1,-1.042869091E0,7.686255574E-1,5.604252219E-2
2.119684944E1,-9.486039281E-1,5.349957943E-1,-2.204001844E-1
2.121684944E1,-4.370827973E-1,6.699097157E-1,-3.059038520E-1
2.123684944E1,3.785968125E-1,4.620235562E-1,1.101826355E-1
2.125684944E1,5.208237171E-1,8.707447350E-2,2.651329637E-1
2.127684944E1,2.756572962E-1,-2.105565220E-1,1.630486548E-1
2.129684944E1,2.513274085E-3,-6.248453259E-1,-5.756095797E-2
2.131684944E1,-7.602479458E-1,-1.887940049E0,-7.091447115E-1
2.133684944E1,-1.476758003E0,-2.230460882E0,-8.720886707E-1
2.135684944E1,-1.299223065E0,-1.007421494E0,-4.796862900E-1
2.137684944E1,-8.328362107E-1,-4.324576855E-1,-2.986258268E-1
2.139684944E1,-3.998898268E-1,-4.692317545E-1,-2.143613398E-1
2.141684944E1,-4.815363511E-2,-6.155252457E-1,-3.758915663E-1
2.143684944E1,4.318817258E-1,-8.356636167E-1,-4.236786664E-1
2.145684944E1,8.021358848E-1,-1.116277695E0,-4.595626295E-1
2.147684944E1,9.772447348E-1,-1.382004023E0,-5.371250510E-1
2.149684944E1,1.107690692E0,-1.954803705E0,-6.608340144E-1
2.151684944E1,1.250807643E0,-2.539279461E0,-8.717221618E-1
2.153684944E1,1.283951402E0,-2.730707169E0,-9.804910421E-1
2.155884944E1,6.372720599E-1,-2.693409443E0,-9.076409936E-1
2.158084944E1,-1.699444532E0,-4.367791176E0,-9.532814026E-1
2.160084944E1,-2.691192865E0,-4.056127548E0,-1.093448758E0
2.162284944E1,-1.717595935E0,-9.298939705E-1,-1.034666061E0
2.164484944E1,-1.629439354E0,1.815508962E0,-1.893507689E-1
2.166684944E1,-8.881980777E-1,3.063646317E0,1.001190662E0
2.168684944E1,-2.743483186E-1,2.386196613E0,1.058420062E0
2.170884944E1,-1.534842551E-1,2.652551532E-1,1.727526933E-1
2.172884944E1,-5.532169938E-1,5.114687085E-1,-1.774650812E-1
2.174884944E1,3.019419499E-3,9.821491241E-1,-1.273915768E-1
2.176884944E1,9.142383933E-1,1.130641699E0,-2.282890677E-2
2.178884944E1,1.268784523E0,7.347487211E-1,1.047197497E-3
2.180886038E1,9.295972586E-1,1.559451669E-1,-2.003812492E-1
2.183084788E1,6.028192639E-1,-4.764050841E-1,-3.872885704E-1
2.185084944E1,5.943544507E-1,-6.574306488E-1,-3.888244629E-1
2.187084944E1,6.650227904E-1,-6.085090637E-1,-3.033731282E-1
2.189084944E1,7.163354754E-1,-4.591612220E-1,-2.334028780E-1
2.191084944E1,7.273659706E-1,-3.159918487E-1,-1.624377966E-1
2.193084944E1,7.097032070E-1,-5.801474303E-2,-3.408627957E-2
2.195084944E1,6.297147870E-1,1.907470375E-1,1.198517606E-1
2.197084944E1,4.989023507E-1,2.290221006E-1,2.920110226E-1
2.199084944E1,4.174478352E-1,2.423913330E-1,4.334699810E-1
2.201084944E1,3.647389114E-1,3.488389552E-1,5.884377360E-1
2.203084944E1,3.275284767E-1,5.231275558E-1,7.024426460E-1
2.205284788E1,3.478441238E-1,6.649180651E-1,8.095360398E-1
2.207284788E1,4.272042513E-1,7.338760495E-1,8.461006880E-1
2.209284788E1,5.173854232E-1,6.986378431E-1,8.044047952E-1
2.211284788E1,5.158320665E-1,4.885700047E-1,6.463652253E-1
2.213284788E1,4.562115967E-1,3.820874691E-1,4.262268543E-1
2.215284788E1,4.638037980E-1,4.844161272E-1,2.468244582E-1
2.217284788E1,2.984164059E-1,3.680550456E-1,4.750786349E-2
2.219284788E1,8.721410483E-2,6.511125565E-1,5.791002512E-2
2.221284788E1,-2.087239176E-1,1.143243074E0,2.763903439E-1
2.223284788E1,-6.236759424E-1,1.267615199E0,3.941826224E-1
2.225284788E1,-7.258650064E-1,1.157519817E0,2.029119730E-1
2.227284788E1,-5.902354717E-1,1.227332950E0,9.075712413E-2
2.229284788E1,-2.206794322E-1,1.464802504E0,1.213876456E-1
2.231284788E1,2.221804112E-1,1.396385550E0,2.361605018E-1
2.233284788E1,2.394417226E-1,1.156525016E0,3.850545287E-1
2.235284788E1,7.878416032E-2,1.143941164E0,4.084768593E-1
2.237284788E1,-1.743758470E-1,7.646985650E-1,3.877249062E-1
2.239284788E1,-8.629955053E-1,-2.151292861E-1,4.457570985E-2
2.241284944E1,-1.673404217E0,-1.081091881E0,-3.069161475E-1
2.243484944E1,-1.692149043E0,-6.470459104E-1,-1.399230510E-1
2.245684944E1,-1.074983239E0,-2.082003206E-1,-9.876818210E-2
2.247884788E1,-2.153910846E-1,6.736970972E-3,-2.251474746E-2
2.249884788E1,4.572064579E-1,2.201383710E-1,7.288494706E-2
2.251884788E1,9.559866190E-1,2.100503743E-1,1.219112501E-1
2.253884944E1,1.199564815E0,3.638662398E-1,7.442083955E-2
2.255884944E1,1.237665296E0,1.603957638E-2,2.823942713E-2
2.258084944E1,1.106276989E0,-5.047317743E-1,-7.751007378E-2
2.260084944E1,9.574177861E-1,-9.457764626E-1,-2.823942602E-1
2.262284944E1,6.075491309E-1,-1.126644969E0,-4.635769129E-1
2.264485256E1,-4.208686948E-1,-1.929094911E0,-7.014827132E-1
2.266684944E1,-2.071740627E0,-2.804342747E0,-1.047843337E0
2.268684944E1,-2.030306578E0,-1.823834181E0,-1.081475854E0
2.270684944E1,-1.645077586E0,-1.226320744E0,-8.838172555E-1
2.272684944E1,-1.120990038E0,1.029220700E0,-3.798359931E-1
2.274684944E1,6.435028911E-1,1.020424247E0,3.306700885E-1
2.276684944E1,1.603852868E0,1.142405272E0,3.452435732E-1
2.278684944E1,9.627934098E-1,1.186858773E0,-4.731587693E-2
2.280684944E1,2.476622164E-1,1.201624274E0,-4.987801909E-1
2.282684944E1,6.144431829E-1,9.050405025E-1,-2.817485034E-1
2.284684944E1,7.525510788E-1,-1.123119369E-1,-1.977458000E-1
2.286684944E1,2.344500721E-1,-5.830621123E-1,-2.735978067E-1
2.288684944E1,8.775515109E-2,-7.504740953E-1,-3.149795830E-1
2.290684944E1,2.138901055E-1,-6.561565399E-1,-1.793325841E-1
2.292884788E1,2.930756807E-1,-6.070604324E-1,-7.470009476E-2
2.294884788E1,2.476971298E-1,-5.837951899E-1,-1.064476296E-1
2.296885100E1,2.067342550E-1,-3.629761338E-1,-1.700474322E-1
2.299084944E1,1.938013583E-1,8.080874570E-3,-8.798204362E-2
2.301084944E1,2.077465355E-1,4.034677744E-1,7.990117371E-2
2.303284788E1,2.525666058E-1,6.498559117E-1,2.702293396E-1
2.305284944E1,3.292389214E-1,5.537580848E-1,3.808482885E-1
2.307284944E1,3.253119290E-1,3.487516940E-1,4.258079827E-1
2.309284944E1,2.699500620E-1,2.534741759E-1,4.763527215E-1
2.311284944E1,2.663721442E-1,1.759291887E-1,4.997750223E-1
2.313484944E1,3.104591668E-1,1.047546640E-1,4.248829484E-1
2.315484944E1,3.169692457E-1,-1.286831200E-1,3.198490441E-1
2.317484944E1,1.661902517E-1,-3.629237711E-1,2.185501307E-1
2.319484944E1,-7.878416032E-2,-1.942551434E-1,1.830326766E-1
2.321484944E1,-1.626472324E-1,2.728647888E-1,5.665338784E-2
2.323484944E1,-2.913129032E-1,3.931877613E-1,-1.451415867E-1
2.325484944E1,-3.926467299E-1,3.765024245E-1,-1.193107069E-1
2.327484944E1,-2.599318922E-1,6.589839458E-1,1.355946362E-1
2.329484944E1,-2.894628644E-1,9.128595591E-1,3.399203122E-1
2.331484944E1,-5.628686547E-1,8.046317101E-1,4.418999255E-1
2.333484944E1,-7.697774768E-1,7.645240426E-1,2.205398083E-1
2.335484944E1,-7.028266191E-1,9.599660039E-1,7.492698729E-2
2.337484944E1,-1.469392627E-1,9.854303598E-1,5.056218803E-2
2.339485256E1,-2.185152285E-2,3.542669415E-1,1.250877529E-1
2.341684944E1,-3.799058199E-1,2.367713600E-1,1.459618807E-1
2.343684944E1,-3.391523659E-1,3.972369432E-1,1.669581980E-1
2.345884788E1,-1.928937882E-1,2.601238787E-1,1.390154809E-1
2.347885569E1,-1.194328815E-1,-2.460565120E-1,4.707153141E-2
2.350084788E1,-4.087212086E-1,-9.610480666E-1,-2.503325641E-1
2.352084788E1,-8.376184106E-1,-1.179859996E0,-4.419871867E-1
2.354084788E1,-7.106457353E-1,-9.502270818E-1,-3.120299578E-1
2.356084944E1,-2.513448596E-1,-7.097381353E-1,-1.841147840E-1
2.358284788E1,2.434908897E-1,-6.558598280E-1,-1.237787530E-1
2.360284788E1,5.331980586E-1,-7.149915695E-1,-1.158200502E-1
2.362284788E1,6.929131746E-1,-6.973637342E-1,-2.123367488E-1
2.364284788E1,9.191776514E-1,-8.762599826E-1,-2.197020501E-1
2.366284788E1,1.047564030E0,-9.491624236E-1,-2.835287452E-1
2.368284788E1,9.554630518E-1,-1.066623092E0,-3.835186362E-1
2.370284944E1,7.551341653E-1,-1.412198305E0,-5.250648260E-1
2.372486038E1,5.248204991E-2,-2.154940605E0,-5.148721337E-1
2.374684788E1,-2.052978516E0,-3.821136475E0,-1.028121114E0
2.376684788E1,-2.458366156E0,-2.270673275E0,-1.068385839E0
2.378684788E1,-1.609123707E0,-6.134483218E-1,-7.193025351E-1
2.380684944E1,-1.486461997E0,1.703004956E0,-5.236511230E-1
2.382685100E1,-8.742354065E-2,2.527254105E0,4.764225185E-1
2.384884944E1,1.249481201E0,9.950994849E-1,5.634620786E-1
2.386884944E1,8.777958751E-1,7.215016484E-1,1.528035700E-1
2.388884944E1,1.688605994E-1,4.036771953E-1,-4.004308879E-1
2.390884944E1,1.644100100E-1,1.747772694E-1,-3.831521273E-1
2.392884944E1,4.934220314E-1,-2.096140385E-1,-1.936442852E-1
2.395084944E1,4.168369770E-1,-6.483723521E-1,-2.046224028E-1
2.397284788E1,2.413441241E-1,-5.102644563E-1,-2.590592206E-1
2.399284788E1,3.947934806E-1,-4.687081575E-1,-2.499660552E-1
2.401284944E1,4.842765033E-1,-5.239478350E-1,-3.128851652E-1
2.403284944E1,4.350407720E-1,-5.186246037E-1,-3.280870020E-1
2.405284944E1,3.384717107E-1,-2.600191534E-1,-2.937738299E-1
2.407485412E1,1.710771769E-1,1.181064323E-1,-1.437627673E-1
2.409684944E1,-5.305801053E-3,4.474151433E-1,5.681046844E-2
2.411684944E1,-5.731661245E-2,5.310862064E-1,2.254441828E-1
2.413884944E1,2.464404888E-2,5.436002612E-1,3.941127956E-1
2.416084944E1,1.962099075E-1,4.825660884E-1,5.025501251E-1
2.418284944E1,3.643025756E-1,4.799131751E-1,5.946685672E-1
2.420284944E1,5.622752905E-1,4.599117041E-1,6.401518583E-1
2.422485725E1,6.938905716E-1,3.787539005E-1,5.858721137E-1
2.424684944E1,5.815960765E-1,1.661902517E-1,4.284957945E-1
2.426684944E1,3.499210477E-1,5.478588492E-2,3.214721978E-1
2.428684944E1,8.824384958E-2,3.589444160E-1,2.647664547E-1
2.430684944E1,-1.238834709E-1,5.741086006E-1,3.063052893E-2
2.432684944E1,-3.059213161E-1,2.583087385E-1,-2.418851852E-1
2.434884944E1,-4.357738197E-1,3.312285841E-1,-2.591813803E-1
2.436884944E1,-6.278996468E-1,7.729365230E-1,4.769985005E-2
2.438884944E1,-9.015847445E-1,8.657531142E-1,2.033832222E-1
2.440885256E1,-1.001435041E0,6.799802780E-1,1.472359747E-1
2.443084788E1,-6.773273945E-1,6.732607484E-1,-4.251622036E-2
2.445084944E1,-1.272519529E-1,5.408251882E-1,-8.848819137E-2
2.447284944E1,-2.413790300E-2,2.397558838E-1,-9.384635091E-2
2.449284944E1,-1.399055868E-1,1.524719596E-1,-8.260643482E-2
2.451484944E1,-9.452702850E-2,2.085144818E-1,-4.105014354E-2
2.453484944E1,-1.823868975E-2,-3.094468825E-2,-6.885323673E-2
2.455484944E1,-3.813369870E-1,-6.947108507E-1,-1.701521426E-1
2.457484944E1,-8.083492517E-1,-1.301806211E0,-3.522772491E-1
2.459484944E1,-1.001853943E0,-1.322837353E0,-4.221078753E-1
2.461484944E1,-7.590436935E-1,-8.652469516E-1,-2.825164497E-1
2.463484944E1,-2.204176337E-1,-6.137624979E-1,-1.608844548E-1
2.465484944E1,3.259576857E-1,-5.874603987E-1,-1.086816490E-1
2.467484944E1,7.221125364E-1,-4.429820180E-1,-1.470963508E-1
2.469484944E1,1.078177094E0,-4.530176520E-1,-2.158623189E-1
2.471484944E1,1.301282525E0,-6.433807015E-1,-2.849250138E-1
2.473684788E1,1.300008535E0,-8.194146156E-1,-3.097086847E-1
2.475684944E1,8.616690636E-1,-1.103309870E0,-4.005530477E-1
2.477884788E1,2.817834020E-1,-1.455360293E0,-5.975832939E-1
2.479884788E1,-4.661599994E-1,-2.361953974E0,-5.824687481E-1
2.481884788E1,-1.746236801E0,-3.845850468E0,-5.484173298E-1
2.483884788E1,-1.524946570E0,-1.826347470E0,-6.055943370E-1
2.485884788E1,-9.320232868E-1,-4.619362950E-1,-3.094817698E-1
2.487884788E1,-1.074389815E0,3.598694503E-1,-4.631580114E-1
2.489884788E1,-4.533143640E-1,1.874640703E0,-2.742435932E-1
2.491884944E1,7.082895041E-1,1.219793200E0,3.038792610E-1
2.493884944E1,6.644119620E-1,4.306949079E-1,6.518805027E-2
2.496084788E1,4.162435830E-1,5.948780179E-1,-2.020218670E-1
2.498084788E1,8.095884323E-1,2.963394523E-1,-2.299820334E-1
2.500084788E1,1.024613023E0,-2.701595128E-1,-1.932428479E-1
2.502084788E1,6.904871464E-1,-4.910309315E-1,-9.615018964E-2
2.504084788E1,2.433338016E-1,-1.858950108E-1,-3.449992239E-1
2.506084788E1,2.054601610E-1,-2.699326277E-1,-4.991990626E-1
2.508084788E1,1.847081929E-1,-9.522516280E-2,-4.877322614E-1
2.510084788E1,1.251750141E-1,1.436406001E-2,-3.734481037E-1
2.512084788E1,1.143190637E-2,1.049815565E-1,-1.674992442E-1
2.514084944E1,-1.285784096E-1,2.278178334E-1,-1.317723561E-2
2.516084944E1,-2.093173414E-1,3.522074521E-1,1.173384860E-1
2.518284944E1,-1.912880838E-1,4.943470657E-1,2.597922683E-1
2.520284944E1,-1.471487135E-1,5.308593512E-1,3.562740684E-1
2.522485412E1,-7.454301417E-2,5.237558484E-1,4.269948006E-1
2.524485569E1,4.757767543E-2,4.559847116E-1,4.702789783E-1
2.526684944E1,2.377662063E-1,3.526437879E-1,5.001415610E-1
2.528684944E1,3.193428814E-1,2.554289401E-1,4.402069449E-1
2.530684944E1,3.005980551E-1,1.179144457E-1,3.263591230E-1
2.532684944E1,2.162637413E-1,1.703441292E-1,2.448347807E-1
2.534684944E1,3.422590718E-2,5.212949514E-1,2.850995362E-1
2.536684944E1,-5.665338784E-2,6.359456182E-1,3.832219541E-1
2.538684944E1,-1.022937447E-1,5.228308439E-1,2.707529366E-1
2.540684944E1,-2.418851852E-1,2.269975245E-1,1.963495463E-2
2.542684944E1,-3.644770980E-1,1.539031267E-1,-7.853981853E-2
2.544684944E1,-4.103268981E-1,4.226489365E-1,8.091346174E-2
2.546684944E1,-5.562015176E-1,7.357086539E-1,2.101376355E-1
2.548684944E1,-7.823438048E-1,8.735023737E-1,2.335774153E-1
2.550684944E1,-8.294677138E-1,1.064615965E0,3.393443525E-1
2.552684944E1,-6.377782226E-1,1.269692063E0,4.407130778E-1
2.554684944E1,-3.792076707E-1,1.088806152E0,4.799306393E-1
2.556684944E1,-3.001617193E-1,1.067495704E0,5.251695514E-1
2.558684944E1,-2.813121676E-1,1.171691895E0,5.275257826E-1
2.560686194E1,-1.955641359E-1,8.684583902E-1,4.810127318E-1
2.562885100E1,-1.289798319E-2,2.292664498E-1,4.233994186E-1
2.565084788E1,8.330456167E-2,-2.225120217E-1,3.137578368E-1
2.567084944E1,1.760164499E-1,-4.008323252E-1,2.420422584E-1
2.569284944E1,3.516489267E-1,-3.103544414E-1,2.632130980E-1
2.571484944E1,4.143237174E-1,-9.246754646E-2,2.467895597E-1
2.573485725E1,9.220574051E-2,-2.083224952E-1,8.899433911E-2
2.575684944E1,-1.151917316E-2,-1.697856337E-1,1.779188663E-1
2.577884944E1,3.854908645E-1,-2.197020501E-1,2.261772156E-1
2.579884944E1,6.395061016E-1,-2.808932960E-1,1.409004331E-1
2.581884944E1,7.875623703E-1,-5.365840197E-1,1.349488646E-1
2.583884944E1,7.316071391E-1,-7.487811446E-1,4.696680978E-2
2.585884944E1,4.340983033E-1,-9.223366976E-1,-1.691922098E-1
2.587884944E1,6.342526525E-2,-1.046377301E0,-3.306351602E-1
2.589884944E1,-5.196194053E-1,-1.550061822E0,-4.602782428E-1
2.591884944E1,-1.176142454E0,-1.536954403E0,-5.724156499E-1
2.593884944E1,-9.717644453E-1,-5.585751534E-1,-5.806012154E-1
2.595884944E1,-6.636090875E-1,1.210909411E-1,-6.665936112E-1
2.598084788E1,-4.904026091E-1,1.561964989E0,-3.774972558E-1
2.600084944E1,8.707447350E-2,2.092614889E0,4.221427739E-1
2.602084944E1,1.216843575E-1,6.412165165E-1,2.149547487E-1
2.604284944E1,-3.362551332E-1,4.173082113E-2,-2.803871334E-1
2.606284944E1,-1.849176288E-1,5.061454698E-2,-1.681450158E-1
2.608484944E1,1.221381426E-1,2.301565707E-1,-8.402015269E-2
2.610484944E1,1.276708394E-1,2.575058639E-1,-6.155776232E-2
2.612485413E1,8.428195119E-2,1.831199378E-1,-5.000368133E-2
2.614684944E1,1.569923609E-1,5.998696759E-2,-4.799655639E-3
2.616684944E1,2.226516455E-1,2.764601447E-2,5.464625731E-2
2.618684944E1,2.463881224E-1,-3.373721614E-2,4.134684801E-2
2.620684944E1,2.600889504E-1,-1.256287992E-1,-1.480039209E-2
2.622684944E1,2.528458536E-1,-1.136383861E-1,-3.494149074E-2
2.624684944E1,2.880316973E-1,7.614871860E-2,-9.616764262E-3
2.626684944E1,3.124139309E-1,3.529753983E-1,8.735372871E-2
2.628684944E1,3.469889164E-1,5.307720900E-1,2.244668007E-1
2.630884788E1,3.610039055E-1,5.271243453E-1,3.235665858E-1
2.632884944E1,3.305478990E-1,4.982042313E-1,3.952298164E-1
2.634884944E1,3.650006950E-1,5.712288022E-1,5.011014938E-1
2.636885725E1,4.597546160E-1,6.520375609E-1,5.869018435E-1
2.639084944E1,5.291140079E-1,5.818753242E-1,5.510877371E-1
2.641284944E1,4.642226696E-1,4.740663171E-1,4.831594825E-1
2.643485569E1,2.193355262E-1,4.158246815E-1,4.950800836E-1
2.645685100E1,-2.565633971E-3,3.740240633E-1,4.291939139E-1
2.647884788E1,-1.350361258E-1,3.060609400E-1,2.372076958E-1
2.649884788E1,-2.972295582E-1,2.764950693E-1,1.445132587E-2
2.651884788E1,-2.017775178E-1,1.755975783E-1,2.453932911E-2
2.653884788E1,-9.320057929E-2,5.919632912E-1,2.728473246E-1
2.655884944E1,-2.641206682E-1,7.537727952E-1,4.042357206E-1
2.658084788E1,-5.656088591E-1,9.571211338E-1,2.843141258E-1
2.660084788E1,-6.224192977E-1,9.875770807E-1,8.466592431E-2
2.662084788E1,-4.107981324E-1,9.574701786E-1,8.450884372E-2
2.664084944E1,-9.852383286E-2,1.111861944E0,2.102772743E-1
2.666284788E1,2.250602096E-1,8.487187028E-1,3.077539206E-1
2.668284944E1,1.945169419E-1,5.931152105E-1,4.133114219E-1
2.670284944E1,-2.796017379E-2,7.014827132E-1,4.563686848E-1
2.672485569E1,-2.150420099E-1,6.299765706E-1,4.262617528E-1
2.674684944E1,-3.389953077E-1,8.000589162E-2,2.841047049E-1
2.676884944E1,-5.350306630E-1,-7.495490909E-1,2.593559213E-2
2.678884944E1,-7.440513372E-1,-1.238729954E0,-2.276956588E-1
2.680884944E1,-8.303229213E-1,-1.010231495E0,-2.249205858E-1
2.682884944E1,-4.451811314E-1,-5.001240969E-1,-5.244714394E-2
2.685084788E1,1.340936422E-1,-4.228932858E-1,3.316125658E-4
2.687084788E1,5.241223574E-1,-3.947062194E-1,1.352630183E-2
2.689084788E1,8.218581080E-1,-5.380675793E-1,-2.092649788E-2
2.691084788E1,9.172054529E-1,-8.259072304E-1,-7.061602175E-2
2.693084788E1,8.731009364E-1,-1.238695025E0,-2.062979192E-1
2.695084788E1,7.402464747E-1,-1.448605776E0,-3.901160061E-1
2.697084788E1,5.148023367E-1,-1.669564486E0,-5.540547967E-1
2.699084788E1,7.927285135E-2,-2.618203402E0,-8.082794547E-1
2.701084788E1,-1.305785537E0,-4.243383884E0,-1.250755310E0
2.703084788E1,-2.231490612E0,-3.199589968E0,-1.273339868E0
2.705084788E1,-2.651940584E0,-1.564600348E0,-9.365611076E-1
2.707084788E1,-1.490772963E0,1.974822640E0,-3.308969736E-1
2.709084944E1,6.885847449E-1,1.851253271E0,1.307426095E-1
2.711284788E1,1.796956062E0,7.063347697E-1,5.714207888E-2
2.713284788E1,9.562658668E-1,1.524719596E-1,-2.972819209E-1
2.715284788E1,3.255213499E-1,3.863460720E-1,-4.959527552E-1
2.717284788E1,7.308915257E-1,-4.929507971E-1,-3.361155093E-1
2.719284788E1,8.355240226E-1,-8.203920126E-1,-3.550697863E-1
2.721284944E1,6.032032371E-1,-9.893922210E-1,-4.456523657E-1
2.723284944E1,4.453032911E-1,-8.254011273E-1,-4.620584548E-1
2.725485725E1,3.015754521E-1,-7.132986188E-1,-4.309566915E-1
2.727486038E1,2.204350755E-2,-5.972691178E-1,-4.559672773E-1
2.729684944E1,-1.584409922E-1,-3.334451616E-1,-3.821572959E-1
2.731684944E1,-1.233598739E-1,-3.488913178E-2,-2.094744146E-1
2.733684944E1,1.336922217E-2,1.998227388E-1,-5.124286562E-2
2.735684944E1,1.526988596E-1,4.055272639E-1,1.169894189E-1
2.737884788E1,1.930334121E-1,4.905422330E-1,2.890788913E-1
2.739884788E1,1.622632593E-1,5.845631361E-1,3.938160837E-1
2.741884788E1,1.689653248E-1,6.517583132E-1,4.777315259E-1
2.743884788E1,2.501405776E-1,5.717175007E-1,5.276305079E-1
2.745884788E1,4.155105352E-1,2.708401978E-1,5.392194986E-1
2.747885412E1,4.861091077E-1,6.332054734E-2,4.490208626E-1
2.750084788E1,2.865307033E-1,-1.298699528E-1,2.538057864E-1
2.752084788E1,3.289945796E-2,-3.997502029E-1,1.687209755E-1
2.754084788E1,-2.226691097E-1,-1.696110964E-1,1.015083492E-1
2.756084788E1,-3.280171752E-1,3.703937829E-1,4.832816496E-2
2.758084788E1,-4.924620986E-1,5.462008119E-1,-1.213876456E-1
2.760084788E1,-5.529202819E-1,7.697774768E-1,-8.517206647E-3
2.762084788E1,-5.470560193E-1,1.214033604E0,2.685712576E-1
2.764084788E1,-7.724478245E-1,1.201222897E0,3.740414977E-1
2.766084788E1,-9.714153409E-1,1.019673705E0,1.971873045E-1
2.768084788E1,-8.281412721E-1,1.061997890E0,4.195771366E-2
2.770084788E1,-2.854835093E-1,9.675407410E-1,-5.473352596E-2
2.772084788E1,2.600540640E-3,6.357361674E-1,1.093623340E-1
2.774084944E1,-9.283406287E-2,6.028716564E-1,1.500808597E-1
2.776284944E1,-1.045975834E-1,5.653121471E-1,1.576555967E-1
2.778484944E1,-3.426081315E-2,2.202605456E-1,1.401848495E-1
2.780485569E1,2.630211227E-2,-3.171088696E-1,4.207988828E-2
2.782684944E1,-8.501498401E-2,-8.577769399E-1,-1.134114936E-1
2.784684944E1,-2.079734355E-1,-1.189494252E0,-2.682222128E-1
2.786684944E1,-2.377836555E-1,-1.277773023E0,-3.382971585E-1
2.788684944E1,-2.420946211E-1,-1.173262715E0,-2.705260217E-1
2.790884788E1,8.562584966E-2,-8.330281973E-1,-2.082003206E-1
2.792884788E1,3.881088495E-1,-8.050330877E-1,-2.853787839E-1
2.794884788E1,6.213023067E-1,-8.110545278E-1,-4.039040804E-1
2.796884788E1,7.290414572E-1,-8.836601973E-1,-5.192179680E-1
2.798884788E1,5.663244128E-1,-1.317234874E0,-6.465572119E-1
2.800884788E1,5.983163118E-1,-2.164487600E0,-8.637459874E-1
2.802884788E1,6.052278280E-1,-2.196514368E0,-1.103187680E0
2.804884788E1,1.894205809E-1,-1.901291847E0,-9.393536448E-1
2.806884788E1,-4.028219730E-2,-2.040673971E0,-7.903549075E-1
2.808884788E1,3.253293782E-2,-2.613456011E0,-7.729015946E-1
2.810884788E1,4.454080388E-2,-2.371536016E0,-6.659129262E-1
2.812884788E1,-3.254689872E-1,-4.171511531E-1,-5.002462864E-1
2.814884788E1,-7.630928755E-1,2.215695530E-1,-5.194448829E-1
2.816884788E1,-9.121265411E-1,1.663996875E-1,-4.253018200E-1
2.818884788E1,-6.915692687E-1,-1.790707856E-1,-3.449294269E-1
2.820884944E1,-5.407379270E-1,-4.920781255E-1,-3.753679693E-1
2.822884944E1,-6.060655713E-1,-2.703514993E-1,-3.839026093E-1
2.824884944E1,-3.281916976E-1,-2.561096251E-1,-4.703487754E-1
2.826884944E1,2.277480066E-1,-7.600385547E-1,-5.521349311E-1
2.828884944E1,6.832265854E-1,-1.267109036E0,-6.221400499E-1
2.830884944E1,6.860191226E-1,-1.309398413E0,-6.538352370E-1
2.832884944E1,3.814068139E-1,-1.025974393E0,-6.603453159E-1
2.835084788E1,1.318072677E-1,-7.156199217E-1,-6.739937663E-1
2.837084788E1,1.665916741E-1,-5.219057798E-1,-6.438519359E-1
2.839084788E1,3.456624448E-1,-3.794345856E-1,-5.624672771E-1
2.841084788E1,4.971221387E-1,-2.203303576E-1,-4.127354622E-1
2.843084788E1,5.598841906E-1,-2.680825815E-2,-2.237512022E-1
2.845084788E1,5.074893832E-1,5.370378122E-2,-9.615018964E-2
2.847084788E1,3.841993213E-1,8.810421824E-2,1.518436475E-3
2.849084788E1,2.769488394E-1,1.457349956E-1,7.408922911E-2
2.851084788E1,2.482730895E-1,2.112022936E-1,1.016130671E-1
2.853084788E1,2.835811079E-1,2.544166446E-1,1.349488646E-1
2.855084788E1,3.658035696E-1,2.412394136E-1,1.619840115E-1
2.857084788E1,4.712563455E-1,2.202081978E-1,1.916371584E-1
2.859084788E1,5.108578801E-1,3.459591568E-1,2.825862467E-1
2.861084788E1,5.015203357E-1,5.234416723E-1,3.785619140E-1
2.863084788E1,2.915572524E-1,6.580764055E-1,3.885801136E-1
2.865084788E1,-6.124360487E-2,8.532216549E-1,4.091051817E-1
2.867084788E1,-3.416831195E-1,8.908858895E-1,3.924896419E-1
2.869084788E1,-4.990245402E-1,9.864600897E-1,3.974114656E-1
2.871084944E1,-4.528431296E-1,1.117761254E0,5.952096581E-1
2.873085100E1,-5.409647822E-1,9.750456214E-1,6.688974500E-1
2.875284788E1,-8.584750891E-1,9.686228037E-1,5.433035493E-1
2.877284944E1,-8.648281097E-1,9.586046338E-1,3.700796068E-1
2.879484944E1,-4.406607151E-1,1.086223125E0,3.919136822E-1
2.881485100E1,-5.038765445E-2,1.187993288E0,6.543064713E-1
2.883684944E1,-5.490805954E-2,1.233249664E0,8.639903069E-1
2.885684944E1,-3.144210577E-1,1.249551058E0,8.023104072E-1
2.887684944E1,-4.547804296E-1,1.115125775E0,6.372371316E-1
2.889684944E1,-4.769286811E-1,6.858096719E-1,4.837180078E-1
2.891684944E1,-4.418999255E-1,8.534659632E-3,3.518234789E-1
2.893884788E1,-3.859795630E-1,-5.608441234E-1,1.814967841E-1
2.895884788E1,-3.614926040E-1,-5.010665655E-1,1.529781073E-1
2.897884788E1,-3.490484059E-1,-4.003959894E-1,2.124414742E-1
2.899884788E1,-3.829252422E-1,-3.812148273E-1,2.309768796E-1
2.901884788E1,-2.998301089E-1,-8.028514683E-2,2.611536086E-1
2.903884788E1,-2.286381274E-2,1.074075624E-1,2.265961021E-1
2.905884944E1,2.937738299E-1,2.495122701E-1,1.710422635E-1
2.908084788E1,6.329785585E-1,2.348515093E-1,9.826203436E-2
2.910084788E1,8.726471663E-1,6.710790843E-2,3.743731230E-2
2.912084788E1,9.914692044E-1,-1.549328715E-1,-7.702138275E-2
2.914084788E1,8.835380077E-1,-4.213573933E-1,-2.109230459E-1
2.916084788E1,5.434257388E-1,-5.323428512E-1,-2.775422633E-1
2.918084788E1,1.002168059E-1,-3.865729868E-1,-2.643475533E-1
2.920084788E1,-9.532988071E-2,-5.417501926E-1,-2.451489419E-1
2.922084788E1,-3.195523322E-1,-1.372823596E0,-2.617470324E-1
2.924084788E1,-7.940375209E-1,-2.215486050E0,-5.442983508E-1
2.926084788E1,-3.674441576E-1,-6.333101988E-1,-3.715282381E-1
2.928084788E1,-3.280171752E-1,5.169141889E-1,-2.155656219E-1
2.930084788E1,-5.220279694E-1,7.490778565E-1,1.340412907E-2
2.932084944E1,-6.805213094E-1,1.078438908E-1,-2.268928103E-3
2.934284788E1,-4.402767420E-1,1.435009688E-1,-4.099778458E-2
2.936284788E1,8.096582443E-2,4.366813898E-1,-6.710790843E-2
2.938284788E1,4.237310290E-1,4.859345555E-1,-4.031710699E-2
2.940284788E1,7.456570268E-1,4.318293631E-1,-6.632251199E-3
2.942284788E1,7.507010102E-1,6.766641140E-2,3.246312216E-2
2.944284788E1,4.423536956E-1,-2.159146816E-1,-4.729842301E-3
2.946284788E1,1.625076085E-1,-2.786069214E-1,-4.527384043E-2
2.948284788E1,3.052580915E-2,-1.723861694E-1,-1.705361158E-1
2.950284788E1,2.775073517E-3,-3.778637946E-2,-2.247984111E-1
2.952284788E1,2.427753061E-2,9.897761792E-2,-1.458920687E-1
2.954284788E1,5.237733200E-2,2.368760854E-1,-7.086036727E-3
2.956284788E1,3.450515866E-2,3.878470659E-1,1.333082467E-1
2.958284788E1,7.539822254E-3,5.016774535E-1,2.474527806E-1
2.960284788E1,5.935864896E-2,4.623377025E-1,3.171786964E-1
2.962284788E1,1.251401007E-1,3.284709752E-1,3.255213499E-1
2.964284788E1,2.018124163E-1,3.004409671E-1,3.545636237E-1
2.966284788E1,3.143337965E-1,2.992017865E-1,3.899240196E-1
2.968284788E1,4.434532523E-1,3.224670291E-1,4.303283691E-1
2.970284944E1,5.535835028E-1,2.122494876E-1,4.443433583E-1
2.972485881E1,5.606521368E-1,1.160818487E-1,4.504694641E-1
2.974684944E1,6.688101590E-2,7.450810820E-2,4.087561071E-1
2.976885256E1,-4.495269954E-1,2.068215162E-1,3.086789250E-1
2.979084788E1,-4.809603691E-1,2.602460384E-1,2.230181694E-1
2.981084944E1,-4.302062094E-1,3.887895346E-1,1.636071652E-1
2.983084944E1,-4.639085233E-1,4.734554589E-1,1.294685304E-1
2.985084944E1,-5.179264545E-1,5.885075927E-1,2.437701374E-1
2.987084944E1,-6.763325334E-1,7.873529196E-1,4.582012892E-1
2.989284788E1,-1.091284513E0,7.604399323E-1,3.887022734E-1
2.991284944E1,-1.202776194E0,5.738293529E-1,2.233323306E-1
2.993485100E1,-7.433007956E-1,6.741334200E-1,1.026079059E-1
2.995684944E1,-3.708824515E-2,6.308667064E-1,2.421469837E-1
2.997684944E1,1.196772233E-1,7.722733021E-1,3.889117241E-1
2.999684944E1,-2.111848444E-2,9.701412320E-1,3.863286376E-1
3.001684944E1,-8.799950033E-2,8.592954278E-1,3.344399929E-1
3.003684944E1,-1.261873078E-2,3.225368559E-1,2.357241660E-1
3.005684944E1,-2.071705833E-2,-1.807986498E-1,1.140921712E-1
3.007884788E1,-1.034805700E-1,-3.403217494E-1,4.227187485E-2
3.009884788E1,-1.107411385E-1,-2.464928478E-1,5.106833205E-2
3.011884788E1,-1.707630157E-1,-2.670702934E-1,-5.208062381E-2
3.013884788E1,-2.468419224E-1,-4.299094975E-1,-1.008102149E-1
3.015884788E1,-6.117378920E-2,-3.280695379E-1,-6.251769513E-2
3.017884788E1,2.407332659E-1,-2.517811954E-1,-5.429719388E-2
3.019884788E1,5.376137495E-1,-2.369284481E-1,-8.637634665E-2
3.021884788E1,7.721860409E-1,-3.779335916E-1,-1.234122291E-1
3.023884788E1,8.321380615E-1,-5.481032133E-1,-2.191784531E-1
3.025884788E1,7.830419540E-1,-6.607118249E-1,-3.011565506E-1
3.027884788E1,6.077061892E-1,-6.703286171E-1,-3.467794657E-1
3.029884788E1,2.858500183E-1,-4.983264208E-1,-3.330088258E-1
3.031884944E1,6.417575479E-2,-3.848451078E-1,-3.108955026E-1
3.033884944E1,-3.997851312E-1,-1.047895670E0,-6.406580210E-1
3.035884944E1,-1.113554955E0,-1.271926165E0,-8.698197603E-1
3.037884944E1,-1.308473349E0,-9.520945549E-1,-5.810026526E-1
3.039884944E1,-1.386768818E0,2.424262315E-1,-3.699050844E-1
3.041884944E1,1.005658731E-1,9.550441504E-1,3.724881709E-1
3.044084788E1,7.836353779E-1,8.114559054E-1,2.846108377E-1
3.046084788E1,1.872738302E-1,9.024224877E-1,-1.043532342E-1
3.048084788E1,1.622981727E-1,8.230623603E-1,-1.697158217E-1
3.050084788E1,3.691196740E-1,6.039886475E-1,7.855726779E-2
3.052084788E1,2.934072912E-1,1.587376893E-1,5.117305368E-2
3.054084788E1,1.189267337E-1,1.611637026E-1,-1.480213702E-1
3.056084788E1,2.241875380E-1,1.427155733E-1,-1.073377505E-1
3.058084788E1,2.647838891E-1,-3.736750036E-2,-6.295402348E-2
3.060084788E1,1.551248580E-1,-2.334377915E-1,-1.518436475E-3
3.062084788E1,-2.061233856E-2,-1.554564834E-1,6.494370103E-2
3.064084788E1,-6.923720986E-2,-7.944738865E-2,7.733553648E-2
3.066084788E1,-1.418952644E-2,2.011666447E-1,1.208116934E-1
3.068084788E1,1.004786044E-1,4.131543338E-1,1.831024885E-1
3.070084788E1,1.863313466E-1,4.095065892E-1,2.238559276E-1
3.072084788E1,2.180439830E-1,3.266907334E-1,2.760412693E-1
3.074084788E1,2.754478753E-1,2.977182567E-1,3.346843421E-1
3.076084788E1,3.785619140E-1,4.076041877E-1,3.976383507E-1
3.078084944E1,4.938583672E-1,2.228785455E-1,3.627317846E-1
3.080284788E1,5.672494769E-1,-7.745771110E-2,3.188891113E-1
3.082284788E1,5.780705214E-1,-2.444682717E-1,2.785545588E-1
3.084284944E1,4.496840835E-1,-8.429940045E-2,3.208787739E-1
3.086484944E1,8.499753475E-2,3.255737126E-1,3.329739273E-1
3.088485569E1,-1.620363742E-1,2.362477630E-1,2.085842937E-1
3.090684788E1,-2.407332659E-1,-7.547152638E-1,6.405358203E-3
3.092684788E1,-2.464928478E-1,-1.103222609E0,-3.976209164E-1
3.094684788E1,-1.111774705E-2,-9.003280997E-1,-2.402794808E-1
3.096684944E1,6.387905031E-2,6.670997739E-1,4.237135947E-1
3.098884944E1,-1.247910410E-1,4.498062432E-1,4.022809267E-1
3.101084788E1,-5.127428174E-1,3.727848828E-1,-1.954768784E-3
3.103084788E1,-5.838824511E-1,6.231523752E-1,-2.449918687E-1
3.105084788E1,-3.935368359E-1,1.417381883E0,2.132268697E-1
3.107084788E1,-1.717578471E-1,1.417224765E0,4.330336452E-1
3.109084788E1,-2.477494925E-1,1.048087716E0,3.974114656E-1
3.111084788E1,-3.614926040E-1,8.724726439E-1,3.650181592E-1
3.113084788E1,-4.022809267E-1,6.173578501E-1,2.171713114E-1
3.115084788E1,-6.938731074E-1,3.215943575E-1,3.645992652E-2
3.117084788E1,-9.756565094E-1,1.890715212E-1,5.707226694E-3
3.119084788E1,-9.268396497E-1,4.035026729E-1,2.077290863E-1
3.121084788E1,-6.053674221E-1,6.051056385E-1,4.493873715E-1
3.123084788E1,-2.172236741E-1,4.954116940E-1,6.453005672E-1
3.125084788E1,1.562069654E-1,2.755176723E-1,6.772924662E-1
3.127084788E1,4.226314723E-1,2.458296269E-1,5.183627605E-1
3.129084788E1,6.568372250E-1,2.119702399E-1,3.206693530E-1
3.131084788E1,8.533438444E-1,-1.269203424E-1,1.758942753E-1
3.133084788E1,8.208457828E-1,-3.545810878E-1,6.550220400E-2
3.135084788E1,7.128797174E-1,-4.314977527E-1,1.645845547E-2
3.137084788E1,5.856103301E-1,-3.766769469E-1,-3.698352724E-2
3.139084788E1,1.747249067E-1,-3.736924529E-1,-1.167101637E-1
3.141084944E1,-5.405633450E-1,-6.918485165E-1,-3.637091517E-1
3.143084944E1,-9.404881001E-1,-7.647160292E-1,-6.822491884E-1
3.145084944E1,-7.621329427E-1,1.481784508E-2,-4.751658738E-1
3.147284944E1,-6.586174369E-1,1.189145207E0,8.230973035E-2
3.149484944E1,-6.143733263E-1,1.001225591E0,4.705058634E-1
3.151484944E1,-8.619483113E-1,5.238955021E-1,3.188542128E-1
3.153684944E1,-7.753974199E-1,4.612556100E-1,2.243097126E-1
3.155884788E1,-4.715879634E-2,9.828123450E-1,3.660828173E-1
3.157884788E1,5.472305417E-1,9.204517603E-1,3.135833144E-1
3.159884788E1,4.489510357E-1,4.858298600E-1,2.102249116E-1
3.161884788E1,1.503601074E-1,-5.031784251E-2,9.030333161E-2
3.163884944E1,2.843141370E-2,-3.954741657E-1,1.773254573E-2
3.166084788E1,4.050909355E-2,-5.132140517E-1,-1.024508253E-1
3.168084788E1,2.975786291E-2,-3.865904212E-1,-1.529781073E-1
3.170084944E1,4.913101718E-2,-2.155481577E-1,-1.591042131E-1
3.172284944E1,1.021890268E-1,-4.401720315E-2,-1.221904978E-1
3.174484944E1,2.183581442E-1,2.513274085E-3,-9.674359858E-2
3.176485725E1,3.082775176E-1,-1.509709843E-2,-5.462880433E-2
3.178684944E1,3.656115830E-1,-5.085889250E-2,-3.920009360E-2
3.180685100E1,4.311312437E-1,-4.937536269E-2,2.815216035E-2
3.182884944E1,5.043652654E-1,-1.225221157E-2,1.564513147E-1
3.184884944E1,5.179787874E-1,3.598868847E-2,2.512924969E-1
3.186884944E1,4.647462666E-1,-6.428047270E-2,2.281145304E-1
3.189084788E1,4.009719491E-1,-3.059736788E-1,2.134886682E-1
3.191084944E1,2.959205806E-1,-2.106263340E-1,1.887049973E-1
3.193084944E1,1.465378404E-1,-7.021459192E-2,1.095892265E-1
3.195084944E1,2.384119667E-2,2.029817924E-2,3.164282069E-2
3.197084944E1,-1.624901593E-1,1.167276204E-1,-4.293509759E-3
3.199084944E1,-3.908141255E-1,4.459141791E-1,-3.113667294E-2
3.201084944E1,-4.116708040E-1,9.394932985E-1,1.310742199E-1
3.203084944E1,-4.658981860E-1,1.054842114E0,2.460739762E-1
3.205284788E1,-5.092695951E-1,9.685006738E-1,-5.654866807E-3
3.207284788E1,-4.656189382E-1,8.768359423E-1,-1.162389293E-1
3.209284788E1,-2.078338116E-1,7.407701015E-1,-9.583602846E-2
3.211284788E1,1.268505305E-1,5.383816957E-1,2.008524835E-1
3.213284788E1,2.291966379E-1,4.228234589E-1,2.891486883E-1
3.215284788E1,2.870194018E-1,2.364223003E-1,2.721666396E-1
3.217284788E1,2.358987033E-1,2.537708730E-2,2.151990980E-1
3.219284788E1,1.153313592E-1,-2.471560687E-1,1.824916303E-1
3.221284788E1,1.762782573E-3,-3.891560733E-1,1.585282534E-1
3.223284788E1,-3.234095126E-2,-4.762828946E-1,1.143714264E-1
3.225284788E1,-1.864011586E-2,-5.386609435E-1,4.284783453E-2
3.227284788E1,-4.881685972E-2,-4.834212959E-1,1.350884791E-2
3.229284788E1,1.098859310E-1,-3.220132589E-1,1.177922711E-1
3.231284788E1,3.250501156E-1,-2.821673751E-1,1.284562349E-1
3.233284788E1,4.892332554E-1,-5.361477137E-1,1.101477295E-1
3.235284788E1,6.669426560E-1,-8.393113613E-1,9.395107627E-2
3.237284788E1,7.267027497E-1,-1.029447556E0,3.928736225E-2
3.239284788E1,5.403713584E-1,-1.017334938E0,-7.599163800E-2
3.241284944E1,2.207666934E-1,-9.787282944E-1,-2.349038571E-1
3.243284944E1,-4.646066576E-2,-8.047189713E-1,-3.716678619E-1
3.245284944E1,-4.371176958E-1,-8.271464109E-1,-4.947484732E-1
3.247284944E1,-1.445970416E0,-1.393418550E0,-1.000387788E0
3.249284944E1,-1.329679132E0,-2.471037209E-1,-5.204222798E-1
3.251484944E1,-5.249252319E-1,1.321772695E0,3.989124596E-1
3.253484944E1,-2.988352776E-1,6.881309748E-1,3.565358520E-1
3.255484944E1,-7.074692249E-1,2.896722853E-1,-1.989151686E-1
3.257484944E1,-6.068859100E-1,3.904476166E-1,-2.797588110E-1
3.259485881E1,-2.694788277E-1,7.690443993E-1,-1.241976321E-1
3.261684944E1,8.499753661E-3,3.790506124E-1,-8.422958851E-2
3.263884788E1,-9.581857361E-3,-2.431243658E-1,-2.484650761E-1
3.265884788E1,-5.410520826E-4,-3.171786964E-1,-3.395712674E-1
3.267884788E1,1.416683793E-1,-1.968033314E-1,-3.137578368E-1
3.269884788E1,2.920808494E-1,-2.571568191E-1,-2.284286916E-1
3.271884788E1,3.296403289E-1,-4.821995497E-1,-1.853714138E-1
3.273884788E1,3.203028142E-1,-5.432860851E-1,-1.980425119E-1
3.275884944E1,3.086614907E-1,-2.937214673E-1,-1.647067219E-1
3.277884944E1,3.040712476E-1,4.405210912E-2,-9.862855822E-2
3.279884944E1,2.796715498E-1,2.280621678E-1,-3.612831468E-3
3.282084788E1,2.637192607E-1,2.804394960E-1,1.490511149E-1
3.284084788E1,2.362128645E-1,1.913404465E-1,2.768092155E-1
3.286084788E1,1.989326328E-1,6.527531147E-2,3.258180618E-1
3.288084788E1,2.125287354E-1,1.014036313E-2,3.442138433E-1
3.290084788E1,2.581516504E-1,-5.167919770E-2,3.327121139E-1
3.292084788E1,2.816437781E-1,-8.511970937E-2,2.696533799E-1
3.294084788E1,1.726828814E-1,1.665218621E-1,2.221629620E-1
3.296084788E1,1.497492474E-2,3.318394423E-1,2.688330710E-1
3.298084788E1,-2.656914592E-1,5.101771951E-1,2.057568580E-1
3.300084788E1,-4.292113781E-1,5.136678219E-1,3.433062509E-2
3.302084944E1,-4.634372890E-1,6.560692787E-1,8.035495877E-2
3.304284788E1,-3.628365099E-1,1.074180365E0,3.352603018E-1
3.306284788E1,-3.830997646E-1,1.105212331E0,2.919063270E-1
3.308284788E1,-4.083721340E-1,7.715402246E-1,-1.148426626E-2
3.310284788E1,-2.653598487E-1,3.964166343E-1,-2.135410309E-1
3.312284788E1,8.073893189E-2,3.023957312E-1,-1.184904054E-1
3.314284788E1,2.460390627E-1,4.734380245E-1,1.072504818E-1
3.316284788E1,2.134712189E-1,4.106236100E-1,1.562942266E-1
3.318284788E1,1.775872558E-1,1.694191098E-1,1.363800317E-1
3.320284944E1,1.882162988E-1,-1.567131132E-1,1.238834709E-1
3.322485412E1,1.393470913E-1,-3.624874353E-1,1.328893751E-1
3.324485412E1,1.509709843E-2,-3.963293731E-1,9.066985548E-2
3.326684788E1,-5.824163556E-2,-3.958755732E-1,-1.281071641E-2
3.328684788E1,-1.288053021E-2,-4.625471532E-1,-4.403465614E-2
3.330684788E1,9.498082101E-2,-5.486267805E-1,-2.864085324E-2
3.332684944E1,2.310641408E-1,-6.216513515E-1,-2.574360557E-2
3.334884788E1,3.986157477E-1,-6.227334738E-1,-7.459536940E-2
3.336885412E1,5.401270390E-1,-6.248453259E-1,-1.489987522E-1
3.339085725E1,6.379004121E-1,-6.383367181E-1,-2.172411382E-1
3.341284788E1,6.952693462E-1,-6.762278080E-1,-2.646442652E-1
3.343284788E1,6.591235995E-1,-6.622477174E-1,-3.357490003E-1
3.345284788E1,4.342728257E-1,-6.329785585E-1,-4.074645638E-1
3.347284788E1,7.948229462E-2,-5.024104714E-1,-3.519980013E-1
3.349284788E1,-1.091354340E-1,-2.652376890E-1,-2.422516942E-1
3.351284788E1,-3.437426090E-1,-3.458369970E-1,-3.584731817E-1
3.353284788E1,-7.509279251E-1,-3.821747303E-1,-7.548199892E-1
3.355284944E1,-7.157769799E-1,7.663740963E-2,-4.035375714E-1
3.357284944E1,-6.831218600E-1,1.250755310E0,1.264665574E-1
3.359284944E1,-7.067187428E-1,4.168544412E-1,3.290992677E-1
3.361484788E1,-1.219217181E0,2.004510611E-1,4.214970022E-2
3.363484944E1,-9.959895611E-1,8.638681769E-1,1.606051922E-1
3.365484944E1,-3.744429350E-1,1.419668317E0,3.712664247E-1
3.367484944E1,-9.114108980E-2,1.197243452E0,2.482905388E-1
3.369484944E1,-9.738937020E-3,6.934542060E-1,3.368485346E-2
3.371484944E1,6.047565863E-2,4.267504513E-1,2.747148275E-2
3.373484944E1,1.060113013E-1,3.111049235E-1,1.231329814E-1
3.375484944E1,6.117378920E-2,1.558055431E-1,1.659459025E-1
3.377484944E1,7.546803355E-2,3.492403775E-2,1.355422735E-1
3.379484944E1,1.713040620E-1,1.696110964E-1,1.143539697E-1
3.381484944E1,2.211157680E-1,4.408527017E-1,1.313883811E-1
3.383484944E1,2.642428577E-1,5.614200830E-1,1.600466967E-1
3.385684944E1,3.255039155E-1,5.193052888E-1,2.149372995E-1
3.387684944E1,3.368310928E-1,3.717900217E-1,2.559001744E-1
3.389684944E1,3.695909083E-1,2.143089771E-1,2.813470662E-1
3.391684944E1,4.258254170E-1,1.197121367E-1,3.163932860E-1
3.393684944E1,4.671199322E-1,4.056145251E-2,3.374070525E-1
3.395884788E1,4.457919896E-1,-3.298672289E-2,3.459067941E-1
3.397884788E1,2.683618367E-1,1.600466855E-2,2.864783406E-1
3.399884944E1,8.180358261E-2,1.834166497E-1,2.012713701E-1
3.402084944E1,-5.846852902E-3,4.321609735E-1,1.472708881E-1
3.404284788E1,-1.370432526E-1,6.360328794E-1,1.556135565E-1
3.406284944E1,-1.901361644E-1,6.300464272E-1,1.635024399E-1
3.408485256E1,-2.138726413E-1,3.880565166E-1,3.310889751E-2
3.410485569E1,-3.255388141E-1,6.199933290E-1,9.267698228E-2
3.412684944E1,-3.792251348E-1,8.969421387E-1,2.387435883E-1
3.414684944E1,-4.476769567E-1,9.857968688E-1,2.425309569E-1
3.416684944E1,-4.505043924E-1,8.394859433E-1,4.553563893E-2
3.418684944E1,-2.272767723E-1,4.897044897E-1,-1.177050024E-1
3.420884944E1,1.672199965E-1,4.692492187E-1,-2.382374369E-2
3.423084944E1,3.035127521E-1,5.939006209E-1,1.233598739E-1
3.425084944E1,2.603507638E-1,5.851041675E-1,1.495223492E-1
3.427284944E1,2.490410358E-1,3.361504078E-1,1.907470375E-1
3.429484944E1,1.415636539E-1,9.128072299E-3,2.198940367E-1
3.431484944E1,-8.255407214E-3,-1.527686715E-1,2.328967303E-1
3.433484944E1,-1.269552559E-1,-1.691747606E-1,1.507789940E-1
3.435484944E1,-1.893856823E-1,-2.394591719E-1,5.160938576E-2
3.437484944E1,-1.450019479E-1,-2.051459998E-1,3.979350906E-3
3.439484944E1,5.426228791E-2,-1.843765825E-1,7.656759769E-2
3.441485413E1,2.884680033E-1,-2.677335143E-1,1.266759932E-1
3.443684944E1,5.015377998E-1,-4.306250811E-1,1.066919789E-1
3.445884788E1,7.971616983E-1,-6.456845403E-1,4.384266958E-2
3.447884788E1,9.966353774E-1,-7.892029881E-1,3.082251363E-2
3.449884944E1,1.009638071E0,-7.792894840E-1,9.693558514E-2
3.451884944E1,7.180110216E-1,-8.659451008E-1,-3.028146178E-2
3.453884944E1,3.825761676E-1,-1.050688148E0,-3.370928764E-1
3.455884944E1,2.743657492E-2,-8.354192972E-1,-4.755324125E-1
3.457884944E1,-4.196120501E-1,-1.208640456E0,-6.271142364E-1
3.460084944E1,-1.196370840E0,-1.532870293E0,-1.067687750E0
3.462084944E1,-1.225954175E0,-9.502619505E-1,-8.911651373E-1
3.464284944E1,-5.727996230E-1,7.805810571E-1,-2.020218670E-1
3.466284944E1,4.306949079E-1,6.523866057E-1,3.846705556E-1
3.468486350E1,7.468263805E-2,3.485771716E-1,-2.682571113E-2
3.470684944E1,-3.801327050E-1,-1.807113886E-1,-4.582885504E-1
3.472684944E1,-1.010545641E-1,1.989326328E-1,-3.927165270E-1
3.474684944E1,2.386214137E-1,2.456550896E-1,-2.223898470E-1
3.476684944E1,2.517637312E-1,-3.022037446E-1,-2.079036236E-1
3.478684944E1,1.818109453E-1,-7.319037914E-1,-2.287777513E-1
3.480687444E1,1.861568242E-1,-7.779281735E-1,-2.082701325E-1
3.482884944E1,1.417905539E-1,-6.599788070E-1,-1.573414356E-1
3.484884944E1,1.197295822E-2,-4.757767618E-1,-1.526464969E-1
3.486884944E1,-6.553710997E-2,-1.712342501E-1,-8.192575723E-2
3.488884944E1,-3.001966327E-2,-6.613052636E-2,-5.103342608E-2
3.490884944E1,4.354596511E-2,3.923500329E-2,4.529129341E-2
3.492884944E1,7.890633494E-2,7.522369176E-2,1.265538186E-1
3.494884944E1,1.167450696E-1,3.851941600E-2,1.783726513E-1
3.496884944E1,1.783726513E-1,2.089159191E-2,2.193180770E-1
3.498884944E1,2.208714187E-1,-6.335545331E-3,2.609790862E-1
3.500884944E1,2.526189685E-1,-6.876597553E-2,2.995333970E-1
3.502884944E1,2.705260217E-1,-1.619141996E-1,3.328517377E-1
3.504884944E1,2.519557178E-1,-3.337069601E-2,3.737098873E-1
3.506884944E1,1.785122752E-1,2.903529704E-1,4.075343907E-1
3.508884944E1,6.681120396E-2,5.669003725E-1,3.697305620E-1
3.510884944E1,-7.428121567E-2,8.041953444E-1,2.952224314E-1
3.513084788E1,-2.804918587E-1,6.386159658E-1,1.650906950E-1
3.515084788E1,-4.022809267E-1,2.889741659E-1,1.286307629E-2
3.517084788E1,-4.676260650E-1,4.121769667E-1,5.366887525E-2
3.519084788E1,-3.647738099E-1,8.317366242E-1,3.199712038E-1
3.521084788E1,-4.481132925E-1,9.441707730E-1,3.799930811E-1
3.523084788E1,-6.582509279E-1,6.605896950E-1,8.049458265E-2
3.525084788E1,-5.430940986E-1,3.397108912E-1,-2.272244096E-1
3.527084788E1,-2.628465928E-2,4.581838250E-1,-2.049540132E-1
3.529084788E1,3.301464915E-1,6.898064613E-1,9.171704948E-2
3.531084788E1,2.691646814E-1,5.391845703E-1,9.347983450E-2
3.533084788E1,1.384744197E-1,3.026226461E-1,2.537708730E-2
3.535084788E1,4.811872914E-2,6.398376822E-2,3.467969224E-2
3.537084788E1,-8.419468254E-2,-1.357167959E-1,9.775589406E-2
3.539084788E1,-2.534392476E-1,-2.798111737E-1,5.379104614E-2
3.541084788E1,-3.650181592E-1,-4.446749985E-1,-5.551892146E-2
3.543084788E1,-2.903006077E-1,-3.566929400E-1,-6.229080260E-2
3.545084788E1,-4.286528751E-2,-2.731265724E-1,-1.256637042E-3
3.547084788E1,1.988977194E-1,-3.537782431E-1,2.773328125E-2
3.549084788E1,3.935891986E-1,-5.251172185E-1,1.272345055E-2
3.551084788E1,5.566902161E-1,-7.609111667E-1,-3.815289587E-2
3.553084788E1,7.157071829E-1,-1.018294930E0,-9.372418374E-2
3.555084788E1,8.178263903E-1,-1.147553921E0,-1.681450158E-1
3.557084788E1,8.803440928E-1,-1.243634343E0,-2.474702299E-1
3.559084788E1,8.061326742E-1,-1.300479770E0,-3.751410544E-1
3.561084944E1,5.924519897E-1,-1.446808100E0,-4.932998717E-1
3.563084944E1,9.618509561E-2,-1.473703623E0,-4.994434118E-1
3.565084944E1,-7.844207883E-1,-2.037549734E0,-6.269921064E-1
3.567084944E1,-1.158130646E0,-1.364446044E0,-7.186567783E-1
3.569084944E1,-1.118878245E0,-5.445776582E-1,-4.969825149E-1
3.571084944E1,-8.497135639E-1,6.102369428E-1,-1.740093231E-1
3.573084944E1,3.111922145E-1,8.939750791E-1,2.228610963E-1
3.575284788E1,3.210358620E-1,6.520724893E-1,7.063347101E-2
3.577284944E1,-4.449891448E-1,-2.884854674E-1,-3.967657089E-1
3.579484944E1,-4.153534472E-1,-2.002939880E-1,-4.597546160E-1
3.581485100E1,-1.532399096E-2,2.488839477E-1,-2.336646765E-1
3.583684944E1,1.936791837E-1,3.054326214E-2,-2.744355798E-1
3.585884788E1,1.329242736E-1,-6.701017022E-1,-5.164254904E-1
3.587884788E1,2.066120803E-1,-7.995702624E-1,-5.760982633E-1
3.589884788E1,3.580717444E-1,-7.949451208E-1,-5.067738295E-1
3.591884788E1,3.645992875E-1,-6.266604662E-1,-3.686833382E-1
3.593884788E1,2.680302262E-1,-4.136255682E-1,-2.399827689E-1
3.595884788E1,2.034879327E-1,-2.635447085E-1,-1.491558403E-1
3.597884788E1,1.718451232E-1,-4.562290758E-2,-4.825835302E-2
3.599884788E1,1.652128696E-1,1.025380939E-1,6.743951887E-2
3.601884788E1,1.535540670E-1,1.494700015E-1,1.255240738E-1
3.603884788E1,1.578650326E-1,1.569574624E-1,2.073625624E-1
3.605884944E1,1.939758956E-1,1.680228412E-1,3.043330610E-1
3.608084788E1,2.640159428E-1,1.533795297E-1,4.008497596E-1
3.610084788E1,3.414562047E-1,5.386086181E-2,4.127703607E-1
3.612084788E1,3.821921945E-1,-4.195771366E-2,3.793822229E-1
3.614084944E1,3.877423406E-1,-1.081406027E-1,2.997428477E-1
3.616084944E1,3.203900754E-1,-1.925098151E-2,2.522175312E-1
3.618084944E1,1.424363256E-1,1.195026934E-1,2.312212139E-1
3.620284944E1,-1.913928092E-1,9.765116870E-2,1.488416791E-1
3.622484944E1,-5.781053901E-1,2.818881273E-1,2.415535599E-2
3.624484944E1,-8.032703400E-1,7.521147132E-1,1.384046078E-1
3.626684788E1,-8.237430453E-1,1.214731693E0,3.519281745E-1
3.628684788E1,-6.545508504E-1,1.363416314E0,4.896521270E-1
3.630684788E1,-5.890486240E-1,1.298682094E0,4.573286176E-1
3.632684944E1,-5.000193715E-1,8.882154822E-1,2.912605405E-1
3.634884788E1,-2.176250964E-1,4.397007823E-1,1.110552996E-1
3.636884944E1,7.679448463E-4,7.657282948E-1,7.269296050E-2
3.639084788E1,1.993515044E-1,6.813939810E-1,9.225810319E-2
3.641084788E1,2.319018990E-1,3.461162448E-1,1.160469428E-1
3.643084788E1,1.973269284E-1,-8.758062124E-2,1.595579982E-1
3.645084788E1,3.087487444E-2,-3.795043826E-1,1.479515582E-1
3.647084788E1,-3.826285303E-1,-6.701366305E-1,-6.518805027E-2
3.649084788E1,-7.897440195E-1,-5.748765469E-1,-1.462411433E-1
3.651084788E1,-6.354569197E-1,-2.457947135E-1,-4.752531648E-2
3.653084788E1,-2.103994340E-1,-2.056521475E-1,1.108284108E-2
3.655084788E1,1.696809083E-1,-3.796614707E-1,4.014257342E-2
3.657084788E1,4.725304544E-1,-5.277875662E-1,6.176720187E-2
3.659084788E1,7.397054434E-1,-6.374291182E-1,3.848451003E-2
3.661084788E1,9.390569329E-1,-7.765842676E-1,-3.139847144E-2
3.663084788E1,1.020581245E0,-8.174074888E-1,-1.280897111E-1
3.665084944E1,1.063219666E0,-9.237155318E-1,-2.578549385E-1
3.667284788E1,8.768359423E-1,-1.220665812E0,-4.102745354E-1
3.669284944E1,4.209035933E-1,-1.474139929E0,-4.043055177E-1
3.671484944E1,-6.167295575E-1,-1.791615367E0,-6.997897625E-1
3.673484944E1,-1.340674639E0,-1.496724606E0,-8.720188737E-1
3.675484944E1,-1.624727011E0,-1.002063274E0,-8.325918913E-1
3.677484944E1,-1.651605010E0,-4.535587132E-1,-5.706179142E-1
3.679484944E1,-6.662271023E-1,1.082121611E0,1.354899108E-1
3.681684944E1,7.318339944E-1,1.141689658E0,7.356387973E-1
3.683684944E1,3.178244531E-1,1.283811808E0,3.129549921E-1
3.685884788E1,-6.099402308E-1,-4.621632025E-2,-3.268827200E-1
3.687884788E1,-4.620584548E-1,5.616644025E-1,-2.372426093E-1
3.689884788E1,-2.780309506E-2,6.101845503E-1,2.556907386E-2
3.691884788E1,-7.581710070E-2,1.491907388E-1,1.445132587E-2
3.693884788E1,-1.530479193E-1,-1.836086363E-1,-1.133242249E-1
3.695884788E1,1.204277156E-3,-4.061730206E-1,-1.826836169E-1
3.697884788E1,1.528384835E-1,-4.455651045E-1,-1.809382886E-1
3.699884944E1,2.067167908E-1,-3.410024345E-1,-1.510233432E-1
3.702084788E1,1.498888731E-1,-9.602801502E-2,-1.015432552E-1
3.704084944E1,1.311614960E-1,6.691592187E-2,-3.467969224E-2
3.706084944E1,1.706932038E-1,1.638864130E-1,2.583087236E-2
3.708284788E1,1.856681257E-1,1.806590259E-1,2.967059799E-2
3.710284788E1,1.831723005E-1,1.969604045E-1,1.053480729E-1
3.712284944E1,2.032261342E-1,2.050063759E-1,2.062455565E-1
3.714284944E1,2.708576322E-1,2.188991904E-1,3.271794319E-1
3.716284944E1,4.011290073E-1,1.665218621E-1,4.181459844E-1
3.718484944E1,5.434257388E-1,8.459610492E-2,4.081103504E-1
3.720485256E1,6.329785585E-1,8.309512585E-2,3.576179743E-1
3.722684944E1,5.556604862E-1,3.260624111E-1,3.136007488E-1
3.724684944E1,2.826386094E-1,3.869569600E-1,3.286280334E-1
3.726684944E1,-5.932373926E-2,4.238881171E-1,3.047344983E-1
3.728684944E1,-3.383669853E-1,4.092971683E-1,2.291442752E-1
3.730684944E1,-5.546132922E-1,5.477715731E-1,1.196946800E-1
3.732684944E1,-5.928534269E-1,9.820618629E-1,2.280272692E-1
3.734684944E1,-5.766218901E-1,1.142841578E0,4.018620551E-1
3.736684944E1,-6.319313645E-1,9.919404387E-1,3.512998819E-1
3.738684944E1,-4.706803858E-1,5.988050103E-1,8.059930801E-2
3.740684944E1,-1.352106631E-1,6.466794014E-1,-1.151917279E-1
3.742684944E1,2.296155095E-1,1.109575629E0,1.053131670E-1
3.744684944E1,2.986258268E-1,1.090813279E0,2.017426044E-1
3.746684944E1,2.688330710E-1,6.208834052E-1,1.715484113E-1
3.748684944E1,2.798984647E-1,7.410667837E-2,2.042384297E-1
3.750684944E1,2.627767622E-1,-2.579771280E-1,3.282964230E-1
3.752684944E1,-8.927359432E-2,-5.599015951E-1,2.407507151E-1
3.754684944E1,-8.737990856E-1,-9.780476093E-1,-1.385965943E-1
3.756684944E1,-1.004995465E0,-6.792821288E-1,-6.529276818E-2
3.758685412E1,-5.635493398E-1,-1.454382837E-1,9.351474047E-2
3.760884944E1,1.809208244E-1,-1.153139025E-1,2.185152173E-1
3.762884944E1,7.288494706E-1,-1.200262904E-1,2.314830124E-1
3.764884944E1,1.078142285E0,-5.536184460E-2,1.484751552E-1
3.767084944E1,1.185829043E0,-1.941853315E-1,8.981464058E-2
3.769084944E1,1.120047569E0,-5.936737657E-1,5.330235511E-2
3.771084944E1,9.326167107E-1,-8.178263903E-1,-1.172861233E-1
3.773084944E1,6.525960565E-1,-8.619831800E-1,-2.939658165E-1
3.775084944E1,-3.947585821E-1,-1.868723989E0,-6.554234624E-1
3.777284944E1,-1.809295535E0,-2.381257296E0,-9.916611910E-1
3.779484944E1,-1.730005264E0,-1.296919227E0,-8.772548437E-1
3.781684944E1,-1.764004230E0,-7.234390080E-2,-3.764151633E-1
3.783684944E1,-5.926789045E-1,1.064877748E0,3.741113245E-1
3.785684944E1,1.266358495E0,4.723908007E-1,7.995527983E-1
3.787684944E1,1.760426402E0,1.126051545E0,5.833239555E-1
3.789684944E1,7.485193610E-1,1.273270011E0,1.233249679E-1
3.791684944E1,1.719149351E-1,3.216641843E-1,-1.123992056E-1
3.793684944E1,1.602561325E-1,1.476548519E-2,6.632251292E-2
3.795684944E1,7.283259183E-2,-2.402620167E-1,9.087929130E-2
3.797684944E1,5.136504024E-2,-5.667956471E-1,-2.244493365E-2
3.799684944E1,2.260550410E-1,-8.018566370E-1,-1.391027421E-1
3.801684944E1,3.809006512E-1,-9.048485160E-1,-2.447300702E-1
3.803684944E1,3.798709214E-1,-8.656483889E-1,-2.015506178E-1
3.805684944E1,2.441541106E-1,-5.579817891E-1,-1.054702476E-1
3.807684944E1,9.035569429E-2,-2.259154171E-1,5.984733999E-2
3.809684944E1,3.466223925E-2,-3.246312216E-2,1.478817463E-1
3.811684944E1,2.925171889E-2,9.529497474E-2,2.219186127E-1
3.813684944E1,9.656906873E-2,7.576474547E-2,1.756324768E-1
3.815684944E1,1.330813617E-1,4.513247013E-1,2.499835044E-1
3.817684944E1,1.779363155E-1,7.197039723E-1,4.056145251E-1
3.819684944E1,1.759640872E-1,7.541393042E-1,4.622155428E-1
3.821684944E1,1.647067219E-1,5.737769604E-1,4.405210912E-1
3.823684944E1,1.667138487E-1,4.189662933E-1,3.267954588E-1
3.825684944E1,1.952325255E-1,2.374171317E-1,2.357590795E-1
3.827684944E1,4.082325101E-2,2.395987958E-1,3.164456487E-1
3.829684944E1,-2.113942802E-1,5.155702829E-1,1.718451232E-1
3.831684944E1,-5.197939277E-1,8.690343499E-1,1.066396162E-1
3.833684944E1,-4.157374203E-1,1.236548305E0,2.592861056E-1
3.835884944E1,-5.546656251E-1,1.249219418E0,4.232772589E-1
3.838084944E1,-6.482501626E-1,1.041001678E0,3.207915276E-2
3.840284944E1,-3.091327250E-1,1.251052022E0,-2.236115783E-1
3.842284944E1,2.159670442E-1,1.604690671E0,-7.977899909E-2
3.844486350E1,2.927440703E-1,1.668185711E0,1.886351854E-1
3.846684944E1,-1.326450263E-3,1.387641430E0,2.550798655E-1
3.848684944E1,-2.327047437E-1,1.019324660E0,3.142814338E-1
3.850684944E1,-6.691243052E-1,3.784222901E-1,1.770112962E-1
3.852684944E1,-9.374163151E-1,1.648812592E-1,1.226617396E-1
3.854684944E1,-7.906341553E-1,3.690324128E-1,2.734581828E-1
3.856684944E1,-4.194026291E-1,4.427202046E-1,3.067939878E-1
3.858684944E1,-5.302310362E-2,3.820874691E-1,2.737897933E-1
3.860685256E1,2.557954490E-1,1.837831736E-1,2.590068579E-1
3.862884944E1,5.211552978E-1,-4.642575979E-2,2.126683742E-1
3.864884944E1,5.994856954E-1,-2.502627671E-1,1.450543106E-1
3.866884944E1,6.237632036E-1,-4.369082749E-1,4.066617042E-2
3.868884944E1,6.199584007E-1,-4.584456384E-1,-1.086118370E-1
3.870884944E1,5.754699707E-1,-3.304955363E-1,-3.529055715E-1
3.872884944E1,6.209706664E-1,-4.073424041E-1,-4.638561606E-1
3.874884944E1,4.042531550E-1,-5.432162881E-1,-6.189286709E-1
3.876884944E1,-8.605694771E-1,-1.592682719E0,-1.114863992E0
3.878884944E1,-1.565281034E0,-2.279103279E0,-1.168445587E0
3.880884944E1,-1.879963994E0,-8.783020377E-1,-7.273310423E-1
3.882884944E1,-5.604077578E-1,8.956854939E-1,-4.021238536E-2
3.884884944E1,1.031541944E0,8.006523252E-1,1.932603121E-1
3.886884944E1,9.366658330E-1,8.516334295E-1,-1.419476271E-1
3.888884944E1,1.080358773E-1,1.368338168E-1,-5.237558484E-1
3.890884944E1,3.412118554E-2,9.119345248E-2,-4.532096386E-1
3.892884944E1,1.472883373E-1,1.778490543E-1,-8.946557343E-2
3.894884944E1,1.318421662E-1,-3.096213937E-1,-9.039060026E-2
3.896885100E1,9.866346419E-2,-4.905596972E-1,-2.951526344E-1
3.899084788E1,2.864958048E-1,-6.340606809E-1,-3.334276974E-1
3.901084944E1,4.996179640E-1,-6.566277742E-1,-2.691297829E-1
3.903084944E1,5.937260985E-1,-6.017546058E-1,-2.010095716E-1
3.905284944E1,5.856451988E-1,-4.107806981E-1,-1.552470326E-1
3.907484944E1,4.558101892E-1,-2.232276052E-1,-4.616395757E-2
3.909484944E1,2.990970612E-1,5.619960278E-2,1.256811619E-1
3.911684944E1,1.661728024E-1,2.082177848E-1,2.988527119E-1
3.913684944E1,1.217018068E-1,2.339962870E-1,4.045149684E-1
3.915684944E1,2.259154171E-1,1.314232945E-1,4.837005436E-1
3.917684944E1,3.598345220E-1,8.580038697E-2,5.278050303E-1
3.919684944E1,4.774522781E-1,6.119124219E-2,5.600587130E-1
3.921684944E1,4.625820518E-1,-1.220508739E-1,5.422214270E-1
3.923884944E1,3.467620015E-1,-4.881511331E-1,4.042880535E-1
3.925884944E1,1.068839654E-1,-4.493350089E-1,2.561445236E-1
3.927884944E1,-1.278453618E-1,1.375319436E-2,1.533097178E-1
3.930084788E1,-3.511078954E-1,3.133738637E-1,7.860963047E-2
3.932084944E1,-5.008571148E-1,9.656906873E-2,8.032005280E-2
3.934284944E1,-6.495766640E-1,4.131019711E-1,6.942919642E-2
3.936484944E1,-6.253340244E-1,9.283231497E-1,3.491531014E-1
3.938486038E1,-5.783148408E-1,1.223894715E0,4.968428910E-1
3.940486350E1,-5.339311361E-1,1.209792376E0,1.717229486E-1
3.942487444E1,-3.445978165E-1,1.117604136E0,-4.148647562E-2
3.944684944E1,2.595304511E-2,1.154901862E0,1.933824830E-2
3.946684944E1,1.328195538E-2,8.292931914E-1,1.013512686E-1
3.948684944E1,-2.281668931E-1,5.821895003E-1,9.203121066E-2
3.950684944E1,-2.223200351E-1,3.311587572E-1,4.790928960E-2
3.952884788E1,-2.838952541E-1,-2.294060737E-1,-1.167450696E-1
3.954884788E1,-1.048192382E0,-1.384587169E0,-5.122366548E-1
3.956885100E1,-1.446284533E0,-1.242133379E0,-4.346742630E-1
3.959084788E1,-1.252919555E0,-7.625343204E-1,-2.328269184E-1
3.961084788E1,-8.671144843E-1,-6.720041037E-1,-1.088387296E-1
3.963084788E1,-3.262020350E-1,-5.049935579E-1,-2.617993951E-2
3.965084788E1,3.512475193E-1,-3.175801039E-1,6.127851084E-2
3.967084788E1,9.115331173E-1,-1.479515582E-1,1.284736842E-1
3.969084788E1,1.186858773E0,-1.052433550E-1,6.834709644E-2
3.971084788E1,1.366488099E0,-1.901012659E-1,-5.777039751E-2
3.973084788E1,1.499866128E0,-3.763802648E-1,-8.972737938E-2
3.975084788E1,1.380921960E0,-9.140289426E-1,-2.518859208E-1
3.977084788E1,1.033130169E0,-1.384185672E0,-4.960574806E-1
3.979084788E1,3.973416686E-1,-1.702114940E0,-5.130046010E-1
3.981084944E1,-8.241270185E-1,-2.479641676E0,-7.382917404E-1
3.983084944E1,-2.257286787E0,-2.702834368E0,-1.268679857E0
3.985284788E1,-1.966444969E0,-1.339941621E0,-6.589316130E-1
3.987284788E1,-1.673229694E0,5.692566037E-1,-1.280198991E-1
3.989284788E1,-2.301740199E-1,3.187355280E0,7.886793613E-1
3.991284788E1,1.353049040E0,2.557116747E0,1.039413333E0
3.993284788E1,1.408498168E0,1.589576006E0,5.466894507E-1
3.995284788E1,2.032261342E-1,1.714960575E0,-3.336022198E-1
3.997284788E1,3.456973732E-1,1.246723533E0,-3.395014405E-1
3.999284788E1,5.395336151E-1,3.471110761E-1,-2.229483575E-1
4.001284788E1,3.766420484E-1,-1.875181794E-1,-3.310714960E-1
4.003284788E1,4.263839424E-1,-5.299517512E-1,-3.903254271E-1
4.005284788E1,5.783323050E-1,-5.731137395E-1,-3.394665420E-1
4.007284788E1,6.558248997E-1,-6.419146657E-1,-2.557256520E-1
4.009284788E1,6.008121371E-1,-5.706179142E-1,-1.751437932E-1
4.011284788E1,4.896695614E-1,-4.047942162E-1,-9.388125688E-2
4.013284788E1,3.791727722E-1,-1.527512223E-1,-5.309291556E-2
4.015284788E1,3.203726411E-1,2.535963431E-2,3.281218931E-2
4.017284788E1,2.798286378E-1,1.046324894E-1,1.424014121E-1
4.019284788E1,1.692096740E-1,2.231403440E-1,2.368237227E-1
4.021284788E1,1.157327816E-1,3.242298067E-1,3.558377326E-1
4.023284788E1,1.723687202E-1,3.343003690E-1,4.753753245E-1
4.025284788E1,2.771931887E-1,3.021514118E-1,5.413138866E-1
4.027284788E1,3.807435632E-1,1.343903542E-1,5.452059507E-1
4.029284788E1,4.624249935E-1,-1.095543131E-1,4.671373665E-1
4.031284788E1,3.946712911E-1,-2.627942264E-1,3.363423944E-1
4.033284944E1,1.905899495E-1,-3.743556738E-1,2.568601072E-1
4.035284944E1,-7.951720059E-2,-2.667735815E-1,1.122072190E-1
4.037484944E1,-2.372076958E-1,1.399754081E-2,-1.399754081E-2
4.039484944E1,-2.340486497E-1,4.483401775E-1,-1.640609466E-2
4.041684944E1,-4.833689332E-1,8.478460312E-1,-7.370525599E-2
4.043684944E1,-5.992937088E-1,1.296517849E0,1.184205860E-1
4.045884788E1,-6.276553273E-1,1.424153805E0,3.587175310E-1
4.047884788E1,-7.516958714E-1,1.305488825E0,3.053104579E-1
4.049884788E1,-6.058735847E-1,1.046307445E0,9.962339699E-2
4.051884788E1,-3.087312877E-1,7.264583707E-1,-8.848818950E-3
4.053884788E1,-1.755277663E-1,6.215815544E-1,-1.476548519E-2
4.055884788E1,-2.068389654E-1,8.088030219E-1,6.161012221E-3
4.057884788E1,-1.049640998E-1,6.884625554E-1,7.215191424E-2
4.059884788E1,-5.811946467E-3,3.356966376E-1,8.422958851E-2
4.061884788E1,4.482005537E-2,-6.096434966E-2,2.771582827E-2
4.063884788E1,1.211258490E-2,-3.735179007E-1,-6.311110407E-2
