"Time (s)","Linear Acceleration x (m/s^2)","Linear Acceleration y (m/s^2)","Linear Acceleration z (m/s^2)"
1.998438000E-3,1.200600028E0,-8.348999619E-1,-5.490999818E-1
2.199843800E-2,1.483799934E0,-1.388000011E0,3.951999843E-1
5.199843800E-2,8.922999501E-1,-1.691999912E0,1.069499969E0
7.199843800E-2,3.655999899E-1,-1.402300000E0,9.652999640E-1
9.199843800E-2,-3.254999816E-1,-7.795000076E-1,1.008999944E0
1.120046880E-1,-5.565999746E-1,-1.656999886E-1,7.380999923E-1
1.419984380E-1,-1.420000009E-2,5.557999611E-1,-2.919999883E-2
1.620000000E-1,-3.662000000E-1,8.616999984E-1,-4.192000031E-1
1.919984380E-1,-1.116199970E0,4.244999886E-1,5.194000006E-1
2.120000000E-1,-1.102100015E0,8.050000072E-1,1.140100002E0
2.419968750E-1,-2.752099991E0,2.953099966E0,2.946599960E0
2.619984380E-1,-1.792599916E0,2.968099833E0,1.142599940E0
2.919984380E-1,-6.265000105E-1,1.845299959E0,-1.967399955E0
3.120031250E-1,-6.992999911E-1,1.406399965E0,-1.392399907E0
3.419968750E-1,8.563999534E-1,-4.632000029E-1,3.863999844E-1
3.619968750E-1,2.082799911E0,-3.056699991E0,1.262699962E0
3.819968750E-1,2.523900032E0,-4.265199661E0,7.552999854E-1
4.020078130E-1,7.311999798E-1,-2.844300032E0,-3.571999967E-1
4.319968750E-1,-2.036099911E0,1.724399924E0,6.437999606E-1
4.520046880E-1,-1.132499933E0,1.393199921E0,9.086999893E-1
4.819968750E-1,2.465000004E-1,-2.269999981E-1,5.318999887E-1
5.020046880E-1,-4.349999875E-2,3.157999814E-1,5.234000087E-1
5.319968750E-1,6.815999746E-1,-5.266000032E-1,-1.656999886E-1
5.519984380E-1,7.274999619E-1,-6.951000094E-1,-3.551999927E-1
5.819968750E-1,8.556999564E-1,-1.423999906E0,5.636000037E-1
6.019968750E-1,1.076399922E0,-1.528299928E0,7.488999963E-1
6.219968750E-1,1.497200012E0,-1.271499991E0,2.096999884E-1
6.419968750E-1,1.459599972E0,-1.001500010E0,-6.277999878E-1
6.619984380E-1,1.409699917E0,-9.582999945E-1,-1.278399944E0
6.919984380E-1,1.364399910E0,-6.128000021E-1,-1.522699952E0
7.119984380E-1,1.023100019E0,-4.802999794E-1,-1.153900027E0
7.319984380E-1,4.682999849E-1,-3.817999959E-1,-6.337999701E-1
7.619968750E-1,-3.928999901E-1,-1.303000003E-1,-5.629999638E-1
7.819968750E-1,-3.592000008E-1,1.085999981E-1,-6.585999727E-1
8.019968750E-1,3.355999887E-1,3.030000031E-1,-7.791000009E-1
8.219968750E-1,6.959999800E-1,3.840999901E-1,-7.400000095E-1
8.419968750E-1,4.571999907E-1,4.840999842E-1,-5.922999978E-1
8.619968750E-1,2.122999877E-1,4.587000012E-1,-5.898000002E-1
8.819968750E-1,3.592999876E-1,4.887999892E-1,-6.927999854E-1
9.019968750E-1,6.283000112E-1,5.472999811E-1,-5.993999839E-1
9.219968750E-1,4.018999934E-1,5.381000042E-1,-6.056999564E-1
9.419968750E-1,-2.520000003E-2,6.323999763E-1,-5.142999887E-1
9.619968750E-1,-2.044999897E-1,7.038999796E-1,-5.216000080E-1
9.819968750E-1,-1.335999966E-1,7.550999522E-1,-5.658000112E-1
1.001996875E0,-1.695999950E-1,8.298999667E-1,-4.044999778E-1
1.021996875E0,-2.442999929E-1,8.172999620E-1,-2.726999819E-1
1.041996875E0,-1.708000004E-1,7.092999816E-1,-1.902000010E-1
1.061996875E0,-1.421999931E-1,7.749999762E-1,7.069999725E-2
1.081996875E0,1.559999958E-2,7.975999713E-1,1.869999915E-1
1.101996875E0,1.699999906E-3,6.703000069E-1,2.949999869E-1
1.121996875E0,6.899999920E-3,7.831000090E-1,6.534000039E-1
1.141996875E0,1.005999967E-1,9.086999893E-1,1.951999903E0
1.161996875E0,1.850999892E-1,5.411999822E-1,1.875199914E0
1.181996875E0,-1.549999975E-2,-5.229999870E-2,5.999999642E-1
1.201998438E0,-6.849999726E-2,3.089999966E-2,5.539999902E-2
1.231996875E0,8.416000009E-1,-2.777000070E-1,1.258199930E0
1.251996875E0,5.008000135E-1,-6.751999855E-1,1.231199980E0
1.271996875E0,1.391000003E-1,-8.434000015E-1,2.136800051E0
1.291996875E0,-1.706999987E-1,-1.176999927E0,2.096600056E0
1.311996875E0,-9.329999685E-1,-1.326399922E0,8.111000061E-1
1.331996875E0,-1.485499978E0,-1.324899912E0,-7.901999950E-1
1.351996875E0,-1.516099930E0,-1.281099916E0,-1.398100019E0
1.371996875E0,-9.466999769E-1,-1.483899951E0,-7.497999668E-1
1.391996875E0,-5.001999736E-1,-1.839299917E0,1.159999985E-2
1.411996875E0,-6.419000030E-1,-1.905599952E0,4.314000010E-1
1.431998438E0,-8.254999518E-1,-1.911999941E0,7.840000093E-2
1.451998438E0,-5.432999730E-1,-1.690199971E0,2.755999863E-1
1.471998438E0,-9.304999709E-1,-1.226799965E0,-1.369999945E-1
1.501998438E0,-8.147000074E-1,-8.902999759E-1,-7.748999596E-1
1.531998438E0,-1.302099943E0,-2.900999784E-1,-1.542999893E-1
1.561996875E0,-5.291000009E-1,-5.697000027E-1,-5.609999895E-1
1.581996875E0,-7.745999694E-1,-5.627999902E-1,-1.401000023E-1
1.601996875E0,-9.292999506E-1,-6.207000017E-1,8.515999913E-1
1.621996875E0,-7.060999870E-1,-2.642000020E-1,-3.615999818E-1
1.641996875E0,-9.719999880E-2,1.437999904E-1,-2.608299971E0
1.661996875E0,-1.149999946E-1,6.830999851E-1,-1.831999898E0
1.681998438E0,-1.225999966E-1,6.407999992E-1,2.769899845E0
1.702017188E0,-9.211999774E-1,8.342999816E-1,1.339399934E0
1.731996875E0,1.669899940E0,-2.339699984E0,2.935000062E-1
1.751996875E0,2.691499949E0,-2.231899977E0,7.339000106E-1
1.771996875E0,8.139999509E-1,-3.924299955E0,-6.431999803E-1
1.791996875E0,-3.460000083E-2,-4.019899845E0,-6.380000114E-1
1.811996875E0,2.112999916E0,-3.754599810E0,-7.532999516E-1
1.831996875E0,4.347399712E0,-4.043499947E0,-5.428999662E-1
1.851996875E0,1.684899926E0,-4.060100079E0,-3.181000054E-1
1.871996875E0,9.690000117E-2,-3.959299803E0,-3.029899836E0
1.891996875E0,-1.304600000E0,-4.377799988E0,-8.262100220E0
1.911996875E0,-3.901899815E0,-5.893199921E0,-6.444399834E0
1.931996875E0,-3.320199966E0,-6.742799759E0,-2.761299849E0
1.951996875E0,-5.221399784E0,-6.280600071E0,-2.196799994E0
1.971996875E0,-7.875599861E0,-7.080100060E0,-3.756299973E0
1.991996875E0,-8.197500229E0,-8.133399963E0,-4.649699688E0
2.011998438E0,-5.349699974E0,-9.214900017E0,-3.014899969E0
2.031998438E0,-8.024999499E-1,-9.343199730E0,-5.410999656E-1
2.051998438E0,7.203299999E0,-8.981800079E0,-8.813999891E-1
2.071998438E0,1.600300026E1,-6.514699936E0,-1.281399965E0
2.101998438E0,2.796549988E1,-2.285799980E0,-4.880199909E0
2.121998438E0,2.794680023E1,-7.246999741E-1,-7.223299980E0
2.151998438E0,2.033510017E1,-3.012999892E-1,-7.859299660E0
2.171998438E0,1.287669945E1,3.986999989E-1,-7.311299801E0
2.191998438E0,7.670799732E0,1.121399999E0,-6.125799656E0
2.211998438E0,4.553299904E0,1.200500011E0,-4.862699986E0
2.241998438E0,-2.879199982E0,1.145999953E-1,-9.696499825E0
2.261998438E0,-3.470599890E0,-5.058999658E-1,-5.367799759E0
2.291996875E0,-1.177219963E1,-1.074299932E0,-4.967099667E0
2.311996875E0,-9.740399361E0,-3.447700024E0,-4.432099819E0
2.331998438E0,-9.854199409E0,-4.923999786E0,-3.991999924E-1
2.361998438E0,-4.880099773E0,-3.332899809E0,9.759999812E-2
2.381998438E0,-1.084299922E0,-3.250299931E0,-3.967899799E0
2.401998438E0,-1.158599973E0,-1.355000019E0,-4.121399879E0
2.431998438E0,9.645999670E-1,-5.278899670E0,-3.658699989E0
2.461996875E0,2.290999889E-1,-1.928000003E-1,-1.017199993E0
2.481996875E0,-2.625200033E0,5.541399956E0,2.766999900E-1
2.501996875E0,-4.126999855E0,4.647200108E0,1.183399916E0
2.521996875E0,-4.697700024E0,3.675199986E0,2.189100027E0
2.541996875E0,-5.486299992E0,1.601899981E0,2.028199911E0
2.561996875E0,-7.719799995E0,9.703999758E-1,1.880299926E0
2.581996875E0,-6.578299999E0,9.946999550E-1,-1.700999886E-1
2.601996875E0,-5.441599846E0,1.534999967E0,-1.718899965E0
2.621996875E0,-1.171499968E0,5.622000098E-1,-1.867399931E0
2.641996875E0,5.649299622E0,-1.111259937E1,2.042700052E0
2.661996875E0,-2.418799877E0,-2.568709946E1,8.979800224E0
2.681996875E0,-1.087259960E1,-2.122789955E1,4.902699947E0
2.702000000E0,-2.058199883E0,-1.153859997E1,-1.062999964E-1
2.731996875E0,3.725799799E0,8.578999639E-1,-6.240000129E-1
2.751998438E0,3.192399979E0,2.860199928E0,-1.106199980E0
2.781996875E0,3.230700016E0,4.037600040E0,1.272400022E0
2.801996875E0,1.819999933E0,1.525999904E0,7.620999813E-1
2.821998438E0,3.339000046E-1,-1.306999922E-1,-1.575699925E0
2.851996875E0,-4.336999953E-1,-3.944999874E-1,-2.019199848E0
2.871996875E0,-6.675999761E-1,-3.696999848E-1,-1.454999924E0
2.891998438E0,-9.338999987E-1,-7.098000050E-1,2.379999869E-2
2.911998438E0,-1.580099940E0,1.797000021E-1,9.791999459E-1
2.931998438E0,-1.533699989E0,1.750599980E0,3.082599878E0
2.961998438E0,-1.316100001E0,4.321599960E0,4.388599873E0
2.981998438E0,-1.088199973E0,4.143499851E0,3.424599886E0
3.001998438E0,-8.456999660E-1,1.994300008E0,1.754099965E0
3.032000000E0,1.453199983E0,-1.440199971E0,5.319999903E-2
3.061996875E0,3.759299994E0,-1.385900021E0,-1.260599971E0
3.081996875E0,4.077099800E0,-2.294199944E0,-1.727599978E0
3.101998438E0,4.651700020E0,-1.926299930E0,-3.039199829E0
3.121998438E0,3.717999935E0,-1.970499992E0,-2.536900043E0
3.151998438E0,1.588199973E0,-2.422299862E0,-2.264799833E0
3.171998438E0,8.617999554E-1,-3.726599932E0,-1.592299938E0
3.191998438E0,6.448999643E-1,-4.139299870E0,-1.112999916E0
3.211998438E0,-4.657999873E-1,-4.110700130E0,-8.534999490E-1
3.241998438E0,4.736999869E-1,1.740999967E-1,-1.372399926E0
3.261998438E0,9.774999619E-1,1.091799974E0,-1.773999929E-1
3.291998438E0,1.507499933E0,3.048999906E-1,8.892999887E-1
3.321998438E0,-5.106999874E-1,-1.808299899E0,1.029299974E0
3.351996875E0,-1.163800001E0,-1.973899961E0,1.283999920E0
3.371996875E0,-8.679999709E-1,6.737999916E-1,1.411000013E0
3.391996875E0,1.462399960E0,-2.880599976E0,4.345399857E0
3.411996875E0,-9.921000004E-1,1.978099942E0,2.567299843E0
3.431996875E0,-5.446000099E-1,3.429999948E-2,3.684299946E0
3.451996875E0,1.236699939E0,-9.449999779E-2,6.539999843E-1
3.471996875E0,4.227699757E0,1.762499928E0,6.243000031E-1
3.491996875E0,2.808899879E0,-7.449999452E-2,2.355900049E0
3.511996875E0,-1.037299991E0,-3.799999952E-1,2.307899952E0
3.531998438E0,-1.681699991E0,1.195599914E0,-1.242399931E0
3.561996875E0,-2.998899937E0,7.573999763E-1,-1.553900003E0
3.581996875E0,-3.013000011E0,-1.572999954E-1,4.008999825E0
3.601996875E0,-7.728999853E-1,1.929099917E0,5.652100086E0
3.621996875E0,1.605399966E0,4.196599960E0,3.377300024E0
3.641996875E0,2.211499929E0,3.076999903E0,-1.240700006E0
3.661996875E0,1.881299973E0,1.425199986E0,-4.958699703E0
3.681996875E0,2.371799946E0,2.750999928E-1,-7.430899620E0
3.701996875E0,2.647699833E0,-1.037699938E0,-8.421799660E0
3.721996875E0,3.917299986E0,-1.309299946E0,-9.038100243E0
3.741996875E0,1.878899932E0,1.546399951E0,-5.495399952E0
3.761996875E0,-4.459999800E-1,1.462499976E0,-5.150799751E0
3.781996875E0,-4.611599922E0,1.082700014E0,-3.489499807E0
3.801996875E0,-5.199199677E0,-1.600299954E0,3.303399801E0
3.821996875E0,-2.248600006E0,-5.420000076E0,3.873999834E0
3.841998438E0,7.380999923E-1,-6.044699669E0,1.413900018E0
3.871996875E0,2.180000022E-2,-4.949100018E0,1.673799992E0
3.891998438E0,-1.464599967E0,-1.626099944E0,2.300499916E0
3.911998438E0,-1.469799995E0,-8.299999833E-1,1.824099898E0
3.931998438E0,-6.987999678E-1,-2.177799940E0,1.797599912E0
3.951998438E0,-9.615999460E-1,-1.879499912E0,2.241899967E0
3.971998438E0,-1.588199973E0,1.729999930E-1,1.976599932E0
4.001998438E0,-1.715899944E0,2.555099964E0,8.769999743E-1
4.031998438E0,-6.326999664E-1,3.330799818E0,2.739000022E-1
4.061996875E0,5.027999878E-1,3.063599825E0,9.039999843E-1
4.081996875E0,3.111999929E-1,3.031699896E0,1.291100025E0
4.101996875E0,1.513999999E-1,3.024399996E0,1.318099976E0
4.121996875E0,-2.019999921E-2,2.950299978E0,1.532899976E0
4.141996875E0,-1.132999957E-1,2.608999968E0,1.223799944E0
4.161996875E0,-5.673999786E-1,2.317499876E0,6.868999600E-1
4.181996875E0,-1.975999922E-1,1.565899968E0,-1.604999900E-1
4.201996875E0,-3.258000016E-1,7.026999593E-1,-1.450299978E0
4.221996875E0,5.409999937E-2,-1.305999905E-1,-2.197499990E0
4.241996875E0,6.092999578E-1,-1.163499951E0,-2.089999914E0
4.261996875E0,8.675000072E-1,-2.376399994E0,-2.653399944E0
4.281996875E0,9.415999651E-1,-2.597300053E0,-3.233700037E0
4.301996875E0,1.152199984E0,-1.932299972E0,-3.595199823E0
4.321996875E0,1.617699981E0,-1.703999996E0,-3.138799906E0
4.341996875E0,1.522799969E0,-1.051100016E0,-2.720299959E0
4.361996875E0,2.168299913E0,-1.291899920E0,-2.225499868E0
4.381996875E0,2.611199856E0,-1.115000010E0,-2.884799957E0
4.401996875E0,2.544100046E0,-1.140900016E0,-3.073699951E0
4.421996875E0,2.451400042E0,-3.242000043E-1,-1.317399979E0
4.441996875E0,1.705899954E0,7.513999939E-1,2.333000004E-1
4.461996875E0,4.001999795E-1,2.355999947E0,2.138999939E0
4.481996875E0,-7.249000072E-1,1.128199935E0,1.988799930E0
4.501996875E0,-2.047800064E0,-1.772499919E0,7.178999782E-1
4.521996875E0,-2.632400036E0,-1.224399924E0,1.063699961E0
4.541996875E0,-3.159699917E0,-3.436000049E-1,1.944199920E0
4.561996875E0,-3.044299841E0,-9.060999751E-1,1.021199942E0
4.581996875E0,-2.300699949E0,-7.563999891E-1,3.360999823E-1
4.601996875E0,-1.236999989E0,-5.867999792E-1,-1.408299923E0
4.621996875E0,2.206999958E-1,-4.419999942E-2,-2.120199919E0
4.641996875E0,2.932799816E0,-7.804999948E-1,-3.043799877E0
4.661996875E0,1.005900025E0,6.692999601E-1,-7.828999758E-1
4.681996875E0,3.513000011E-1,1.644299984E0,3.371999860E-1
4.701996875E0,6.389999986E-1,2.733199835E0,1.792099953E0
4.721996875E0,2.824999988E-1,2.842900038E0,1.629799962E0
4.741996875E0,-3.499999940E-1,2.737499952E0,1.794699907E0
4.761996875E0,-6.279000044E-1,2.936199903E0,1.899199963E0
4.781996875E0,-3.947999775E-1,2.942600012E0,1.630999923E0
4.801996875E0,1.074999943E-1,2.496199846E0,7.766000032E-1
4.821996875E0,1.015799999E0,1.710299969E0,-2.809999883E-1
4.841996875E0,1.957799911E0,9.447999597E-1,-1.135299921E0
4.861996875E0,2.126899958E0,1.252200007E0,-1.958599925E0
4.881996875E0,1.458199978E0,6.593999863E-1,-2.370199919E0
4.901996875E0,1.772199988E0,-1.149699926E0,-3.182099819E0
4.921998438E0,3.470999956E0,-3.787199974E0,-6.537699699E0
4.941998438E0,6.453999877E-1,-2.892199993E0,-4.210899830E0
4.971998438E0,-8.860999942E-1,-1.477699995E0,-4.094799995E0
5.001996875E0,-4.745100021E0,-4.010000080E-2,6.806399822E0
5.021996875E0,-3.244599819E0,-1.687299967E0,2.043599844E0
5.041996875E0,-2.750900030E0,-1.109699965E0,1.044600010E0
5.061996875E0,-4.324500084E0,-1.926199913E0,1.526799917E0
5.081996875E0,-4.052899837E0,-3.309700012E0,3.490799904E0
5.101996875E0,-1.204699993E0,-4.521800041E0,1.777300000E0
5.121996875E0,-6.624000072E-1,-4.097499847E0,1.181399941E0
5.141996875E0,1.063799977E0,-3.233299971E0,4.831999838E-1
5.161996875E0,1.762099981E0,-1.566299915E0,-7.008999586E-1
5.181996875E0,1.975499988E0,2.468999922E-1,-4.139999747E-1
5.201996875E0,2.071300030E0,1.568899989E0,-4.384000003E-1
5.221996875E0,2.183099985E0,2.444499969E0,-9.528999925E-1
5.241996875E0,1.994300008E0,2.922699928E0,-1.002099991E0
5.261996875E0,1.600099921E0,3.205399990E0,-5.823000073E-1
5.281996875E0,8.651999831E-1,3.236500025E0,-2.245999873E-1
5.301996875E0,1.595000029E-1,3.164199829E0,3.401999772E-1
5.321996875E0,-3.585000038E-1,2.796000004E0,7.494999766E-1
5.341996875E0,-6.446999907E-1,2.087300062E0,1.387300014E0
5.361996875E0,-8.944000006E-1,1.619300008E0,1.561699986E0
5.381996875E0,-9.347999692E-1,1.155399919E0,9.213999510E-1
5.401996875E0,-2.145999968E-1,4.408999979E-1,-1.799999969E-3
5.421996875E0,6.812999845E-1,-6.531999707E-1,-1.265900016E0
5.441996875E0,1.368899941E0,-1.794099927E0,-2.757799864E0
5.461996875E0,2.199199915E0,-2.355999947E0,-3.938799858E0
5.481996875E0,2.514600039E0,-2.033299923E0,-4.521699905E0
5.501996875E0,1.756099939E0,-1.451499939E0,-3.770200014E0
5.521996875E0,8.385999799E-1,-1.794699907E0,-2.867799997E0
5.541996875E0,2.463999987E-1,-1.905900002E0,-2.242300034E0
5.561998438E0,-4.686999917E-1,-1.352599978E0,-1.461899996E0
5.581998438E0,-2.831999958E-1,-3.319000006E-1,-3.872999847E-1
5.611996875E0,-1.555799961E0,8.756999969E-1,1.736299992E0
5.631996875E0,-2.863099813E0,-2.126800060E0,2.534399986E0
5.651996875E0,-3.240999937E0,-3.573099852E0,3.800099850E0
5.671996875E0,-3.160499811E0,-1.604999900E0,2.905699968E0
5.691998438E0,-1.777899981E0,-1.418999910E0,1.326799989E0
5.721998438E0,1.740000024E-2,-3.655000031E-1,-4.864999950E-1
5.751996875E0,2.901199818E0,-5.681999922E-1,-2.900300026E0
5.771996875E0,9.228999615E-1,1.766199946E0,-6.297999620E-1
5.791996875E0,1.235099912E0,2.608099937E0,1.917499900E0
5.811996875E0,8.907999992E-1,2.512799978E0,2.861599922E0
5.831996875E0,4.874999821E-1,2.272699833E0,3.123800039E0
5.851996875E0,1.799999923E-1,2.200899839E0,3.271399975E0
5.871996875E0,-1.169999968E-2,2.159100056E0,3.086799860E0
5.891996875E0,4.098999798E-1,1.654599905E0,2.481799841E0
5.911996875E0,1.097800016E0,8.968999982E-1,1.810699940E0
5.931996875E0,1.937099934E0,2.832999825E-1,1.056599975E0
5.951996875E0,2.214900017E0,4.844999909E-1,1.099999994E-2
5.971996875E0,2.294800043E0,6.799999624E-2,-1.176100016E0
5.991996875E0,9.431999922E-1,-4.550999999E-1,-1.962599993E0
6.011996875E0,1.639999896E-1,-9.264999628E-1,-2.479599953E0
6.031996875E0,3.231000006E-1,-1.737100005E0,-2.824299812E0
6.051996875E0,1.498699903E0,-1.419699907E0,-4.832299709E0
6.071996875E0,1.370800018E0,-1.836299896E0,-7.664599895E0
6.091996875E0,7.440000027E-2,-1.611899972E0,-5.560800076E0
6.111996875E0,-9.447000027E-1,-1.181599975E0,-5.831999779E-1
6.131996875E0,5.823999643E-1,-1.821299911E0,2.845000029E0
6.151996875E0,4.487999976E-1,5.529999733E-2,2.275699854E0
6.171996875E0,5.270999670E-1,-4.349999875E-2,1.644999981E0
6.191996875E0,-4.362999797E-1,-1.103600025E0,2.995899916E0
6.211998438E0,-5.500999689E-1,-2.353999853E0,4.617199898E0
6.231998438E0,1.077999994E-1,-3.768199921E0,5.454899788E0
6.251998438E0,5.698999763E-1,-3.111599922E0,4.766599655E0
6.281996875E0,5.601999760E-1,-1.171000004E0,2.437799931E0
6.301998438E0,-7.239999622E-2,-5.329999924E-1,1.769499898E0
6.321998438E0,-3.276999891E-1,2.735999823E-1,1.908299923E0
6.351996875E0,-3.041999936E-1,5.690999627E-1,1.533100009E0
6.371998438E0,-7.140000165E-2,1.049099922E0,6.901999712E-1
6.391998438E0,-2.396999896E-1,2.142899990E0,4.419999942E-2
6.411998438E0,-7.975999713E-1,2.928099871E0,-2.483999878E-1
6.431998438E0,-1.410599947E0,3.519199848E0,-2.471999973E-1
6.461998438E0,-1.886500001E0,3.460299969E0,-7.719999552E-1
6.481998438E0,-1.745499969E0,3.029999971E0,-1.153900027E0
6.511996875E0,-7.570999861E-1,1.692299962E0,-1.361899972E0
6.531996875E0,1.085999981E-1,3.407999873E-1,-1.360000014E0
6.551996875E0,9.644999504E-1,-1.667499900E0,-1.949399948E0
6.571996875E0,1.899899960E0,-2.618099928E0,-3.055999994E0
6.591996875E0,2.810099840E0,-1.932099938E0,-3.943399906E0
6.611996875E0,3.445499897E0,-1.977899909E0,-4.563600063E0
6.631996875E0,3.148200035E0,-2.705600023E0,-5.403999805E0
6.651996875E0,1.599399924E0,-1.990599990E0,-2.874699831E0
6.671996875E0,4.596999884E-1,-1.530900002E0,-3.637000024E-1
6.691996875E0,1.736999899E-1,-1.411000013E0,4.596000016E-1
6.711996875E0,2.339999937E-2,-2.140199900E0,1.653399944E0
6.731996875E0,-6.518999934E-1,-2.287499905E0,2.876899958E0
6.751996875E0,-1.534899950E0,-1.712899923E0,3.412099838E0
6.771996875E0,-1.319399953E0,-1.006999969E0,3.108299971E0
6.791996875E0,-7.615000010E-1,-2.771999836E-1,2.532899857E0
6.811996875E0,-3.296000063E-1,4.625999928E-1,2.613699913E0
6.831996875E0,-3.909999877E-2,1.160899997E0,3.151799917E0
6.851996875E0,3.062999845E-1,1.627999902E0,3.542199850E0
6.871996875E0,8.029999584E-2,2.119400024E0,3.194999933E0
6.891996875E0,5.879999697E-2,2.270200014E0,1.979299903E0
6.911996875E0,-2.705999911E-1,2.362400055E0,1.214399934E0
6.931998438E0,-2.536000013E-1,1.614499927E0,8.639000058E-1
6.961998438E0,-2.480999976E-1,1.096699953E0,8.419999480E-2
6.991996875E0,-4.952999949E-1,2.485999912E-1,-1.085999981E-1
7.011996875E0,-1.152999997E0,7.999999449E-3,-8.521999717E-1
7.031996875E0,-1.419499993E0,1.744000018E-1,-1.583699942E0
7.051996875E0,-1.180599928E0,-9.629999846E-2,-2.381299973E0
7.071996875E0,-1.444499969E0,-3.447999954E-1,-3.191499949E0
7.091996875E0,-1.291000009E0,-3.942999840E-1,-4.435499668E0
7.111996875E0,-1.573099971E0,-7.123000026E-1,-5.763000011E0
7.131996875E0,-2.708499908E0,-2.683799982E0,-6.629999638E0
7.151996875E0,-2.850899935E0,-2.574699879E0,-3.957199812E0
7.171996875E0,-2.075399876E0,-1.577899933E0,-1.567499995E0
7.191996875E0,4.262999892E-1,-8.531999588E-1,-9.019999504E-1
7.211998438E0,1.177299976E0,2.026999891E-1,3.026999831E-1
7.231998438E0,6.552999616E-1,-5.461999774E-1,2.965299845E0
7.251998438E0,3.220999837E-1,-2.085500002E0,5.173599720E0
7.281996875E0,8.297999501E-1,-5.767600060E0,6.730199814E0
7.301996875E0,1.013899922E0,-4.822199821E0,5.454099655E0
7.321996875E0,1.450500011E0,-2.618399858E0,3.153499842E0
7.341996875E0,1.205500007E0,-8.228999972E-1,2.139799833E0
7.361996875E0,4.172999859E-1,8.325999975E-1,1.300599933E0
7.381996875E0,-3.139999807E-1,2.479099989E0,1.218999982E0
7.401996875E0,-9.199999571E-1,3.072799921E0,1.434199929E0
7.421996875E0,-1.029999971E0,2.720599890E0,1.606299996E0
7.441996875E0,-1.049999952E0,2.422799826E0,1.365099907E0
7.461996875E0,-1.093500018E0,2.506500006E0,1.221699953E0
7.481996875E0,-4.232999980E-1,2.928299904E0,7.432000041E-1
7.501996875E0,-2.703999877E-1,2.557800055E0,-2.104000002E-1
7.521996875E0,-5.270999670E-1,1.958699942E0,-8.583999872E-1
7.541996875E0,-6.222000122E-1,1.273000002E0,-1.318499923E0
7.561996875E0,-5.633000135E-1,7.371999621E-1,-1.804600000E0
7.581996875E0,-4.688999951E-1,5.353999734E-1,-2.345299959E0
7.601996875E0,-3.123999834E-1,-8.540000021E-2,-2.835500002E0
7.621996875E0,-1.551999897E-1,-1.055599928E0,-3.150799990E0
7.641996875E0,-3.348000050E-1,-1.610099912E0,-3.282399893E0
7.661996875E0,-3.634999990E-1,-1.197099924E0,-3.354499817E0
7.681998438E0,-1.237999946E-1,-1.553399920E0,-3.491599798E0
7.711998438E0,-6.509999931E-2,-3.084899902E0,-2.856499910E0
7.731998438E0,-5.774999857E-1,-9.061999917E-1,-1.093099952E0
7.751998438E0,-2.558999956E-1,8.094999790E-1,-7.878999710E-1
7.781996875E0,-1.294899940E0,1.310799956E0,9.494999647E-1
7.801996875E0,-3.043999910E0,-1.121199965E0,1.346400023E0
7.821996875E0,-3.307199955E0,-2.346099854E0,2.092599869E0
7.841996875E0,-2.753399849E0,-3.108500004E0,2.194999933E0
7.861996875E0,-1.641299963E0,-2.680599928E0,1.613199949E0
7.881996875E0,-8.229999542E-1,-1.769400001E0,1.875799894E0
7.901996875E0,-7.534999847E-1,-7.685999870E-1,2.690399885E0
7.921996875E0,-1.078999996E0,2.390999943E-1,3.671299934E0
7.941996875E0,-9.419999719E-1,9.677000046E-1,4.117799759E0
7.961996875E0,-6.803999543E-1,1.273100019E0,3.602499962E0
7.981996875E0,-2.017999887E-1,1.394999981E0,2.627699852E0
8.001996875E0,2.412999868E-1,1.674299955E0,1.200999975E0
8.021996875E0,7.069000006E-1,1.719299912E0,3.143000007E-1
8.041996875E0,1.504699945E0,1.874599934E0,4.830999970E-1
8.061996875E0,1.803399920E0,1.674600005E0,5.091999769E-1
8.081996875E0,2.045199871E0,1.386699915E0,7.547000051E-1
8.101996875E0,2.177399874E0,1.373099923E0,2.500000000E-1
8.121996875E0,2.240900040E0,1.149699926E0,-5.913999677E-1
8.141996875E0,2.692199945E0,7.321000099E-1,-9.746999741E-1
8.161996875E0,2.927899837E0,-6.309999526E-2,-2.178299904E0
8.181996875E0,1.831099987E0,-2.796999812E-1,-3.533200026E0
8.201998438E0,9.046999812E-1,-2.307999879E-1,-4.561399937E0
8.231996875E0,2.565199852E0,-6.776999831E-1,-6.059099674E0
8.251996875E0,2.905699968E0,-3.289999962E-1,-4.012899876E0
8.271996875E0,8.675999641E-1,-1.569299936E0,-4.049699783E0
8.291996875E0,-2.229399920E0,-2.359299898E0,1.082099915E0
8.311998438E0,2.340999991E-1,-3.846799850E0,3.653499842E0
8.341996875E0,-1.049600005E0,-2.560899973E0,3.159099817E0
8.361996875E0,-1.047099948E0,-3.249699831E0,4.220999718E0
8.381996875E0,-7.224000096E-1,-4.349400043E0,3.797099829E0
8.401996875E0,-1.044999957E-1,-4.094399929E0,3.170599937E0
8.421996875E0,2.261999995E-1,-2.353800058E0,3.158599854E0
8.441996875E0,5.839999765E-2,-1.069299936E0,1.291100025E0
8.461996875E0,-2.234999985E-1,4.793999791E-1,1.245299935E0
8.481996875E0,-4.530999959E-1,1.842700005E0,7.540000081E-1
8.501996875E0,-2.954999804E-1,2.617100000E0,2.234999985E-1
8.521996875E0,-4.623999894E-1,3.116499901E0,2.298000008E-1
8.541996875E0,-1.242100000E0,3.508399963E0,4.292999804E-1
8.561996875E0,-1.726599932E0,3.413100004E0,2.001999915E-1
8.581996875E0,-1.775799990E0,3.450399876E0,1.829999872E-2
8.601998438E0,-1.834199905E0,3.372900009E0,-1.008999944E-1
8.631996875E0,-1.917299986E0,3.038699865E0,-1.394999921E-1
8.651996875E0,-1.941999912E0,2.611299992E0,-1.845999956E-1
8.671996875E0,-1.775099993E0,1.780099988E0,7.959999889E-2
8.691996875E0,-1.411599994E0,3.420999944E-1,2.822999954E-1
8.711996875E0,-6.711999774E-1,-1.102900028E0,-2.201000005E-1
8.731996875E0,4.039999843E-1,-2.724299908E0,-1.520799994E0
8.751996875E0,1.318799973E0,-3.028399944E0,-2.646600008E0
8.771996875E0,1.702399969E0,-2.458299875E0,-2.776099920E0
8.791996875E0,1.706799984E0,-2.862999916E0,-3.217399836E0
8.811996875E0,2.161299944E0,-3.968099833E0,-2.107100010E0
8.831996875E0,1.727199912E0,-3.807099819E0,-2.639099836E0
8.851996875E0,9.544000030E-1,-1.963699937E0,-3.268999815E0
8.871996875E0,1.290199995E0,-5.717999935E-1,-3.359299898E0
8.891996875E0,7.116000056E-1,1.404399991E0,-2.072499990E0
8.911996875E0,-2.953000069E-1,1.389400005E0,-3.792999983E-1
8.931996875E0,-1.915499926E0,1.728999913E-1,-3.210999966E-1
8.951996875E0,-3.546700001E0,-5.918999910E-1,4.095000029E-1
8.971996875E0,-3.802599907E0,-1.316399932E0,2.284499884E0
8.991996875E0,-2.919099808E0,-1.200999975E0,2.145400047E0
9.011996875E0,-1.575199962E0,-4.749999940E-1,1.654199958E0
9.031998438E0,-1.493199944E0,3.157999814E-1,2.633199930E0
9.051998438E0,-1.470899940E0,9.194999933E-1,3.192799807E0
9.081998438E0,-8.382999897E-1,1.560799956E0,2.311399937E0
9.111996875E0,2.391999960E-1,1.790099978E0,2.766999900E-1
9.131996875E0,9.908999801E-1,2.095099926E0,-1.234699965E0
9.151996875E0,2.124500036E0,1.821099997E0,-1.769099951E0
9.171996875E0,1.135200024E0,2.570099831E0,5.639999732E-2
9.191996875E0,1.454100013E0,2.098799944E0,1.377399921E0
9.211996875E0,1.359699965E0,1.786899924E0,1.631799936E0
9.231996875E0,1.597899914E0,1.384299994E0,1.230000019E0
9.251996875E0,2.246099949E0,1.104399920E0,-3.570999801E-1
9.271996875E0,3.178900003E0,9.348999858E-1,-1.830599904E0
9.291996875E0,3.983099937E0,6.953999996E-1,-2.715100050E0
9.311996875E0,4.019799709E0,-1.112800002E0,-2.979300022E0
9.331996875E0,2.797099829E0,-2.382499933E0,-2.329399824E0
9.351996875E0,1.386299968E0,-3.711899996E0,-2.095599890E0
9.371996875E0,-1.388899922E0,-4.960000038E0,-3.918599844E0
9.391996875E0,-3.568099976E0,-3.505100012E0,1.040599942E0
9.411998438E0,-2.694700003E0,-2.863699913E0,2.396199942E0
9.441996875E0,-1.771999955E0,-3.081499815E0,7.519999892E-2
9.461996875E0,-4.031499863E0,-3.948199987E0,1.536199927E0
9.481996875E0,-2.912600040E0,-4.183700085E0,2.800400019E0
9.501996875E0,-1.553099990E0,-2.190000057E0,2.696899891E0
9.521996875E0,-6.843000054E-1,-6.936999559E-1,8.244999647E-1
9.541996875E0,-7.534999847E-1,1.493799925E0,5.444999933E-1
9.561996875E0,-5.604999661E-1,2.779399872E0,2.532999814E-1
9.581996875E0,1.497000009E-1,3.430799961E0,1.379999965E-1
9.601996875E0,4.035999775E-1,3.944000006E0,8.147000074E-1
9.621996875E0,2.192000002E-1,4.088200092E0,7.173999548E-1
9.641996875E0,-3.361999989E-1,4.373099804E0,6.173999906E-1
9.661996875E0,-8.810999990E-1,4.027699947E0,6.276999712E-1
9.681996875E0,-1.594399929E0,3.477999926E0,5.489999652E-1
9.701996875E0,-2.234099865E0,2.582200050E0,1.923999935E-1
9.721996875E0,-2.264499903E0,1.453199983E0,-9.629999846E-2
9.741996875E0,-1.507599950E0,5.661999583E-1,7.869999856E-2
9.761996875E0,-6.032999754E-1,-2.362999916E-1,-4.717999995E-1
9.781996875E0,4.372999966E-1,-9.516999722E-1,-1.296299934E0
9.801996875E0,6.139000058E-1,-1.792400002E0,-2.640100002E0
9.821996875E0,1.248700023E0,-2.047600031E0,-3.536199808E0
9.841996875E0,1.947299957E0,-1.940599918E0,-3.075500011E0
9.861996875E0,2.467399836E0,-1.834899902E0,-2.385900021E0
9.881996875E0,2.651099920E0,-2.562599897E0,-2.266000032E0
9.901996875E0,2.661099911E0,-3.459599972E0,-1.229599953E0
9.921998438E0,1.188099980E0,-2.452499866E0,-6.717999578E-1
9.951996875E0,4.384000003E-1,5.130000040E-2,-4.104000032E-1
9.971996875E0,1.008399963E0,5.303999782E-1,3.247999847E-1
9.991998438E0,-2.561999857E-1,4.800999761E-1,8.865999579E-1
1.001199844E1,-2.409600019E0,-1.332999945E0,9.165999889E-1
1.003199844E1,-4.084599972E0,-1.816399932E0,9.814999700E-1
1.006199688E1,-4.546700001E0,-1.991499901E0,1.238999963E-1
1.008199688E1,-1.259599924E0,-1.065599918E0,6.665999889E-1
1.010199688E1,-2.847999930E-1,-1.014999971E-1,1.027599931E0
1.012199688E1,-3.925999999E-1,1.001199961E0,2.351300001E0
1.014199688E1,3.111999929E-1,1.662199974E0,1.993499994E0
1.016199688E1,1.463699937E0,2.481199980E0,5.343999863E-1
1.018199688E1,1.684399962E0,2.701599836E0,-3.057999909E-1
1.020199688E1,1.104099989E0,3.039700031E0,1.260999918E0
1.022199688E1,1.325099945E0,2.342200041E0,4.124300003E0
1.024199688E1,9.180999994E-1,2.010599852E0,3.462599993E0
1.026199688E1,1.351799965E0,2.797399998E0,2.778800011E0
1.028199688E1,1.430699944E0,1.824799895E0,2.740299940E0
1.030199844E1,1.243600011E0,9.684999585E-1,1.680799961E0
1.032199844E1,1.300300002E0,6.850000024E-1,1.570500016E0
1.035199688E1,1.408100009E0,-3.929999843E-2,-2.162999958E-1
1.037199688E1,1.233899951E0,-5.123000145E-1,-1.556100011E0
1.039199688E1,-1.143999994E-1,-1.263899922E0,-2.942799807E0
1.041199688E1,1.950999975E0,-3.408200026E0,-7.346899986E0
1.043199844E1,3.163399935E0,-3.117199898E0,-8.086799622E0
1.045199844E1,3.036399841E0,-2.167500019E0,-5.700599670E0
1.047199844E1,2.523999929E0,-3.583799839E0,-5.257800102E0
1.049199844E1,-7.418999672E-1,-2.138200045E0,-3.726699829E0
1.052199688E1,-2.344300032E0,-9.142999649E-1,4.096799850E0
1.054199688E1,-1.420599937E0,-6.283000112E-1,1.703799963E0
1.056199688E1,-4.918999970E-1,-8.982999921E-1,-6.129999831E-2
1.058199688E1,-1.612699986E0,-1.516999960E0,1.760899901E0
1.060199688E1,-3.071300030E0,-3.060799837E0,3.566399813E0
1.062199688E1,-1.479799986E0,-3.493799925E0,3.948699951E0
1.064199688E1,6.319999695E-2,-2.969300032E0,4.237800121E0
1.066199688E1,-3.380999863E-1,-1.605599999E0,2.871299982E0
1.068199688E1,-6.574000120E-1,4.023000002E-1,1.669699907E0
1.070199844E1,-7.116000056E-1,1.628899932E0,5.683000088E-1
1.073199844E1,-1.354999989E-1,2.269099951E0,-2.258999944E-1
1.076199688E1,2.891999781E-1,2.393199921E0,1.168699980E0
1.078199688E1,-4.179999828E-1,2.891599894E0,1.870499969E0
1.080199688E1,-1.063199997E0,3.053099871E0,1.384299994E0
1.082199688E1,-8.596000075E-1,3.313499928E0,8.816999793E-1
1.084199688E1,-1.071799994E0,3.496500015E0,-1.578999907E-1
1.086199688E1,-1.397099972E0,3.506199837E0,-9.296000004E-1
1.088199688E1,-1.453799963E0,2.687000036E0,-9.914999604E-1
1.090199844E1,-9.501000047E-1,1.775499940E0,-1.398999989E-1
1.093199844E1,2.584999800E-1,-6.478999853E-1,-5.382999778E-1
1.096199688E1,1.154699922E0,-2.734799862E0,-2.631000042E0
1.098199688E1,1.778899908E0,-2.737900019E0,-3.054499865E0
1.100199688E1,2.522099972E0,-2.537699938E0,-4.350899696E0
1.102199688E1,2.797399998E0,-3.303699970E0,-5.390799999E0
1.104199688E1,1.512399912E0,-4.150499821E0,-4.473799706E0
1.106199688E1,1.544499993E0,-2.429999828E0,-2.370499849E0
1.108199688E1,9.082999825E-1,-9.024999738E-1,-1.265599966E0
1.110199688E1,-1.260000002E-2,-1.769099951E0,-3.410999775E-1
1.112200156E1,-2.109799862E0,-2.185400009E0,1.894000024E-1
1.115199688E1,-3.681799889E0,-2.668799877E0,1.574499965E0
1.117199688E1,-3.601899862E0,-1.430599928E0,1.044099927E0
1.119199688E1,-2.750599861E0,-5.533999801E-1,1.023999929E0
1.121199688E1,-2.507400036E0,2.307000011E-1,2.203399897E0
1.123199688E1,-2.417099953E0,1.163200021E0,3.279299974E0
1.125199688E1,-1.823499918E0,2.086499929E0,3.892099857E0
1.127199688E1,-2.078999877E-1,2.121700048E0,2.148799896E0
1.129199844E1,1.240000010E0,2.316400051E0,8.856999874E-1
1.132199844E1,1.348099947E0,2.639199972E0,1.091499925E0
1.134199844E1,1.265399933E0,3.113799810E0,2.380499840E0
1.137199688E1,1.207099915E0,2.506500006E0,3.516399860E0
1.139199844E1,1.014999986E0,2.255899906E0,3.210999966E0
1.141199844E1,8.909999728E-1,1.967999935E0,2.142099857E0
1.143199844E1,9.554999471E-1,1.239599943E0,1.205299973E0
1.146199688E1,1.822399974E0,-1.455999911E-1,-4.860999882E-1
1.148199688E1,2.194299936E0,-5.349000096E-1,-1.904500008E0
1.150199688E1,1.251099944E0,-9.434999824E-1,-2.786099911E0
1.152199688E1,5.435000062E-1,-1.523299932E0,-3.734699965E0
1.154199688E1,2.556799889E0,-2.900199890E0,-7.790299892E0
1.156199688E1,1.594299912E0,-3.475600004E0,-8.598299980E0
1.158199688E1,-9.858999848E-1,-3.893599987E0,-5.969500065E0
1.160199688E1,-6.369999647E-1,-2.894199848E0,-5.963399887E0
1.162199688E1,-2.372699976E0,4.323000014E-1,4.786600113E0
1.164199688E1,-1.632200003E0,-6.504999995E-1,4.368199825E0
1.166199688E1,-8.502999544E-1,2.283999920E-1,9.303999543E-1
1.168199688E1,-6.437999606E-1,-2.172899961E0,2.219999954E-2
1.170199688E1,-2.419299841E0,-1.823099971E0,1.995199919E0
1.172199688E1,-2.360800028E0,-2.856899977E0,3.790999889E0
1.174199688E1,1.342999935E-1,-3.760599852E0,3.676699877E0
1.176199688E1,9.957000017E-1,-2.382200003E0,2.514600039E0
1.178199688E1,-3.066999912E-1,-4.573999941E-1,2.285599947E0
1.180199688E1,-1.240599990E0,1.131500006E0,1.779899955E0
1.182199688E1,-1.396699905E0,2.125599861E0,1.476499915E0
1.184199688E1,-1.281499982E0,2.659899950E0,7.534999847E-1
1.186199688E1,-7.768999934E-1,2.775199890E0,7.050000131E-2
1.188199688E1,-1.178999990E-1,2.620199919E0,5.069999769E-2
1.190199688E1,5.529999733E-2,2.379099846E0,7.762999535E-1
1.192199688E1,-4.479999840E-2,2.522699833E0,1.319100022E0
1.194199688E1,-2.894999981E-1,2.955099821E0,8.291999698E-1
1.196199688E1,-6.326000094E-1,3.068799973E0,5.018000007E-1
1.198199688E1,-8.550999761E-1,2.618299961E0,5.525999665E-1
1.200199688E1,-6.686999798E-1,1.954899907E0,5.058000088E-1
1.202199688E1,-2.443999946E-1,1.126399994E0,7.909999788E-2
1.204199688E1,3.643999994E-1,3.060999811E-1,-5.916999578E-1
1.206199688E1,9.254999757E-1,-9.276999831E-1,-1.584999919E0
1.208199688E1,1.429499984E0,-2.275399923E0,-2.527499914E0
1.210199688E1,1.796399951E0,-2.965600014E0,-2.802700043E0
1.212199688E1,2.752599955E0,-3.138999939E0,-3.639099836E0
1.214199688E1,3.196499825E0,-3.508899927E0,-3.417399883E0
1.216199688E1,2.445600033E0,-3.859799862E0,-2.860499859E0
1.218199688E1,1.604399920E0,-2.663899899E0,-2.919399977E0
1.220199688E1,1.611599922E0,-7.401999831E-1,-2.550099850E0
1.222199688E1,9.574999809E-1,2.347999960E-1,-1.604200006E0
1.224199688E1,-1.743000001E-1,-4.369999766E-1,-4.972999990E-1
1.226199688E1,-1.817299962E0,-1.753099918E0,5.102999806E-1
1.228199688E1,-4.102099895E0,-2.306999922E0,9.800999761E-1
1.230199688E1,-3.870699883E0,-2.393599987E0,1.053300023E0
1.232199688E1,-2.352399826E0,-1.736199975E0,6.287999749E-1
1.234199688E1,-2.049000025E0,-5.181999803E-1,1.266099930E0
1.236199688E1,-2.172999859E0,6.372999549E-1,2.529299974E0
1.238199688E1,-1.897399902E0,1.731799960E0,3.349200010E0
1.240199688E1,-9.318999648E-1,2.362299919E0,2.651299953E0
1.242199688E1,4.450999796E-1,2.491600037E0,9.963999987E-1
1.244199688E1,1.404500008E0,2.131599903E0,7.479999959E-2
1.246199688E1,7.069000006E-1,2.265100002E0,5.936999917E-1
1.248200781E1,8.456999660E-1,2.294399977E0,2.200199842E0
1.251199688E1,1.307999939E-1,2.394299984E0,3.283099890E0
1.253199688E1,-7.859999686E-2,2.291899920E0,3.135999918E0
1.255199688E1,1.409000009E-1,2.086400032E0,2.280099869E0
1.257199688E1,6.169999763E-2,1.729799986E0,1.740499973E0
1.259199688E1,6.632999778E-1,9.522999525E-1,6.378999949E-1
1.261199688E1,1.740899920E0,1.409000009E-1,-5.970000029E-1
1.263199688E1,2.197499990E0,-1.075899959E0,-2.136899948E0
1.265199688E1,1.252300024E0,-1.223699927E0,-3.186599970E0
1.267199688E1,3.349299908E0,-2.803099871E0,-6.649299622E0
1.269199688E1,3.652400017E0,-2.871299982E0,-1.084319973E1
1.271199688E1,2.036299944E0,-2.297699928E0,-8.903499603E0
1.273199688E1,2.337999940E-1,-2.021999836E0,-7.708699703E0
1.275199688E1,-2.766199827E0,-2.773999870E-1,-8.078999519E-1
1.277199688E1,-2.504699945E0,-6.960999966E-1,7.674599648E0
1.279199844E1,-2.750699997E0,-1.058200002E0,4.621599674E0
1.282199844E1,-1.623399973E0,-1.894499898E0,9.651999474E-1
1.285199688E1,-3.109099865E0,-3.839299917E0,4.591799736E0
1.287199688E1,-2.425099850E0,-5.018599987E0,4.636300087E0
1.289199688E1,-5.059999973E-2,-4.725299835E0,3.624799967E0
1.291199688E1,5.194999576E-1,-2.233199835E0,2.047999859E0
1.293199688E1,-1.912999898E-1,-1.561999917E-1,9.577999711E-1
1.295199688E1,-1.089599967E0,1.101499915E0,7.394999862E-1
1.297199688E1,-1.551800013E0,2.233999968E0,4.554999769E-1
1.299199688E1,-9.858999848E-1,2.908900023E0,-1.524000019E-1
1.301199688E1,-6.122999787E-1,3.550199986E0,-1.407999992E-1
1.303199688E1,-6.024000049E-1,4.050600052E0,-4.323000014E-1
1.305199688E1,-7.827999592E-1,4.436100006E0,-5.746999979E-1
1.307199688E1,-1.297599912E0,4.589699745E0,-7.263000011E-1
1.309199688E1,-1.766999960E0,4.557899952E0,-6.114000082E-1
1.311199688E1,-1.766899943E0,3.897599936E0,-3.868999779E-1
1.313199688E1,-1.537099957E0,2.969699860E0,2.139999904E-2
1.315199688E1,-1.032799959E0,1.744699955E0,1.756999940E-1
1.317199688E1,-5.604000092E-1,2.583999932E-1,-2.099999972E-2
1.319199688E1,-2.547999918E-1,-1.568599939E0,-7.398999929E-1
1.321199688E1,3.145999908E-1,-3.610699892E0,-2.150699854E0
1.323199688E1,1.388599992E0,-4.131799698E0,-3.145699978E0
1.325199688E1,2.280599833E0,-3.913399935E0,-3.663599968E0
1.327199688E1,2.914799929E0,-3.095000029E0,-3.363399982E0
1.329199688E1,3.223500013E0,-3.553799868E0,-2.491099834E0
1.331199688E1,2.549199820E0,-3.712599993E0,-2.193799973E0
1.333199688E1,2.296099901E0,-2.385599852E0,-1.624899983E0
1.335199688E1,2.446399927E0,-1.625999957E-1,-9.580999613E-1
1.337199688E1,2.246099949E0,1.398899913E0,-1.986999959E-1
1.339199688E1,1.044899940E0,1.130999997E-1,5.200999975E-1
1.341199688E1,-1.352699995E0,-3.082299948E0,-1.594000012E-1
1.343199688E1,-3.511600018E0,-2.956899881E0,8.355000019E-1
1.345199688E1,-3.786700010E0,-2.595700026E0,8.779999614E-1
1.347199688E1,-2.353800058E0,-1.172999978E0,9.138000011E-1
1.349199688E1,-2.125200033E0,2.775999904E-1,1.892499924E0
1.351199688E1,-2.113100052E0,1.133899927E0,3.161899805E0
1.353199688E1,-1.164699912E0,2.117599964E0,3.541800022E0
1.355199688E1,9.361999631E-1,2.330699921E0,1.224900007E0
1.357199688E1,1.963199973E0,2.427000046E0,-6.527999640E-1
1.359199688E1,1.382200003E0,3.037600040E0,5.209999681E-1
1.361199688E1,1.387399912E0,3.384799957E0,2.572700024E0
1.363199688E1,7.285000086E-1,2.644999981E0,3.415499926E0
1.365199688E1,6.999999750E-4,2.455299854E0,3.813099861E0
1.367199688E1,-3.504999876E-1,2.262599945E0,3.518499851E0
1.369199688E1,-2.017999887E-1,1.621699929E0,2.278599977E0
1.371199688E1,7.457999587E-1,1.023299932E0,1.475600004E0
1.373199688E1,1.159799933E0,2.639999986E-1,2.824999988E-1
1.375199688E1,1.432600021E0,-9.869999439E-2,-8.215000033E-1
1.377199688E1,1.363699913E0,-3.910000026E-1,-2.033200026E0
1.379199688E1,9.467999935E-1,-1.225399971E0,-4.549699783E0
1.381199688E1,3.325199842E0,-3.068799973E0,-7.543999672E0
1.383199688E1,2.953399897E0,-4.107399940E0,-1.049499989E1
1.385199688E1,1.855999976E-1,-2.337599993E0,-8.381699562E0
1.387199688E1,-7.647999525E-1,-1.604799986E0,-9.493299484E0
1.389199688E1,-3.376899958E0,1.543299913E0,2.228399992E0
1.391199688E1,-2.490399837E0,1.669999957E-1,7.246500015E0
1.393199688E1,-8.540999889E-1,-2.392699957E0,4.345699787E0
1.395199688E1,-1.255699992E0,-3.710899830E0,7.003999949E-1
1.397199688E1,-3.026299953E0,-3.530099869E0,2.880899906E0
1.399199688E1,-3.934799910E0,-4.651599884E0,4.942499638E0
1.401199688E1,-1.766999960E0,-4.944600105E0,4.420799732E0
1.403199688E1,6.590999961E-1,-3.502300024E0,2.815899849E0
1.405199688E1,1.585000008E-1,-1.342399955E0,2.083099842E0
1.407199688E1,-9.505999684E-1,3.023999929E-1,2.605599880E0
1.409199688E1,-1.145099998E0,1.391999960E0,2.745399952E0
1.411199688E1,-1.016299963E0,2.285300016E0,2.085700035E0
1.413199688E1,-9.241999984E-1,3.316299915E0,1.080600023E0
1.415199688E1,-6.635999680E-1,4.246500015E0,1.027999967E-1
1.417199688E1,-1.063599944E0,4.814099789E0,-1.946999878E-1
1.419199688E1,-1.477599978E0,4.808099747E0,1.248999983E-1
1.421199688E1,-1.613299966E0,4.829099655E0,-5.103999972E-1
1.423199688E1,-2.072299957E0,4.695499897E0,-1.099900007E0
1.425199688E1,-1.861599922E0,3.554099798E0,-1.413800001E0
1.427199688E1,-9.914000034E-1,2.094099998E0,-1.449899912E0
1.429199688E1,-2.137999982E-1,4.001999795E-1,-1.144099951E0
1.431199688E1,8.479999900E-1,-1.529699922E0,-1.984399915E0
1.433199688E1,1.894199967E0,-2.541399956E0,-2.465199947E0
1.435199688E1,2.952199936E0,-3.557299852E0,-2.944200039E0
1.437199688E1,3.947999954E0,-3.972199917E0,-3.154899836E0
1.439199688E1,4.278500080E0,-3.806999922E0,-3.297399998E0
1.441199688E1,3.217099905E0,-3.608099937E0,-2.748100042E0
1.443199688E1,1.784500003E0,-4.105000019E0,-2.257400036E0
1.445199688E1,9.104999900E-1,-3.023599863E0,-1.100199938E0
1.447199688E1,7.583000064E-1,-9.141999483E-1,-1.043799996E0
1.449199688E1,6.740999818E-1,4.539999738E-2,-1.139799953E0
1.451199688E1,-1.344900012E0,-9.290000051E-2,-2.060000040E-2
1.453199688E1,-4.232800007E0,-1.662499905E0,1.408100009E0
1.455199688E1,-5.007599831E0,-2.107800007E0,2.570699930E0
1.457199688E1,-3.531299829E0,-1.564799905E0,2.099699974E0
1.459199688E1,-1.984399915E0,-1.085899949E0,1.339399934E0
1.461199844E1,-9.653999805E-1,3.749999776E-2,6.588999629E-1
1.464199688E1,1.211999953E-1,1.625000000E0,1.791999936E-1
1.466199688E1,6.954999566E-1,2.131000042E0,9.395999908E-1
1.468199688E1,1.227900028E0,2.178999901E0,1.172899961E0
1.470199688E1,1.168900013E0,2.285500050E0,1.563399911E0
1.472199688E1,1.142199993E0,2.150300026E0,2.901399851E0
1.474199688E1,8.947999477E-1,1.584800005E0,3.513499975E0
1.476199688E1,3.488000035E-1,1.328799963E0,3.066799879E0
1.478199688E1,8.500000089E-2,1.714999914E0,2.330199957E0
1.480199688E1,-3.029999882E-2,2.146600008E0,1.497299910E0
1.482199688E1,-9.999999776E-3,2.194599867E0,1.888499975E0
1.484199688E1,8.159999549E-2,1.899799943E0,2.039499998E0
1.486199688E1,2.829999924E-1,6.757000089E-1,6.872999668E-1
1.488199688E1,2.581999898E-1,8.399999887E-2,-2.011199951E0
1.490199844E1,-1.876000017E-1,-6.495000124E-1,-5.372999668E0
1.492199844E1,1.255399942E0,-1.848399997E0,-4.970200062E0
1.494199844E1,1.871799946E0,-3.384899855E0,-4.089399815E0
1.496200000E1,2.070199966E0,-5.242799759E0,-7.461999893E0
1.499199688E1,6.879999489E-2,-2.018300056E0,-6.371699810E0
1.501199844E1,-1.586199999E0,-6.984999776E-1,6.617000103E-1
1.504199688E1,-3.170000017E-1,-1.917999983E-1,3.590499878E0
1.506199688E1,-4.600000102E-3,-5.920000076E-1,1.352699995E0
1.508199688E1,-1.624899983E0,-7.798999548E-1,2.203899860E0
1.510199688E1,-1.587000012E0,-2.777299881E0,3.677699804E0
1.512199688E1,-8.521999717E-1,-4.390599728E0,4.464900017E0
1.514199688E1,6.069999933E-2,-3.430699825E0,4.011199951E0
1.516199688E1,1.213999987E-1,-1.552399993E0,2.932799816E0
1.518199688E1,-3.488000035E-1,-1.269000024E-1,2.407599926E0
1.520199688E1,-8.475999832E-1,1.111799955E0,2.014899969E0
1.522199688E1,-8.421999812E-1,1.764400005E0,1.924999952E0
1.524199688E1,-6.125999689E-1,2.252300024E0,1.789099932E0
1.526199844E1,-3.288999796E-1,2.493999958E0,1.377900004E0
1.529199688E1,-3.368999958E-1,2.595599890E0,5.782999992E-1
1.531199688E1,-8.782999516E-1,2.686899900E0,4.241999984E-1
1.533199688E1,-1.328099966E0,2.821499825E0,3.161000013E-1
1.535199688E1,-1.660799980E0,3.008299828E0,2.087000012E-1
1.537199688E1,-1.716099977E0,2.935199976E0,-1.609999873E-2
1.539199688E1,-1.597399950E0,2.423899889E0,-1.991999894E-1
1.541199688E1,-1.253299952E0,1.433899999E0,-3.741999865E-1
1.543199688E1,-3.786000013E-1,2.199999988E-1,-9.283999801E-1
1.545199688E1,5.485999584E-1,-1.080899954E0,-1.873600006E0
1.547199688E1,1.165300012E0,-2.513799906E0,-3.428900003E0
1.549199688E1,2.054499865E0,-2.643299818E0,-3.811299801E0
1.551199688E1,2.681999922E0,-2.959100008E0,-3.873499870E0
1.553199688E1,3.010399818E0,-4.214699745E0,-4.380499840E0
1.555199688E1,2.260499954E0,-5.422899723E0,-3.686100006E0
1.557199688E1,6.610999703E-1,-3.165999889E0,-2.206300020E0
1.559199688E1,5.184000134E-1,-4.957000017E-1,-1.138999939E0
1.561199688E1,3.723999858E-1,1.275200009E0,-3.938999772E-1
1.563199688E1,-7.419999689E-2,2.927999794E-1,6.589999795E-1
1.565199688E1,-1.957599998E0,-1.088999987E0,1.794999957E0
1.567199688E1,-4.028800011E0,-1.440599918E0,2.897099972E0
1.569199688E1,-3.945199966E0,-1.519799948E0,2.569399834E0
1.571199688E1,-2.601500034E0,-8.676999807E-1,1.439099908E0
1.573199688E1,-1.326599956E0,-1.985999942E-1,8.446999788E-1
1.575199688E1,-6.967999935E-1,6.613000035E-1,1.936599970E0
1.577199688E1,-7.346999645E-1,1.203099966E0,2.891799927E0
1.579199688E1,-4.677999914E-1,1.737499952E0,2.361599922E0
1.581199688E1,3.007999957E-1,1.916099906E0,1.647099972E0
1.583199844E1,1.147699952E0,1.704399943E0,-8.109999448E-2
1.586199688E1,9.274999499E-1,2.196799994E0,-8.468999863E-1
1.588199688E1,4.465999901E-1,2.895099878E0,9.949999452E-1
1.590199688E1,3.112999797E-1,2.086600065E0,1.725600004E0
1.592199688E1,3.425000012E-1,1.828199983E0,2.205100060E0
1.594199688E1,2.282999903E-1,1.564999938E0,1.618299961E0
1.596199688E1,2.247999907E-1,1.081399918E0,2.545000017E-1
1.598199688E1,9.892999530E-1,3.208000064E-1,-9.555999637E-1
1.600199688E1,1.347000003E0,-3.995999992E-1,-2.084100008E0
1.602199688E1,7.681999803E-1,-1.588999987E0,-3.067499876E0
1.604199688E1,-3.599999938E-3,-2.381799936E0,-4.544300079E0
1.606199688E1,4.267999828E-1,-2.923099995E0,-7.439099789E0
1.608199688E1,3.867999911E-1,-2.302000046E0,-8.089200020E0
1.610199688E1,-2.506999969E-1,-2.860299826E0,-5.174799919E0
1.612199688E1,-3.290999830E-1,-2.023000002E0,-2.050799847E0
1.614199688E1,-2.482800007E0,-1.050999984E-1,2.544299841E0
1.616199688E1,-1.329199910E0,3.177999854E-1,3.627199888E0
1.618199688E1,-4.878999889E-1,-4.949999973E-2,9.725999832E-1
1.620199688E1,-2.296999931E0,-4.812999964E-1,2.529399872E0
1.622199688E1,-1.658999920E0,-2.555500031E0,3.661799908E0
1.624199688E1,-8.109999895E-1,-3.427899837E0,4.212100029E0
1.626199688E1,4.071999788E-1,-2.932799816E0,2.908799887E0
1.628199688E1,1.023000002E0,-1.154199958E0,1.942899942E0
1.630199688E1,6.035999656E-1,3.231000006E-1,1.921999931E0
1.632199688E1,-8.039999753E-2,1.390399933E0,2.065399885E0
1.634199688E1,-3.461000025E-1,2.542500019E0,1.771999955E0
1.636199688E1,-4.657999873E-1,3.092000008E0,9.803999662E-1
1.638199688E1,-6.376999617E-1,3.849699974E0,6.502000093E-1
1.640199688E1,-8.988999724E-1,3.886299849E0,1.598999947E-1
1.642199688E1,-1.161000013E0,3.301299810E0,-4.433999956E-1
1.644199688E1,-1.034600019E0,2.557999849E0,-5.873999596E-1
1.646199688E1,-9.530999660E-1,1.901199937E0,-5.352999568E-1
1.648199688E1,-6.392999887E-1,1.288200021E0,-5.913999677E-1
1.650199688E1,-1.792999953E-1,6.999999881E-1,-8.886999488E-1
1.652199688E1,4.609999955E-1,-1.623999923E-1,-1.261699915E0
1.654199688E1,8.366000056E-1,-7.476999760E-1,-1.518099904E0
1.656199688E1,1.104900002E0,-1.713799953E0,-2.153699875E0
1.658199688E1,1.512300014E0,-2.682199955E0,-2.954399824E0
1.660199688E1,1.726799965E0,-3.168900013E0,-3.887099981E0
1.662199688E1,2.121299982E0,-2.263999939E0,-3.761999846E0
1.664199688E1,2.557299852E0,-2.250200033E0,-3.356999874E0
1.666199688E1,2.320199966E0,-3.008699894E0,-2.946399927E0
1.668199844E1,1.123299956E0,-2.244099855E0,-1.954499960E0
1.670199844E1,7.416999936E-1,-3.075000048E-1,-1.367599964E0
1.672199844E1,5.245000124E-1,3.951999843E-1,-9.009999633E-1
1.675199844E1,-1.999999881E-1,-1.894999981E0,1.926999986E-1
1.678199688E1,-2.775300026E0,-2.702999830E0,1.610000014E0
1.680199844E1,-3.484799862E0,-2.106199980E0,1.771999955E0
1.682199844E1,-2.911799908E0,-1.020900011E0,1.136399984E0
1.685199688E1,-2.366799831E0,7.190999985E-1,2.475299835E0
1.687199688E1,-1.974599957E0,1.662299991E0,3.355799913E0
1.689199688E1,-1.206599951E0,2.287600040E0,3.594999790E0
1.691199688E1,-4.982999861E-1,2.912699938E0,3.211699963E0
1.693199688E1,1.177699924E0,2.620599985E0,1.010599971E0
1.695199688E1,1.387300014E0,2.265599966E0,-5.579000115E-1
1.697199688E1,7.486000061E-1,2.810699940E0,7.504000068E-1
1.699199688E1,9.436999559E-1,2.883999825E0,2.224299908E0
1.701199688E1,8.017999530E-1,2.302899837E0,2.560499907E0
1.703199688E1,7.113999724E-1,2.220299959E0,2.696799994E0
1.705199688E1,4.438000023E-1,1.871399999E0,1.695400000E0
1.707199688E1,1.175099969E0,8.328999877E-1,3.409999907E-1
1.709199688E1,1.967799902E0,2.483000010E-1,-1.005100012E0
1.711199688E1,2.161999941E0,-7.015999556E-1,-2.296900034E0
1.713199688E1,9.565999508E-1,-1.765499949E0,-3.095899820E0
1.715199688E1,2.132900000E0,-3.171000004E0,-6.046499729E0
1.717199688E1,1.281899929E0,-2.850699902E0,-8.992499352E0
1.719199688E1,7.105999589E-1,-3.525300026E0,-8.845199585E0
1.721199844E1,3.005000055E-1,-2.990399837E0,-7.598199844E0
1.723199844E1,-2.288399935E0,-3.246999979E-1,4.248199940E0
1.725199844E1,-2.109400034E0,-1.468500018E0,6.148099899E0
1.728199688E1,-1.356699944E0,-2.336099863E0,2.017299891E0
1.730199688E1,-2.378499985E0,-3.384699821E0,3.040999889E0
1.732199688E1,-3.098999977E0,-4.636399746E0,3.895900011E0
1.734199688E1,-1.536899924E0,-4.477299690E0,3.562500000E0
1.736199688E1,3.454999924E-1,-2.930299997E0,1.544600010E0
1.738199688E1,1.410999894E-1,-6.886000037E-1,1.598899961E0
1.740199688E1,-7.822999954E-1,7.526999712E-1,1.725299954E0
1.742199688E1,-1.362800002E0,2.113800049E0,2.198400021E0
1.744199688E1,-1.284399986E0,3.013900042E0,1.675899982E0
1.746199688E1,-8.327999711E-1,3.709100008E0,8.270999789E-1
1.748199688E1,-1.024799943E0,4.472199917E0,3.671000004E-1
1.750199688E1,-1.468500018E0,4.716899872E0,-1.349999905E-1
1.752199688E1,-2.083499908E0,4.813199997E0,-2.497999966E-1
1.754199688E1,-2.523999929E0,4.616799831E0,-6.059999764E-2
1.756199688E1,-2.654099941E0,3.998899937E0,1.057999954E-1
1.758199688E1,-2.327199936E0,2.968899965E0,3.391999900E-1
1.760199688E1,-1.496899962E0,1.542500019E0,3.150000051E-2
1.762199688E1,-7.665999532E-1,-1.555999964E-1,-3.757999837E-1
1.764199688E1,1.092999950E-1,-2.172600031E0,-8.705999851E-1
1.766199688E1,1.594099998E0,-3.896299839E0,-1.790199995E0
1.768199688E1,2.967099905E0,-4.422399998E0,-2.541399956E0
1.770199688E1,3.910599947E0,-4.039599895E0,-2.548199892E0
1.772199844E1,4.624399662E0,-4.064799786E0,-2.498499870E0
1.775199688E1,3.721699953E0,-4.312900066E0,-2.575399876E0
1.777199688E1,1.613099933E0,-2.630399942E0,-3.041299820E0
1.779199688E1,9.748999476E-1,-2.757999897E-1,-3.430899858E0
1.781199688E1,5.557999611E-1,1.507300019E0,-2.235299826E0
1.783199688E1,4.219999909E-2,1.023000002E0,-6.238999963E-1
1.785199688E1,-1.364699960E0,-1.398699999E0,5.748999715E-1
1.787199688E1,-3.430199862E0,-2.364899874E0,2.177799940E0
1.789199688E1,-3.699499846E0,-2.009299994E0,3.132599831E0
1.791199688E1,-2.150799990E0,-1.129199982E0,2.048699856E0
1.793199688E1,-9.697999954E-1,-5.040999651E-1,1.858299971E0
1.795199688E1,-6.459999681E-1,9.564999938E-1,2.592099905E0
1.797199688E1,-4.361999929E-1,1.891399980E0,3.303900003E0
1.799199688E1,7.766000032E-1,2.224400043E0,2.469699860E0
1.801199688E1,2.694999933E0,1.585199952E0,-5.306999683E-1
1.803199688E1,1.302899957E0,2.204400063E0,-5.065000057E-1
1.805199688E1,1.533199906E0,3.203199863E0,1.328799963E0
1.807199688E1,8.848999739E-1,2.567399979E0,2.538100004E0
1.809199688E1,2.336999923E-1,2.047999859E0,3.423599958E0
1.811199688E1,-1.184999943E-1,1.953399897E0,3.842700005E0
1.813199688E1,-1.909999922E-2,1.476599932E0,2.817499876E0
1.815199688E1,1.040000003E-2,1.075899959E0,1.722799897E0
1.817199688E1,6.245999932E-1,1.850999892E-1,5.230000019E-1
1.819199688E1,1.640699983E0,-3.420999944E-1,-5.403000116E-1
1.821199844E1,1.870700002E0,-1.118999958E0,-2.005300045E0
1.824199688E1,-2.293999940E-1,-1.462000012E0,-3.660300016E0
1.826199844E1,4.842999876E-1,-2.086899996E0,-6.061299801E0
1.829199688E1,3.616499901E0,-2.444499969E0,-1.010509968E1
1.831199688E1,2.770299911E0,-2.612299919E0,-9.418099403E0
1.833199844E1,-1.347000003E-1,-7.957999706E-1,-5.435400009E0
1.836199844E1,-3.214699984E0,4.649999738E-2,8.629599571E0
1.839199844E1,-1.418699980E0,-3.151399851E0,3.729799986E0
1.841199844E1,-2.201499939E0,-3.551899910E0,1.477199912E0
1.844199844E1,-2.717399836E0,-3.669799805E0,4.335700035E0
1.847199688E1,6.899999827E-2,-3.912799835E0,3.108799934E0
1.849199688E1,3.739999980E-2,-1.737599969E0,2.154199839E0
1.851199688E1,-9.425999522E-1,-9.389999509E-2,2.179199934E0
1.853199688E1,-1.514599919E0,1.380999923E0,2.132099867E0
1.855199688E1,-1.691699982E0,2.698799849E0,1.685999990E0
1.857199688E1,-1.563300014E0,3.608699799E0,8.580999970E-1
1.859199688E1,-1.304199934E0,4.331200123E0,2.982999980E-1
1.861199688E1,-1.605099916E0,4.737199783E0,-9.779999405E-2
1.863199688E1,-1.994199991E0,4.789299965E0,-1.463999897E-1
1.865199688E1,-2.285099983E0,4.570600033E0,3.999999724E-3
1.867199688E1,-2.383299828E0,4.271899700E0,-7.970000058E-2
1.869199688E1,-2.116499901E0,3.508599997E0,-1.472000033E-1
1.871199688E1,-1.342399955E0,2.285599947E0,-1.847999990E-1
1.873199688E1,-8.915999532E-1,8.037999868E-1,-5.838999748E-1
1.875199688E1,-4.337999821E-1,-9.684000015E-1,-8.443999887E-1
1.877199688E1,5.751999617E-1,-3.643899918E0,-1.094499946E0
1.879199688E1,2.041699886E0,-4.880799770E0,-1.254400015E0
1.881199844E1,3.118799925E0,-4.612299919E0,-2.220200062E0
1.883199844E1,4.189599991E0,-5.108900070E0,-2.915199995E0
1.886199688E1,2.862499952E0,-5.105899811E0,-2.572099924E0
1.888199688E1,1.839599967E0,-3.474099874E0,-3.489699841E0
1.890199688E1,1.492900014E0,-8.090999722E-1,-3.764499903E0
1.892199688E1,8.118999600E-1,8.636999726E-1,-2.398599863E0
1.894199688E1,1.607999951E-1,6.679999828E-1,-8.490999937E-1
1.896199688E1,-1.815199971E0,-5.796999931E-1,1.539999992E-2
1.898199688E1,-4.229399681E0,-1.138000011E0,8.364999890E-1
1.900199688E1,-4.900899887E0,-1.130900025E0,1.610399961E0
1.902199688E1,-3.971899986E0,-1.101300001E0,1.325399995E0
1.904199688E1,-2.867699862E0,-7.199999876E-3,1.396999955E0
1.906199688E1,-2.315799952E0,1.224499941E0,2.006700039E0
1.908199688E1,-1.770599961E0,2.362299919E0,2.407799959E0
1.910199688E1,-7.870999575E-1,2.722899914E0,2.060799837E0
1.912199688E1,8.391999602E-1,2.540099859E0,1.634099960E0
1.914199688E1,2.408999920E0,1.750999928E0,7.566999793E-1
1.916199688E1,2.073199987E0,1.573499918E0,2.579999864E-1
1.918199688E1,2.213799953E0,2.446300030E0,1.838799953E0
1.920199688E1,2.285300016E0,2.341500044E0,2.878000021E0
1.922199688E1,1.729699969E0,2.121399879E0,3.590199947E0
1.924199688E1,1.511699915E0,2.319999933E0,3.874399900E0
1.926199688E1,1.402899981E0,1.797199965E0,3.261299849E0
1.928199688E1,1.287799954E0,9.016999602E-1,1.988699913E0
1.930199688E1,1.785599947E0,-4.034000039E-1,-3.844999969E-1
1.932199688E1,2.170199871E0,-1.422899961E0,-3.010900021E0
1.934199688E1,1.110399961E0,-2.675499916E0,-5.582099915E0
1.936199688E1,1.491500020E0,-2.988699913E0,-8.115399361E0
1.938199688E1,1.682599902E0,-2.976599932E0,-1.056019974E1
1.940199688E1,1.126199961E0,-1.935099959E0,-1.002269936E1
1.942199688E1,-1.337299943E0,-1.832199931E0,-7.807799816E0
1.944199688E1,-2.515100002E0,-7.541999817E-1,8.009999990E-2
1.946199688E1,-3.435699940E0,1.829999872E-2,8.167200089E0
1.948199688E1,-2.448799849E0,-2.334499836E0,5.648299694E0
1.950199688E1,-1.648399949E0,-3.719399929E0,1.065099955E0
1.952199688E1,-2.677299976E0,-2.999599934E0,1.229699969E0
1.954199688E1,-4.185299873E0,-3.167099953E0,3.388999939E0
1.956199688E1,-2.903399944E0,-3.387699842E0,4.361400127E0
1.958199688E1,-3.830000013E-2,-2.698099852E0,2.577699900E0
1.960199688E1,1.375999898E-1,-7.275999784E-1,1.960399985E0
1.962199688E1,-1.873999983E-1,7.540000081E-1,1.707599998E0
1.964199688E1,-4.271000028E-1,1.905799985E0,1.052799940E0
1.966199688E1,-5.002999902E-1,2.974299908E0,6.286000013E-1
1.968199688E1,-6.482999921E-1,3.534399986E0,-1.136999950E-1
1.970199688E1,-6.901999712E-1,3.766299963E0,-3.899999857E-1
1.972199688E1,-8.606999516E-1,3.909999847E0,-4.023000002E-1
1.974199688E1,-1.413200021E0,4.159599781E0,-3.599999845E-2
1.976199688E1,-1.997399926E0,4.341399670E0,5.446999669E-1
1.978199688E1,-2.128200054E0,4.016999722E0,8.546999693E-1
1.980199844E1,-1.825299978E0,3.257999897E0,9.131999612E-1
1.982200000E1,-1.165799975E0,2.130499840E0,7.269999981E-1
1.985199688E1,4.419999942E-2,-2.727999985E-1,7.059999555E-2
1.987199844E1,9.708999991E-1,-2.134399891E0,4.329999909E-2
1.990199688E1,2.470000029E0,-4.304599762E0,1.989999972E-2
1.992199688E1,3.236399889E0,-4.633500099E0,-8.769999743E-1
1.994199688E1,4.393700123E0,-4.537499905E0,-2.408299923E0
1.996199688E1,4.712399960E0,-5.239199638E0,-2.525099993E0
1.998199688E1,3.249300003E0,-3.999699831E0,-3.076699972E0
2.000199688E1,1.900900006E0,-1.958599925E0,-4.276899815E0
2.002199688E1,1.719499946E0,8.379999995E-1,-3.950500011E0
2.004199688E1,8.869999647E-1,2.064499855E0,-2.211099863E0
2.006199688E1,-2.151999921E-1,5.112999678E-1,-8.576999903E-1
2.008199688E1,-2.480200052E0,-1.579899907E0,8.209999651E-2
2.010199688E1,-4.180500031E0,-2.011699915E0,1.109699965E0
2.012199688E1,-4.203199863E0,-1.629899979E0,9.141999483E-1
2.014199688E1,-2.901199818E0,-6.214999557E-1,7.894999981E-1
2.016199688E1,-2.372299910E0,4.187999964E-1,1.580299973E0
2.018199688E1,-1.826099992E0,1.555499911E0,2.839499950E0
2.020199688E1,-5.809999704E-1,1.820499897E0,2.430099964E0
2.022199688E1,6.513000131E-1,2.315099955E0,1.114099979E0
2.024199844E1,2.132599831E0,1.717399955E0,-1.157400012E0
2.026199844E1,1.270799994E0,2.703699827E0,-8.841999769E-1
2.028199844E1,1.039299965E0,3.750899792E0,8.569999933E-1
2.030199844E1,4.143999815E-1,3.411700010E0,1.738299966E0
2.032199844E1,-4.407999814E-1,3.267999887E0,2.429499865E0
2.034199844E1,-4.961999953E-1,2.763799906E0,2.965399981E0
2.037199844E1,-5.638999939E-1,1.564199924E0,2.098999977E0
2.040199688E1,-2.841999829E-1,4.444999993E-1,-1.931999922E-1
2.042199844E1,9.771999717E-1,-3.459999859E-1,-1.697699904E0
2.045199688E1,2.973199844E0,-1.992100000E0,-3.159099817E0
2.047199688E1,4.174799919E0,-4.164299965E0,-8.366299629E0
2.049199688E1,3.614399910E0,-3.381899834E0,-1.155019951E1
2.051199844E1,3.370899916E0,-1.704599977E0,-7.263000011E0
2.054199844E1,3.175999820E-1,-2.017199993E0,-7.108199596E0
2.057199844E1,-3.389099836E0,1.410799980E0,1.156909943E1
2.059199844E1,-2.929600000E0,-1.589599967E0,4.242399693E0
2.061199844E1,-2.386600018E0,-4.014199734E0,4.632999897E-1
2.063199844E1,-3.713799953E0,-5.633100033E0,6.491999626E-1
2.065199844E1,-5.644499779E0,-4.383399963E0,4.206200123E0
2.068199844E1,-3.462499857E0,-3.759099960E0,4.528299809E0
2.071199688E1,-6.589999795E-1,-2.077499866E0,1.324999928E0
2.073199844E1,-3.622999787E-1,-3.761999905E-1,9.751999974E-1
2.075199844E1,-2.321999967E-1,1.052600026E0,1.902999878E-1
2.077199844E1,4.899999797E-1,2.265199900E0,-5.339999869E-2
2.080199844E1,8.095999956E-1,3.617999792E0,-6.796000004E-1
2.082199844E1,6.955999732E-1,4.442899704E0,-1.004799962E0
2.084199844E1,5.040000007E-2,5.062399864E0,-8.728999496E-1
2.087199688E1,-1.058899999E0,5.802299976E0,5.350000039E-2
2.089199688E1,-1.021999955E0,5.518199921E0,7.486999631E-1
2.091199844E1,-8.725999594E-1,4.500599861E0,1.734200001E0
2.094199844E1,-3.981999755E-1,2.084300041E0,1.738099933E0
2.097199844E1,2.157999873E-1,-2.816299915E0,9.406999946E-1
2.099199844E1,9.545999765E-1,-5.656499863E0,1.674000025E-1
2.101199844E1,1.796799898E0,-6.241600037E0,-1.374400020E0
2.103199844E1,3.332999945E0,-6.668599606E0,-3.964399815E0
2.105199844E1,5.562799931E0,-6.231299877E0,-5.018399715E0
2.108199844E1,4.316199780E0,-3.134500027E0,-4.711699963E0
2.111199844E1,1.708299994E0,6.640999913E-1,-2.850299835E0
2.113199844E1,1.229699969E0,2.111399889E0,-9.876999855E-1
2.116199688E1,1.263800025E0,9.642999768E-1,1.714100003E0
2.118199844E1,-2.203999907E-1,-5.805000067E-1,2.715999842E0
2.120199844E1,-2.482499838E0,-3.869699955E0,3.014999866E0
2.123199844E1,-4.569399834E0,-4.979999959E-1,4.850299835E0
2.125199844E1,-2.909499884E0,-9.299999475E-1,2.848899841E0
2.128199844E1,8.399999700E-3,1.556999981E-1,1.277400017E0
2.130199844E1,1.876299977E0,1.280499935E0,4.430999756E-1
2.132199844E1,3.938999891E0,1.344399929E0,-3.095899820E0
2.134199844E1,1.110199928E0,3.529500008E0,-2.341199875E0
2.137199844E1,7.537999749E-1,4.452699661E0,1.960699916E0
2.140199844E1,1.702999920E-1,2.561399937E0,4.711999893E0
2.143199688E1,-9.960999489E-1,2.032500029E0,5.839200020E0
2.145199844E1,-3.515999913E-1,1.729099989E0,4.856400013E0
2.147199844E1,-5.540999770E-1,1.308799982E0,3.178900003E0
2.150199688E1,-3.852999806E-1,-8.320000023E-2,1.105999947E0
2.152199844E1,3.545999825E-1,-7.444999814E-1,-9.237999916E-1
2.154199844E1,6.811000109E-1,-1.382300019E0,-4.421299934E0
2.156199844E1,7.964999676E-1,-2.052700043E0,-9.535299301E0
2.158199844E1,1.755999923E0,-4.354499817E0,-1.515839958E1
2.161199844E1,3.918399811E0,-1.149099946E0,-1.349949932E1
2.164199688E1,-3.091099977E0,-5.977999568E-1,-6.771199703E0
2.166199688E1,-5.256999969E0,7.021999955E-1,4.676499844E0
2.168199688E1,-1.304499984E0,-7.731999755E-1,7.308899879E0
2.170199844E1,2.497999966E-1,-4.133800030E0,7.515100002E0
2.172199844E1,-1.173699975E0,-3.818099976E0,3.457899809E0
2.175199844E1,-2.267600060E0,-4.199699879E0,6.631799698E0
2.177199844E1,-2.101199865E0,-4.623399734E0,6.760200024E0
2.180199844E1,-6.664999723E-1,-3.425099850E0,3.802199841E0
2.182199844E1,-6.690999866E-1,-1.658100009E0,2.922899961E0
2.184199844E1,-1.183899999E0,1.240999997E-1,2.028499842E0
2.187199844E1,-1.222199917E0,2.328199863E0,1.020599961E0
2.190199844E1,-1.151399970E0,3.908599854E0,3.086999953E-1
2.192199844E1,-1.383899927E0,4.781699657E0,-1.173999980E-1
2.194199844E1,-1.553499937E0,5.122299671E0,-4.291999936E-1
2.197199844E1,-1.486799955E0,4.659299850E0,-1.002999991E-1
2.199199844E1,-1.252200007E0,3.908799887E0,-1.879999936E-1
2.201199844E1,-8.977999687E-1,3.084899902E0,-3.815999925E-1
2.204199688E1,-5.041999817E-1,1.720999956E0,-6.414999962E-1
2.206199688E1,-4.362999797E-1,3.601000011E-1,-6.462000012E-1
2.208199688E1,-1.565999985E-1,-1.842000008E0,-7.312999964E-1
2.210199688E1,7.680999637E-1,-3.953399897E0,-6.150000095E-1
2.212199688E1,2.326599836E0,-4.907700062E0,-1.171299934E0
2.214199688E1,3.309599876E0,-4.769599915E0,-2.287199974E0
2.216199688E1,3.811899900E0,-6.107399940E0,-3.232899904E0
2.218199688E1,3.131299973E0,-4.973799706E0,-3.356799841E0
2.220199688E1,1.789699912E0,-2.052999973E0,-3.480599880E0
2.222199688E1,2.074499846E0,-3.446999788E-1,-2.145999908E0
2.224199688E1,1.059800029E0,9.096999764E-1,-6.383000016E-1
2.226199688E1,-1.456900001E0,-7.955999970E-1,-8.559999615E-2
2.228199688E1,-4.307799816E0,-2.670599937E0,4.449999928E-1
2.230199688E1,-5.009599686E0,-1.885800004E0,1.638499975E0
2.232199688E1,-3.930199862E0,-4.951999784E-1,1.225899935E0
2.234199688E1,-2.807999849E0,6.861999631E-1,-1.523000002E-1
2.236199688E1,-2.173899889E0,2.112999916E0,2.047999948E-1
2.238199688E1,-2.782999873E-1,2.253099918E0,-3.533999920E-1
2.240199688E1,1.944499969E0,2.000200033E0,-1.242799997E0
2.242199688E1,9.968999624E-1,2.523299932E0,-5.352999568E-1
2.244199688E1,1.980599999E0,2.673499823E0,1.830799937E0
2.246199688E1,1.985899925E0,2.895099878E0,3.832299948E0
2.248200313E1,1.541199923E0,3.084499836E0,4.271100044E0
2.251199688E1,4.454999864E-1,2.522500038E0,3.769500017E0
2.253199688E1,3.999999762E-1,1.997899890E0,2.181099892E0
2.255199844E1,7.609999776E-1,1.477899909E0,1.389500022E0
2.258199844E1,1.479300022E0,6.893000007E-1,-7.700999975E-1
2.261199844E1,2.514999866E0,-2.782000005E-1,-3.004400015E0
2.263199844E1,2.135299921E0,-1.254299998E0,-4.427199841E0
2.266199844E1,1.668900013E0,-2.983899832E0,-9.663799286E0
2.268199844E1,2.670300007E0,-2.441999912E0,-6.887599945E0
2.270199844E1,2.200299978E0,-1.908399940E0,-6.229799747E0
2.273199844E1,-3.704599857E0,-1.044999957E-1,6.186500072E0
2.275199844E1,-2.653899908E0,-8.842999935E-1,9.181699753E0
2.277199844E1,-2.496999979E0,-2.722100019E0,1.868299961E0
2.280199844E1,-2.849999905E0,-5.294300079E0,8.768000007E-1
2.283199844E1,-3.486699820E0,-5.155600071E0,5.041899681E0
2.286199688E1,-7.572000027E-1,-3.690399885E0,1.241299987E0
2.288199688E1,1.026000008E-1,-1.620599985E0,1.434999943E0
2.290199844E1,-2.475999892E-1,5.202000141E-1,1.209100008E0
2.293199688E1,-3.043999970E-1,2.464299917E0,8.835999966E-1
2.295199688E1,1.375999898E-1,3.293299913E0,5.672000051E-1
2.297199688E1,4.184999764E-1,4.041299820E0,4.614999890E-1
2.299199688E1,-3.759999946E-2,4.679699898E0,2.692999840E-1
2.301199688E1,-8.078999519E-1,5.024600029E0,2.506999969E-1
2.303199688E1,-1.518000007E0,5.038599968E0,5.586000085E-1
2.305199844E1,-1.784299970E0,4.831699848E0,9.233999848E-1
2.307199844E1,-1.674899936E0,4.170399666E0,3.878999949E-1
2.309199844E1,-1.352800012E0,2.933899879E0,-2.750000060E-1
2.311199844E1,-4.895999730E-1,1.637799978E0,-4.644999802E-1
2.314199688E1,8.057999611E-1,-1.197700024E0,-1.287299991E0
2.316199688E1,2.385999918E0,-3.317899942E0,-1.779500008E0
2.318199844E1,3.696599960E0,-4.219099998E0,-2.867699862E0
2.320199844E1,4.877199650E0,-4.072799683E0,-3.452299833E0
2.323199844E1,4.410999775E0,-4.533400059E0,-2.592900038E0
2.325199844E1,2.509299994E0,-4.666699886E0,-2.123999834E0
2.327199844E1,4.316999912E-1,-2.764400005E0,-1.671299934E0
2.330199844E1,2.336999923E-1,9.108999968E-1,-1.458699942E0
2.332199844E1,-7.440000027E-2,1.149299979E0,-1.241500020E0
2.334199844E1,-2.163199902E0,-2.343999863E0,-1.362900019E0
2.337199844E1,-4.933499813E0,-3.697700024E0,1.571900010E0
2.340199844E1,-2.075099945E0,-1.939399958E0,8.743000031E-1
2.342199844E1,-1.441799998E0,-2.102999985E-1,5.600999594E-1
2.345199688E1,-8.453999758E-1,1.513599992E0,2.561599970E0
2.347199688E1,-4.359000027E-1,2.383199930E0,3.529500008E0
2.349199688E1,9.626999497E-1,2.785599947E0,2.693399906E0
2.351199688E1,1.971499920E0,2.870899916E0,6.952999830E-1
2.353199688E1,1.515499949E0,3.228600025E0,1.406000018E0
2.355199688E1,1.645299911E0,3.340099812E0,2.701400042E0
2.357199688E1,1.086799979E0,2.990399837E0,3.735699892E0
2.359199688E1,3.752000034E-1,2.763799906E0,3.694999933E0
2.361199688E1,2.606000006E-1,2.513399839E0,2.758699894E0
2.363199688E1,3.680000007E-1,2.042599916E0,2.330699921E0
2.365199688E1,1.179199934E0,1.206300020E0,1.132900000E0
2.367199688E1,1.341599941E0,-9.999999747E-5,-6.664999723E-1
2.369199844E1,1.083899975E0,-5.850999951E-1,-1.940999985E0
2.372199688E1,-1.011600018E0,-1.977799892E0,-5.524499893E0
2.374199688E1,1.570699930E0,-3.214999914E0,-1.292070007E1
2.376199688E1,2.121599913E0,-1.779799938E0,-1.191349983E1
2.378199688E1,2.057100058E0,-4.153999984E-1,-7.983399868E0
2.380199688E1,6.109999865E-2,-2.137099981E0,-6.820199966E0
2.382199844E1,-4.358500004E0,-5.248000026E-1,7.942099571E0
2.384199844E1,-2.804100037E0,-2.037899971E0,9.585899353E0
2.387199844E1,-1.160799980E0,-3.473899841E0,1.600799918E0
2.390199844E1,-3.081399918E0,-3.469099998E0,3.914399862E0
2.393199688E1,-1.886599898E0,-5.264400005E0,4.717199802E0
2.395199844E1,2.854999900E-1,-3.983199835E0,2.577399969E0
2.398199688E1,3.718999922E-1,-1.285699964E0,1.646399975E0
2.400199688E1,4.399999976E-3,1.790999919E-1,1.082599998E0
2.402199844E1,-3.560999930E-1,1.801899910E0,1.803999990E-1
2.404199844E1,-2.549000084E-1,3.105199814E0,-5.403000116E-1
2.407199688E1,-5.536000133E-1,4.838599682E0,-1.147499919E0
2.409199688E1,-1.054199934E0,5.365299702E0,-7.721999884E-1
2.411199844E1,-1.610599995E0,5.424499989E0,2.679999918E-2
2.414199844E1,-1.850999951E0,4.750099659E0,1.163399935E0
2.416199844E1,-1.425400019E0,3.704199791E0,1.322399974E0
2.418199844E1,-7.242999673E-1,2.469199896E0,1.137899995E0
2.420199844E1,-5.680000037E-2,1.092399955E0,6.773999929E-1
2.423199844E1,1.398199916E0,-1.870499969E0,-6.570999622E-1
2.425199844E1,2.565700054E0,-3.869999886E0,-2.048599958E0
2.427199844E1,3.903499842E0,-3.921000004E0,-3.619899988E0
2.430199844E1,4.717299938E0,-3.858599901E0,-4.350500107E0
2.433199844E1,3.112499952E0,-3.658200026E0,-3.053799868E0
2.436199688E1,8.775999546E-1,-1.163299918E0,-2.763900042E0
2.438199688E1,3.445999920E-1,3.938999772E-1,-1.397699952E0
2.440199844E1,-2.789999843E-1,4.330999851E-1,1.329999976E-2
2.443199688E1,-2.431599855E0,-2.401499987E0,1.565899968E0
2.445199688E1,-2.582399845E0,-2.986500025E0,2.559399843E0
2.447199844E1,-1.722899914E0,-2.812899828E0,1.962999940E0
2.449199844E1,-1.063400030E0,-1.405099988E0,1.480299950E0
2.452199844E1,-8.585000038E-1,5.415999889E-1,2.081899881E0
2.455199688E1,-2.746999860E-1,1.810400009E0,8.894999623E-1
2.457199844E1,5.372999907E-1,2.710299969E0,5.647000074E-1
2.460199688E1,4.720000029E-1,3.344300032E0,3.491999805E-1
2.462199844E1,7.939999551E-2,3.720399857E0,2.330499887E0
2.465199688E1,-7.263999581E-1,3.208799839E0,3.394099951E0
2.467199688E1,-8.068999648E-1,2.444099903E0,2.801499844E0
2.469199844E1,-3.470000029E-1,1.835099936E0,2.610499859E0
2.472199688E1,8.176999688E-1,3.716999888E-1,4.210999906E-1
2.474199688E1,8.445999622E-1,-4.708999991E-1,-1.597800016E0
2.476199688E1,8.596999645E-1,-1.368299961E0,-2.969799995E0
2.478199688E1,5.724999905E-1,-2.273799896E0,-3.493299961E0
2.480199688E1,-9.405999780E-1,-2.829599857E0,-6.348000050E0
2.482199688E1,-1.504199982E0,-2.464200020E0,-9.853699684E0
2.484199688E1,-2.543999851E-1,-1.905099988E0,-5.736499786E0
2.486199688E1,6.473999619E-1,-3.230099916E0,-3.184799910E0
2.488199688E1,3.980000019E-1,-2.288399935E0,-2.205100060E0
2.490199688E1,-2.581599951E0,2.044499874E0,6.021699905E0
2.492199688E1,-2.359099865E0,2.561100006E0,4.741399765E0
2.494199688E1,-2.463999987E-1,-6.276999712E-1,8.931999803E-1
2.496199688E1,-2.297499895E0,-2.652699947E0,3.774399996E0
2.498199688E1,-1.090099931E0,-3.696899891E0,6.316999912E0
2.500199688E1,3.445999920E-1,-4.279699802E0,4.375000000E0
2.502199688E1,2.700399876E0,-4.029500008E0,3.507999778E-1
2.504199688E1,3.186899900E0,-2.758100033E0,-2.475999892E-1
2.506199688E1,1.599699974E0,-9.082999825E-1,-5.499999970E-3
2.508199688E1,5.429999828E-1,4.979999959E-1,-8.070999980E-1
2.510199688E1,-4.902999997E-1,2.254400015E0,-7.385999560E-1
2.512199844E1,-1.017300010E0,3.322299957E0,-5.783999562E-1
2.514199844E1,-1.159999967E0,3.503999949E0,-3.976999819E-1
2.516199844E1,-1.358600020E0,3.483299971E0,-8.689999580E-2
2.518199844E1,-1.570899963E0,3.453499794E0,5.216000080E-1
2.520199844E1,-1.644899964E0,3.418399811E0,1.105000019E0
2.523199844E1,-1.404099941E0,2.733799934E0,1.762399912E0
2.526199844E1,-6.492999792E-1,1.371099949E0,1.921499968E0
2.528199844E1,1.650999933E-1,-1.816999912E-1,8.881999850E-1
2.530199844E1,1.143499970E0,-8.625999689E-1,-1.093999967E-1
2.533199844E1,2.100299835E0,-1.759499907E0,-2.888700008E0
2.536199688E1,1.863699913E0,-1.088799953E0,-2.351399899E0
2.538199688E1,2.464099884E0,-1.763000011E0,-2.292099953E0
2.540199844E1,3.323599815E0,-2.914099932E0,-2.237599850E0
2.543199688E1,2.132400036E0,-2.096099854E0,-2.118599892E0
2.545199688E1,6.115999818E-1,-1.074100018E0,-2.642299891E0
2.547199844E1,2.206999958E-1,-1.481999904E-1,-2.336799860E0
2.550199688E1,-2.047899961E0,-1.505699992E0,-1.212999940E0
2.552199688E1,-3.366199970E0,-3.362099886E0,3.980000019E-1
2.554199844E1,-3.259099960E0,-3.340499878E0,1.968999982E0
2.556199844E1,-3.056299925E0,-2.261800051E0,1.802500010E0
2.559199688E1,-2.979799986E0,-6.739999652E-1,2.512500048E0
2.561199844E1,-2.832999945E0,9.246000051E-1,3.753199816E0
2.563199844E1,-2.048099995E0,1.365399957E0,3.830999851E0
2.566199844E1,-6.031000018E-1,2.664700031E0,3.032599926E0
2.568199844E1,1.184999943E-1,3.170799971E0,2.565999985E0
2.570199844E1,7.127999663E-1,3.380899906E0,1.694700003E0
2.573199844E1,1.818499923E0,3.047999859E0,-8.384999633E-1
2.576199844E1,6.258000135E-1,2.804999828E0,4.562999904E-1
2.578199844E1,1.321399927E0,1.622299910E0,8.774999976E-1
2.580199844E1,1.372599959E0,9.302999973E-1,7.440000027E-2
2.583199844E1,1.369199991E0,-1.274999976E-1,-2.040899992E0
2.586199688E1,2.312700033E0,-1.039199948E0,-4.206900120E0
2.588199688E1,1.307799935E0,-1.602100015E0,-5.332499981E0
2.590199844E1,6.437999606E-1,-1.339900017E0,-7.854499817E0
2.593199844E1,1.451499939E0,-4.901999831E-1,-6.651099682E0
2.595199844E1,2.696499825E0,-2.675999999E-1,-4.776700020E0
2.597199844E1,1.365700006E0,-3.303000033E-1,-4.847199917E0
2.600199688E1,-3.621799946E0,4.329999909E-2,4.644400120E0
2.602199844E1,-8.506999612E-1,-2.863799810E0,4.436199665E0
2.604199844E1,-2.147699833E0,-2.594300032E0,2.776099920E0
2.606199844E1,-2.467099905E0,-3.423499823E0,3.456499815E0
2.609199688E1,-1.779799938E0,-4.627099991E0,2.827499866E0
2.611199844E1,-1.379799962E0,-3.970299959E0,2.896800041E0
2.613199844E1,-1.179999948E0,-2.718699932E0,3.122200012E0
2.616199844E1,-7.723000050E-1,-3.685999811E-1,2.276099920E0
2.618199844E1,-3.901999891E-1,1.002300024E0,1.763999939E0
2.620199844E1,-2.404999882E-1,2.122999907E0,1.416499972E0
2.623199844E1,-3.515000045E-1,3.389799833E0,7.850999832E-1
2.626199844E1,-7.526999712E-1,4.115099907E0,2.963999808E-1
2.629199688E1,-1.211300015E0,4.163700104E0,4.657999873E-1
2.631199688E1,-1.137300014E0,3.777599812E0,3.394999802E-1
2.633199844E1,-9.001999497E-1,3.226799965E0,4.250000045E-2
2.636199688E1,-4.845999777E-1,1.978399992E0,-3.190999925E-1
2.638199844E1,-5.059999973E-2,3.718999922E-1,-9.013999701E-1
2.640199844E1,8.718000054E-1,-7.422999740E-1,-1.776699901E0
2.642199844E1,1.749300003E0,-2.116899967E0,-2.662299871E0
2.644199844E1,2.774199963E0,-2.789799929E0,-2.504400015E0
2.647199688E1,2.969199896E0,-3.067399979E0,-2.272199869E0
2.649199688E1,3.108899832E0,-3.994599819E0,-2.378399849E0
2.651199688E1,2.581599951E0,-5.294699669E0,-1.670300007E0
2.653199688E1,1.337199926E0,-3.845999956E0,-1.737999916E0
2.655199688E1,1.822699904E0,-1.703099966E0,-1.279799938E0
2.657199688E1,1.720199943E0,3.323999941E-1,-1.045799971E0
2.659199688E1,6.919999719E-1,1.373999953E0,1.481000036E-1
2.661199844E1,-1.285799980E0,4.238999784E-1,8.097999692E-1
2.663199844E1,-3.362699986E0,-6.631000042E-1,7.402999997E-1
2.666199688E1,-3.741699934E0,-6.976999640E-1,1.505899906E0
2.668199844E1,-2.127199888E0,1.746999919E-1,-2.840999961E-1
2.670199844E1,-1.384199977E0,1.184800029E0,-9.666000009E-1
2.673199688E1,-7.870999575E-1,2.050799847E0,1.137099981E0
2.675199688E1,6.209999695E-2,1.896399975E0,1.866299987E0
2.677199844E1,1.093899965E0,1.908999920E0,1.493099928E0
2.680199844E1,2.032899857E0,1.569999933E0,-5.909999833E-2
2.683199844E1,1.751299977E0,2.101599932E0,2.233599901E0
2.686199688E1,9.836999774E-1,1.874899983E0,2.524999857E0
2.688199688E1,9.174999595E-1,1.871499896E0,2.289000034E0
2.690199688E1,8.204999566E-1,1.706200004E0,1.403899908E0
2.692199688E1,1.464299917E0,1.127599955E0,4.621999860E-1
2.694199688E1,2.639999866E0,4.145999849E-1,-2.270999998E-1
2.696199688E1,3.367499828E0,-7.285999656E-1,-7.515000105E-1
2.698199688E1,2.160699844E0,-2.481999874E0,-2.253200054E0
2.700199688E1,6.017999649E-1,-2.830699921E0,-8.476900101E0
2.702199688E1,1.580299973E0,-1.771999955E0,-1.184099960E1
2.704199688E1,8.987999558E-1,-3.105199814E0,-9.791199684E0
2.706199688E1,-1.141799927E0,-2.370599985E0,-2.382499933E0
2.708199688E1,-1.932899952E0,-5.916000009E-1,1.214239979E1
2.710199688E1,-1.864899993E0,-2.180799961E0,9.142000198E0
2.712199688E1,-1.899499893E0,-2.781499863E0,1.075999975E0
2.714199688E1,-2.904700041E0,-4.573400021E0,-4.860999882E-1
2.716199688E1,-2.479599953E0,-3.305399895E0,5.680199623E0
2.718199688E1,-1.358199954E0,-3.971099854E0,4.076099873E0
2.720199844E1,3.824999928E-1,-4.192800045E0,1.770699978E0
2.723199844E1,4.339999855E-1,-1.319100022E0,-5.370000005E-1
2.726199844E1,3.422999978E-1,1.298399925E0,-1.065500021E0
2.729199688E1,-2.248999923E-1,3.031999826E0,-2.116999924E-1
2.731199688E1,-7.009999752E-1,3.744899988E0,2.983999848E-1
2.733199844E1,-1.159699917E0,3.989599943E0,5.564999580E-1
2.736199688E1,-1.812599897E0,4.279799938E0,5.127999783E-1
2.738199688E1,-1.938899994E0,4.233900070E0,3.673999906E-1
2.740199688E1,-1.922099948E0,4.221499920E0,5.386999846E-1
2.742199688E1,-1.935999990E0,3.628999949E0,7.642999887E-1
2.744199688E1,-1.633499980E0,2.754199982E0,1.151299953E0
2.746199688E1,-8.398999572E-1,1.533599973E0,3.294000030E-1
2.748199688E1,3.635999858E-1,-3.285999894E-1,-1.161800027E0
2.750199688E1,1.364300013E0,-2.323899984E0,-2.543900013E0
2.752199688E1,3.035799980E0,-3.754099846E0,-3.058300018E0
2.754199688E1,4.391299725E0,-4.031499863E0,-3.857399940E0
2.756199688E1,4.672399998E0,-3.771899939E0,-3.360399961E0
2.758199688E1,3.490199804E0,-5.143599987E0,-2.886199951E0
2.760199688E1,1.307099938E0,-3.600099802E0,-1.802999973E0
2.762199688E1,-1.059999987E-1,-1.500199914E0,-1.675799966E0
2.764199688E1,-5.859999731E-2,-1.223999932E-1,-3.827999830E-1
2.766199688E1,-1.166399956E0,-1.397999972E-1,8.049999923E-2
2.768199688E1,-2.592799902E0,-3.393299818E0,1.273399949E0
2.770199688E1,-3.862599850E0,-3.095700026E0,2.974599838E0
2.772199688E1,-2.857199907E0,-1.612199903E0,1.700299978E0
2.774199688E1,-1.687500000E0,-8.675999641E-1,1.346199989E0
2.776199844E1,-9.760999680E-1,5.681999922E-1,2.143199921E0
2.779199688E1,-3.605999947E-1,1.907099962E0,3.184399843E0
2.781199844E1,1.823999882E-1,2.379499912E0,2.919399977E0
2.783199844E1,1.075500011E0,2.603899956E0,2.144399881E0
2.785199844E1,1.265200019E0,2.287499905E0,1.377499938E0
2.787199844E1,1.325399995E0,1.934899926E0,3.718000054E-1
2.790199688E1,7.627999783E-1,2.305299997E0,1.566299915E0
2.792199688E1,8.447999954E-1,1.720999956E0,2.411900043E0
2.794199688E1,1.077000022E0,1.341699958E0,2.493299961E0
2.796199688E1,1.129999995E0,8.565999866E-1,1.651399970E0
2.798199688E1,1.199499965E0,1.908999979E-1,8.046000004E-1
2.800199688E1,1.898699999E0,-4.599999785E-1,1.425999999E-1
2.802199688E1,1.104399920E0,-7.759999633E-1,-2.762300014E0
2.804199688E1,-1.828599930E0,-3.748999834E-1,-4.966399670E0
2.806199688E1,-2.217999935E0,-5.698999763E-1,-3.401700020E0
2.808199688E1,-2.218899965E0,-1.484300017E0,-3.320499897E0
2.810199688E1,-1.375999928E0,-6.980999708E-1,-6.754199982E0
2.812199688E1,7.170999646E-1,-9.785999656E-1,-1.033139992E1
2.814199688E1,1.703799963E0,-1.574299932E0,-4.686199665E0
2.816199688E1,-1.079999935E-2,-1.356999993E0,-4.114999771E-1
2.818199688E1,-3.551000059E-1,-7.690999508E-1,3.270799875E0
2.820199844E1,5.428999662E-1,8.454999924E-1,3.700500011E0
2.823199844E1,9.719999880E-2,-2.274499893E0,4.137899876E0
2.826199844E1,8.071999550E-1,-4.433700085E0,7.403100014E0
2.829199688E1,1.327199936E0,-4.083899975E0,4.743799686E0
2.831199688E1,1.114599943E0,-2.512300014E0,1.621599913E0
2.833199844E1,6.581999660E-1,-9.932000041E-1,3.985999823E-1
2.836199688E1,-2.421999872E-1,1.084800005E0,1.164199948E0
2.838199688E1,-1.005100012E0,2.227499962E0,1.286199927E0
2.840199688E1,-1.521199942E0,3.009799957E0,8.376999497E-1
2.842199688E1,-1.741699934E0,2.964999914E0,2.132999897E-1
2.844199688E1,-1.495499969E0,2.602900028E0,-1.159999967E-1
2.846199688E1,-1.243099928E0,2.517099857E0,-3.772999942E-1
2.848200156E1,-1.073400021E0,2.533699989E0,-3.743000031E-1
2.851199688E1,-7.832999825E-1,2.415899992E0,-2.259999886E-2
2.853199688E1,-9.437999725E-1,2.024600029E0,1.953999996E-1
2.855199688E1,-9.827999473E-1,1.447799921E0,1.667999923E-1
2.857199688E1,-1.073300004E0,7.317000031E-1,-7.268999815E-1
2.859199688E1,-6.505999565E-1,4.559999704E-2,-1.982699990E0
2.861199688E1,2.038999945E-1,-7.042999864E-1,-3.069799900E0
2.863199688E1,5.001000166E-1,-1.531799912E0,-4.463299751E0
2.865199688E1,5.837999582E-1,-1.873799920E0,-4.380700111E0
2.867199688E1,6.259999871E-1,-2.813899994E0,-3.212299824E0
2.869199844E1,-4.939999804E-2,-4.363899708E0,-2.234499931E0
2.871199844E1,-6.814000010E-1,-2.761999846E0,1.664000005E-1
2.873199844E1,1.634999961E-1,-7.313999534E-1,-6.059999764E-2
2.876199844E1,-4.734999835E-1,7.243999839E-1,5.965999961E-1
2.879199688E1,-3.086099863E0,-1.501999944E-1,1.449999928E0
2.881199688E1,-3.470199823E0,-8.927999735E-1,1.246099949E0
2.883199844E1,-2.220499992E0,-1.538999915E0,3.765999973E-1
2.886199688E1,-2.728999853E-1,-1.948099971E0,9.052000046E-1
2.888199688E1,-2.453999966E-1,-1.443300009E0,2.169499874E0
2.890199844E1,-1.385999918E-1,-6.489999890E-1,2.900899887E0
2.892199844E1,4.217000008E-1,1.674000025E-1,2.723000050E0
2.895199688E1,8.502999544E-1,1.189399958E0,1.037500024E0
2.897199688E1,1.007399917E0,1.932399988E0,1.131999940E-1
2.899199688E1,7.889999747E-1,2.027099848E0,-7.996999621E-1
2.901199688E1,2.399999946E-1,2.266000032E0,-6.879999638E-1
2.903199688E1,2.863999903E-1,2.411099911E0,5.762000084E-1
2.905199688E1,3.401999772E-1,2.085199833E0,1.203299999E0
2.907199688E1,3.944999874E-1,1.831900001E0,1.575999975E0
2.909199688E1,4.255999923E-1,1.635299921E0,9.379999638E-1
2.911199688E1,9.468999505E-1,1.248299956E0,-3.761000037E-1
2.913199688E1,1.592199922E0,6.480999589E-1,-1.838799953E0
2.915199688E1,1.464900017E0,6.179000139E-1,-3.592799902E0
2.917199688E1,6.351999640E-1,-5.139999837E-2,-4.301899910E0
2.919199688E1,1.393999904E-1,-8.084999919E-1,-2.632599831E0
2.921199688E1,-8.240999579E-1,-1.374300003E0,-2.379499912E0
2.923199688E1,2.949000001E-1,-1.552199960E0,-5.813399792E0
2.925199688E1,-3.476999998E-1,-2.360000014E-1,-5.976199627E0
2.927199688E1,4.972999990E-1,-1.464999914E0,-4.553899765E0
2.929199688E1,-1.462399960E0,-1.497799993E0,-2.635999918E-1
2.931199688E1,-1.774899960E0,-2.021999836E0,3.593699932E0
2.933199688E1,-1.572899938E0,-8.722999692E-1,4.094099998E0
2.935199688E1,-1.191900015E0,-5.396000147E-1,4.250199795E0
2.937199688E1,-5.866000056E-1,-2.320999861E0,3.376899958E0
2.939199688E1,-5.877000093E-1,-2.740399837E0,2.825999975E0
2.941199688E1,3.009999916E-2,-3.203399897E0,2.494299889E0
2.943199688E1,7.770999670E-1,-3.168399811E0,6.125999689E-1
2.945199688E1,8.959999681E-1,-1.817799926E0,-6.723999977E-1
2.947199688E1,1.202000022E0,-7.738999724E-1,-8.765999675E-1
2.949199688E1,1.045799971E0,2.386999875E-1,-4.642999768E-1
2.951199688E1,2.305999994E-1,1.285200000E0,2.412000000E-1
2.953199688E1,-4.582999945E-1,2.205600023E0,4.343999922E-1
2.955199688E1,-8.809999824E-1,2.757200003E0,2.362999916E-1
2.957199688E1,-1.091400027E0,3.085199833E0,3.208999932E-1
2.959199688E1,-1.326799989E0,3.059799910E0,8.901000023E-1
2.961199688E1,-1.262799978E0,2.733000040E0,1.406199932E0
2.963199688E1,-8.937000036E-1,2.724599838E0,1.322799921E0
2.965199688E1,-3.989000022E-1,2.632499933E0,1.128600001E0
2.967199688E1,1.127000004E-1,2.340299845E0,5.543999672E-1
2.969199688E1,6.911000013E-1,2.026399851E0,-2.698000073E-1
2.971199688E1,1.160599947E0,1.345600009E0,-1.546700001E0
2.973199688E1,1.659500003E0,-1.665000021E-1,-3.873999834E0
2.975199688E1,2.296799898E0,-1.332899928E0,-5.492499828E0
2.977199688E1,2.465399981E0,-2.067600012E0,-4.464699745E0
2.979199688E1,2.397799969E0,-2.832499981E0,-2.980799913E0
2.981199844E1,2.349099874E0,-3.493099928E0,-2.561399937E0
2.983199844E1,1.439299941E0,-3.991799831E0,-1.747699976E0
2.985199844E1,3.086999953E-1,-2.978499889E0,-1.187899947E0
2.987199844E1,5.279999971E-2,-8.055999875E-1,-1.333299994E0
2.990199844E1,-1.258399963E0,5.101000071E-1,3.989999890E-1
2.993199688E1,-2.871999979E0,-1.957399964E0,3.020399809E0
2.995199688E1,-3.282099962E0,-2.355399847E0,3.782099962E0
2.997199844E1,-2.612499952E0,-2.231099844E0,1.582599998E0
2.999199844E1,-1.465699911E0,-1.593299985E0,4.120000005E-1
3.002199844E1,-7.397999763E-1,-3.809999824E-1,1.920699954E0
3.004199844E1,-1.664000005E-1,7.249000072E-1,2.131799936E0
3.006199844E1,4.796999991E-1,1.539099932E0,1.367399931E0
3.009199688E1,1.323799968E0,2.716599941E0,1.331099987E0
3.011199688E1,1.626199961E0,2.373800039E0,1.029399991E0
3.013199688E1,1.314499974E0,2.341300011E0,4.508999884E-1
3.015199688E1,7.014999986E-1,2.577100039E0,1.249199986E0
3.017199688E1,6.200999618E-1,2.452399969E0,2.284999847E0
3.019199688E1,4.147000015E-1,2.235100031E0,2.568199873E0
3.021199688E1,3.520999849E-1,2.021399975E0,1.846399903E0
3.023199688E1,8.474999666E-1,1.671700001E0,-1.796000004E-1
3.025199688E1,1.230899930E0,1.301199913E0,-1.987299919E0
3.027199688E1,1.272400022E0,4.741999805E-1,-3.513799906E0
3.029199688E1,5.194999576E-1,-5.616999865E-1,-4.227099895E0
3.031199844E1,2.654999793E-1,-1.599900007E0,-3.314699888E0
3.033199844E1,1.401799917E0,-2.183300018E0,-4.241199970E0
3.035199844E1,1.832399964E0,-2.122499943E0,-9.265899658E0
3.037199844E1,-3.874000013E-1,-2.221699953E0,-6.611799717E0
3.040199844E1,-3.285399914E0,-3.355999887E-1,1.245399952E0
3.043199688E1,-2.512399912E0,-1.332399964E0,5.069099903E0
3.045199688E1,-8.653999567E-1,-2.720099926E0,7.087999582E-1
3.047199688E1,-2.404899836E0,-3.090699911E0,2.435699940E0
3.049199688E1,-3.246999979E0,-4.198899746E0,3.507999897E0
3.051199688E1,-6.146999598E-1,-5.136099815E0,3.220299959E0
3.053199688E1,1.125999928E0,-3.982399940E0,1.440400004E0
3.055199688E1,-6.329999864E-2,-1.610199928E0,1.237100005E0
3.057199688E1,-5.378000140E-1,1.090999991E-1,6.987999678E-1
3.059199688E1,-8.445999622E-1,1.725699902E0,5.260000005E-2
3.061199688E1,-7.033999562E-1,2.935499907E0,-2.242999971E-1
3.063199688E1,-3.350999951E-1,3.260499954E0,7.471999526E-1
3.065199688E1,-2.766999900E-1,3.266899824E0,1.180899978E0
3.067199688E1,-3.243999779E-1,3.325099945E0,1.498099923E0
3.069199688E1,-5.457999706E-1,3.116600037E0,1.980199933E0
3.071199688E1,-9.475999475E-1,2.876299858E0,1.904599905E0
3.073199688E1,-7.555999756E-1,2.393800020E0,1.685599923E0
3.075199688E1,-6.480000019E-1,2.062199831E0,8.888999820E-1
3.077199688E1,-2.654999793E-1,1.651699901E0,8.801999688E-1
3.079199688E1,-3.553999960E-1,9.473999739E-1,-1.529999916E-2
3.081199844E1,-1.393000036E-1,2.002999932E-1,-1.362100005E0
3.083199844E1,3.213000000E-1,-7.716999650E-1,-3.107299805E0
3.086199688E1,2.004299879E0,-1.809499979E0,-5.042999744E0
3.088199688E1,2.791800022E0,-2.071399927E0,-2.735399961E0
3.090199688E1,2.703399897E0,-3.818300009E0,5.764999986E-1
3.092199688E1,3.570599794E0,-5.950799942E0,9.950999618E-1
3.094199688E1,2.786399841E0,-3.425299883E0,2.971299887E0
3.096199688E1,8.870999813E-1,1.958299994E0,-1.597700000E0
3.098199688E1,1.203299999E0,1.667999983E0,-7.953999639E-1
3.100199688E1,-9.769999981E-1,-6.542999744E-1,-2.692999840E0
3.102199688E1,-3.560499907E0,-2.784499884E0,-2.362799883E0
3.104199688E1,-4.862400055E0,-1.133700013E0,-2.661000013E0
3.106199688E1,-3.490299940E0,-1.178799987E0,2.428999990E-1
3.108199688E1,-2.458499908E0,-1.721199989E0,1.640999913E0
3.110199688E1,-2.350399971E0,-2.730999887E-1,3.820999861E-1
3.112199688E1,-1.303699970E0,6.919999719E-1,1.657999903E-1
3.114199688E1,-4.026999772E-1,2.187299967E0,-7.010999918E-1
3.116199688E1,-4.194999933E-1,3.401099920E0,-9.733999968E-1
3.118199688E1,-1.000599980E0,4.024199963E0,9.200000018E-2
3.120199844E1,-9.663999677E-1,4.176399708E0,1.759099960E0
3.123199688E1,-4.514999986E-1,2.844799995E0,3.833699942E0
3.125199688E1,6.516000032E-1,1.062999964E0,3.153399944E0
3.127199688E1,1.646099925E0,-4.962999821E-1,2.414700031E0
3.129199688E1,1.948199987E0,-5.060999990E-1,1.807799935E0
3.131199688E1,1.420599937E0,-3.999999762E-1,-3.859999776E-2
3.133199688E1,1.043499947E0,-1.127000004E-1,-2.230200052E0
3.135199688E1,1.165699959E0,9.539999813E-2,-3.624599934E0
3.137199688E1,1.539499998E0,-5.625999570E-1,-4.603899956E0
3.139199688E1,1.149299979E0,-1.667699933E0,-5.593899727E0
3.141199688E1,2.414999962E0,-2.549799919E0,-7.027099609E0
3.143199688E1,2.179399967E0,-1.401899934E0,-6.601099968E0
3.145199688E1,-1.150999963E-1,2.619000077E-1,-5.889999866E0
3.147199844E1,-3.269899845E0,9.980999827E-1,-1.343500018E0
3.150199844E1,-2.167500019E0,7.343999743E-1,2.970799923E0
3.153199688E1,-2.687899828E0,-3.052899837E0,4.208799839E0
3.155199688E1,-2.785399914E0,-4.068900108E0,4.538799763E0
3.157199688E1,-1.098999977E0,-3.736199856E0,3.962099791E0
3.159199688E1,1.401999891E-1,-2.664399862E0,1.640199900E0
3.161199688E1,4.204999804E-1,-1.404299974E0,7.633999586E-1
3.163199688E1,9.842000008E-1,-2.824999988E-1,1.047999978E0
3.165199688E1,1.715499997E0,7.796999812E-1,1.286199927E0
3.167199688E1,1.447999954E0,1.724499941E0,1.092399955E0
3.169199844E1,1.054499984E0,2.560999870E0,1.674299955E0
3.172199844E1,5.561999679E-1,2.901499987E0,2.110399961E0
3.175199688E1,1.077999994E-1,2.558599949E0,2.106299877E0
3.177199844E1,1.769999973E-2,2.196399927E0,1.855799913E0
3.180199844E1,-3.396999836E-1,1.439399958E0,1.082499981E0
3.183199844E1,-3.206000030E-1,7.412999868E-1,2.099999972E-2
3.186199844E1,3.191999793E-1,-6.195999980E-1,-1.108799934E0
3.189199688E1,1.179899931E0,-6.599000096E-1,-2.341500044E0
3.191199688E1,1.732999921E0,-1.529699922E0,-3.335299969E0
3.193199844E1,2.020099878E0,-2.209699869E0,-3.577699900E0
3.196199688E1,2.030400038E0,-1.516199946E0,-4.078799725E0
3.198199844E1,1.916700006E0,-2.348700047E0,-4.280399799E0
3.201199688E1,-5.830999613E-1,-1.909099936E0,-1.197199941E0
3.203199688E1,-1.699999906E-3,-1.372799993E0,6.922000051E-1
3.205199688E1,-8.445999622E-1,-2.292999923E-1,1.404099941E0
3.207199688E1,-2.619699955E0,-1.542299986E0,2.184700012E0
3.209199688E1,-4.590099812E0,-1.271299958E0,3.243499994E0
3.211199688E1,-4.604499817E0,-5.361999869E-1,2.991499901E0
3.213199688E1,-2.533799887E0,-7.394999862E-1,1.599799991E0
3.215199688E1,-1.519099951E0,-1.709999889E-1,7.211999893E-1
3.217199688E1,-9.139999747E-1,9.314999580E-1,1.158999950E-1
3.219199688E1,-4.554999769E-1,2.446199894E0,-9.499999881E-2
3.221199688E1,-9.869999439E-2,3.002799988E0,2.196999937E-1
3.223199688E1,3.032000065E-1,2.825299978E0,7.304999828E-1
3.225199688E1,7.210999727E-1,2.351899862E0,5.582999587E-1
3.227199688E1,1.159500003E0,1.869199991E0,-5.669999868E-2
3.229199688E1,8.262999654E-1,1.807899952E0,7.113999724E-1
3.231199688E1,8.460999727E-1,1.752599955E0,1.233999968E0
3.233199688E1,5.752999783E-1,1.696999907E0,1.231999993E0
3.235199688E1,7.657999992E-1,1.293200016E0,4.824999869E-1
3.237199688E1,1.372099996E0,5.164999962E-1,-1.495700002E0
3.239199688E1,1.843099952E0,-1.291999966E-1,-3.011600018E0
3.241199844E1,1.981599927E0,-5.710999966E-1,-3.641799927E0
3.243199844E1,9.686999917E-1,-1.342399955E0,-4.241300106E0
3.245199844E1,1.492399931E0,-1.657999992E0,-6.378599644E0
3.247199844E1,2.589400053E0,-1.214900017E0,-9.340000153E0
3.249199844E1,-2.676499844E0,-1.814299941E0,-5.620999813E0
3.252199844E1,-2.227699995E0,-1.153800011E0,6.158599854E0
3.254199844E1,4.052999914E-1,-2.580199957E0,3.124799967E0
3.257199844E1,-8.589999676E-1,-3.042099953E0,3.044600010E0
3.259199844E1,-2.088799953E0,-3.718999863E0,3.530900002E0
3.262199844E1,-4.323999882E-1,-3.266399860E0,3.907299995E0
3.265199688E1,2.270999998E-1,-1.431399941E0,2.130800009E0
3.267199688E1,1.253999919E-1,-2.543999851E-1,2.013200045E0
3.269199688E1,-4.019999877E-2,5.403999686E-1,2.108700037E0
3.271199688E1,-1.229999959E-2,1.016299963E0,1.858999968E0
3.273199844E1,8.129999787E-2,2.014999866E0,9.838999510E-1
3.276199844E1,6.830000132E-2,2.445299864E0,-1.896999925E-1
3.279199688E1,-8.096999526E-1,2.763299942E0,1.836999953E-1
3.281199844E1,-1.476899981E0,2.863499880E0,5.934000015E-1
3.284199688E1,-1.215999961E0,2.718699932E0,1.086400032E0
3.286199688E1,-4.651999772E-1,2.274299860E0,1.046599984E0
3.288199688E1,1.323999912E-1,1.376999974E0,4.605999887E-1
3.290199688E1,9.025999904E-1,4.513999820E-1,-3.161000013E-1
3.292199688E1,1.316699982E0,-8.730999827E-1,-1.808299899E0
3.294199688E1,1.644999981E0,-1.406000018E0,-3.421700001E0
3.296199688E1,2.153699875E0,-8.396999836E-1,-3.942999840E0
3.298199688E1,2.610100031E0,-1.513299942E0,-3.593099833E0
3.300199688E1,2.264199972E0,-2.707399845E0,-2.355599880E0
3.302199688E1,5.029999614E-1,-2.810999870E0,-1.432299972E0
3.304199688E1,-1.947999895E-1,-1.842399955E0,-1.863999963E-1
3.306199688E1,-4.600000009E-2,-1.730799913E0,4.345999956E-1
3.308199688E1,-7.967000008E-1,-2.294899940E0,1.860299945E0
3.310199688E1,-2.573199987E0,-3.253999949E0,2.934599876E0
3.312199688E1,-3.734200001E0,-2.376199961E0,2.310899973E0
3.314199688E1,-2.888299942E0,-1.285399914E0,8.127999902E-1
3.316199688E1,-1.814799905E0,-6.482999921E-1,1.999999881E-1
3.318199688E1,-1.343099952E0,2.886999846E-1,4.885999858E-1
3.320199844E1,-8.391000032E-1,1.561100006E0,3.410999775E-1
3.323199688E1,9.999999404E-2,3.214200020E0,7.959999889E-2
3.325199688E1,7.373999953E-1,3.582099915E0,6.845999956E-1
3.327199688E1,7.145999670E-1,3.412299871E0,1.691399932E0
3.329199688E1,5.177999735E-1,3.026199818E0,2.287299871E0
3.331199688E1,6.272999644E-1,2.480900049E0,2.355200052E0
3.333199688E1,9.422000051E-1,1.885299921E0,2.333499908E0
3.335199688E1,1.099699974E0,1.163900018E0,1.969399929E0
3.337199688E1,1.038499951E0,5.999999642E-1,9.705999494E-1
3.339199688E1,8.072999716E-1,9.989999980E-2,-6.071000099E-1
3.341199688E1,7.501999736E-1,-3.698999882E-1,-2.135299921E0
3.343199688E1,7.030000091E-1,-6.507999897E-1,-3.927299976E0
3.345199688E1,9.420000017E-2,-5.934000015E-1,-5.437200069E0
3.347199688E1,-1.021499991E0,-5.788999796E-1,-5.614599705E0
3.349199688E1,-9.959999919E-1,-1.340600014E0,-4.709799767E0
3.351199688E1,7.092999816E-1,-1.524599910E0,-6.156300068E0
3.353199688E1,2.610199928E0,-3.844999969E-1,-7.417699814E0
3.355199844E1,-3.587999940E-1,-4.610999823E-1,-5.771499634E0
3.357199844E1,-3.215799809E0,6.900999546E-1,-3.399999812E-2
3.359199844E1,-1.311999917E0,-1.115399957E0,3.718400002E0
3.362199844E1,-1.511600018E0,-2.832099915E0,2.899600029E0
3.365199688E1,-2.401799917E0,-4.096899986E0,4.091700077E0
3.367199688E1,-1.336399913E0,-3.455600023E0,3.752399921E0
3.369199844E1,-1.587199926E0,-2.363199949E0,2.654199839E0
3.371199844E1,-2.012699842E0,-4.603999853E-1,1.934199929E0
3.373199844E1,-1.517399907E0,7.707999945E-1,1.351899981E0
3.376199844E1,-8.689999580E-2,1.303200006E0,1.815599918E0
3.379199688E1,5.680999756E-1,1.685499907E0,1.904699922E0
3.381199844E1,6.121999621E-1,1.994499922E0,1.323400021E0
3.383199844E1,9.969999641E-2,2.189899921E0,1.349599957E0
3.385199844E1,-3.476999998E-1,2.332700014E0,1.439299941E0
3.388199688E1,-3.407999873E-1,2.481199980E0,1.258599997E0
3.390199844E1,-2.300000051E-3,2.203299999E0,1.130699992E0
3.392199844E1,4.565999806E-1,1.836199999E0,6.283999681E-1
3.395199844E1,1.341300011E0,8.847999573E-1,-1.115999937E0
3.397199844E1,1.954599977E0,-1.413999945E-1,-2.541199923E0
3.399199844E1,2.458299875E0,-8.165999651E-1,-2.909099817E0
3.401199844E1,2.578399897E0,-1.251899958E0,-2.865799904E0
3.403199844E1,1.906099916E0,-1.162899971E0,-3.024600029E0
3.405199844E1,1.381899953E0,-7.680000067E-1,-2.466399908E0
3.408199688E1,1.551800013E0,-2.103399992E0,-1.793399930E0
3.410199688E1,7.842999697E-1,-2.708199978E0,-2.771600008E0
3.412199844E1,4.425999820E-1,-1.614399910E0,-9.851999879E-1
3.415199688E1,-2.275999933E-1,-1.164299965E0,7.991999984E-1
3.417199844E1,-1.456300020E0,-1.983500004E0,2.381000042E0
3.419199844E1,-3.380499840E0,-3.277299881E0,3.396199942E0
3.421199844E1,-3.590699911E0,-2.744299889E0,1.691299915E0
3.423199844E1,-2.211999893E0,-1.607699990E0,1.155999973E-1
3.426199844E1,-1.800699949E0,3.376999795E-1,1.223999932E-1
3.429199688E1,-8.483999968E-1,2.131899834E0,-1.820999980E-1
3.431199688E1,7.750000060E-2,2.906999826E0,-4.649999738E-2
3.433199844E1,7.285999656E-1,3.230099916E0,4.587000012E-1
3.435199844E1,1.218699932E0,3.279500008E0,1.170499921E0
3.438199688E1,7.626000047E-1,3.034399986E0,1.994499922E0
3.440199844E1,5.432999730E-1,2.552599907E0,2.655699968E0
3.442199844E1,7.572999597E-1,1.685299993E0,2.825799942E0
3.445199688E1,9.842000008E-1,8.896999955E-1,2.493199825E0
3.447199844E1,7.245999575E-1,7.479000092E-1,6.463999748E-1
3.449199844E1,1.008399963E0,8.631999493E-1,-1.388299942E0
3.452199844E1,3.158099890E0,-6.214999557E-1,-3.719099998E0
3.454199844E1,2.758299828E0,-1.748399973E0,-4.443900108E0
3.456199844E1,1.300599933E0,-1.869799972E0,-4.434899807E0
3.459199844E1,2.901700020E0,-2.215899944E0,-8.213199615E0
3.462199844E1,2.698999941E-1,-1.225099921E0,-5.576299667E0
3.464199844E1,-4.218999863E0,4.308999777E-1,2.171399832E0
3.466199844E1,-3.059999943E0,-7.224000096E-1,6.525399685E0
3.469199844E1,4.018999934E-1,-2.878599882E0,2.466599941E0
3.471199844E1,-1.003899932E0,-3.083899975E0,3.053099871E0
3.473199844E1,-3.113899946E0,-3.556799889E0,3.299999952E0
3.476199844E1,-2.352399826E0,-2.208199978E0,2.239799976E0
3.479199688E1,-7.365999818E-1,-7.477999926E-1,5.500000119E-1
3.481199844E1,-6.719999760E-2,-1.588999927E-1,-2.212999910E-1
3.483199844E1,4.673999846E-1,3.522999883E-1,-2.795000076E-1
3.485199844E1,4.478999972E-1,1.504099965E0,-6.238999963E-1
3.488199844E1,3.745999932E-1,1.949099898E0,9.122999907E-1
3.490199844E1,-2.872000039E-1,2.388099909E0,1.437799931E0
3.492199844E1,-5.263999701E-1,2.695299864E0,1.458999991E0
3.495199688E1,-7.822999954E-1,2.479199886E0,1.367699981E0
3.497199844E1,-9.310999513E-1,2.442199945E0,1.103099942E0
3.499199844E1,-8.233999610E-1,2.278899908E0,8.244000077E-1
3.501199844E1,-5.052999854E-1,1.864199996E0,1.045999974E-1
3.504199688E1,4.569000006E-1,7.556999922E-1,-1.532699943E0
3.506199844E1,1.302500010E0,-3.752000034E-1,-2.559399843E0
3.509199844E1,2.222199917E0,-1.852099895E0,-3.208299875E0
3.512199844E1,2.353600025E0,-1.619799972E0,-2.424299955E0
3.515199688E1,2.240399837E0,-2.625900030E0,-1.053599954E0
3.517199688E1,9.706999660E-1,-2.672899961E0,-1.228600025E0
3.519199688E1,6.444000006E-1,-1.701900005E0,1.191999987E-1
3.521199688E1,5.346999764E-1,-1.001299977E0,1.098999977E-1
3.523199688E1,-1.979999989E-2,-1.538800001E0,1.141899943E0
3.525199688E1,-2.163899899E0,-2.987699986E0,2.242399931E0
3.527199688E1,-4.103399754E0,-3.365299940E0,2.155299902E0
3.529199688E1,-2.877399921E0,-2.366299868E0,9.450999498E-1
3.531199688E1,-1.582099915E0,-1.538299918E0,-4.406999946E-1
3.533199688E1,-1.091400027E0,-2.199999988E-2,-4.140999913E-1
3.535199688E1,-9.052000046E-1,1.633199930E0,-4.937999845E-1
3.537199688E1,-3.753999770E-1,2.664099932E0,3.799999831E-3
3.539199688E1,6.495999694E-1,2.967599869E0,5.425999761E-1
3.541199688E1,1.095700026E0,3.184299946E0,1.189999938E0
3.543199688E1,7.626000047E-1,3.177500010E0,1.943899989E0
3.545199688E1,7.190999985E-1,3.092499971E0,2.906699896E0
3.547199688E1,7.813999653E-1,2.595000029E0,3.185299873E0
3.549199688E1,6.883999705E-1,2.104099989E0,3.197799921E0
3.551199688E1,7.324999571E-1,1.508700013E0,3.087399960E0
3.553199688E1,8.647999763E-1,1.232200027E0,1.904899955E0
3.555199688E1,1.146000028E0,8.859999776E-1,2.583999932E-1
3.557199688E1,1.608299971E0,2.741000056E-1,-1.478999972E0
3.559199688E1,1.592799902E0,-5.643000007E-1,-3.143899918E0
3.561199688E1,6.504999995E-1,-1.254699945E0,-4.524600029E0
3.563199844E1,3.797999918E-1,-1.685199976E0,-6.577899933E0
3.566199844E1,1.497900009E0,-3.207799911E0,-8.735300064E0
3.569199844E1,-6.351999640E-1,-3.396099806E0,-4.882499695E0
3.571199844E1,-2.038899899E0,-1.419399977E0,1.482599974E0
3.573199844E1,-2.128799915E0,-8.745999932E-1,6.103399754E0
3.576199844E1,1.326699972E0,-1.223199964E0,1.776999950E0
3.579199688E1,-1.258899927E0,-2.554499865E0,3.658299923E0
3.581199844E1,-1.197600007E0,-3.467700005E0,4.341899872E0
3.583199844E1,-1.439999975E-2,-2.789999962E0,3.765899897E0
3.586199688E1,1.251000017E-1,-1.539899945E0,1.983999968E0
3.588199688E1,-8.428999782E-1,-1.024999991E-1,1.520799994E0
3.590199688E1,-1.080399990E0,9.880999923E-1,6.098999977E-1
3.592199688E1,-1.029199958E0,2.069900036E0,-1.735999882E-1
3.594199688E1,-7.639999986E-1,2.635200024E0,-2.119999975E-1
3.596199688E1,-8.190000057E-1,2.727999926E0,2.838000059E-1
3.598199844E1,-1.014599919E0,3.384999990E0,3.522000015E-1
3.601199688E1,-1.011600018E0,3.538699865E0,4.814999998E-1
3.603199688E1,-1.036999941E0,3.304800034E0,6.961999536E-1
3.605199688E1,-9.610999823E-1,2.767699957E0,8.313999772E-1
3.607199688E1,-5.638999939E-1,2.076299906E0,9.024999738E-1
3.609199688E1,1.329999976E-2,1.185099959E0,8.096999526E-1
3.611199844E1,5.795999765E-1,1.464999914E-1,-1.088999957E-1
3.613199844E1,1.105499983E0,-9.371999502E-1,-1.335799932E0
3.616199844E1,1.810799956E0,-2.362499952E0,-3.859299898E0
3.619199844E1,2.632499933E0,-1.511799932E0,-4.424600124E0
3.621199844E1,2.959699869E0,-1.387199998E0,-4.119100094E0
3.623199844E1,1.480199933E0,-1.137899995E0,-4.111700058E0
3.626199688E1,-3.570999801E-1,-1.307999969E0,-1.686299920E0
3.628199688E1,-1.317299962E0,-2.087499857E0,1.815999895E-1
3.630199688E1,-1.423699975E0,-2.677099943E0,1.503700018E0
3.632199688E1,-2.025199890E0,-3.460399866E0,3.089200020E0
3.634199688E1,-2.484200001E0,-4.061100006E0,4.449100018E0
3.636199688E1,-2.074599981E0,-2.958699942E0,2.635699987E0
3.638199688E1,-1.534399986E0,-1.331499934E0,1.802199960E0
3.640199688E1,-1.381199956E0,-4.250000045E-2,1.047399998E0
3.642199688E1,-9.452999830E-1,1.738399982E0,6.620000005E-1
3.644199688E1,-1.008999944E-1,2.458899975E0,1.699999906E-2
3.646199688E1,1.729599953E0,3.452999830E0,-7.749999762E-1
3.648199688E1,2.555299997E0,3.566299915E0,-1.640599966E0
3.650199688E1,1.588499904E0,3.577699900E0,5.327000022E-1
3.652199688E1,1.199599981E0,3.670099974E0,3.052299976E0
3.654199688E1,6.843999624E-1,3.162099838E0,4.036900043E0
3.656199688E1,1.129999980E-1,2.594199896E0,3.982199907E0
3.658199688E1,-1.218999997E-1,1.764099956E0,3.636600018E0
3.660199688E1,2.250999957E-1,8.445999622E-1,2.652400017E0
3.662199844E1,9.093999863E-1,-3.339999914E-2,6.578999758E-1
3.665199688E1,1.673200011E0,-4.238999784E-1,-2.073499918E0
3.667199688E1,1.547699928E0,-4.857999980E-1,-4.268899918E0
3.669199844E1,9.332000017E-1,-1.164699912E0,-7.248899937E0
3.672199688E1,2.806699991E0,-3.019299984E0,-8.470099449E0
3.674199688E1,2.674299955E0,-4.229199886E0,-9.467499733E0
3.676199844E1,1.420999914E-1,-3.415799856E0,-6.777799606E0
3.679199688E1,-5.232299805E0,1.557399988E0,3.973899841E0
3.681199688E1,-4.066100121E0,1.544999927E-1,6.467999935E0
3.683199844E1,-1.079999924E0,-3.677500010E0,1.106599927E0
3.686199688E1,-4.125999808E-1,-4.264100075E0,1.697799921E0
3.688199688E1,-2.399199963E0,-3.838499784E0,2.324699879E0
3.690199688E1,-1.560299993E0,-2.541199923E0,3.713699818E0
3.692199688E1,-6.107000113E-1,-9.914000034E-1,2.102699995E0
3.694199688E1,-4.720999897E-1,6.366999745E-1,2.928900003E0
3.696199688E1,-3.577999771E-1,1.559499979E0,2.674999952E0
3.698199688E1,-5.350000039E-2,2.417700052E0,2.055099964E0
3.700199688E1,1.721999943E-1,2.843499899E0,1.246999979E0
3.702199844E1,1.245999932E-1,3.051699877E0,1.089599967E0
3.704199844E1,-1.469999924E-2,3.119899988E0,1.291100025E0
3.706199844E1,-1.333999932E-1,3.130399942E0,1.401199937E0
3.709199688E1,-4.785999954E-1,2.933599949E0,1.088099957E0
3.711199844E1,-7.515000105E-1,2.849499941E0,1.190400004E0
3.713199844E1,-8.504999876E-1,2.296000004E0,1.310199976E0
3.716199844E1,-3.655000031E-1,9.679999948E-1,9.806999564E-1
3.719199844E1,4.064999819E-1,-7.294999957E-1,-7.100999951E-1
3.721199844E1,1.008899927E0,-1.792799950E0,-2.666100025E0
3.723199844E1,1.679700017E0,-2.256799936E0,-4.397900105E0
3.726199844E1,2.293400049E0,-1.488499999E0,-4.927700043E0
3.729199688E1,2.776899815E0,-1.971499920E0,-3.801100016E0
3.731199844E1,2.300199986E0,-2.519399881E0,-2.726399899E0
3.733199844E1,8.568999767E-1,-1.233799934E0,-6.248999834E-1
3.735199844E1,-2.832999825E-1,-7.949999571E-1,4.716999829E-1
3.738199844E1,-1.025699973E0,-3.564399958E0,2.805399895E0
3.740199844E1,-2.296599865E0,-5.029599667E0,3.213799953E0
3.742199844E1,-3.617199898E0,-2.907799959E0,1.609399915E0
3.745199844E1,-3.077399969E0,-9.686999917E-1,1.224099994E0
3.748199844E1,-2.743000031E0,1.348500013E0,1.020499945E0
3.751199688E1,-9.905999899E-1,3.337999821E0,-8.009999990E-2
3.753199688E1,2.057100058E0,3.093899965E0,-2.077199936E0
3.755199844E1,1.976799965E0,3.675199986E0,-2.056999922E0
3.757199844E1,1.145499945E0,3.465399981E0,5.109999776E-1
3.759199844E1,6.672999859E-1,3.641399860E0,2.949599981E0
3.762199844E1,2.716000080E-1,2.314100027E0,3.417399883E0
3.764199844E1,3.905999959E-1,1.454199910E0,2.269899845E0
3.767199844E1,2.149000019E-1,4.842000008E-1,7.426999807E-1
3.769199844E1,6.047999859E-1,5.159999803E-2,-7.019000053E-1
3.772199688E1,1.632699966E0,-2.319999933E-1,-3.176800013E0
3.774199688E1,2.474599838E0,-2.284800053E0,-6.258199692E0
3.776199844E1,3.611199856E0,-3.706899881E0,-1.038059998E1
3.779199688E1,1.626299977E0,-1.350399971E0,-8.115499496E0
3.781199688E1,-1.545899987E0,-7.983999848E-1,-7.308699608E0
3.783199844E1,-3.080899954E0,1.046899915E0,5.652699947E0
3.785199844E1,-3.259399891E0,1.494099975E0,1.233269978E1
3.788199844E1,-1.752200007E0,-4.598299980E0,1.746500015E0
3.790199844E1,-8.619999886E-2,-6.062900066E0,1.870099902E0
3.792199844E1,-1.797299981E0,-2.949899912E0,2.942999840E0
3.795199844E1,-1.356199980E0,-2.611899853E0,2.038899899E0
3.798199844E1,9.649999440E-2,-8.698999882E-1,2.323099852E0
3.801199844E1,8.586999774E-1,1.049799919E0,7.211999893E-1
3.803199844E1,3.319000006E-1,2.486199856E0,-6.074000001E-1
3.805199844E1,5.839999914E-1,3.090600014E0,-1.423399925E0
3.808199688E1,2.085999995E-1,3.048099995E0,-9.671999812E-1
3.810199844E1,8.599999361E-3,3.050400019E0,-3.194999993E-1
3.812199844E1,2.129999995E-1,2.648499966E0,6.468999982E-1
3.815199688E1,6.999999750E-4,2.594599962E0,7.739999890E-2
3.817199688E1,-7.030000091E-1,2.492599964E0,-1.994999945E-1
3.819199844E1,-4.483999908E-1,1.421700001E0,1.421999931E-1
3.821199844E1,2.131000012E-1,2.803999782E-1,-1.391000003E-1
3.823199844E1,9.149000049E-1,-1.323499918E0,-8.768999577E-1
3.826199844E1,1.462000012E0,-1.998600006E0,-2.063499928E0
3.828199844E1,2.833400011E0,-2.133299828E0,-3.425899982E0
3.831199844E1,2.448299885E0,-3.689199924E0,-3.462599993E0
3.833199844E1,5.734999776E-1,-2.035199881E0,-1.805000007E-1
3.835199844E1,2.782999873E-1,-1.364399910E0,2.672999799E-1
3.838199844E1,-1.030399919E0,-3.698400021E0,3.102999926E-1
3.840199844E1,-3.539099932E0,-5.426699638E0,7.677999735E-1
3.842199844E1,-5.308099747E0,-3.295599937E0,2.606000006E-1
3.845199844E1,-3.622999907E0,-6.861999631E-1,-1.272799969E0
3.848199844E1,-2.793599844E0,2.082700014E0,-2.793000042E-1
3.850199844E1,-8.484999537E-1,2.654799938E0,-6.645999551E-1
3.852199844E1,2.319999970E-2,3.504699945E0,-8.060000092E-2
3.855199844E1,2.897999883E-1,4.424200058E0,2.495399952E0
3.858199688E1,6.197999716E-1,3.902199984E0,4.053699970E0
3.860199688E1,7.705999613E-1,3.438499928E0,4.490799904E0
3.862199844E1,9.298999906E-1,2.663100004E0,4.012499809E0
3.864199844E1,1.521199942E0,1.935799956E0,2.888599873E0
3.866199844E1,2.438400030E0,1.428900003E0,1.670699954E0
3.869199844E1,3.436699867E0,8.899999782E-3,-7.191999555E-1
3.871199844E1,3.374399900E0,-4.596999884E-1,-1.821699977E0
3.873199844E1,2.743099928E0,-1.350199938E0,-2.541899920E0
3.876199844E1,3.662599802E0,-2.917599916E0,-8.136799812E0
3.878199844E1,2.783399820E0,-3.223299980E0,-9.334199905E0
3.881199844E1,-1.831499934E0,-2.355999947E0,-6.837999821E0
3.883199844E1,-3.027099848E0,2.415999919E-1,8.593199730E0
3.885199844E1,-1.877599955E0,-3.382299900E0,5.881299973E0
3.888199844E1,-4.655999839E-1,-6.293699741E0,1.877900004E0
3.890199844E1,-3.306599855E0,-4.981100082E0,2.425899982E0
3.892199844E1,-4.109799862E0,-4.658400059E0,2.653599977E0
3.895199844E1,-6.575999856E-1,-3.281499863E0,2.613699913E0
3.898199844E1,-1.420699954E0,3.057999909E-1,2.590299845E0
3.901199844E1,-1.659099936E0,3.262799978E0,1.294600010E0
3.904199688E1,-1.382499933E0,4.397200108E0,1.299999952E-1
3.906199844E1,-1.100399971E0,5.057399750E0,-2.291999906E-1
3.909199844E1,-1.331599951E0,5.423899651E0,-2.307000011E-1
3.912199844E1,-1.264500022E0,5.313199997E0,4.194999933E-1
3.914199844E1,-1.148299932E0,4.430699825E0,1.179799914E0
3.916199844E1,-7.621999979E-1,3.268800020E0,1.201200008E0
3.919199844E1,3.649999946E-2,1.161599994E0,5.339999869E-2
3.921199844E1,8.341000080E-1,-8.798999786E-1,-1.055199981E0
3.924199844E1,2.858700037E0,-3.382699966E0,-3.049999952E0
3.926199844E1,4.135600090E0,-3.645699978E0,-5.038799763E0
3.929199688E1,3.574299812E0,-2.209300041E0,-4.356800079E0
3.931199844E1,2.748999834E0,-1.443300009E0,-2.219099998E0
3.933199844E1,1.582799911E0,-2.005499840E0,-2.442600012E0
3.936199688E1,1.170400023E0,-6.994999647E-1,-6.797999740E-1
3.938199688E1,7.073999643E-1,-1.129499912E0,-1.589999944E-1
3.940199844E1,3.883999884E-1,-2.843499899E0,9.146999717E-1
3.942199844E1,-1.851999998E0,-5.104099751E0,1.539099932E0
3.945199844E1,-4.071099758E0,-5.416899681E0,1.076699972E0
3.948199844E1,-2.886999846E0,-2.709300041E0,6.038999557E-1
3.950199844E1,-2.425299883E0,-9.772999883E-1,1.504799962E0
3.953199688E1,-1.864999980E-1,1.266600013E0,-4.459999874E-2
3.955199688E1,1.046299934E0,2.003599882E0,-2.502799988E0
3.957199688E1,8.605999947E-1,3.843299866E0,-6.987999678E-1
3.959199688E1,1.032799959E0,4.713999748E0,2.269000053E0
3.961199688E1,1.233500004E0,4.678800106E0,4.130199909E0
3.963199688E1,5.539999604E-1,4.510499954E0,5.207699776E0
3.965199688E1,-2.005999982E-1,4.303199768E0,5.563299656E0
3.967199688E1,-5.446999669E-1,3.417699814E0,4.809899807E0
3.969199688E1,-1.297999918E-1,2.667599916E0,3.491599798E0
3.971199688E1,2.457999885E-1,1.819099903E0,2.176899910E0
3.973199688E1,1.104300022E0,3.407999873E-1,2.361999899E-1
3.975199688E1,1.930599928E0,-8.234999776E-1,-1.774699926E0
3.977199688E1,1.366699934E0,-1.299299955E0,-3.862799883E0
3.979199688E1,-1.279999968E-2,-1.493099928E0,-6.289899826E0
3.981199688E1,3.855000019E0,-2.728600025E0,-9.313799858E0
3.983199688E1,2.415899992E0,-2.895900011E0,-1.102600002E1
3.985199688E1,-1.433999985E-1,-2.609200001E0,-7.764099598E0
3.987199688E1,-2.819900036E0,-1.823300004E0,-5.871200085E0
3.989199688E1,-4.092599869E0,1.314099908E0,6.069799900E0
3.991199688E1,-2.685299873E0,-1.362900019E0,8.577300072E0
3.993199688E1,-4.632000029E-1,-5.587399960E0,2.401299953E0
3.995199688E1,-9.381999969E-1,-6.269899845E0,1.559899926E0
3.997199688E1,-3.564199924E0,-5.777299881E0,4.801499844E0
3.999199688E1,-2.277999878E0,-5.563899994E0,4.608699799E0
4.001199688E1,-2.248999923E-1,-3.654999971E0,3.698999882E0
4.003199688E1,-4.099999741E-2,-1.910399914E0,3.238600016E0
4.005199688E1,-7.436999679E-1,8.630000055E-2,1.787099957E0
4.007199688E1,-9.116999507E-1,2.101799965E0,9.077999592E-1
4.009199688E1,-9.264000058E-1,3.570599794E0,7.999999798E-4
4.011199688E1,-6.579999924E-1,4.623099804E0,-3.066000044E-1
4.013199688E1,-5.267999768E-1,5.246999741E0,-4.678999782E-1
4.015199688E1,-6.951000094E-1,5.592400074E0,6.669999659E-2
4.017199688E1,-9.231999516E-1,5.578999996E0,3.959999979E-1
4.019199688E1,-9.975999594E-1,5.271299839E0,1.005999967E-1
4.021199688E1,-1.198599935E0,4.390299797E0,3.616999984E-1
4.023199688E1,-1.085399985E0,2.959300041E0,5.993999839E-1
4.025199688E1,-6.462000012E-1,1.316699982E0,3.437999785E-1
4.027199688E1,6.079999730E-2,-2.915999889E-1,-2.346999943E-1
4.029199688E1,1.003000021E0,-1.756899953E0,-1.466499925E0
4.031199688E1,1.967099905E0,-2.961899996E0,-3.102399826E0
4.033199844E1,3.600099802E0,-3.758399963E0,-3.837099791E0
4.035199844E1,4.239799976E0,-4.056299686E0,-4.665800095E0
4.038199844E1,4.388499737E0,-3.077100039E0,-3.715699911E0
4.041199844E1,2.332200050E0,-2.271899939E0,-3.326799870E0
4.044199688E1,-8.052999973E-1,-3.881999850E-1,-1.306999922E0
4.046199688E1,-9.217999578E-1,-1.366199970E0,-5.324000120E-1
4.048199688E1,-1.664499998E0,-4.220499992E0,3.030999899E-1
4.050199688E1,-3.106999874E0,-5.338500023E0,1.373499990E0
4.052199688E1,-3.024699926E0,-4.688600063E0,2.377799988E0
4.054199688E1,-2.242199898E0,-2.514400005E0,1.423900008E0
4.056199688E1,-2.472899914E0,-6.044999957E-1,1.780999899E0
4.058199688E1,-2.201599836E0,1.199499965E0,2.660399914E0
4.060199688E1,-1.286700010E0,2.550400019E0,2.989499807E0
4.062199688E1,-5.695999861E-1,3.777699947E0,2.828399897E0
4.064199688E1,4.822999835E-1,4.309999943E0,2.085799932E0
4.066199688E1,1.984099984E0,4.392499924E0,8.285999894E-1
4.068199688E1,6.229000092E-1,4.255199909E0,4.820999801E-1
4.070199844E1,1.587999910E-1,3.865999937E0,3.348399878E0
4.073199688E1,3.650999963E-1,2.611099958E0,4.315700054E0
4.075199688E1,1.981000006E-1,2.244600058E0,2.915899992E0
4.077199688E1,5.048999786E-1,1.882399917E0,1.845199943E0
4.079199688E1,1.518599987E0,1.055299997E0,1.035400033E0
4.081199844E1,1.635499954E0,4.769999906E-2,-8.106999993E-1
4.083199844E1,1.489599943E0,-9.228999615E-1,-2.239099979E0
4.085199844E1,1.588499904E0,-1.844299912E0,-4.115900040E0
4.088199844E1,5.000699997E0,-2.731600046E0,-9.133999825E0
4.091199688E1,3.291199923E0,-2.266499996E0,-8.366399765E0
4.093199688E1,2.244199991E0,-3.638000011E0,-8.409600258E0
4.095199688E1,-6.905299664E0,7.028999925E-1,2.128999978E-1
4.097199688E1,-4.229899883E0,4.889999926E-1,1.195659924E1
4.099199688E1,-2.257999897E0,-4.684400082E0,6.074800014E0
4.101199688E1,-1.541299939E0,-7.292299747E0,2.374999970E-1
4.103199688E1,-2.106400013E0,-6.517199993E0,2.258699894E0
4.105199688E1,-2.718099833E0,-6.356199741E0,5.103600025E0
4.107199688E1,-1.994899988E0,-3.914199829E0,3.410899878E0
4.109199688E1,-5.971999764E-1,-2.801599979E0,1.827699900E0
4.111199688E1,-7.760999799E-1,-8.452999592E-1,2.123899937E0
4.113199688E1,-8.679999709E-1,7.594000101E-1,1.594499946E0
4.115199688E1,8.999999845E-4,2.284100056E0,5.094000101E-1
4.117199844E1,5.763999820E-1,3.555999994E0,-6.851999760E-1
4.119199844E1,1.526999921E-1,5.149099827E0,-4.821999967E-1
4.121199844E1,-1.191999987E-1,5.987499714E0,-6.793000102E-1
4.123199844E1,-6.868999600E-1,6.789099693E0,-5.329999924E-1
4.125199844E1,-1.556899905E0,7.106799603E0,-3.199000061E-1
4.127199844E1,-2.084899902E0,6.691299915E0,-2.039999887E-2
4.130199688E1,-2.083199978E0,4.272900105E0,7.880000025E-2
4.132199688E1,-1.621999979E0,2.650599957E0,3.628999889E-1
4.134199844E1,-9.197999835E-1,-3.589999974E-1,4.589999840E-2
4.137199688E1,1.842599988E0,-4.769499779E0,-4.995999932E-1
4.139199688E1,4.146199703E0,-5.800399780E0,-1.858099937E0
4.141199844E1,4.989500046E0,-4.387799740E0,-1.623499990E0
4.144199688E1,3.372499943E0,-3.767399788E0,-2.738800049E0
4.146199688E1,2.919199944E0,-4.122600079E0,-2.421399832E0
4.148199844E1,1.520200014E0,-5.185400009E0,-3.011899948E0
4.151199688E1,-4.565999806E-1,-1.858899951E0,-1.116500020E0
4.153199688E1,-7.339000106E-1,1.008000016E0,7.620999813E-1
4.155199844E1,-6.313999891E-1,3.147999942E-1,2.221999884E0
4.157199844E1,-2.368599892E0,-3.386600018E0,1.381600022E0
4.159199844E1,-3.898299932E0,-3.215099812E0,5.105999708E-1
4.162199844E1,-2.332099915E0,-3.428999782E-1,7.073999643E-1
4.164199844E1,-1.007499933E0,-1.156999990E-1,-6.498999596E-1
4.167199688E1,9.195999503E-1,1.792199969E0,-1.348999977E0
4.169199688E1,1.817299962E0,2.572499990E0,-1.821599960E0
4.171199844E1,8.212999701E-1,4.127200127E0,-6.919999719E-1
4.174199844E1,1.060199976E0,4.354099751E0,3.632200003E0
4.176199844E1,1.851999909E-1,4.513799667E0,4.972799778E0
4.178199844E1,-8.170999885E-1,4.564300060E0,5.519000053E0
4.181199844E1,-1.280900002E0,3.402799845E0,4.921199799E0
4.183199844E1,-8.077999949E-1,2.011600018E0,3.470099926E0
4.185199844E1,-4.614999890E-1,7.717999816E-1,2.206599951E0
4.187199844E1,-1.876000017E-1,-2.813999951E-1,5.029999614E-1
4.190199688E1,7.294999957E-1,-1.693099976E0,-3.205199957E0
4.192199844E1,1.710799932E0,-3.460599899E0,-6.523200035E0
4.194199844E1,3.321300030E0,-4.844199657E0,-9.050199509E0
4.197199688E1,2.510200024E0,-2.926699877E0,-1.112249947E1
4.199199844E1,9.835000038E-1,-1.016999960E0,-5.257299900E0
4.201199844E1,-3.810999990E-1,-2.518599987E0,-5.706399918E0
4.203200000E1,-1.862800002E0,-2.639499903E0,-2.528100014E0
4.206199844E1,-3.705899954E0,1.520599961E0,1.160759926E1
4.208199844E1,-2.622499943E0,-3.017999828E-1,3.911000013E0
4.211199844E1,-1.406899929E0,-6.503499985E0,-1.452199936E0
4.213199844E1,-7.397999763E-1,-4.700099945E0,4.594599724E0
4.215199844E1,-8.465999961E-1,-4.573999882E0,7.184499741E0
4.218199844E1,9.529999644E-2,-2.237699986E0,2.047100067E0
4.220199844E1,-1.474999934E-1,-1.108999997E-1,6.951000094E-1
4.222199844E1,-8.583999872E-1,1.915199995E0,1.061499953E0
4.224200313E1,-9.657999873E-1,2.837499857E0,6.818999648E-1
4.227199844E1,2.732999921E-1,3.913100004E0,-1.374000013E-1
4.230199688E1,-7.999999449E-3,4.196099758E0,-1.123999953E-1
4.232199844E1,-4.188999832E-1,4.403999805E0,-7.949999720E-2
4.234199844E1,-1.266499996E0,4.599100113E0,4.440999925E-1
4.236199844E1,-1.937599897E0,4.525300026E0,6.793999672E-1
4.238199844E1,-1.918499947E0,4.072700024E0,2.199999988E-1
4.241199844E1,-8.233999610E-1,2.593199968E0,-8.269000053E-1
4.243199844E1,2.840000018E-2,1.457700014E0,-9.706999660E-1
4.245199844E1,1.351699948E0,-6.218999624E-1,-9.138999581E-1
4.248199844E1,3.493299961E0,-4.566199780E0,-3.862999976E-1
4.251199688E1,4.265899658E0,-5.001399994E0,-1.921399951E0
4.253199688E1,3.432099819E0,-4.746200085E0,-2.793200016E0
4.255199688E1,2.129899979E0,-5.042399883E0,-4.407499790E0
4.257199688E1,1.202299953E0,-2.320499897E0,-3.977999926E0
4.259199688E1,1.089100003E0,-2.312999964E-1,-2.873399973E0
4.261199688E1,-5.115999579E-1,1.181599975E0,-1.441599965E0
4.263199688E1,-2.288199902E0,-2.476999998E0,2.610000074E-1
4.265199688E1,-4.141499996E0,-4.263099670E0,1.452299953E0
4.267199688E1,-4.208099842E0,-3.425400019E0,1.872799993E0
4.269199688E1,-2.367199898E0,-2.182100058E0,2.630999982E-1
4.271199688E1,-1.964199901E0,-2.836999893E-1,-1.328999996E-1
4.273199688E1,-1.149699926E0,4.733999968E-1,3.249999881E-1
4.275199688E1,1.036899924E0,8.899999857E-1,-1.028299928E0
4.277199688E1,1.055999994E0,1.493399978E0,-2.392199993E0
4.279199688E1,1.589999914E0,2.859899998E0,4.153999984E-1
4.281199688E1,1.914299965E0,2.548699856E0,3.689299822E0
4.283199688E1,1.097800016E0,4.202799797E0,5.851699829E0
4.285199688E1,5.909999833E-2,4.736299992E0,4.701699734E0
4.287199688E1,-5.243999958E-1,4.208199978E0,4.229099751E0
4.289199688E1,-5.291000009E-1,3.374799967E0,4.158899784E0
4.291199688E1,-4.352999926E-1,2.837999821E0,4.017399788E0
4.293199688E1,-1.250000000E-1,2.472800016E0,2.542899847E0
4.295199688E1,1.583999991E-1,6.392999887E-1,5.870999694E-1
4.297199688E1,1.341699958E0,-1.409999967E0,-2.435400009E0
4.299199688E1,2.025599957E0,-1.162299991E0,-5.260900021E0
4.301199688E1,1.626199961E0,-2.410300016E0,-5.285699844E0
4.303199688E1,2.128900051E0,-4.108999729E0,-8.285399437E0
4.305199688E1,2.293999940E-1,-3.759699821E0,-1.153079987E1
4.307199688E1,-5.891999602E-1,-3.511600018E0,-6.713099957E0
4.309199688E1,-4.415999949E-1,-3.884399891E0,-5.302899837E0
4.311199688E1,-1.869399905E0,2.782000005E-1,9.809299469E0
4.313199688E1,-2.275500059E0,9.429000020E-1,8.386699677E0
4.315199688E1,-1.175599933E0,-2.674899817E0,-1.401899934E0
4.317200625E1,-2.104699850E0,-6.752999783E0,-1.372299910E0
4.320199844E1,-2.609999895E0,-4.344199657E0,4.518799782E0
4.323199688E1,-5.200999975E-1,-3.136399984E0,2.982499838E0
4.325199688E1,5.880999565E-1,-1.258199930E0,1.779899955E0
4.327199688E1,-7.949999720E-2,1.030300021E0,2.081599951E0
4.329199688E1,-7.655000091E-1,2.554600000E0,1.991199970E0
4.331199688E1,-1.237499952E0,4.352399826E0,1.672599912E0
4.333199688E1,-9.748999476E-1,4.565499783E0,1.387599945E0
4.335199688E1,-7.461999655E-1,4.555999756E0,1.375499964E0
4.337199688E1,-9.908999801E-1,5.138599873E0,1.504599929E0
4.339199688E1,-1.181100011E0,4.596299648E0,9.466999769E-1
4.341199844E1,-9.879999757E-1,3.988399982E0,4.120000005E-1
4.343199844E1,-1.004299998E0,3.428099871E0,1.219999939E-1
4.346199688E1,-6.074000001E-1,1.916199923E0,-3.440999985E-1
4.348199688E1,1.476999968E-1,3.416000009E-1,-5.954999924E-1
4.350199688E1,1.136500001E0,-9.332000017E-1,-1.456599951E0
4.352199688E1,2.223899841E0,-2.619899988E0,-2.622799873E0
4.354199688E1,3.183799982E0,-3.923599958E0,-3.589399815E0
4.356199688E1,3.780599833E0,-3.579099894E0,-3.213099957E0
4.358199688E1,4.036999702E0,-3.945799828E0,-2.676699877E0
4.360199688E1,4.322400093E0,-5.294499874E0,-2.580399990E0
4.362199688E1,2.423099995E0,-3.388399839E0,-2.824299812E0
4.364199688E1,1.428399920E0,-1.288900018E0,-2.039999962E0
4.366199688E1,4.469999969E-1,8.211999536E-1,-1.129199982E0
4.368199688E1,-1.079499960E0,5.087000132E-1,2.054999918E-1
4.370199844E1,-2.260200024E0,-3.127899885E0,4.372999966E-1
4.373199688E1,-5.017899990E0,-2.787799835E0,2.221499920E0
4.375199688E1,-3.760399818E0,-1.717099905E0,1.796999931E0
4.377199688E1,-2.464799881E0,-5.169000030E-1,1.009799957E0
4.379199688E1,-2.226300001E0,5.159999728E-1,1.324599981E0
4.381199688E1,-1.722000003E0,1.845699906E0,2.122400045E0
4.383199688E1,7.939999551E-2,2.487699986E0,5.052999854E-1
4.385199688E1,2.709699869E0,1.943499923E0,-1.625800014E0
4.387199688E1,9.237999916E-1,3.200500011E0,-6.324999928E-1
4.389199688E1,1.779999971E0,3.754799843E0,2.915599823E0
4.391199688E1,1.179700017E0,4.130599976E0,5.844899654E0
4.393199688E1,2.782000005E-1,3.831399918E0,5.733200073E0
4.395199688E1,-3.316999972E-1,3.192600012E0,4.152499676E0
4.397199688E1,-5.205000043E-1,2.777999878E0,2.802599907E0
4.399199688E1,-2.793999910E-1,1.049799919E0,8.003999591E-1
4.401199844E1,1.276000023E0,-1.437699914E0,-1.750199914E0
4.404199688E1,1.583400011E0,-1.467099905E0,-4.311500072E0
4.406199688E1,1.832499981E0,-3.101599932E0,-7.491999626E0
4.408199688E1,2.574699879E0,-3.565299988E0,-1.130140018E1
4.410199688E1,1.817699909E0,-2.055599928E0,-8.771699905E0
4.412199688E1,2.806799889E0,-1.411099911E0,-4.458699703E0
4.414199688E1,6.247000098E-1,-2.752399921E0,-7.190700054E0
4.416199688E1,-4.370199680E0,4.355999827E-1,6.183099747E0
4.418199688E1,-2.206699848E0,-3.429999948E-2,1.071529961E1
4.420199844E1,-1.744399905E0,-3.173300028E0,3.192899942E0
4.423199688E1,-9.405999780E-1,-4.756599903E0,1.144699931E0
4.425199688E1,-1.763599992E0,-4.583899975E0,3.567099810E0
