"Time (s)","Acceleration x (m/s^2)","Acceleration y (m/s^2)","Acceleration z (m/s^2)"
0.000000000E0,-2.865246534E0,7.113364935E-1,9.262841225E0
2.000468800E-2,-2.811558723E0,1.117872000E0,8.940437317E0
4.199843800E-2,-3.118026257E0,1.405109167E0,9.287673950E0
6.199843800E-2,-2.938451767E0,1.193136096E0,8.823293686E0
8.200000000E-2,-2.815466404E0,1.171214700E0,8.898510933E0
1.020015630E-1,-2.710025549E0,1.122813582E0,9.450221062E0
1.240000000E-1,-2.944408417E0,1.126788020E0,9.303503990E0
1.440062500E-1,-2.988452196E0,1.080627680E0,9.274764061E0
1.660062500E-1,-2.491789341E0,8.230115771E-1,9.184951782E0
1.880000000E-1,-2.642489910E0,8.622669578E-1,9.255868912E0
2.080000000E-1,-2.719487667E0,1.162337065E0,9.226113319E0
2.280000000E-1,-2.656290293E0,1.116655588E0,9.112848282E0
2.499984380E-1,-2.528889894E0,1.014662623E0,9.271411896E0
2.699984380E-1,-2.478563786E0,9.520878196E-1,9.275712013E0
2.900000000E-1,-2.640641689E0,1.021126986E0,9.336994171E0
3.100062500E-1,-2.469513655E0,9.567996264E-1,9.466203690E0
3.319984380E-1,-2.399440289E0,9.285288453E-1,9.438565254E0
3.520031250E-1,-2.515865564E0,9.970508814E-1,9.210187912E0
3.740000000E-1,-2.238377333E0,9.903759360E-1,8.944842339E0
3.940015630E-1,-2.369915009E0,1.058122158E0,9.260083199E0
4.160062500E-1,-2.356612682E0,1.116933346E0,9.164784431E0
4.380000000E-1,-2.446088791E0,1.148632646E0,9.261365891E0
4.580187500E-1,-2.459094286E0,1.309092045E0,9.313033104E0
4.799984380E-1,-2.198748589E0,1.190789819E0,9.272992134E0
5.000000000E-1,-2.647364616E0,1.263602138E0,9.246311188E0
5.219984380E-1,-3.444470882E0,1.855295658E0,9.748298645E0
5.419984380E-1,-3.773769617E0,2.324042082E0,1.144658279E1
5.619984380E-1,-2.705189466E0,1.988499403E0,1.124862957E1
5.819984380E-1,-2.182544708E0,1.949550509E0,9.158300400E0
6.020031250E-1,-4.160164893E-1,1.061215520E0,8.455295563E0
6.240000000E-1,4.814260826E-2,6.743603945E-1,7.954380989E0
6.440046880E-1,9.383355081E-2,6.037505865E-1,8.356950760E0
6.660000000E-1,-3.072622716E-1,7.252228260E-1,1.059460163E1
6.860125000E-1,-6.910049319E-1,1.702373177E-1,9.852264404E0
7.080000000E-1,-1.155527949E0,1.203469515E0,8.611034393E0
7.280421880E-1,-1.257789016E0,1.846734047E0,8.609827042E0
7.499984380E-1,-1.521946192E0,1.598704219E0,9.226640701E0
7.699984380E-1,-5.002828240E-1,1.297877550E0,1.025324535E1
7.900000000E-1,1.194725871E0,-1.846982986E-1,9.989432335E0
8.120000000E-1,1.562839150E0,5.316755772E-1,7.990533352E0
8.340125000E-1,6.403627992E-1,1.515443444E0,8.120844841E0
8.560000000E-1,2.016645670E0,4.970650077E-1,9.146118164E0
8.760140630E-1,1.992780328E0,-8.387367725E-1,1.034880257E1
8.980000000E-1,5.186607242E-1,-1.883758008E-1,8.004179955E0
9.180031250E-1,8.129559755E-1,1.935577989E0,6.153950691E0
9.399984380E-1,7.083389163E-1,9.408925176E-1,6.913190365E0
9.600031250E-1,1.398156404E0,3.436253965E-1,6.461500645E0
9.819984380E-1,1.990826488E0,1.773864031E0,6.791057110E0
1.002006250E0,1.592393041E0,2.475470543E0,7.240899086E0
1.023998438E0,1.681601048E0,3.500131369E-1,8.430252075E0
1.043998438E0,9.571252465E-1,4.306307137E-1,8.717690468E0
1.064000000E0,-2.281425238E0,-2.893823981E-1,8.438880920E0
1.084006250E0,-2.704375267E0,-9.462268353E-1,6.608341217E0
1.106000000E0,-2.993470430E0,-4.745403528E-1,7.206374645E0
1.126003125E0,-6.396770477E0,-1.119049907E0,8.160895348E0
1.147998438E0,-7.143990993E0,-2.378361464E0,7.306050301E0
1.168000000E0,-6.165625095E0,-2.130868196E0,6.991528988E0
1.189998438E0,-2.167652845E0,-1.713424802E0,7.657997608E0
1.209998438E0,-1.816777706E0,-2.419398308E0,9.053520203E0
1.229998438E0,-1.148881555E0,-3.470376253E0,1.056461620E1
1.249998438E0,1.891381025E0,-4.465578556E0,1.048378849E1
1.269998438E0,6.094038010E0,-3.412407637E0,1.059464931E1
1.289998438E0,7.666042328E0,-3.093212843E0,1.241943264E1
1.310004688E0,7.947131157E0,-3.071023464E0,9.612106323E0
1.330004688E0,9.585751534E0,-4.245456219E0,1.075628567E1
1.351998438E0,1.014955807E1,-4.319446087E0,1.417572403E1
1.371998438E0,8.493085861E0,-2.158890009E0,1.171466637E1
1.392001563E0,6.580214500E0,-1.037235260E0,7.501636982E0
1.414000000E0,4.273975372E0,-2.029852152E0,8.247689247E0
1.434004688E0,3.880330622E-1,-2.524426937E0,1.060065365E1
1.456009375E0,5.628193617E-1,-2.309849024E0,1.130634975E1
1.478000000E0,1.438714147E0,-1.964777708E0,1.174584866E1
1.498000000E0,3.953104734E0,-1.742423296E0,1.060973263E1
1.518004688E0,5.484101295E0,-2.465702057E0,1.033965683E1
1.539998438E0,6.450831413E0,-2.726545572E0,1.053138447E1
1.559998438E0,8.177663803E0,-2.875024319E0,8.847178459E0
1.580000000E0,9.485529900E0,-3.395045280E0,7.407841682E0
1.602000000E0,1.075116348E1,-3.548178196E0,5.812872410E0
1.624000000E0,1.061445427E1,-4.330411434E0,5.434684753E0
1.645998438E0,1.098937607E1,-4.736708164E0,4.946085453E0
1.666000000E0,1.099894333E1,-4.576966763E0,3.643448353E0
1.688000000E0,1.112219715E1,-4.861886024E0,3.075380802E0
1.708000000E0,9.685139656E0,-5.201623440E0,3.830473661E0
1.728000000E0,7.832132816E0,-5.619220257E0,4.075103760E0
1.749998438E0,6.411653042E0,-5.507382393E0,3.795106649E0
1.769998438E0,6.532799721E0,-5.405638218E0,3.605457067E0
1.790000000E0,7.599454403E0,-5.811244488E0,4.310070992E0
1.812000000E0,8.029587746E0,-6.121264935E0,4.749876022E0
1.833998438E0,8.408742905E0,-6.238600254E0,4.302390099E0
1.854000000E0,9.283870697E0,-5.911915779E0,3.697212458E0
1.876000000E0,9.856784821E0,-5.725694656E0,4.201852322E0
1.898000000E0,9.388211250E0,-5.226819992E0,4.056199074E0
1.920006250E0,9.592321396E0,-4.931317806E0,3.979555845E0
1.941998438E0,1.065839291E1,-4.520271778E0,4.758054733E0
1.962000000E0,8.494379044E0,-3.023847818E0,2.767601252E0
1.984000000E0,7.042266369E0,-1.137648106E0,4.428315461E-1
2.005998438E0,8.728024483E0,-1.239784718E0,2.608243465E0
2.026000000E0,8.440423012E0,-1.326282382E0,2.838144064E0
2.046001563E0,9.011554718E0,-1.586656570E0,2.190273285E0
2.067998438E0,1.210316753E1,-1.289909720E0,1.212404490E0
2.088000000E0,1.156384087E1,-2.096257687E0,1.200979471E0
2.108000000E0,1.350113297E1,-1.560837507E0,2.209187269E0
2.130000000E0,1.046283436E1,-1.690019011E0,5.188378811E0
2.150000000E0,7.767326832E0,-6.595546603E-1,6.171629429E0
2.170000000E0,4.608129501E0,-1.360576868E0,5.782312870E0
2.191998438E0,2.012125254E0,-4.208307743E0,6.112751484E0
2.211998438E0,-2.021663904E0,-4.044946194E0,4.385669708E0
2.231998438E0,-4.191002250E-1,-3.287219763E0,6.930830479E-1
2.252000000E0,4.693621635E0,-5.567007542E0,-2.293118477E0
2.274000000E0,7.064417839E0,-2.823807716E0,-8.182308197E0
2.294003125E0,9.470925331E0,-3.103919744E0,-3.028808832E0
2.316000000E0,1.501642418E1,-4.962251186E0,5.150598288E-1
2.336001563E0,1.783952332E1,-5.843240738E0,3.993528429E-3
2.358025000E0,1.784781647E1,-3.341817141E0,-3.588276386E0
2.380000000E0,1.341870594E1,-6.873849034E-1,1.791150272E-1
2.400000000E0,8.988665581E0,6.053691506E-1,-8.289109468E-1
2.421998438E0,5.370012760E0,-1.798399806E0,-1.177324653E0
2.442003125E0,3.888901949E0,-4.016953468E0,8.068460226E-2
2.463998438E0,-6.038846970E-1,-5.261287212E0,-2.201171637E0
2.484000000E0,7.861695886E-1,-6.466844082E0,-5.378143191E-1
2.506000000E0,1.336644530E0,-9.009936333E0,6.245322824E-1
2.526000000E0,3.518346548E0,-1.086588383E1,1.566689014E0
2.546000000E0,4.876261234E0,-9.502538681E0,1.799845934E0
2.566000000E0,5.047590256E0,-7.906908512E0,2.164080620E0
2.586000000E0,5.658245564E0,-5.947810173E0,1.664247870E0
2.606000000E0,6.539244652E0,-3.481715202E0,1.016750455E0
2.628000000E0,4.603197575E0,-3.343722820E0,1.122861505E0
2.650000000E0,2.016923428E0,-3.237094641E0,7.918199301E-1
2.672000000E0,1.527586937E0,-7.732926846E0,1.782205462E0
2.693998438E0,-7.268566608E0,-2.330770683E1,1.402140260E0
2.714000000E0,-4.750881195E0,-3.234734344E1,3.174424171E-1
2.736000000E0,5.469601154E-1,-2.891279984E1,5.297889560E-2
2.756000000E0,-5.999763966E0,-1.024873447E1,8.464269638E-1
2.776000000E0,-4.910449982E0,-4.242669106E0,7.120643258E-1
2.796000000E0,-3.802863836E0,-3.065219641E0,8.945120573E-1
2.816000000E0,-3.510809660E0,-4.980389595E0,3.077688694E0
2.838000000E0,-4.452104568E0,-7.505018234E0,7.869070172E-1
2.858018750E0,-4.848814011E0,-9.974551201E0,-2.454966545E0
2.879998438E0,-2.778279543E0,-1.143279171E1,-6.432674408E0
2.899998438E0,-2.501222372E0,-1.002871704E1,-1.356152415E0
2.919998438E0,-1.548856974E0,-9.763075829E0,1.161839008E0
2.940000000E0,-9.111469984E-1,-9.546257019E0,1.709421754E0
2.962000000E0,-1.675548553E0,-8.901086807E0,1.194151282E0
2.984000000E0,-5.944802761E-1,-9.915232658E0,1.224385142E0
3.005998438E0,-8.433431983E-1,-9.957455635E0,1.453079343E0
3.026006250E0,-2.693572640E-1,-9.756228447E0,1.830549240E0
3.048000000E0,5.934268236E-1,-1.018161106E1,2.016205192E-1
3.070000000E0,1.096257091E0,-1.122548199E1,-5.596111298E0
3.091998438E0,4.144554734E-1,-1.163767815E1,-3.158124447E0
3.112000000E0,2.652105093E-1,-1.251869583E1,3.313000500E-1
3.134000000E0,-1.592134476E0,-1.283001995E1,-5.668991208E-1
3.154000000E0,-5.987189770E0,-1.361173534E1,-4.963620663E0
3.174000000E0,-7.386820793E0,-1.284924984E1,-5.394021511E0
3.195998438E0,-6.099324703E0,-1.065832520E1,-4.584838867E0
3.216004688E0,-3.811933041E0,-1.165889072E1,-1.384739280E0
3.238000000E0,-3.272586346E0,-1.171578598E1,1.000967845E-1
3.258018750E0,-1.291949630E0,-1.223983860E1,-1.572368026E0
3.279998438E0,-6.645537615E-1,-1.141618538E1,-8.737590909E-1
3.300003125E0,-2.021932125E0,-9.506647110E0,2.020227432E0
3.320012500E0,-2.033108234E0,-8.880141258E0,2.942473888E0
3.341998438E0,-4.196595192E0,-6.903910637E0,4.522263706E-1
3.361998438E0,-4.130534172E0,-6.522303104E0,-1.915275097E0
3.382000000E0,-3.288129568E0,-6.879068375E0,-1.342131972E0
3.402000000E0,-1.969546914E0,-8.163059235E0,-8.947227597E-1
3.422000000E0,-6.757873297E-1,-8.681930542E0,-4.226790428E0
3.443998438E0,-6.943376660E-1,-8.640683174E0,-2.823692799E0
3.463998438E0,-1.203708887E0,-7.482905388E0,-9.468014240E-1
3.484000000E0,-5.444414616E-1,-5.305541515E0,-1.282573819E0
3.504000000E0,-3.356555939E0,-3.934477806E0,-2.008869171E0
3.526000000E0,-2.865102768E0,-4.361163139E0,-2.543724298E0
3.546000000E0,-1.278656960E0,-4.894274712E0,-4.044831276E0
3.566000000E0,-2.710140646E-1,-5.108488560E0,-5.370337963E0
3.586007813E0,7.538288236E-1,-5.701599598E0,-7.125278473E0
3.607998438E0,3.106055498E0,-7.248139381E0,-9.935180664E0
3.628000000E0,4.277451992E0,-8.438191414E0,-9.103645325E0
3.648000000E0,3.991134167E0,-9.714981079E0,-6.894333363E0
3.669998438E0,-4.638603210E0,-2.012242126E1,-2.084632492E1
3.689998438E0,-1.737420464E1,-3.330654144E1,-2.585383654E0
3.709998438E0,-1.199039173E1,-1.683965683E1,1.452175331E1
3.730000000E0,-7.918764591E0,-3.754232645E0,7.316210747E0
3.752000000E0,-3.890721321E0,4.706043005E-2,5.665112495E0
3.772000000E0,-4.299602985E0,-2.004722595E0,7.824538350E-1
3.793998438E0,-7.133753777E0,-7.668714523E0,-1.278819680E0
3.813998438E0,-5.723464012E0,-1.748880005E1,-6.741746426E0
3.833998438E0,-5.239279270E0,-1.488284588E1,2.291729897E-1
3.854001563E0,-2.129029512E0,-1.117749310E1,1.070196724E1
3.876000000E0,2.676813126E0,-1.279365635E1,3.670905113E0
3.896007813E0,6.089383602E0,-1.217523479E1,-8.767901421E0
3.918004688E0,1.966003537E0,-9.008930206E0,1.075427532E0
3.940000000E0,2.380554676E0,-8.360552788E0,5.348455310E-1
3.962003125E0,1.148805022E0,-8.518416405E0,-1.176635265E0
3.984000000E0,-6.368001699E-1,-6.753142357E0,1.328015774E-1
4.004000000E0,-7.810843587E-1,-5.950768948E0,1.029592872E0
4.026004688E0,-7.397221327E-1,-6.667420864E0,1.254121184E0
4.047998438E0,-1.228407502E0,-8.631614685E0,1.066233754E0
4.068000000E0,-1.395053506E0,-1.045133209E1,8.906621933E-1
4.089998438E0,-1.230447292E0,-1.070501137E1,6.243215799E-1
4.109998438E0,-9.941874146E-1,-9.764885902E0,-2.021280825E-1
4.129998438E0,-1.285456419E0,-1.035556412E1,-2.577970982E0
4.149998438E0,-9.285959601E-1,-1.173106194E1,-5.822238922E0
4.170000000E0,1.055306673E0,-1.214749908E1,-1.773289442E0
4.191998438E0,1.177918434E0,-1.126802349E1,1.391270638E0
4.212003125E0,8.748412877E-2,-1.104563999E1,1.523669995E-2
4.233998438E0,-1.042722821E0,-1.210284233E1,-3.286357880E0
4.253998438E0,-1.917190552E0,-1.170638180E1,-3.516938686E0
4.273998438E0,-2.346920967E0,-1.168598366E1,-1.357627273E0
4.293998438E0,-2.590535879E0,-1.238015842E1,3.557400405E-1
4.313998438E0,-3.717486620E0,-1.392392063E1,1.417989850E0
4.333998438E0,-4.897511482E0,-1.583240509E1,2.081787109E0
4.353998438E0,-6.094526768E0,-1.634783936E1,1.885912776E0
4.373998438E0,-6.622477055E0,-1.407742691E1,1.628727555E0
4.393998438E0,-8.343209267E0,-1.088934708E1,-6.206920147E-1
4.413998438E0,-8.482398033E0,-9.297020912E0,-1.681486249E0
4.433998438E0,-5.999620438E0,-8.409289360E0,-6.061256528E-1
4.453998438E0,-4.734074116E0,-7.708371639E0,-5.340889096E-1
4.473998438E0,-3.952625990E0,-7.068775177E0,-6.090274453E-1
4.493998438E0,-3.251976967E0,-6.746486664E0,4.596867133E-3
4.513998438E0,-2.337190866E0,-6.888654709E0,-1.880980730E-1
4.533998438E0,-1.910103679E0,-7.026282787E0,9.357115030E-1
4.554000000E0,-1.312520504E0,-7.407449245E0,1.480325341E0
4.576004688E0,-7.418099046E-1,-7.370655060E0,6.844831109E-1
4.598001563E0,-5.535010695E-1,-6.455389977E0,3.467378616E-1
4.620000000E0,-3.842119277E-1,-5.128188610E0,1.902815700E-1
4.641998438E0,1.928481609E-1,-4.694493294E0,-6.607996821E-1
4.661998438E0,7.576307654E-1,-5.219838142E0,-3.256947517E0
4.681998438E0,2.608339190E-1,-6.080678940E0,-6.453015327E0
4.701998438E0,-3.254294693E-1,-8.217101097E0,-1.134435940E1
4.721998438E0,-1.105690241E0,-1.160954094E1,-1.643012238E1
4.742000000E0,-2.597526789E0,-1.377502060E1,-1.433587551E1
4.762000000E0,-4.173007488E0,-1.146434784E1,-1.079205608E1
4.783998438E0,-5.568510532E0,-8.383240700E0,-8.516788483E0
4.803998438E0,-7.667057514E0,-1.001552010E1,-7.600642204E0
4.823998438E0,-9.333881378E0,-1.205897141E1,1.534300208E0
4.844000000E0,-7.576997280E0,-1.006860447E1,5.306604385E0
4.864000000E0,-4.268363953E0,-4.999093056E0,1.028405428E0
4.884000000E0,-3.078407049E0,-4.793814659E0,2.683612823E0
4.904000000E0,-2.763426065E0,-9.621530533E0,1.936832547E0
4.924000000E0,-3.655553579E0,-1.353503513E1,1.476188064E0
4.946000000E0,-2.827025414E0,-1.471548176E1,8.349060267E-2
4.966006250E0,-1.494441509E0,-1.366746330E1,2.228618711E-1
4.988000000E0,5.597451925E-1,-1.121376038E1,2.872563124E0
5.009998438E0,4.045329571E0,-9.669060707E0,-7.151671648E-1
5.029998438E0,2.528411150E0,-8.500507355E0,-1.351287484E0
5.049998438E0,7.251079082E-1,-8.392864227E0,8.936789036E-1
5.070000000E0,2.077975422E-1,-8.644427299E0,7.359967828E-1
5.090000000E0,-7.523347735E-1,-8.204929352E0,-1.258315802E0
5.111998438E0,-1.370239973E0,-8.093149185E0,-1.867371917E0
5.131998438E0,-1.587863326E0,-7.997323036E0,-1.189669132E0
5.151998438E0,-1.405176163E0,-7.916044712E0,3.172317147E-1
5.172000000E0,-1.501901865E0,-7.427732944E0,1.245367885E0
5.193998438E0,-1.832550645E0,-7.275222301E0,2.195329905E0
5.213998438E0,-2.089371920E0,-8.519613266E0,2.661624432E0
5.233998438E0,-2.625385761E0,-1.017268562E1,2.317778826E0
5.253998438E0,-3.031260490E0,-1.047679710E1,1.043354750E0
5.274000000E0,-2.686342239E0,-9.802034378E0,-1.137695909E0
5.295998438E0,9.689813107E-2,-1.168414497E1,-5.844045639E0
5.316000000E0,2.013360739E0,-1.348193169E1,-3.343425989E0
5.336007813E0,1.462483764E0,-1.229626560E1,9.355869889E-1
5.358020313E0,9.182050824E-1,-1.076660061E1,1.455119133E0
5.379998438E0,7.538478971E-1,-1.167810154E1,-4.784093797E-1
5.400000000E0,3.467282951E-1,-1.398699284E1,-4.424685955E0
5.421998438E0,-7.334301472E-1,-1.328702450E1,-2.875512838E0
5.442000000E0,-1.702277422E0,-1.257959557E1,-4.195024371E-1
5.462000000E0,-2.836305380E0,-1.196727371E1,-1.225706816E0
5.484000000E0,-4.463059902E0,-1.284287071E1,-5.958402157E-1
5.504000000E0,-4.031797409E0,-1.351049900E1,2.148767233E0
5.526000000E0,-4.987610340E0,-1.377011681E1,2.232478380E0
5.546000000E0,-5.976204872E0,-1.315209675E1,1.979257822E0
5.567998438E0,-8.454404831E0,-1.228367233E1,-1.156006694E0
5.587998438E0,-7.217244625E0,-1.117006111E1,-9.356061220E-1
5.607998438E0,-5.655401230E0,-9.367017746E0,1.244506091E-1
5.627998438E0,-4.419466496E0,-8.399855614E0,-4.944122434E-1
5.647998438E0,-3.232239246E0,-7.562794685E0,-7.481209636E-1
5.667998438E0,-2.298079252E0,-6.846190929E0,7.562612891E-1
5.687998438E0,-8.937267661E-1,-7.130775452E0,1.571841359E0
5.707998438E0,-1.304744184E-1,-7.491811752E0,1.006685138E0
5.727998438E0,4.776911065E-2,-7.615170479E0,1.081700325E0
5.747998438E0,-1.594442576E-1,-6.670111656E0,1.483112216E0
5.768000000E0,-6.288610101E-1,-4.697011948E0,1.471256137E0
5.790000000E0,-9.713371992E-1,-3.306689501E0,1.077141762E0
5.810000000E0,-1.014384985E0,-2.878366709E0,7.709233761E-1
5.830000000E0,-6.515101790E-1,-3.268573761E0,2.985856831E-1
5.851998438E0,-2.855229080E-1,-6.124693394E0,-3.361679554E0
5.871998438E0,-9.117311239E-1,-1.070362282E1,-1.480117512E1
5.892000000E0,1.847844869E-1,-1.963990402E1,-2.874771690E1
5.914000000E0,6.914837360E-1,-1.862237930E1,-9.331295967E0
5.936000000E0,-9.238362312E-1,-8.849668503E0,-7.842178822E0
5.956000000E0,-5.559422493E0,-9.764838219E0,-1.127883530E1
5.976006250E0,-9.236313820E0,-1.711553574E1,-9.476652145E0
5.998000000E0,-8.009936333E0,-1.101705265E1,1.277614975E1
6.018000000E0,-4.832609653E0,-3.933912754E0,9.899353981E0
6.039998438E0,-1.972573280E0,-1.616794825E0,4.205769539E0
6.060006250E0,-2.004272461E0,-4.709768295E0,1.582471609E0
6.082000000E0,-4.865659714E0,-1.508286762E1,1.473573685E0
6.102000000E0,-3.671632767E0,-2.010161209E1,-1.299381137E0
6.122000000E0,-6.446340084E-1,-1.545551109E1,-4.909166992E-1
6.143998438E0,1.295895100E0,-1.264590549E1,-1.797777295E0
6.163998438E0,5.053872466E-1,-9.407670975E0,1.127860546E0
6.183998438E0,2.944006026E-1,-6.845042229E0,1.380592465E0
6.204000000E0,-4.368364513E-1,-5.954226494E0,-1.545600891E-1
6.225998438E0,-1.700046062E0,-6.704875469E0,-3.688411117E-1
6.246000000E0,-1.911904216E0,-7.533097267E0,-8.957091570E-1
6.267998438E0,-1.680250764E0,-8.478442192E0,-4.973523021E-1
6.287998438E0,-1.705466390E0,-8.278689384E0,1.881746799E-1
6.307998438E0,-1.527194262E0,-7.848490238E0,1.067258596E0
6.327998438E0,-1.498875618E0,-7.220040798E0,1.495437503E0
6.347998438E0,-1.780089021E0,-7.557881832E0,1.875033498E0
6.367998438E0,-2.442497492E0,-9.186772346E0,1.501614571E0
6.387998438E0,-2.842041969E0,-1.002200413E1,3.328227401E-1
6.408001563E0,-2.065803528E0,-9.967559814E0,-1.296967745E0
6.430000000E0,6.049573421E-1,-1.190809822E1,-4.456212997E0
6.451998438E0,2.254169703E0,-1.343779182E1,-2.751981735E0
6.472000000E0,1.866414309E0,-1.235213661E1,6.285066605E-1
6.493998438E0,1.184114695E0,-1.104391575E1,2.254667729E-1
6.513998438E0,5.109992623E-1,-1.304090023E1,-2.939351797E0
6.533998438E0,-1.215871349E-1,-1.418883419E1,-4.767095089E0
6.553998438E0,-1.209062219E0,-1.317216969E1,-2.471065283E0
6.573998438E0,-2.443876743E0,-1.253160667E1,-9.572592974E-1
6.593998438E0,-3.725378036E0,-1.271336460E1,-1.125246048E0
6.614000000E0,-3.194008827E0,-1.421221066E1,2.380363226E0
6.634000000E0,-3.683402538E0,-1.476861382E1,2.705486298E0
6.656004688E0,-5.215452194E0,-1.362149429E1,2.095845938E0
6.677998438E0,-6.346693516E0,-1.218109512E1,-4.676354676E-2
6.698001563E0,-5.870199680E0,-1.150090218E1,-2.630911589E0
6.720000000E0,-4.913543224E0,-9.843846321E0,-6.394816637E-1
6.740000000E0,-4.079192638E0,-8.276535034E0,2.072516829E-1
6.762000000E0,-2.333111286E0,-7.432415962E0,8.053137362E-2
6.784000000E0,-1.075685978E0,-6.855968952E0,1.022917867E0
6.804000000E0,4.131434485E-2,-6.849399567E0,2.409447908E0
6.824000000E0,6.589322090E-1,-7.180517673E0,1.562034726E0
6.844000000E0,-3.125391006E-1,-7.017491341E0,1.279576302E0
6.866000000E0,-1.534692883E0,-5.848747730E0,1.408010840E0
6.886000000E0,-2.070534468E0,-4.763494015E0,1.086268425E0
6.908000000E0,-2.083108664E0,-4.203815937E0,1.071817040E0
6.928003125E0,-1.873290420E0,-3.476840496E0,5.459067225E-1
6.949998438E0,-1.370010138E0,-3.179557323E0,-5.433976054E-1
6.969998438E0,-1.143863440E0,-5.506979942E0,-3.736458302E0
6.989998438E0,-1.649566650E0,-1.039171696E1,-1.092140007E1
7.010000000E0,-2.495715953E-2,-1.675669098E1,-2.605783081E1
7.032000000E0,9.396762848E-1,-1.983491707E1,-1.206119347E1
7.053998438E0,-1.777196765E0,-1.207058811E1,-6.726174355E0
7.073998438E0,-2.489998579E0,-7.886328220E0,-7.226696968E0
7.093998438E0,-4.525835991E0,-9.980555534E0,-8.962272644E0
7.114000000E0,-4.886613846E0,-1.396018791E1,-5.145340443E0
7.134000000E0,-2.788766146E0,-1.193050766E1,7.331955433E0
7.156000000E0,-4.492346287E0,-4.831403255E0,6.212666035E0
7.178000000E0,-3.373353481E0,-2.042637110E0,5.487510003E-3
7.198001563E0,-3.103527069E0,-5.511893272E0,3.322673142E-1
7.220000000E0,-4.423077106E0,-1.491291714E1,3.354592562E0
7.241998438E0,-3.614411354E0,-1.703623772E1,1.831171632E0
7.261998438E0,-1.362932920E0,-1.391576099E1,-2.913753033E0
7.281998438E0,-1.032791615E0,-1.061816978E1,-4.591121078E-1
7.302003125E0,6.409181952E-1,-8.933282852E0,2.221139193E0
7.323998438E0,-1.279518843E0,-8.582455635E0,-3.141000986E0
7.343998438E0,-1.916817069E0,-9.770631790E0,6.103298813E-2
7.363998438E0,-1.705169559E0,-9.570218086E0,1.112508893E0
7.383998438E0,-1.848994136E0,-7.576345921E0,5.670523047E-1
7.403998438E0,-1.676065683E0,-7.093492508E0,-4.103661776E-1
7.424006250E0,-1.641148686E0,-7.399912834E0,-1.352771878E0
7.446000000E0,-1.621382117E0,-7.639438152E0,-7.975755930E-1
7.466000000E0,-1.400301456E0,-7.544847488E0,6.846459508E-1
7.486000000E0,-1.318410277E0,-7.431267262E0,1.687251329E0
7.506015625E0,-1.160795212E0,-7.884910583E0,2.029200792E0
7.528000000E0,-1.152147293E0,-9.514308929E0,1.785404086E0
7.548006250E0,-1.046084285E0,-1.084747696E1,9.587341547E-2
7.570000000E0,-4.397573769E-1,-1.150713634E1,-3.283848524E0
7.591998438E0,1.508931279E0,-1.295470905E1,-6.536543846E0
7.612000000E0,1.783412099E0,-1.314350700E1,-2.252464771E0
7.634000000E0,5.008095503E-1,-1.179140568E1,4.802097976E-1
7.656001563E0,-1.067555428E0,-1.168107033E1,-2.124308109E0
7.677998438E0,-1.214846730E0,-1.310623360E1,-6.186358452E0
7.698000000E0,-3.008362353E-1,-1.329653454E1,-2.805084944E0
7.718012500E0,-1.194840670E0,-1.269517803E1,-1.775061190E-1
7.740000000E0,-2.266523600E0,-1.322125053E1,1.107442737E0
7.760000000E0,-2.006407976E0,-1.452229881E1,3.361277342E0
7.780000000E0,-2.733699560E0,-1.536239529E1,2.921816587E0
7.800000000E0,-4.153786659E0,-1.506103230E1,2.058860302E0
7.820000000E0,-4.924126148E0,-1.357415581E1,1.122373104E0
7.840000000E0,-5.083971977E0,-1.298652363E1,-2.386980772E0
7.860001563E0,-4.266055584E0,-1.155577755E1,-1.758158088E0
7.881998438E0,-3.873952389E0,-9.031321526E0,2.015534788E-1
7.902000000E0,-3.084727764E0,-7.277980328E0,3.905709088E-1
7.922000000E0,-1.852575779E0,-6.016734600E0,1.264301300E0
7.942000000E0,-6.287173629E-1,-5.560772896E0,2.405981302E0
7.962000000E0,3.891631067E-1,-5.798354626E0,2.060325384E0
7.982000000E0,1.586876810E-1,-5.795681953E0,1.802814722E0
8.002000000E0,-4.668405950E-1,-5.622562408E0,2.096966267E0
8.022000000E0,-1.560770512E0,-5.024260998E0,1.787827015E0
8.042000000E0,-2.387881041E0,-4.732139587E0,1.105278492E0
8.062000000E0,-3.139344215E0,-4.378947258E0,6.903153658E-1
8.082000000E0,-3.532002926E0,-3.436043501E0,2.147120088E-1
8.102000000E0,-3.144371986E0,-3.291529179E0,-1.878299117E0
8.122000000E0,-2.492794991E0,-6.484120369E0,-6.386810780E0
8.142000000E0,-4.965574294E-2,-1.363913441E1,-1.327594471E1
8.162000000E0,9.058797359E-1,-1.890013504E1,-2.515777397E1
8.182000000E0,6.571125984E-1,-1.760723686E1,-1.328136444E1
8.202000000E0,3.128167987E-1,-1.222553158E1,-8.142306328E0
8.222000000E0,2.050135851E0,-8.300525665E0,-6.185228348E0
8.242000000E0,1.326090813E0,-7.204555035E0,-5.662823200E0
8.262000000E0,-1.032188177E0,-1.018663883E1,-2.083003521E0
8.282000000E0,-5.277807236E0,-1.170640182E1,1.032332802E1
8.302009375E0,-8.201510429E0,-1.460604763E1,-8.389138222E0
8.324000000E0,-8.382962227E0,-6.675580025E0,-1.499708772E0
8.344000000E0,-5.236952305E0,-3.072220564E0,1.088308334E1
8.364000000E0,-5.283045292E0,-8.834058762E0,3.618835926E0
8.384000000E0,-3.988491058E0,-1.361347866E1,2.590813637E-1
8.404000000E0,-1.204637766E0,-1.437081242E1,-4.545382500E0
8.424000000E0,-1.352350473E0,-1.176781750E1,-1.971452713E0
8.444000000E0,-9.337673783E-1,-1.047950649E1,2.841821432E0
8.464000000E0,2.262137532E-1,-1.002506828E1,4.881355762E0
8.484000000E0,1.870829165E-1,-8.458494186E0,-1.073109984E0
8.504000000E0,-7.602930665E-1,-9.009888649E0,-5.882458210E0
8.524000000E0,-3.349200785E-1,-1.056228924E1,1.088040113E0
8.544004688E0,-1.137590528E0,-7.866580486E0,1.196507096E0
8.566006250E0,-1.700582266E0,-6.919061184E0,-9.139720798E-1
8.588000000E0,-1.877762794E0,-6.647271156E0,-1.602803111E0
8.608000000E0,-1.839398026E0,-6.623223782E0,-8.345612884E-1
8.628001563E0,-1.633477688E0,-6.929949760E0,8.066735864E-1
8.650000000E0,-1.654441237E0,-7.625656605E0,1.938182831E0
8.670000000E0,-1.835471630E0,-9.118202209E0,2.694013119E0
8.690000000E0,-1.548646212E0,-1.039761639E1,2.008878946E0
8.710000000E0,-9.654187560E-1,-1.095310879E1,8.190851212E-1
8.730000000E0,-1.101237014E-1,-1.241799641E1,-3.008534670E0
8.750000000E0,2.501595974E0,-1.416298676E1,-1.117847919E1
8.770000000E0,1.793371916E0,-1.333444881E1,-1.362789154E0
8.790001563E0,5.328248143E-1,-1.148141289E1,2.849914074E0
8.812000000E0,-3.854952157E-1,-1.192758656E1,7.509844303E-1
8.832000000E0,-6.681738049E-2,-1.353819561E1,-6.969185829E0
8.852000000E0,-3.737827763E-2,-1.285833836E1,-6.915488720E0
8.872000000E0,-1.654498816E0,-1.149454308E1,-2.095635176E0
8.892000000E0,-2.859509945E0,-1.128720474E1,-7.989163995E-1
8.912000000E0,-2.014576912E0,-1.387327862E1,3.028923750E0
8.932000000E0,-1.734407544E0,-1.551867867E1,4.016675472E0
8.952000000E0,-2.963629246E0,-1.624704361E1,3.211467266E0
8.972000000E0,-3.740231514E0,-1.499205112E1,2.491157293E0
8.992000000E0,-3.761080027E0,-1.307686138E1,1.347466350E0
9.012000000E0,-5.654386044E0,-1.204911709E1,-4.049016476E0
9.032000000E0,-5.625713348E0,-1.042966938E1,-1.447122574E0
9.052000000E0,-5.486658096E0,-8.646170616E0,2.530575395E-1
9.072000000E0,-3.945271015E0,-7.247296333E0,-4.438849911E-2
9.092000000E0,-1.848678112E0,-6.071887016E0,-3.520434350E-2
9.114000000E0,-5.540373921E-1,-5.187832832E0,1.498272181E0
9.134000000E0,-8.657433093E-3,-5.226264477E0,3.663243294E0
9.156000000E0,-9.259718657E-1,-5.391177177E0,3.427491188E0
9.176003125E0,-1.415423393E0,-5.341502666E0,2.478123188E0
9.198000000E0,-1.939964175E0,-5.073045254E0,2.091057301E0
9.220000000E0,-2.385056019E0,-3.643094063E0,1.648446202E0
9.240000000E0,-2.322519302E0,-2.155260324E0,5.048605204E-1
9.260001563E0,-1.469082117E0,-3.166590214E0,-1.167355299E0
9.281998438E0,-1.142972827E0,-9.759063721E0,-1.251962471E1
9.301998438E0,9.560909271E-1,-1.769309425E1,-3.098853493E1
9.322000000E0,1.333388448E0,-2.013581085E1,-1.550413227E1
9.344000000E0,-1.715177417E0,-1.222788715E1,-7.202506065E0
9.365998438E0,-1.177880287E0,-7.904964447E0,-7.624402523E0
9.386000000E0,-3.437661886E0,-1.009732533E1,-9.123450279E0
9.408000000E0,-4.540756702E0,-1.388326645E1,1.843985438E0
9.428003125E0,-7.207677364E0,-1.131941223E1,6.664500237E0
9.450000000E0,-6.405188560E0,-5.419486523E0,1.416850209E0
9.471998438E0,-3.377098083E0,-4.218602657E0,2.247982979E0
9.491998438E0,-3.960909843E0,-8.614749908E0,4.843010426E0
9.511998438E0,-4.841976166E0,-1.468030643E1,2.914586067E0
9.532000000E0,-3.585259438E0,-1.619583511E1,2.796628714E0
9.553998438E0,-1.522702813E0,-1.429004192E1,2.468919992E0
9.573998438E0,2.446108013E-1,-1.123357487E1,2.792596817E-2
9.593998438E0,1.658023000E0,-7.344884396E0,-3.856426716E0
9.614000000E0,2.307244241E-1,-6.748182297E0,-1.650668025E0
9.634000000E0,-8.733472824E-1,-1.017656326E1,-1.026020765E0
9.656000000E0,-1.152482510E0,-1.016719818E1,1.148259174E-2
9.676000000E0,-1.935951591E0,-7.358894825E0,-7.366192341E-1
9.696017188E0,-1.990874529E0,-6.700546741E0,-5.621202588E-1
9.718000000E0,-1.578439713E0,-6.684840679E0,2.043977827E-1
9.738000000E0,-1.456220508E0,-6.224847794E0,8.299835324E-1
9.758020313E0,-1.456823826E0,-6.750097275E0,1.889705062E0
9.779998438E0,-1.980263472E0,-8.914331436E0,1.850009322E0
9.800000000E0,-1.840202689E0,-1.079257298E1,3.293463886E-1
9.822000000E0,-7.835935354E-1,-1.022262764E1,-4.041326046E0
9.844000000E0,1.583448410E0,-1.151648331E1,-9.597645760E0
9.864000000E0,1.373170376E0,-1.272939587E1,-1.739502430E0
9.886014063E0,1.435496330E0,-1.288259602E1,2.007384777E0
9.908000000E0,1.943440557E0,-1.170062733E1,1.107251167E0
9.930000000E0,2.299180746E0,-1.287158298E1,-7.081416607E0
9.950000000E0,7.807300687E-1,-1.382326889E1,-5.780780792E0
9.971998438E0,-2.056169271E0,-1.248082066E1,-2.844053030E0
9.991998438E0,-2.652296543E0,-1.318055916E1,8.178401589E-1
1.001199844E1,-1.976001740E0,-1.583566189E1,3.451893091E0
1.003200000E1,-3.215700150E0,-1.777260971E1,3.009875536E0
1.005399844E1,-4.336809158E0,-1.674284363E1,2.698064327E0
1.007400000E1,-4.138990879E0,-1.443666267E1,2.327068329E0
1.009600000E1,-5.445487499E0,-1.268584919E1,-4.211017787E-1
1.011600000E1,-6.400390625E0,-1.138823986E1,-1.385045648E0
1.013600156E1,-5.848134995E0,-9.279868126E0,-1.642422378E-1
1.015801875E1,-4.697318554E0,-7.369256973E0,-1.376283020E-1
1.017999844E1,-2.684340477E0,-5.794791698E0,-6.817728281E-2
1.019999844E1,-1.046218276E0,-4.607593060E0,1.433063865E0
1.022000000E1,-6.060682535E-1,-4.140561104E0,3.362570047E0
1.024199844E1,-5.619670078E-2,-4.834123135E0,3.737885237E0
1.026200000E1,-8.385164738E-1,-5.006620407E0,2.374186277E0
1.028400000E1,-1.656040549E0,-4.855872154E0,1.845517755E0
1.030601875E1,-2.168811560E0,-4.052253246E0,1.839618444E0
1.032799844E1,-2.139180899E0,-3.114195585E0,2.192360878E0
1.034800000E1,-2.166838646E0,-4.386378288E0,1.585756302E0
1.037000312E1,-2.004081011E0,-1.004542828E1,-9.121391296E0
1.039200000E1,-1.355702400E0,-1.688650513E1,-2.960245514E1
1.041400000E1,-2.758599043E0,-1.666419029E1,-1.564925861E1
1.043599844E1,-1.141028643E0,-1.040037441E1,-8.691909790E0
1.045600156E1,5.560294390E-1,-7.961343288E0,-5.910383701E0
1.047800000E1,1.955373287E0,-7.531277180E0,-5.013401031E0
1.049801562E1,7.350677848E-1,-1.302384472E1,-6.111813068E0
1.052000000E1,-3.797730684E0,-1.518373013E1,7.354633331E0
1.054199844E1,-6.795300007E0,-1.213862228E1,-1.160278082E0
1.056199844E1,-6.445353985E0,-4.606941700E0,1.586532116E0
1.058199844E1,-5.079365730E0,-3.657047272E0,4.297659397E0
1.060200313E1,-6.442672253E0,-8.870029449E0,4.292114258E0
1.062399844E1,-5.172012329E0,-1.454934406E1,2.094256133E-1
1.064400469E1,-3.256937981E0,-1.463797665E1,3.767516017E-1
1.066600000E1,-9.665009379E-1,-1.292673492E1,-1.160747290E0
1.068600469E1,-4.363671839E-1,-1.091245461E1,-2.128062248E-1
1.070804062E1,2.551146507E0,-7.903805733E0,5.700785518E-1
1.073000000E1,5.504748821E-1,-8.658352852E0,-3.295992136E0
1.075000000E1,-2.717993557E-1,-1.048200703E1,1.251372576E0
1.077199844E1,-8.674479723E-1,-8.538451195E0,1.311888456E0
1.079199844E1,-1.392132521E0,-7.029012203E0,-3.287813365E-1
1.081199844E1,-1.098134160E0,-7.079118252E0,-1.059597015E0
1.083200000E1,-1.169615388E0,-7.035438538E0,-5.532904863E-1
1.085200625E1,-1.348385572E0,-6.939124584E0,2.698073685E-1
1.087399844E1,-1.318850875E0,-6.969693184E0,1.069106817E0
1.089400313E1,-1.518661261E0,-8.582734108E0,1.659746885E0
1.091599844E1,-1.575537920E0,-9.987957954E0,8.487061858E-1
1.093600000E1,-1.194218278E0,-1.017008972E1,-9.636566043E-1
1.095600000E1,-3.997167647E-1,-1.177869606E1,-5.949399948E0
1.097600312E1,2.091747046E0,-1.364081097E1,-6.982468605E0
1.099800000E1,2.322998047E0,-1.328316498E1,7.714117765E-1
1.101800000E1,1.958715558E0,-1.162102413E1,1.929736257E0
1.103999844E1,1.839225650E0,-1.160086536E1,-5.329349041E0
1.106000000E1,1.712821484E0,-1.315703773E1,-6.495124340E0
1.108000000E1,-2.790777385E-1,-1.265591335E1,-3.592911482E0
1.110000000E1,-1.750400901E0,-1.331669331E1,3.740317822E-1
1.112200000E1,-2.142915726E0,-1.544384575E1,3.763292551E0
1.114400000E1,-3.339011192E0,-1.739019775E1,3.012719631E0
1.116600000E1,-4.772936821E0,-1.673979950E1,2.433399677E0
1.118800000E1,-5.549980164E0,-1.446228981E1,1.812190413E0
1.120800000E1,-7.830428123E0,-1.253128052E1,-1.923319697E0
1.122999844E1,-6.380355835E0,-1.125320816E1,-6.865133643E-1
1.124999844E1,-5.383774281E0,-9.136694908E0,4.630194604E-1
1.126999844E1,-4.083713055E0,-7.676414013E0,2.546855807E-1
1.129000000E1,-2.408681870E0,-6.179022789E0,-3.194248080E-1
1.131199844E1,-7.454490066E-1,-5.008047581E0,4.582693577E-1
1.133199844E1,-1.924842447E-1,-4.678174496E0,1.591387630E0
1.135199844E1,-3.003956974E-1,-4.761636257E0,2.832082033E0
1.137199844E1,-8.347336650E-1,-4.904502869E0,2.919412851E0
1.139200000E1,-1.505119681E0,-4.744934082E0,2.174567223E0
1.141399844E1,-2.022477865E0,-4.586715698E0,1.756491661E0
1.143399844E1,-2.378907442E0,-3.953688860E0,1.535459042E0
1.145399844E1,-2.313861847E0,-3.592586040E0,1.889934897E0
1.147399844E1,-2.249668360E0,-4.982870102E0,-1.149944663E0
1.149400000E1,-1.236988306E0,-1.115550518E1,-1.270881557E1
1.151600000E1,9.018766284E-1,-1.741850853E1,-2.873492241E1
1.153601406E1,-2.048287392E0,-1.646332550E1,-1.463816833E1
1.155801875E1,-1.219960690E0,-1.207771301E1,-8.595241547E0
1.158000000E1,3.951773643E-1,-7.994306564E0,-7.670246601E0
1.160200000E1,3.294708729E-1,-6.360637188E0,-5.831547260E0
1.162200000E1,-1.268802404E0,-1.048478413E1,-7.521078110E0
1.164399844E1,-3.181463242E0,-1.325975990E1,5.926357746E0
1.166399844E1,-7.761446476E0,-1.315902996E1,-7.164888382E-1
1.168399844E1,-7.533125877E0,-6.134021282E0,1.570596337E0
1.170400000E1,-5.292698860E0,-3.425058842E0,1.000364542E0
1.172600000E1,-6.139365196E0,-7.869951725E0,4.501817226E0
1.174600000E1,-5.528738499E0,-1.463068867E1,5.802587047E-2
1.176600000E1,-2.137572050E0,-1.641807556E1,-3.497784853E0
1.178600000E1,-2.587432861E0,-1.297247505E1,2.830616832E-1
1.180600000E1,-1.154598951E0,-1.101620102E1,3.493073225E0
1.182600000E1,6.669862866E-1,-1.020049572E1,4.325096607E0
1.184601406E1,2.047521353E0,-8.609530449E0,3.656865597E0
1.186799844E1,1.255251169E0,-8.293189049E0,-4.851744652E0
1.188799844E1,3.296528459E-1,-9.098080635E0,-2.513911761E-2
1.190800000E1,2.544557489E-2,-8.048147202E0,6.502651609E-3
1.192800000E1,-6.874902248E-1,-7.142545223E0,-6.204621792E-1
1.194999844E1,-1.068666220E0,-6.568013668E0,-2.591196597E-1
1.196999844E1,-1.176721454E0,-6.281925678E0,1.413919777E-1
1.198999844E1,-1.129191756E0,-6.134892941E0,9.571731091E-1
1.200999844E1,-1.519063473E0,-7.888999939E0,1.272029757E0
1.202999844E1,-1.796762228E0,-1.089657688E1,1.026432633E0
1.204999844E1,-1.826344967E0,-1.230050755E1,3.841831684E-1
1.206999844E1,-1.811692357E0,-1.063859653E1,-3.195291996E0
1.208999844E1,-2.792980075E-1,-1.111596298E1,-6.092946053E0
1.210999844E1,1.498052001E0,-1.305459595E1,-8.384973407E-1
1.212999844E1,2.169999123E0,-1.317573261E1,2.938480377E0
1.214999844E1,1.749682665E0,-1.191555882E1,3.200387001E0
1.216999844E1,1.726190686E0,-1.207092285E1,-1.123991489E0
1.218999844E1,1.212423682E0,-1.298729038E1,-8.749256134E0
1.220999844E1,-5.654146522E-2,-1.281000423E1,-5.122308254E0
1.222999844E1,-1.302493691E0,-1.267768097E1,-6.284970641E-1
1.224999844E1,-2.779419184E0,-1.262903118E1,-1.106810689E0
1.226999844E1,-2.964012146E0,-1.463903046E1,1.665808916E0
1.228999844E1,-2.496376753E0,-1.560778141E1,3.670866728E0
1.230999844E1,-3.636801958E0,-1.513593292E1,2.777417660E0
1.233000156E1,-4.417091370E0,-1.399992180E1,2.221378565E0
1.235199844E1,-4.357887745E0,-1.306786919E1,8.230594993E-1
1.237199844E1,-5.316880226E0,-1.318054008E1,-4.027947426E0
1.239199844E1,-4.559517384E0,-1.089522648E1,-4.325939417E-1
1.241200000E1,-4.263689995E0,-8.224599838E0,6.207973361E-1
1.243399844E1,-2.568145275E0,-6.830255508E0,-1.176031902E-1
1.245399844E1,-1.114701986E0,-6.308156013E0,3.268372416E-1
1.247399844E1,-3.566690087E-1,-5.819519043E0,9.770641327E-1
1.249400000E1,-1.427806020E-1,-5.641735554E0,1.869153261E0
1.251600000E1,-1.362185836E0,-4.910574913E0,2.446280241E0
1.253600000E1,-2.209877014E0,-4.019701958E0,2.142035007E0
1.255801875E1,-2.487661839E0,-3.846083879E0,1.057356119E0
1.258000000E1,-2.456460476E0,-3.900125742E0,1.121817589E0
1.260200000E1,-2.632080078E0,-3.109062433E0,5.804694295E-1
1.262200000E1,-2.218313932E0,-2.950805664E0,-1.357522011E0
1.264399844E1,-1.824458241E0,-5.367541313E0,-5.476870537E0
1.266399844E1,-3.222595528E-2,-1.273085117E1,-1.294398308E1
1.268399844E1,1.217633486E0,-2.137435150E1,-3.009256744E1
1.270404375E1,9.955282211E-1,-1.894825745E1,-1.173167515E1
1.272600000E1,7.178678513E-1,-1.049915791E1,-9.100006104E0
1.274600000E1,-1.089457512E0,-1.114805508E1,-9.882248878E0
1.276800000E1,-5.674392223E0,-1.802436447E1,-1.094808102E1
1.279000000E1,-8.544466019E0,-1.403507805E1,1.415941429E1
1.281199844E1,-6.217329979E0,-4.741314411E0,9.131648064E0
1.283200000E1,-2.216437101E0,-1.461583495E0,4.310865879E0
1.285400000E1,-1.854788065E0,-2.427069426E0,2.807910204E0
1.287600469E1,-5.497001171E0,-1.151332283E1,2.928769588E0
1.289799844E1,-6.851880074E0,-2.049743080E1,2.825732708E0
1.291800469E1,-4.333122253E0,-1.706783295E1,2.728345871E0
1.294000000E1,-8.939278722E-1,-1.185977364E1,4.240514338E-1
1.296200000E1,3.658809662E0,-7.321420670E0,-6.884297371E0
1.298200000E1,1.596645266E-1,-9.077175140E0,-4.601847231E-1
1.300200625E1,-5.807375535E-2,-1.086032867E1,1.559841514E0
1.302399844E1,-1.803312637E-2,-9.159602165E0,1.115314960E-1
1.304399844E1,-1.536790133E-1,-6.687331200E0,-2.394355059E0
1.306399844E1,-1.188002825E-1,-6.780197144E0,-2.271532536E0
1.308399844E1,-2.411535680E-1,-6.899917126E0,-4.905432165E-1
1.310399844E1,-7.785369158E-1,-6.482559681E0,5.618425012E-1
1.312399844E1,-1.204992175E0,-6.217597961E0,1.029200315E0
1.314399844E1,-1.659277558E0,-7.017175198E0,1.308402419E0
1.316399844E1,-2.119088888E0,-8.464412689E0,5.316947699E-1
1.318400781E1,-2.179039478E0,-9.656399727E0,-1.220008492E0
1.320599844E1,-6.064033881E-2,-1.164742756E1,-4.078896046E0
1.322600625E1,2.626027346E0,-1.345893764E1,-4.578001022E0
1.324602031E1,3.101630926E0,-1.361566257E1,-1.251200199E0
1.326800000E1,1.521170378E0,-1.241978741E1,-1.392611384E0
1.329000000E1,-2.968905866E-1,-1.422157669E1,-4.540766239E0
1.331199844E1,-4.469495639E-2,-1.468428040E1,-2.844560623E0
1.333199844E1,-5.960317254E-1,-1.354544544E1,-1.063207507E0
1.335199844E1,-2.891553879E0,-1.303053856E1,-2.127631426E0
1.337199844E1,-2.782953024E0,-1.464609718E1,2.052213907E0
1.339200625E1,-2.697259665E0,-1.541282749E1,3.126377106E0
1.341399844E1,-4.508003712E0,-1.513392067E1,2.359706163E0
1.343399844E1,-5.002167702E0,-1.406765938E1,2.297772884E0
1.345399844E1,-5.982793808E0,-1.302258968E1,-7.145351768E-1
1.347399844E1,-5.751427650E0,-1.227739906E1,-1.502888322E0
1.349400000E1,-4.789772987E0,-1.024549770E1,-2.987197638E-1
1.351600313E1,-3.598341465E0,-8.282951355E0,-6.554366350E-1
1.353601406E1,-2.209934235E0,-7.179875374E0,-6.390794516E-1
1.355801875E1,-9.588202834E-1,-6.216257095E0,9.496744871E-1
1.358000000E1,-2.307052761E-1,-5.929326534E0,2.481322050E0
1.360199844E1,4.987601191E-2,-6.124243736E0,2.207741261E0
1.362200000E1,-1.050834179E0,-5.668655872E0,2.328897476E0
1.364399844E1,-1.918148160E0,-4.413998127E0,2.011081457E0
1.366399844E1,-1.840528250E0,-3.509468794E0,1.973368049E0
1.368399844E1,-1.929755211E0,-2.564802885E0,1.887550235E0
1.370400000E1,-1.680748820E0,-2.097473860E0,2.990549564E0
1.372600000E1,-1.358757377E0,-4.147169113E0,-3.923713267E-1
1.374600000E1,-1.517914295E0,-1.031858826E1,-1.131603146E1
1.376600000E1,5.936279297E-1,-1.973185158E1,-3.902398300E1
1.378600000E1,1.719803065E-1,-2.067426682E1,-1.281900597E1
1.380600000E1,-1.909289718E0,-1.120220089E1,-8.681039810E0
1.382600000E1,-1.284479618E0,-6.599722385E0,-9.026561737E0
1.384800000E1,-5.486514091E0,-1.181991482E1,-1.200134754E1
1.386800000E1,-5.900720596E0,-1.573274899E1,3.098087311E0
1.388800000E1,-6.994382381E0,-1.030134010E1,1.342719078E1
1.390800000E1,-4.389903069E0,-4.400782108E0,6.388505936E0
1.392800000E1,-1.960946918E0,-2.843047380E0,2.120324135E0
1.394800000E1,-2.504277706E0,-7.533164024E0,1.035817862E0
1.396999844E1,-5.486054897E0,-1.623382759E1,1.161819935E0
1.399000000E1,-5.312915325E0,-1.838529587E1,2.002778530E0
1.401000000E1,-1.017497420E0,-1.510276794E1,1.357090950E0
1.403200000E1,2.156543732E0,-1.240165806E1,-3.627924204E0
1.405399844E1,4.638718069E-1,-9.236284256E0,8.486679196E-1
1.407399844E1,-6.971915253E-3,-7.510648727E0,-9.156959653E-1
1.409399844E1,-8.158290386E-1,-7.573865891E0,-1.056522965E0
1.411400000E1,-1.040951014E0,-7.788558483E0,-2.284355760E-1
1.413600000E1,-1.018675327E0,-7.311700821E0,-1.626381278E0
1.415600938E1,-6.703668833E-1,-7.158700943E0,-1.901934743E0
1.417601406E1,-5.225393176E-1,-7.008891582E0,-8.702636361E-1
1.419800000E1,-1.222948551E0,-6.775016308E0,6.094392538E-1
1.422000000E1,-1.353269935E0,-6.308549404E0,1.551787496E0
1.424199844E1,-1.393185854E0,-7.703075886E0,1.616469264E0
1.426200000E1,-1.778671622E0,-9.693346977E0,6.986663938E-1
1.428400000E1,-1.530852556E0,-1.008574677E1,-1.197771192E0
1.430600000E1,3.885501921E-1,-1.096065521E1,-3.050002098E0
1.432600000E1,2.282162666E0,-1.321203804E1,-2.568796396E0
1.434600000E1,2.455636978E0,-1.377618885E1,-3.259370327E-1
1.436600000E1,1.187552691E0,-1.227789783E1,-4.851227105E-1
1.438600000E1,-2.716652751E-1,-1.285873985E1,-3.544356823E0
1.440600000E1,-1.849472970E-1,-1.448924923E1,-4.805861950E0
1.442600000E1,6.512611508E-1,-1.402058887E1,-1.639367342E0
1.444600000E1,-3.434051573E-1,-1.297574997E1,-1.875713319E-1
1.446600000E1,-2.793535471E0,-1.260157394E1,-2.863044024E0
1.448800000E1,-2.491492510E0,-1.499231815E1,1.544576168E0
1.451000000E1,-2.689406633E0,-1.542694378E1,3.108200550E0
1.453000000E1,-3.860947132E0,-1.433862495E1,2.608837128E0
1.455200000E1,-4.146489143E0,-1.303209019E1,2.575002193E0
1.457400000E1,-4.317262650E0,-1.298064327E1,-8.132624626E-1
1.459600000E1,-4.480480671E0,-1.234929180E1,-1.783335447E0
1.461600625E1,-4.415224075E0,-1.007047176E1,3.706223890E-2
1.463800000E1,-3.416372538E0,-7.700739384E0,-2.698744275E-2
1.465801875E1,-1.670233369E0,-6.670178890E0,1.245559454E-1
1.467999844E1,-8.384973407E-1,-5.788231373E0,1.019489408E0
1.470004375E1,-2.358671725E-1,-5.852376938E0,2.002701759E0
1.472200000E1,-1.164798379E0,-5.601914883E0,2.359083414E0
1.474399844E1,-2.025887251E0,-4.724200726E0,2.763272762E0
1.476399844E1,-2.026749134E0,-4.340850353E0,1.958140969E0
1.478400000E1,-2.194812536E0,-3.854932785E0,1.252311110E0
1.480600000E1,-2.354496241E0,-2.853744984E0,1.737874389E0
1.482799844E1,-2.076835871E0,-2.711059809E0,1.218533635E0
1.484800000E1,-2.232305765E0,-5.376792908E0,-2.730663538E0
1.486999844E1,-1.585516930E0,-1.310802460E1,-1.774752808E1
1.488999844E1,9.999335408E-1,-2.192912483E1,-3.178497124E1
1.490999844E1,2.600103021E-1,-1.758547783E1,-9.934682846E0
1.492999844E1,1.454717014E-2,-9.406951904E0,-8.790828705E0
1.495000000E1,1.954272032E0,-5.108805180E0,-8.002580643E0
1.497200000E1,6.364266872E-1,-7.230479717E0,-8.625810623E0
1.499400000E1,-4.580079079E0,-1.224644756E1,1.266085434E1
1.501599844E1,-7.888568878E0,-1.769481659E1,-1.133147001E0
1.503599844E1,-7.312390327E0,-9.029061317E0,1.016932368E0
1.505600781E1,-3.678690910E0,-5.699378014E0,2.907949448E0
1.507799844E1,-4.079164505E0,-7.851612091E0,8.287250519E0
1.509799844E1,-5.146231651E0,-1.421676922E1,1.824056029E0
1.511799844E1,-3.944705725E0,-1.581372166E1,7.841489315E-1
1.513800000E1,-1.786764026E0,-1.438251591E1,-1.019422412E0
1.515801875E1,-3.658435941E-1,-1.112351894E1,-4.063439071E-1
1.517999844E1,3.817506731E-1,-8.449118614E0,3.862469673E0
1.519999844E1,6.939832568E-1,-6.625953197E0,-3.205912590E0
1.522000000E1,-1.081594944E0,-8.881836891E0,-2.771728992E0
1.524000000E1,-8.250227571E-1,-9.792246819E0,2.928587608E-2
1.526199844E1,-1.434538603E0,-7.151834965E0,-1.409428239E0
1.528199844E1,-1.735087514E0,-6.329158306E0,-1.821901202E0
1.530199844E1,-1.157117724E0,-6.774259567E0,-7.521815896E-1
1.532200000E1,-7.372800112E-1,-6.290065765E0,7.166707516E-1
1.534200000E1,-7.072854638E-1,-5.924136162E0,1.768462777E0
1.536200000E1,-1.194467306E0,-8.236839294E0,2.240876913E0
1.538399844E1,-1.257817745E0,-1.104126358E1,8.288343549E-1
1.540399844E1,-9.456139207E-1,-1.149876690E1,-1.413843155E0
1.542400000E1,2.893536389E-1,-1.045769978E1,-7.849629879E0
1.544600000E1,1.606566787E0,-1.250769234E1,-2.967095852E0
1.546600000E1,1.719496489E0,-1.324651432E1,2.679073572E0
1.548600625E1,1.586781144E0,-1.260378647E1,4.065929413E0
1.550800156E1,1.524081826E0,-1.313293362E1,-8.224274516E-1
1.552999844E1,4.012011588E-1,-1.374521732E1,-8.251740456E0
1.554999844E1,-1.227200747E0,-1.273696232E1,-4.183321953E0
1.556999844E1,-2.593121529E0,-1.158938217E1,-1.530948400E0
1.558999844E1,-3.594501257E0,-1.222122192E1,-2.022870541E0
1.560999844E1,-2.267778397E0,-1.483567047E1,2.601549149E0
1.562999844E1,-2.283292770E0,-1.543888474E1,3.481830120E0
1.564999844E1,-3.356335640E0,-1.525689793E1,3.245340347E0
1.566999844E1,-3.603953600E0,-1.431521988E1,2.889772654E0
1.568999844E1,-3.439682722E0,-1.287660027E1,1.947941661E0
1.570999844E1,-4.334980011E0,-1.216849232E1,-3.632032633E0
1.573000000E1,-3.944226980E0,-1.017290497E1,-1.479702830E0
1.575199844E1,-3.676191330E0,-7.681010723E0,4.548313022E-1
1.577199844E1,-2.096229076E0,-6.543238163E0,2.278513908E-1
1.579199844E1,-6.082230210E-1,-5.955931187E0,7.239682674E-1
1.581199844E1,-7.967903465E-2,-5.788289070E0,1.212749362E0
1.583199844E1,-2.198451906E-1,-5.752739906E0,1.658501863E0
1.585199844E1,-1.488580585E0,-5.505821228E0,2.484137535E0
1.587199844E1,-2.399584055E0,-5.010700226E0,2.693965435E0
1.589199844E1,-2.523067236E0,-4.896534920E0,2.141010046E0
1.591199844E1,-2.698705912E0,-4.489147663E0,1.678469539E0
1.593199844E1,-2.773692131E0,-3.637721539E0,1.019211650E0
1.595199844E1,-2.514026642E0,-3.369896173E0,-5.539320707E-1
1.597200000E1,-1.494115949E0,-6.004111767E0,-4.019989491E0
1.599399844E1,-5.217636228E-1,-1.290587711E1,-1.527910519E1
1.601399844E1,1.226223826E0,-2.015404510E1,-3.126503754E1
1.603400000E1,7.013191581E-1,-1.815881157E1,-9.332828522E0
1.605600156E1,-1.985434771E0,-9.987469673E0,-8.761906624E0
1.607799844E1,-1.827082396E0,-8.347335815E0,-7.731911659E0
1.609800000E1,-4.382614613E0,-1.291396999E1,-9.232769966E0
1.611800000E1,-3.381781340E0,-1.499403286E1,2.382814884E0
1.613999844E1,-6.346540451E0,-8.486640930E0,9.785552979E0
1.615999844E1,-3.819757223E0,-3.379386902E0,5.162339211E0
1.617999844E1,-1.520069122E0,-1.938939452E0,2.248212814E0
1.619999844E1,-1.990663767E0,-5.905470848E0,1.780711412E0
1.621999844E1,-4.949628830E0,-1.556701374E1,2.409735441E0
1.623999844E1,-4.737933636E0,-1.985155296E1,2.620195150E0
1.626000469E1,-2.334279537E0,-1.657094955E1,2.917986155E0
1.628199844E1,2.216082811E0,-1.094153976E1,-4.869126320E0
1.630199844E1,5.087582469E-1,-7.956401348E0,-2.273993731E0
1.632199844E1,-1.126739979E0,-8.011966705E0,-4.737646282E-1
1.634199844E1,-1.140358329E0,-8.578146935E0,2.875052989E-1
1.636199844E1,-1.063887477E0,-7.851698399E0,9.318233468E-3
1.638199844E1,-1.722790837E0,-6.417609692E0,-8.957857490E-1
1.640199844E1,-1.818463206E0,-6.598889351E0,-1.678517342E0
1.642199844E1,-1.358527422E0,-7.517007828E0,-1.298595786E0
1.644200000E1,-9.230605364E-1,-7.813189983E0,-3.191949800E-2
1.646200000E1,-8.470589519E-1,-6.926368237E0,1.179517865E0
1.648200000E1,-8.783751130E-1,-6.995436192E0,2.737693071E0
1.650400000E1,-1.181595922E0,-9.688712120E0,2.048622608E0
1.652600000E1,-1.477844954E0,-1.116019726E1,3.109685183E-1
1.654800000E1,-1.550283909E0,-1.134744358E1,-5.243359566E0
1.656999844E1,1.177238584E0,-1.264205551E1,-8.792140961E0
1.659000000E1,1.519666910E0,-1.342096615E1,-1.181299165E-1
1.661200000E1,1.436291099E0,-1.283651257E1,3.401902199E0
1.663400000E1,1.820378542E0,-1.322783947E1,2.590526044E-1
1.665600469E1,3.212980509E0,-1.399972057E1,-6.626585484E0
1.667799844E1,9.781175852E-1,-1.299564075E1,-3.348846436E0
1.669800000E1,-1.928768873E0,-1.195848274E1,-1.366438031E0
1.672000000E1,-3.572484016E0,-1.348166370E1,2.509123385E-1
1.674000000E1,-2.824612141E0,-1.532382011E1,3.119300127E0
1.676200000E1,-4.023753166E0,-1.471813488E1,3.022526264E0
1.678400000E1,-4.866914272E0,-1.344020653E1,2.448262691E0
1.680600000E1,-4.124519825E0,-1.269248676E1,1.831123829E0
1.682600000E1,-4.679831028E0,-1.278107262E1,-2.989811897E0
1.684600469E1,-4.119521141E0,-1.047468090E1,-1.029353499E0
1.686800000E1,-3.344642401E0,-7.996011257E0,-1.723825233E-3
1.688800000E1,-1.995270252E0,-6.956736565E0,-6.201940030E-2
1.690800000E1,-6.943759918E-1,-6.180248737E0,1.686571538E-1
1.693000000E1,-1.089457572E-1,-5.950635433E0,2.061331034E0
1.695199844E1,1.118379533E-1,-6.275642872E0,2.763588667E0
1.697199844E1,-6.642952561E-1,-6.505457878E0,2.590124130E0
1.699200000E1,-1.711298704E0,-6.069674969E0,1.746349812E0
1.701400000E1,-2.459362268E0,-4.718980789E0,1.716527700E0
1.703600000E1,-2.981346130E0,-3.306632042E0,1.564371347E0
1.705600000E1,-3.028856754E0,-2.448090315E0,7.885734439E-1
1.707800000E1,-2.736352205E0,-3.293846846E0,-1.798160434E0
1.709800625E1,-1.974507689E0,-9.067195892E0,-9.223777771E0
1.711999844E1,6.461471319E-2,-1.649880791E1,-2.944534683E1
1.714000000E1,1.036018953E-1,-2.033568764E1,-1.667982864E1
1.716000000E1,-1.586819410E0,-1.461373806E1,-8.291675568E0
1.718200000E1,2.732262947E-2,-7.685224533E0,-7.984107494E0
1.720400000E1,-4.879191518E-1,-6.794888020E0,-8.890130997E0
1.722600625E1,-3.432518959E0,-1.213285637E1,4.940243721E0
1.724799844E1,-7.954658508E0,-1.370105839E1,8.252985001E0
1.726800000E1,-7.464795589E0,-9.347596169E0,-2.562188387E0
1.729000000E1,-3.986623526E0,-5.265079498E0,3.281531334E0
1.731199844E1,-3.191480398E0,-8.515954971E0,4.988290310E0
1.733200000E1,-4.212320328E0,-1.369647121E1,4.475710869E0
1.735399844E1,-3.386492968E0,-1.577067375E1,2.394546270E0
1.737399844E1,-2.058458090E0,-1.437392521E1,1.282468557E0
1.739399844E1,1.592785716E0,-1.146988297E1,-6.664404392E0
1.741400000E1,7.352976799E-1,-7.515667439E0,3.717113018E0
1.743400469E1,5.628960133E-1,-7.504653931E0,-2.546453953E0
1.745601875E1,-6.651188135E-1,-9.482427597E0,-1.381550193E0
1.747800000E1,-6.497768164E-1,-8.850233078E0,4.405331016E-1
1.749800000E1,-1.394507527E0,-6.430969238E0,-6.925467849E-1
1.751800156E1,-1.665540814E0,-5.858544350E0,-1.768740535E0
1.754000000E1,-1.370517731E0,-6.540489674E0,-1.419301867E0
1.756199844E1,-8.207132220E-1,-7.393045902E0,3.838671446E-1
1.758199844E1,-7.352880836E-1,-7.680819511E0,1.754480600E0
1.760199844E1,-9.672957659E-1,-9.104430199E0,2.547909498E0
1.762200000E1,-8.916677237E-1,-1.045699215E1,1.322729349E0
1.764200156E1,-5.525625944E-1,-1.044669724E1,-2.845269144E-1
1.766399844E1,-1.629493684E-1,-1.153066730E1,-3.244114399E0
1.768400156E1,6.531956792E-1,-1.260381508E1,-6.106526375E0
1.770600000E1,1.562781572E0,-1.303290462E1,-1.775147319E0
1.772600000E1,1.534089446E0,-1.253873158E1,2.371227026E0
1.774600000E1,8.846575022E-1,-1.243943882E1,5.192353129E-1
1.776800000E1,2.353979200E-1,-1.383109283E1,-5.834794044E0
1.779000000E1,-5.105395913E-1,-1.300018978E1,-4.739810467E0
1.781000000E1,-1.530814171E0,-1.218720531E1,-2.074499369E0
1.783200312E1,-2.989007473E0,-1.167895412E1,-2.264598846E0
1.785400000E1,-2.297619581E0,-1.373555470E1,2.629580498E0
1.787400156E1,-2.333341122E0,-1.480399990E1,3.134766579E0
1.789600000E1,-2.941918373E0,-1.461036682E1,2.733316422E0
1.791600312E1,-3.290686607E0,-1.387780857E1,2.647144318E0
1.793799844E1,-4.144458771E0,-1.347844505E1,3.504057825E-1
1.795801875E1,-4.947110176E0,-1.337833023E1,-3.044150829E0
1.797999844E1,-4.372147560E0,-1.054460049E1,-1.009424210E0
1.799999844E1,-3.004387856E0,-7.920784950E0,1.379347593E-1
1.802000000E1,-1.323083758E0,-6.412457466E0,5.194459856E-2
1.804000000E1,-2.043977827E-1,-5.366200447E0,1.521189570E0
1.806199844E1,9.340929985E-1,-5.494779110E0,2.943460226E0
1.808199844E1,6.042581797E-1,-5.868370056E0,2.741571426E0
1.810199844E1,-8.841212392E-1,-5.351854801E0,2.253039598E0
1.812200000E1,-1.789005041E0,-4.605716228E0,2.004301071E0
1.814400000E1,-2.317759514E0,-4.093586922E0,1.606911659E0
1.816600000E1,-2.842923164E0,-3.792798519E0,1.381253242E0
1.818799844E1,-1.876881719E0,-4.012528896E0,-2.326321363E0
1.820800000E1,-4.618798196E-1,-5.531486988E0,-8.317887306E0
1.823000000E1,4.312445641E0,-1.191040611E1,-1.115095615E1
1.825200000E1,1.447266221E0,-1.692570305E1,-1.524170780E1
1.827399844E1,-3.586724758E0,-1.719614220E1,-1.473060322E1
1.829400000E1,-2.410434246E0,-9.663045883E0,-8.855491638E0
1.831600000E1,-4.011532962E-1,-3.660389662E0,-9.257937431E0
1.833601250E1,-3.407562017E0,-7.149306774E0,-8.146798134E0
1.835801875E1,-6.784956932E0,-1.564055347E1,7.406089306E0
1.838000000E1,-6.132900715E0,-1.826551819E1,-9.895235300E-1
1.840200000E1,-5.192774296E0,-6.595767021E0,4.698850632E0
1.842400000E1,-1.434136391E0,-6.164016247E0,4.428123951E0
1.844600000E1,-1.979315281E0,-1.045527744E1,5.401309490E0
1.846600000E1,-3.659527779E0,-1.515972137E1,3.489539385E0
1.848600000E1,-3.624562740E0,-1.672627449E1,2.277460337E0
1.850800000E1,5.089019537E-1,-1.469348431E1,-3.465559006E0
1.852999844E1,2.948794663E-1,-1.013198376E1,-1.050604463E0
1.854999844E1,-2.291251123E-1,-6.673693180E0,1.553884745E0
1.856999844E1,-1.727799535E0,-7.545527935E0,-4.099237442E0
1.859000000E1,-9.554492831E-1,-9.408638000E0,-7.645930648E-1
1.861200000E1,-7.672267556E-1,-7.921216488E0,-6.957167387E-1
1.863400000E1,-7.808161974E-1,-6.498696804E0,-1.919431567E0
1.865600000E1,-5.272894502E-1,-6.458512306E0,-9.388813972E-1
1.867600156E1,-4.666586220E-1,-6.087975979E0,5.652135611E-1
1.869600469E1,-6.352295876E-1,-5.531266689E0,1.759221077E0
1.871799844E1,-1.184277415E0,-7.185440063E0,2.166723967E0
1.873800000E1,-1.460654497E0,-1.009516144E1,1.079737067E0
1.875802031E1,-1.492583632E0,-1.200431633E1,-6.370875239E-1
1.877999844E1,-8.668638468E-1,-1.184085083E1,-4.346079826E0
1.880000000E1,8.002858758E-1,-1.209670448E1,-4.550524712E0
1.882000000E1,1.864786267E0,-1.296934319E1,-3.313383460E-1
1.884199844E1,2.130887508E0,-1.241636848E1,2.696579933E0
1.886199844E1,1.843161821E0,-1.316267967E1,2.860113084E-1
1.888199844E1,2.042838335E0,-1.541803646E1,-5.905528545E0
1.890200000E1,1.021778226E0,-1.458718204E1,-4.166332722E0
1.892400000E1,-1.474014163E0,-1.254755211E1,-2.709297895E0
1.894599844E1,-3.983827114E0,-1.103306580E1,-5.310147762E0
1.896600469E1,-3.070659399E0,-1.354379749E1,1.589041233E0
1.898800000E1,-1.992751598E0,-1.441957855E1,4.341683388E0
1.900800000E1,-3.560676098E0,-1.484151268E1,4.030820370E0
1.902800000E1,-4.223716736E0,-1.458761215E1,3.305578709E0
1.904800000E1,-3.822141886E0,-1.439301205E1,2.420269728E0
1.906800000E1,-4.503426075E0,-1.355926418E1,-2.820130110E0
1.909000000E1,-5.094956875E0,-1.161352539E1,-3.330976248E0
1.911000000E1,-3.535785913E0,-8.236379623E0,-1.321312040E-1
1.913199844E1,-1.856808662E0,-5.972441196E0,7.120643258E-1
1.915200000E1,-4.687176645E-1,-5.169004917E0,9.515227675E-1
1.917399844E1,3.466420770E-1,-5.487960339E0,1.550628662E0
1.919399844E1,-4.654902518E-1,-5.630511284E0,2.366534472E0
1.921399844E1,-1.944924951E0,-4.890731335E0,2.729840040E0
1.923400000E1,-2.731333971E0,-3.891296148E0,2.606002331E0
1.925599844E1,-2.650371790E0,-3.429540873E0,2.077803135E0
1.927599844E1,-2.352532864E0,-2.859663248E0,1.877216935E0
1.929599844E1,-1.974411964E0,-2.451518774E0,1.713443995E0
1.931600000E1,-1.171597719E0,-4.466172218E0,-1.056331396E0
1.933600625E1,-4.613722563E-1,-1.109979725E1,-1.177367878E1
1.935802031E1,1.007144928E0,-1.896263313E1,-3.315277863E1
1.938000000E1,-2.486991405E0,-1.988341331E1,-1.509210968E1
1.940200000E1,-4.327605724E0,-1.031515884E1,-6.452258587E0
1.942400000E1,1.303786486E-1,-6.068889618E0,-7.049468040E0
1.944600000E1,2.082093477E0,-7.199048519E0,-5.732513905E0
1.946600000E1,-2.637241840E0,-1.055018330E1,1.055524063E1
1.948800000E1,-5.281331062E0,-1.632257462E1,-1.003406048E1
1.950800000E1,-5.321228027E0,-8.746803284E0,5.781710148E0
1.952800000E1,-4.439213753E0,-5.514966965E0,6.263318062E0
1.954800000E1,-5.540824413E0,-1.142010212E1,2.228819847E0
1.956800000E1,-4.093548775E0,-1.568851471E1,1.487163186E0
1.959000000E1,-3.338331223E0,-1.538994694E1,1.576112509E0
1.961200000E1,-1.928156018E0,-1.330449200E1,1.942119002E0
1.963400000E1,5.869241953E-1,-1.047558022E1,-1.387008905E0
1.965600625E1,1.163179755E0,-6.731307507E0,-2.258306891E-1
1.967799844E1,-6.066811681E-1,-8.635224342E0,-2.325698614E0
1.969800625E1,-5.826241970E-1,-1.016722679E1,1.907221079E-1
1.971999844E1,-5.799714327E-1,-7.932325363E0,-2.587078512E-1
1.973999844E1,-8.288056254E-1,-6.193455219E0,-2.349372625E0
1.975999844E1,-4.961360395E-1,-6.335756779E0,-2.210681438E0
1.977999844E1,-2.365088165E-1,-6.598084450E0,-9.220262170E-1
1.979999844E1,-1.419091225E-1,-6.409833431E0,6.991547942E-1
1.981999844E1,-1.948305517E-1,-6.832697392E0,1.558165669E0
1.983999844E1,-4.761013687E-1,-9.641689301E0,1.904702425E0
1.985999844E1,-5.924882889E-1,-1.133991623E1,3.562955260E-1
1.987999844E1,-4.841267467E-1,-1.069714928E1,-2.813321114E0
1.989999844E1,-5.530414581E-1,-1.149809647E1,-6.450381756E0
1.991999844E1,5.906591415E-1,-1.271543217E1,-2.325335026E0
1.993999844E1,1.172210693E0,-1.264101219E1,2.036948442E0
1.995999844E1,6.779516935E-1,-1.247138691E1,1.848984480E0
1.997999844E1,3.272873759E-1,-1.414375591E1,-2.295771122E0
1.999999844E1,2.076538950E-1,-1.474327374E1,-6.027077198E0
2.001999844E1,-3.456844091E-1,-1.373572636E1,-4.523997784E0
2.003999844E1,-1.535775065E0,-1.250666809E1,-2.732119322E0
2.005999844E1,-1.977620244E0,-1.247914410E1,1.440447569E-1
2.007999844E1,-1.633266926E0,-1.354889297E1,3.436608315E0
2.009999844E1,-1.880836964E0,-1.498468590E1,3.375326395E0
2.012000000E1,-3.122556210E0,-1.528439236E1,2.978032589E0
2.014000000E1,-3.506164789E0,-1.415096760E1,2.279500246E0
2.016000000E1,-4.058210373E0,-1.320362949E1,-1.329605579E0
2.018000000E1,-4.651253700E0,-1.193422318E1,-3.245301962E0
2.020199844E1,-3.891966343E0,-9.660795212E0,-1.095510125E0
2.022199844E1,-2.938623905E0,-7.701485634E0,1.410855055E-1
2.024199844E1,-1.132581949E0,-6.224771023E0,1.328494549E-1
2.026200000E1,4.770207778E-2,-5.222731113E0,1.151304603E0
2.028400000E1,8.172655702E-1,-5.205138206E0,2.421744585E0
2.030600000E1,6.582235098E-1,-6.028101921E0,3.179384947E0
2.032600000E1,-9.634937644E-1,-5.718397617E0,2.647785902E0
2.034600000E1,-1.828231573E0,-5.240380764E0,2.057873726E0
2.036799844E1,-2.530058384E0,-4.832092762E0,1.863234758E0
2.038800000E1,-3.042551517E0,-4.232259274E0,1.328676581E0
2.040800000E1,-3.585326672E0,-3.303059816E0,1.422433615E0
2.042800000E1,-2.809049845E0,-3.694013834E0,-1.329969525E0
2.045000000E1,-1.801368594E0,-8.776721954E0,-6.834852219E0
2.047200000E1,-4.355340302E-1,-1.621323776E1,-2.160351372E1
2.049400000E1,-2.098019838E0,-1.939953804E1,-1.942230034E1
2.051600000E1,7.063086629E-1,-1.364016914E1,-1.022660255E1
2.053600000E1,2.516641140E0,-1.046678925E1,-7.516213417E0
2.055600000E1,4.116092205E0,-7.698306561E0,-3.714000463E0
2.057601250E1,1.398864985E0,-8.076848984E0,-3.934860945E0
2.059800000E1,-4.354861259E0,-1.201888275E1,6.843050003E0
2.062000000E1,-7.076752663E0,-1.900452232E1,-1.012525082E1
2.064000000E1,-6.676365852E0,-9.214477539E0,4.669899940E0
2.066000000E1,-5.277634621E0,-3.315825701E0,8.677410126E0
2.068200000E1,-6.283199310E0,-4.418307781E0,4.338839531E0
2.070399844E1,-5.553772449E0,-1.087792110E1,-1.074354887E0
2.072399844E1,-3.380928993E0,-1.500841713E1,-2.427366257E0
2.074399844E1,-2.261629820E0,-1.361106586E1,-4.395275712E-1
2.076399844E1,-1.030301690E0,-1.143993664E1,3.059837580E0
2.078399844E1,7.527083158E-1,-9.501418114E0,7.945033550E0
2.080399844E1,3.397755384E0,-9.576710701E0,-7.028054714E0
2.082399844E1,8.349059820E-1,-1.040487480E1,-2.460808277E0
2.084399844E1,2.024824172E-1,-9.951279640E0,9.377609491E-1
2.086399844E1,-4.909837246E-1,-7.544828415E0,-1.117555857E0
2.088399844E1,-1.001801014E0,-6.416202068E0,-2.260748863E0
2.090399844E1,-9.156480432E-1,-6.019387245E0,-2.097311020E0
2.092399844E1,-4.111131728E-1,-6.583307743E0,-5.544587970E-1
2.094399844E1,-2.226894796E-1,-7.092152119E0,1.316657662E0
2.096399844E1,-3.455598950E-1,-7.304355145E0,2.312463522E0
2.098399844E1,-5.839745402E-1,-9.438612938E0,3.205223083E0
2.100399844E1,-7.586171627E-1,-1.216521645E1,1.948487520E0
2.102399844E1,-1.548952818E0,-1.165792370E1,-1.211983204E0
2.104399844E1,-2.010171652E0,-1.055950165E1,-6.638814926E0
2.106399844E1,2.396595925E-1,-1.217525291E1,-5.027957439E0
2.108399844E1,1.494977951E0,-1.284767914E1,9.715095758E-1
2.110399844E1,1.374089837E0,-1.216601181E1,3.639732361E0
2.112400000E1,6.460226178E-1,-1.323326111E1,1.424061656E0
2.114400000E1,4.090062678E-1,-1.443802261E1,-6.914349079E0
2.116600000E1,-1.502984017E-1,-1.352851391E1,-6.216678619E0
2.118600000E1,-9.934213161E-1,-1.257258511E1,-1.209646463E0
2.120800000E1,-2.207837105E0,-1.157806206E1,-1.279767871E0
2.122999844E1,-1.977725625E0,-1.316165447E1,1.565032244E0
2.124999844E1,-1.856291652E0,-1.386699581E1,3.077133417E0
2.126999844E1,-2.571602583E0,-1.373245144E1,2.918761730E0
2.128999844E1,-3.326877356E0,-1.326184654E1,2.392688513E0
2.130999844E1,-3.000279427E0,-1.289396381E1,1.145778656E0
2.133000000E1,-3.680816889E0,-1.291388416E1,-4.032563686E0
2.135199844E1,-3.958448410E0,-1.080685139E1,-7.160003781E-1
2.137199844E1,-3.503579140E0,-8.334474564E0,1.170735836E0
2.139200000E1,-1.748370647E0,-7.007119656E0,6.426516175E-1
2.141399844E1,-3.598197997E-1,-6.344232559E0,1.397160292E-1
2.143400000E1,-8.606676757E-2,-6.134030819E0,1.050422430E0
2.145600000E1,-1.492641121E-1,-6.437280655E0,2.621200800E0
2.147800000E1,-1.235609174E0,-6.180928707E0,2.463710308E0
2.149800000E1,-2.246173143E0,-5.707240582E0,1.523526311E0
2.152000000E1,-2.729389906E0,-4.838739395E0,1.315240383E0
2.154200000E1,-3.095185518E0,-3.435564518E0,1.080733061E0
2.156400000E1,-3.064530373E0,-2.098843575E0,-2.355511487E-1
2.158600000E1,-2.317797899E0,-3.350263834E0,-2.193519831E0
2.160601094E1,-6.942897439E-1,-1.019007683E1,-8.437990189E0
2.162800000E1,-2.963830233E-1,-1.798348999E1,-2.806040764E1
2.164800000E1,-9.191819429E-1,-1.985701180E1,-1.616044044E1
2.166800000E1,7.485136986E-1,-1.302464867E1,-1.006003284E1
2.168999844E1,3.686697006E0,-7.019291878E0,-7.466576576E0
2.170999844E1,3.508721590E0,-6.628624916E0,-6.682878017E0
2.173000000E1,-2.394297361E0,-9.865624428E0,6.594091415E0
2.175199844E1,-7.665122986E0,-1.548204803E1,7.406587601E0
2.177199844E1,-9.650232315E0,-1.492425632E1,-5.961418629E0
2.179199844E1,-5.350523472E0,-7.674786091E0,5.166514874E0
2.181199844E1,-4.386905193E0,-6.343695641E0,1.189640522E1
2.183199844E1,-4.643640518E0,-1.320468330E1,2.446069479E0
2.185199844E1,-3.426562309E0,-1.474921131E1,1.462196469E0
2.187199844E1,-2.718366861E0,-1.424039555E1,6.173018217E-1
2.189199844E1,-7.092295289E-1,-1.251399422E1,1.376148820E0
2.191199844E1,3.989793360E-1,-1.005858707E1,1.619715691E0
2.193199844E1,1.120237470E0,-6.600479126E0,-3.171359539E0
2.195199844E1,-6.321650147E-1,-6.789889336E0,-4.609413147E0
2.197199844E1,-4.764844477E-1,-9.384638786E0,-1.486205459E0
2.199199844E1,-2.474742532E-1,-8.622784615E0,-9.141541123E-1
2.201199844E1,-5.806035399E-1,-6.222472668E0,-1.367002964E0
2.203199844E1,-7.078888416E-1,-5.394251347E0,-1.372480989E0
2.205199844E1,-2.770665884E-1,-5.339778423E0,3.289920390E-1
2.207199844E1,-2.187151164E-1,-5.335430622E0,1.777033925E0
2.209199844E1,-6.814759970E-1,-7.906123161E0,2.226569414E0
2.211200000E1,-5.142170191E-1,-1.055903339E1,5.137861371E-1
2.213200469E1,-3.396797478E-1,-1.116058064E1,-1.961148024E0
2.215400000E1,-5.704616904E-1,-1.078337860E1,-4.030753613E0
2.217601562E1,2.367673963E-1,-1.244940853E1,-3.611385107E0
2.219800156E1,1.685431719E0,-1.370445824E1,-1.011981249E0
2.222000000E1,1.744664311E0,-1.314112186E1,5.335909128E-1
2.224000781E1,7.610400915E-1,-1.355664062E1,-1.640076041E0
2.226200000E1,1.114797711E0,-1.534016705E1,-4.089736938E0
2.228200625E1,1.290465117E0,-1.482223415E1,-3.091096401E0
2.230399844E1,-1.338023543E0,-1.268857956E1,-3.501998663E0
2.232399844E1,-2.420595407E0,-1.179711342E1,-5.095914602E-1
2.234399844E1,-2.211840153E0,-1.340603542E1,2.180974007E0
2.236400312E1,-1.968550920E0,-1.422014046E1,3.407456636E0
2.238600000E1,-3.958726406E0,-1.511883831E1,2.631294727E0
2.240800000E1,-3.282661200E0,-1.493457985E1,1.984697342E0
2.242800000E1,-2.612016678E0,-1.462680054E1,-4.088798523E0
2.244800469E1,-3.222595453E0,-1.238354874E1,-9.136752486E-1
2.247000000E1,-3.554087162E0,-9.059975624E0,1.070399642E0
2.249199844E1,-3.123207331E0,-6.814175606E0,7.987056673E-2
2.251200000E1,-2.278073311E0,-6.121121407E0,-2.160144448E-1
2.253399844E1,-1.964432836E0,-5.797090530E0,4.489798546E-1
2.255399844E1,-1.544748545E0,-5.675187111E0,2.229432583E0
2.257399844E1,-1.208075881E0,-5.564756870E0,3.452467442E0
2.259399844E1,-1.592757106E0,-5.190370560E0,3.545257330E0
2.261400312E1,-1.708205462E0,-5.040081978E0,2.396442652E0
2.263600000E1,-2.229403973E0,-3.859845638E0,1.693342328E0
2.265600000E1,-2.354659081E0,-2.707497358E0,1.766796350E0
2.267600156E1,-1.921729922E0,-3.601750851E0,1.694443583E0
2.269600156E1,-1.149561524E0,-8.606503487E0,-1.716278672E0
2.271600312E1,-3.148221970E0,-1.293988514E1,-2.061541748E1
2.273800313E1,-1.025465369E0,-2.145561981E1,-2.524487495E1
2.275801875E1,-1.862162232E0,-1.594784451E1,-9.665813446E0
2.277999844E1,-2.297811031E0,-7.654885292E0,-1.041793728E1
2.280000000E1,-2.157271355E-1,-5.538592815E0,-7.411193848E0
2.282000469E1,-1.704384238E-1,-9.952457428E0,-6.145111561E0
2.284200000E1,-2.142772198E0,-1.365390205E1,6.720074177E0
2.286200312E1,-4.091049194E0,-1.228819275E1,3.853467464E0
2.288399844E1,-5.508703709E0,-5.405006409E0,1.808034062E0
2.290400313E1,-2.819852591E0,-4.432366371E0,1.510204911E0
2.292600000E1,-3.851092577E0,-9.777718544E0,5.886949062E0
2.294799844E1,-3.809740067E0,-1.742927170E1,1.888124824E0
2.296799844E1,-2.264761448E0,-1.727134895E1,1.731477022E0
2.298800313E1,-7.898949981E-1,-1.397867107E1,1.935395956E0
2.301000000E1,1.138471723E0,-1.020954704E1,-2.729677200E0
2.303199844E1,6.242353916E-1,-6.053317547E0,-3.436196566E0
2.305200000E1,-9.565793276E-1,-8.504893303E0,-2.561163902E0
2.307399844E1,-2.745766342E-1,-1.081757832E1,8.893789053E-1
2.309400000E1,-5.520358682E-1,-8.036243439E0,2.837703526E-1
2.311400000E1,-1.257683754E0,-5.332979202E0,-1.254532933E0
2.313600625E1,-1.136307240E0,-6.236378193E0,-1.920369983E0
2.315802031E1,-7.785848379E-1,-6.796822548E0,6.220135838E-2
2.318000000E1,-7.860451937E-1,-6.456156254E0,1.263611794E0
2.320200156E1,-1.186614275E0,-7.639226913E0,2.298874378E0
2.322399844E1,-1.675874114E0,-9.793107986E0,9.896576405E-1
2.324400000E1,-1.486262918E0,-1.040917492E1,-2.788766101E-2
2.326599844E1,-1.602496743E0,-1.039406204E1,-9.604291916E-1
2.328601562E1,-1.108084440E0,-1.247960377E1,-4.552306175E0
2.330800000E1,1.481809735E0,-1.350187111E1,-5.641160488E0
2.332800313E1,2.008706570E0,-1.332994843E1,-4.222413898E-2
2.334999844E1,2.017948151E0,-1.282802773E1,1.650869131E0
2.337000000E1,2.402744055E0,-1.398420620E1,-1.996984482E0
2.339200000E1,2.732444763E0,-1.346827507E1,-3.785596848E0
2.341200000E1,1.014940381E0,-1.274468040E1,-1.736466527E0
2.343400000E1,-2.286711693E0,-1.244230270E1,-2.295761824E0
2.345600156E1,-3.178532600E0,-1.461577702E1,6.100808978E-1
2.347800000E1,-2.483217955E0,-1.542031574E1,3.139363527E0
2.349800000E1,-3.493839264E0,-1.443453693E1,2.970696688E0
2.351800000E1,-3.873444796E0,-1.315008640E1,2.336271524E0
2.353800000E1,-4.195886135E0,-1.230305576E1,1.008045077E0
2.355801875E1,-4.995674133E0,-1.230200195E1,-1.013724208E0
2.358000000E1,-4.229855537E0,-1.078362751E1,-4.390295446E-1
2.360199844E1,-3.600793123E0,-8.757281303E0,-1.814517528E-1
2.362200000E1,-1.835921764E0,-7.414066792E0,-3.695977032E-1
2.364400000E1,-1.763090044E-1,-6.703573227E0,5.448340774E-1
2.366600000E1,7.845032811E-1,-6.293207169E0,1.306697845E0
2.368600000E1,7.227998972E-1,-6.336455822E0,2.215795517E0
2.370800000E1,-1.227641225E0,-5.893413544E0,2.458969831E0
2.372800312E1,-2.275343895E0,-5.223669529E0,2.313105106E0
2.374999844E1,-2.738095284E0,-4.339375496E0,1.914106846E0
2.377000156E1,-2.710772753E0,-3.102578878E0,1.156945348E0
2.379199844E1,-2.490850925E0,-1.741523147E0,-4.795107245E-2
2.381199844E1,-1.518996477E0,-2.634081602E0,-1.275429606E0
2.383200000E1,-3.947846889E-1,-7.938502312E0,-4.905144691E0
2.385400000E1,-1.193365827E-1,-1.743316078E1,-2.736143494E1
2.387600000E1,2.326781005E-1,-2.380069160E1,-1.822043991E1
2.389600000E1,2.989208698E-1,-1.443123245E1,-9.071869850E0
2.391600000E1,1.739444971E0,-7.260426044E0,-8.293265343E0
2.393601250E1,-1.977763772E0,-8.969110489E0,-8.847198486E0
2.395802031E1,-5.652059078E0,-1.437432671E1,4.501578331E0
2.397999844E1,-9.012732506E0,-1.263541889E1,7.751084328E0
2.399999844E1,-5.970382214E0,-5.886001587E0,6.203491688E0
2.402000000E1,-3.316936493E0,-2.621938229E0,2.560665846E0
2.404200000E1,-4.354554653E0,-6.815286636E0,2.941659927E0
2.406400000E1,-5.511404514E0,-1.710822868E1,1.660388470E0
2.408600000E1,-3.845949888E0,-1.915580750E1,2.040194988E0
2.410600000E1,-2.764345407E-1,-1.513067436E1,-2.575299144E-1
2.412600000E1,3.361708164E0,-9.903337479E0,-2.082897902E0
2.414600000E1,2.408509493E0,-8.328144073E0,-1.039945483E0
2.416600000E1,4.881873131E-1,-8.454021454E0,-1.857804656E-1
2.418600000E1,-3.611796796E-1,-8.385289192E0,6.003891826E-1
2.420600000E1,-1.388857245E0,-6.714979172E0,-1.019460678E0
2.422799844E1,-1.600504637E0,-5.925428867E0,-3.460550308E0
2.424800000E1,-6.772909760E-1,-6.830695629E0,-2.797960043E0
2.426800000E1,-2.416707128E-1,-7.428221703E0,5.040560365E-1
2.428999844E1,-2.398319691E-1,-6.576125145E0,1.886937380E0
2.431000156E1,-2.019652724E-1,-6.492797375E0,3.097943783E0
2.433200625E1,-3.641389012E-1,-8.969378471E0,3.235619783E0
2.435400000E1,-1.061129451E0,-1.112227345E1,5.194651484E-1
2.437600000E1,-2.564764738E0,-1.169007301E1,-5.601627350E0
2.439600000E1,-1.044360399E0,-1.219964504E1,-1.066940498E1
2.441600156E1,1.326071620E0,-1.292802811E1,-1.428055167E0
2.443800000E1,1.710772038E0,-1.281648731E1,3.435871124E0
2.445801875E1,1.636120796E0,-1.246472168E1,3.315892935E0
2.447999844E1,2.237362385E0,-1.430280781E1,-3.500026226E0
2.449999844E1,2.211246252E0,-1.332372284E1,-8.851909637E0
2.452000000E1,1.102386236E0,-1.290843487E1,-2.108870268E0
2.454200000E1,-1.576016903E0,-1.274275589E1,-5.645719171E-1
2.456400000E1,-1.699643850E0,-1.427422047E1,2.153996229E0
2.458600625E1,-1.608060837E0,-1.558847427E1,3.708178043E0
2.460800000E1,-3.739034414E0,-1.526301670E1,3.365586758E0
2.462800000E1,-4.506069183E0,-1.419270325E1,2.638956070E0
2.465000000E1,-3.921740770E0,-1.372514439E1,1.945298433E0
2.467199844E1,-5.775274277E0,-1.292246342E1,-3.988481522E0
2.469200000E1,-4.349747658E0,-1.133052158E1,-9.814886451E-1
2.471400000E1,-3.249305248E0,-7.664893150E0,1.049368978E0
2.473600625E1,-1.291010976E0,-5.985801220E0,-1.238951460E-1
2.475801875E1,-7.932469249E-2,-5.636391163E0,-3.021769822E-1
2.477999844E1,2.391232848E-1,-5.604309082E0,1.078022838E0
2.480000000E1,-3.559507430E-1,-5.944860458E0,3.132736444E0
2.482000000E1,-1.593255043E0,-5.514488220E0,2.943623066E0
2.484000000E1,-2.443301916E0,-4.511739254E0,2.087705612E0
2.486199844E1,-2.757143497E0,-3.316419363E0,1.802383780E0
2.488199844E1,-2.785394907E0,-2.358221769E0,1.392534733E0
2.490200000E1,-2.702699423E0,-1.998947740E0,1.177659929E-1
2.492400000E1,-2.361803532E0,-4.406528473E0,-3.599663019E0
2.494600000E1,-3.710916638E-1,-1.352058411E1,-1.728435516E1
2.496600000E1,1.083826423E0,-2.091704941E1,-3.016085052E1
2.498800000E1,4.430709481E-1,-1.740551186E1,-7.779192448E0
2.500800000E1,-9.172761440E-1,-1.038853741E1,-8.538661957E0
2.502800000E1,-1.951561689E0,-8.999593735E0,-7.710957527E0
2.504999844E1,-4.769115925E0,-1.634788704E1,-1.079067707E1
2.506999844E1,-5.966686249E0,-1.424072170E1,9.149106026E0
2.509000000E1,-6.116658688E0,-8.524967194E0,9.713496208E0
2.511200000E1,-3.591886759E0,-3.069740057E0,5.120862484E0
2.513399844E1,-2.669400930E0,-3.696532488E0,2.215498447E0
2.515400000E1,-5.200436115E0,-1.051985455E1,2.164932966E0
2.517400000E1,-6.077135086E0,-1.927044106E1,2.378265858E0
2.519600000E1,-3.700707912E0,-1.762322998E1,2.766193628E0
2.521600000E1,-5.121580958E-1,-1.274702644E1,4.297084332E0
2.523600000E1,5.425902843E0,-9.259077072E0,-7.056056976E0
2.525600781E1,2.190627337E0,-6.598554134E0,-3.447296143E0
2.527800000E1,1.263180841E-2,-7.914023876E0,-5.704999566E-1
2.530000000E1,-6.388688087E-2,-8.207467079E0,-4.391923547E-2
2.532000000E1,-7.700231075E-1,-6.630511761E0,-1.966865420E0
2.534000000E1,-8.278862238E-1,-6.993970871E0,-2.617896795E0
2.536199844E1,-3.092925549E-1,-8.159535408E0,-1.188098714E-1
2.538200000E1,7.349241525E-2,-7.673971653E0,1.554966927E0
2.540200000E1,-2.255337872E-2,-6.755048275E0,2.313545942E0
2.542400000E1,-3.734954596E-1,-7.863487244E0,2.582749844E0
2.544600000E1,-1.176146865E0,-1.029683876E1,1.278762341E0
2.546600000E1,-1.695793986E0,-1.091496468E1,5.073887706E-1
2.548600000E1,-2.040166378E0,-9.799314499E0,-1.199016213E0
2.550600000E1,-2.055910587E0,-1.076131439E1,-5.154007912E0
2.552600000E1,9.364489317E-1,-1.318653488E1,-5.707374573E0
2.554600000E1,2.433859348E0,-1.411721897E1,4.015842378E-1
2.556601250E1,2.798074722E0,-1.320769024E1,3.124308825E0
2.558799844E1,2.995739937E0,-1.270531940E1,-3.856675625E-1
2.560800000E1,3.250080824E0,-1.275138378E1,-5.582397461E0
2.562800000E1,1.840920925E0,-1.279099369E1,-3.106792688E0
2.564800000E1,-7.606570721E-1,-1.290020847E1,-7.791785598E-1
2.566800000E1,-2.633363247E0,-1.367656136E1,3.563242555E-1
2.568800000E1,-2.849904537E0,-1.566709042E1,2.463317633E0
2.570800000E1,-3.865045786E0,-1.600234604E1,3.177220345E0
2.573000000E1,-5.125047207E0,-1.472860241E1,2.724084377E0
2.575200000E1,-5.918102741E0,-1.319493389E1,1.874851465E0
2.577200000E1,-7.286983013E0,-1.218725300E1,-1.528420091E0
2.579399844E1,-4.707230568E0,-1.116334820E1,-5.901228786E-1
2.581399844E1,-3.528277636E0,-9.160551071E0,-2.938068509E-1
2.583399844E1,-2.476035357E0,-7.405696869E0,1.721814126E-1
2.585400000E1,-1.260805845E0,-6.146969318E0,7.899141908E-1
2.587600000E1,-2.884821594E-1,-5.869079113E0,1.770560026E0
2.589600625E1,1.434893012E-1,-5.809348583E0,1.492191076E0
2.591600625E1,-2.606806718E-2,-6.081607342E0,1.446768165E0
2.593601250E1,-3.181702495E-1,-5.921856880E0,2.597249269E0
2.595801875E1,-9.645855427E-1,-4.890425205E0,2.581418753E0
2.597999844E1,-1.342486382E0,-3.955709696E0,2.276100636E0
2.599999844E1,-1.410079479E0,-3.299698353E0,2.097569466E0
2.602000000E1,-1.658099651E0,-3.185686588E0,1.455971599E0
2.604200000E1,-1.688410163E0,-5.893509388E0,-2.021941662E0
2.606399844E1,-1.818271756E0,-1.244739723E1,-1.176574898E1
2.608399844E1,-4.812441170E-1,-1.974738503E1,-3.846465302E1
2.610399844E1,-7.542884350E-1,-2.143125534E1,-9.361682892E0
2.612399844E1,-1.828585982E0,-1.365255165E1,-7.223191261E0
2.614399844E1,-6.803267598E-1,-5.918294430E0,-7.882095337E0
2.616399844E1,-2.955076933E0,-5.587808132E0,-7.148923397E0
2.618399844E1,-3.996726990E0,-1.055547047E1,-2.859155655E0
2.620399844E1,-4.464755535E0,-1.375258160E1,7.250686646E0
2.622400000E1,-5.453091145E0,-1.028416920E1,5.393753648E-1
2.624600000E1,-4.313413143E0,-4.342612743E0,3.816778898E0
2.626600156E1,-3.336636066E0,-4.070018291E0,2.014912128E0
2.628799844E1,-4.968428135E0,-1.110067749E1,3.037916183E0
2.630799844E1,-2.971874714E0,-1.679295921E1,-2.488609791E0
2.632800156E1,-9.639726281E-1,-1.555738831E1,-4.102675438E0
2.634999844E1,-1.845584750E0,-1.125209713E1,2.664219618E0
2.637000000E1,5.027248859E-1,-9.229695320E0,6.562928200E0
2.639200625E1,3.019806623E0,-9.328030586E0,-2.335026503E0
2.641399844E1,1.513231248E-1,-8.688126564E0,-2.685451746E0
2.643400000E1,-6.008488312E-2,-9.533385277E0,1.500810146E0
2.645400000E1,-9.794200212E-2,-8.806764603E0,1.194515109E0
2.647400156E1,-7.752521038E-1,-7.663916111E0,-1.270574093E0
2.649602031E1,-7.734994888E-1,-7.490738869E0,-2.656299829E0
2.651800000E1,-4.869040251E-1,-7.819280624E0,-9.648920298E-1
2.653800000E1,-6.613264084E-1,-7.272943497E0,7.741795182E-1
2.655801875E1,-7.623617053E-1,-7.248273373E0,1.955727696E0
2.658000000E1,-7.767269015E-1,-8.858153343E0,1.685728669E0
2.660000000E1,-7.688643932E-1,-9.832181931E0,7.107618451E-1
2.662200000E1,-8.960730433E-1,-1.030775642E1,-1.396135569E0
2.664400000E1,-5.898642540E-1,-1.108040333E1,-5.162588596E0
2.666400938E1,1.308593988E0,-1.217793465E1,-3.430708885E0
2.668602188E1,2.402590990E0,-1.301084900E1,8.919742107E-1
2.670800000E1,2.520682573E0,-1.288207912E1,2.643160343E0
2.672800000E1,2.662055492E0,-1.339886189E1,-1.269750476E0
2.674800312E1,2.223686695E0,-1.365486050E1,-6.055616379E0
2.676999844E1,-1.684177220E-1,-1.287115097E1,-4.278227329E0
2.679000000E1,-2.942617416E0,-1.137622166E1,-3.894887209E0
2.681000000E1,-3.828309298E0,-1.246844769E1,-1.831238627E0
2.683200000E1,-2.419426918E0,-1.453714275E1,2.682405949E0
2.685400000E1,-2.884802341E0,-1.471677399E1,3.172058582E0
2.687600000E1,-3.397707462E0,-1.455652618E1,2.877773046E0
2.689600000E1,-3.299181223E0,-1.408937931E1,2.366227865E0
2.691800000E1,-3.875293255E0,-1.287668705E1,3.889620006E-1
2.694000000E1,-5.223506451E0,-1.240113163E1,-2.215699673E0
2.696199844E1,-3.780415773E0,-9.190018654E0,-2.701521218E-1
2.698199844E1,-2.798457861E0,-6.535845280E0,-3.261668980E-1
2.700199844E1,-1.209205985E0,-5.542835236E0,-6.111918390E-2
2.702199844E1,1.307234075E-2,-5.329215527E0,8.750902414E-1
2.704199844E1,2.210710198E-1,-5.199928284E0,1.996582270E0
2.706199844E1,-6.653295159E-1,-5.334961414E0,2.461603165E0
2.708199844E1,-1.599729061E0,-4.879804611E0,2.129489183E0
2.710200000E1,-1.705677152E0,-4.136950493E0,1.705207944E0
2.712200000E1,-1.619342327E0,-3.316917419E0,1.763961673E0
2.714400000E1,-1.398098826E0,-3.043470860E0,1.679139853E0
2.716600000E1,-9.596726894E-1,-4.530049801E0,5.526679754E-1
2.718600000E1,-1.578794122E0,-8.756735802E0,-6.296118259E0
2.720600000E1,-1.345512629E0,-1.494683933E1,-2.713627625E1
2.722600000E1,-8.100925088E-1,-2.268972397E1,-2.197394562E1
2.724600156E1,-2.368976355E0,-1.625881386E1,-5.782370567E0
2.726800000E1,-1.445772171E0,-6.543200016E0,-8.840589523E0
2.728800000E1,-3.066847801E0,-5.942945004E0,-8.133017540E0
2.731000000E1,-6.163661480E0,-1.125619507E1,-5.198664188E0
2.733199844E1,-4.528316498E0,-1.375074291E1,5.530500412E0
2.735199844E1,-6.162320614E0,-8.501762390E0,6.661531448E0
2.737199844E1,-2.833307743E0,-4.120335102E0,4.700402260E0
2.739199844E1,-1.159866214E0,-4.510800362E0,3.369350672E0
2.741200000E1,-3.510100842E0,-1.228081799E1,1.973511696E0
2.743200000E1,-3.290839911E0,-1.835379601E1,8.672755957E-2
2.745200000E1,-1.351210833E0,-1.756991577E1,-2.386090040E0
2.747200000E1,-7.206929922E-1,-1.355064583E1,1.809010863E0
2.749400000E1,1.653703809E0,-9.682621002E0,4.220642567E0
2.751400000E1,2.468747616E0,-7.649302483E0,-2.518480062E0
2.753600000E1,-3.827083409E-1,-7.816129684E0,-1.554842353E0
2.755600000E1,-2.316055000E-1,-9.809782028E0,1.054693699E0
2.757600625E1,-6.966073513E-1,-8.871207237E0,4.230745733E-1
2.759800000E1,-1.112030029E0,-6.974386215E0,-2.073685169E0
2.761800000E1,-8.695740104E-1,-6.792091846E0,-2.927361488E0
2.763800000E1,-6.669288278E-1,-7.107475281E0,-1.457906008E0
2.765801875E1,-6.974309683E-1,-6.583997250E0,5.722333193E-1
2.767999844E1,-7.578318715E-1,-5.954408169E0,1.845527291E0
2.770000000E1,-7.563858032E-1,-7.748095989E0,2.858609915E0
2.772000000E1,-1.149925590E0,-1.047692108E1,1.874391675E0
2.774000000E1,-1.197206140E0,-1.189452839E1,9.055733085E-1
2.776200000E1,-5.159983411E-2,-1.103610134E1,-4.458779335E0
2.778400000E1,2.889897108E0,-1.284683609E1,-8.483594894E0
2.780600000E1,2.444556713E0,-1.364181614E1,6.186521649E-1
2.782600625E1,1.569648147E0,-1.282833385E1,3.243357897E0
2.784800000E1,8.253291994E-2,-1.341020107E1,-1.061972156E-1
2.787000000E1,-9.580445886E-1,-1.434815407E1,-7.990236282E0
2.789000000E1,-1.117938995E0,-1.330933857E1,-4.906044960E0
2.791200000E1,-1.773902297E0,-1.236737347E1,-1.103889823E0
2.793400000E1,-2.420288801E0,-1.249181461E1,2.071367502E-1
2.795600000E1,-9.444646835E-1,-1.399252796E1,3.488409519E0
2.797799844E1,-2.174031019E0,-1.470166206E1,3.350551367E0
2.799800469E1,-3.639052391E0,-1.432810974E1,2.947788954E0
2.802000000E1,-3.699970484E0,-1.373497009E1,2.200932026E0
2.804000000E1,-6.302056313E0,-1.314299870E1,-2.879353285E0
2.806000000E1,-5.683710575E0,-1.170471573E1,-1.871135592E0
2.808000000E1,-4.409937382E0,-9.298830032E0,-5.057032704E-1
2.810000469E1,-2.737989902E0,-7.326879978E0,-3.596378267E-1
2.812200000E1,-4.683633149E-1,-6.338007450E0,-1.805706918E-1
2.814400000E1,3.025696278E-1,-6.208998203E0,1.253048539E0
2.816600000E1,7.380270362E-1,-6.492060184E0,1.959500909E0
2.818600000E1,-3.023589551E-1,-6.295419216E0,2.307608128E0
2.820600000E1,-1.394919276E0,-5.299623013E0,2.716815710E0
2.822799844E1,-1.814958096E0,-4.187362671E0,1.937139034E0
2.824800000E1,-1.840365410E0,-3.570865631E0,1.895977855E0
2.826800000E1,-1.512378931E0,-2.984439373E0,2.031949520E0
2.828800000E1,-1.139889002E0,-2.826757431E0,7.604655027E-1
2.830800000E1,-1.775156856E-1,-5.434272766E0,-3.510024071E0
2.832800000E1,-1.037637472E0,-1.101259041E1,-1.558875275E1
2.834800000E1,5.879105926E-1,-2.213522911E1,-3.917466354E1
2.836800000E1,-1.879659057E0,-2.079658127E1,-8.054037094E0
2.838800000E1,-3.010153055E0,-1.002996159E1,-9.495614052E0
2.840800000E1,-8.979597092E-1,-3.827294111E0,-8.258673668E0
2.842800000E1,-2.876221418E0,-5.715160847E0,-9.159038544E0
2.844999844E1,-3.948000193E0,-1.409490490E1,5.601732731E0
2.846999844E1,-5.789515018E0,-1.439871025E1,1.976920962E0
2.849000000E1,-3.590728045E0,-7.655268669E0,3.885291338E0
2.851000312E1,-1.148402810E0,-3.867804289E0,4.318708897E0
2.853000469E1,-1.471725345E0,-7.249729156E0,3.528440475E0
2.855199844E1,-3.261506081E0,-1.642043114E1,5.985025764E-1
2.857199844E1,-2.006053686E0,-1.818693924E1,-2.046477318E0
2.859199844E1,-1.872294426E0,-1.515576553E1,1.180188179E0
2.861200000E1,-1.904156506E-1,-1.228426552E1,3.196479559E0
2.863399844E1,1.398673415E0,-9.041213989E0,1.977955341E0
2.865400000E1,-1.839704439E-2,-7.841881752E0,-2.481044292E0
2.867600000E1,-1.312750340E0,-9.370780945E0,-9.285672009E-2
2.869800000E1,-1.303863049E0,-9.261672974E0,4.598016441E-1
2.871800156E1,-1.784044147E0,-7.587857246E0,-4.635078609E-1
2.874000000E1,-1.833537102E0,-6.860182762E0,-1.942588210E0
2.876199844E1,-1.664525628E0,-6.863026619E0,-2.460377455E0
2.878199844E1,-1.224423409E0,-6.869137287E0,-1.190531135E0
2.880200000E1,-9.056211710E-1,-6.689849377E0,-1.203229949E-1
2.882399844E1,-2.657468319E-1,-7.423030853E0,1.177276850E0
2.884399844E1,7.100244612E-2,-8.645366669E0,2.136480331E0
2.886400000E1,6.890513003E-2,-1.020157814E1,2.037800789E0
2.888600000E1,6.725312471E-1,-1.122292614E1,-7.362552881E-1
2.890600000E1,1.909538746E0,-1.245925331E1,-8.499348640E0
2.892600000E1,2.386252880E0,-1.320200157E1,-6.094832897E0
2.894799844E1,1.436645508E0,-1.262868690E1,1.020686507E0
2.896799844E1,1.914020479E-1,-1.219754791E1,5.821453333E-1
2.898800000E1,-1.193988442E0,-1.313105679E1,-5.465110302E0
2.901000000E1,-1.396394134E0,-1.349077129E1,-7.941950321E0
2.903000000E1,-1.586149096E0,-1.352490330E1,-2.490190029E0
2.905200000E1,-5.471516848E-1,-1.435511589E1,2.918895721E0
2.907400000E1,-1.040041260E-2,-1.512553215E1,4.537309170E0
2.909600000E1,-1.449861526E0,-1.587886333E1,3.603761911E0
2.911601250E1,-3.132918119E0,-1.558068848E1,3.094314098E0
2.913800000E1,-3.995960951E0,-1.420218468E1,2.238818169E0
2.915801875E1,-5.696217537E0,-1.234238815E1,-3.170114517E0
2.917999844E1,-4.662985325E0,-1.039953136E1,-2.155154943E0
2.920000000E1,-4.227164268E0,-9.126313210E0,-2.421208322E-1
2.922199844E1,-3.085867405E0,-7.751927376E0,-2.254188806E-1
2.924199844E1,-1.690814018E0,-6.522035122E0,-3.910209984E-2
2.926200000E1,-9.786730409E-1,-5.701322079E0,9.223901629E-1
2.928400000E1,-1.169864416E0,-5.410139084E0,1.477662921E0
2.930599844E1,-1.171099901E0,-5.214417934E0,2.250827312E0
2.932600000E1,-1.290331006E0,-5.011437416E0,2.483907700E0
2.934800000E1,-8.668063283E-1,-4.841506958E0,2.164511442E0
2.937000000E1,-4.828242660E-1,-4.867622375E0,1.886123419E0
2.939199844E1,-6.789190173E-1,-4.708704948E0,1.935817361E0
2.941199844E1,-4.386847913E-1,-5.697855473E0,1.150260687E0
2.943199844E1,-6.306997538E-1,-8.766063690E0,-2.557763815E0
2.945199844E1,-2.679389477E0,-1.164746571E1,-1.282092094E1
2.947200000E1,-3.376896858E0,-1.926105690E1,-3.445419312E1
2.949399844E1,-4.665216923E0,-1.584455872E1,-1.190041828E1
2.951400000E1,-3.203710079E0,-8.990715981E0,-8.697665215E0
2.953600000E1,1.870733500E-1,-4.985139847E0,-6.280441284E0
2.955600312E1,4.007031918E-1,-7.438344002E0,-6.955567837E0
2.957600469E1,-4.771356881E-1,-1.381057930E1,6.996527910E-1
2.959800000E1,-4.005537987E0,-1.396446896E1,6.221735477E0
2.961800000E1,-4.150358200E0,-8.284369469E0,4.485403061E0
2.963800156E1,-1.521553516E0,-5.110433102E0,2.890548229E0
2.965801875E1,-1.372337222E0,-6.406232357E0,-1.445245504E0
2.968000000E1,-4.813973427E0,-1.403611374E1,3.343435526E0
2.970000000E1,-2.717888117E0,-1.740870094E1,3.106763840E0
2.972000000E1,1.029937744E0,-1.653254700E1,-1.038891912E0
2.974000000E1,3.925724924E-1,-1.226286125E1,5.482530594E-1
2.976199844E1,1.785212606E-1,-9.349243164E0,1.813579082E0
2.978199844E1,-8.019139171E-1,-7.449721336E0,-1.037522435E0
2.980200000E1,-2.425067663E0,-8.339752197E0,-1.025388718E0
2.982399844E1,-2.247293472E0,-9.782660484E0,-5.487510189E-2
2.984399844E1,-2.568767786E0,-8.563629150E0,-5.437327623E-1
2.986400000E1,-2.662141562E0,-6.893289566E0,-2.876556635E0
2.988600156E1,-1.280907512E0,-6.926214695E0,-3.654681921E0
2.990800000E1,-6.920200586E-2,-7.799160004E0,-1.498339415E0
2.992800625E1,1.713865399E-1,-7.744916916E0,1.132658601E0
2.995000000E1,-1.431062222E-1,-6.954600811E0,2.834801674E0
2.997200000E1,-2.897654474E-1,-7.635942459E0,4.294221401E0
2.999399844E1,-9.316318035E-1,-9.020586014E0,2.774429798E0
3.001399844E1,-1.117019534E0,-9.509970665E0,1.287065387E0
3.003399844E1,-1.466055870E0,-1.050582409E1,-1.292869002E-1
3.005399844E1,-1.243261099E0,-1.251373577E1,-4.364485741E0
3.007400625E1,6.516633630E-1,-1.309745216E1,-9.580570221E0
3.009601719E1,1.416160822E0,-1.325188732E1,-3.109627485E0
3.011800000E1,1.166215658E0,-1.284834003E1,1.387976170E0
3.013800000E1,1.517703652E0,-1.293002033E1,6.626192331E-1
3.015801875E1,2.652842522E0,-1.294176197E1,-2.237707138E0
3.017999844E1,2.505503416E0,-1.241834068E1,-2.740288258E0
3.019999844E1,8.422800899E-2,-1.199213505E1,-1.154464960E0
3.021999844E1,-2.581926346E0,-1.153160572E1,-1.984151602E0
3.023999844E1,-2.926107168E0,-1.370760918E1,3.334740102E-1
3.025999844E1,-2.731803179E0,-1.491877842E1,1.963092208E0
3.027999844E1,-4.393676281E0,-1.485135746E1,2.119672775E0
3.030000000E1,-4.902386665E0,-1.451585388E1,2.597153425E0
3.032000625E1,-4.239020348E0,-1.368579292E1,9.743539095E-1
3.034200000E1,-4.047359467E0,-1.269086838E1,-1.409993291E0
3.036400000E1,-3.682550192E0,-1.013898468E1,9.567900300E-1
3.038600000E1,-3.075668097E0,-8.335940361E0,9.025182724E-1
3.040799844E1,-1.316638589E0,-7.730034828E0,2.261371464E-1
3.042800000E1,-2.754577100E-1,-7.051737785E0,-1.854644418E-1
3.044999844E1,-5.295974202E-3,-6.364908695E0,5.555027127E-1
3.046999844E1,2.298912555E-1,-6.000817299E0,1.682960987E0
3.048999844E1,-2.849099934E-1,-5.543706894E0,1.898171067E0
3.051000000E1,-1.504889846E0,-4.523834705E0,1.670482397E0
3.053000000E1,-2.076826334E0,-3.753667831E0,1.142072558E0
3.055200000E1,-2.098795414E0,-3.231511593E0,1.381741643E0
3.057400000E1,-2.344804525E0,-3.070659399E0,1.369646072E0
3.059600000E1,-2.618260860E0,-4.036432743E0,-1.697785854E0
3.061600000E1,-1.522434592E0,-9.337884903E0,-8.384629250E0
3.063800000E1,-2.116474323E-2,-1.605571747E1,-2.342920685E1
3.065801875E1,1.518000484E0,-2.024681664E1,-2.049635887E1
3.067999844E1,2.705313921E0,-1.471020508E1,-6.804139137E0
3.070000000E1,2.430631876E0,-9.827201843E0,-6.738346577E0
3.072199844E1,-8.447414041E-1,-7.863028049E0,-4.828511238E0
3.074200000E1,-3.633795023E0,-1.121785069E1,-6.167070866E0
3.076200000E1,-2.061417341E0,-1.418072224E1,2.315939903E0
3.078400312E1,-6.217751503E0,-9.373050690E0,3.803294659E0
3.080600000E1,-6.390928745E0,-2.901839495E0,1.604325771E0
3.082600000E1,-7.392461300E0,-5.019204617E-1,3.828931808E0
3.084800000E1,-5.629936695E0,-8.143561363E0,-2.041775137E-1
3.087000000E1,-2.379376650E0,-1.577927303E1,-4.217654228E0
3.089199844E1,-1.976844430E0,-1.596767807E1,-6.103011370E-1
3.091199844E1,-2.118188381E0,-1.320987415E1,4.771452427E0
3.093199844E1,-4.989516363E-2,-1.230688667E1,4.868618488E0
3.095199844E1,3.234020472E0,-1.075861359E1,8.207227588E-1
3.097200000E1,2.012422323E0,-8.878130913E0,-2.074230909E0
3.099399844E1,4.029537439E-1,-9.754656792E0,2.388733387E0
3.101400000E1,2.813474536E-1,-9.477084160E0,1.831621647E0
3.103600000E1,-8.685588837E-1,-7.269792557E0,-2.536608934E0
3.105601250E1,-9.117886424E-1,-7.537923813E0,-2.967651367E0
3.107799844E1,-7.465887070E-1,-7.591879368E0,-2.035856724E0
3.109800156E1,-8.624872565E-1,-7.499089718E0,-7.074003816E-1
3.112000000E1,-9.747656584E-1,-7.097888470E0,9.329437613E-1
3.114000000E1,-1.006292582E0,-7.178984642E0,2.110843182E0
3.116000000E1,-1.372557521E0,-8.323356628E0,2.565655231E0
3.118200000E1,-1.889073014E0,-9.828561783E0,1.305807114E0
3.120200000E1,-1.587824941E0,-1.041992950E1,-4.342219830E-1
3.122400000E1,4.712267816E-1,-1.213169765E1,-4.109465122E0
3.124600000E1,2.340035439E0,-1.291897869E1,-5.399710178E0
3.126800000E1,1.960918188E0,-1.224850559E1,-1.426264286E0
3.128800000E1,1.216493845E0,-1.200026608E1,-7.667191327E-2
3.131000312E1,8.677448630E-1,-1.328132629E1,-9.088102579E-1
3.133199844E1,2.000939608E0,-1.445526028E1,-2.771144867E0
3.135199844E1,3.463547826E-1,-1.289439487E1,-2.166829109E0
3.137199844E1,-2.555772066E0,-1.115579224E1,-2.926442385E0
3.139199844E1,-3.011589527E0,-1.246249962E1,-2.819507718E-1
3.141200000E1,-1.894369006E0,-1.405625248E1,2.689818621E0
3.143400000E1,-3.025188684E0,-1.488580608E1,2.631208420E0
3.145600000E1,-3.763110399E0,-1.502414227E1,2.362387419E0
3.147600000E1,-3.592202902E0,-1.435176468E1,2.156572580E0
3.149600156E1,-5.404901028E0,-1.389118671E1,-2.022889853E0
3.151799844E1,-4.202254772E0,-1.243227577E1,-4.601847231E-1
3.153799844E1,-3.671288013E0,-9.784767151E0,9.040697217E-1
3.155802031E1,-2.785519600E0,-7.993578434E0,4.962413907E-1
3.157999844E1,-1.064893007E0,-7.344213963E0,-5.414918065E-1
3.159999844E1,-4.333313704E-1,-7.046949863E0,-9.859322011E-2
3.161999844E1,4.751724303E-1,-6.560965061E0,6.678099036E-1
3.163999844E1,4.996124208E-1,-5.784898758E0,1.042876005E0
3.166000000E1,-1.183013439E0,-4.001573086E0,1.685010433E0
3.168200000E1,-2.212385893E0,-2.877351522E0,1.751607537E0
3.170200000E1,-2.529972076E0,-2.764862537E0,1.401872158E0
3.172400000E1,-2.505742788E0,-2.787310600E0,1.340762615E0
3.174600000E1,-1.991698146E0,-3.301383734E0,1.127276421E0
3.176800000E1,-9.293428659E-1,-7.073870182E0,-2.495993614E0
3.178800000E1,2.811367512E-1,-1.343626976E1,-1.286835575E1
3.181000000E1,-1.312405616E-1,-1.897853088E1,-2.896738815E1
3.183199844E1,1.096458077E0,-1.745796204E1,-1.038989639E1
3.185199844E1,2.188884497E0,-1.034365082E1,-8.353456497E0
3.187199844E1,1.793707132E0,-7.639016628E0,-6.740060806E0
3.189199844E1,-5.525817275E-1,-9.848864555E0,-5.440957546E0
3.191200000E1,-2.222087383E0,-1.466494560E1,-2.193376064E0
3.193399844E1,-5.723578453E0,-1.423472691E1,4.255319595E0
3.195399844E1,-7.383296967E0,-7.067242622E0,3.592844486E0
3.197399844E1,-5.760669231E0,-2.666307688E0,8.679077029E-1
3.199399844E1,-5.290084362E0,-1.476341486E0,6.094286919E0
3.201399844E1,-5.606588364E0,-9.335165024E0,1.932886988E-1
3.203399844E1,-3.230984926E0,-1.562696362E1,-3.022325277E0
3.205399844E1,-1.104521871E0,-1.599011612E1,-3.912632942E0
3.207400000E1,-2.527913094E0,-1.273288155E1,3.937101841E0
3.209400312E1,-4.291366786E-2,-1.140197372E1,7.442414284E0
3.211600000E1,4.479177952E0,-1.166001129E1,-2.034946918E0
3.213600000E1,2.104560852E0,-9.933945656E0,-1.797423005E0
3.215802031E1,6.047945023E-1,-9.333086967E0,3.067891836E0
3.218000000E1,-1.717504561E-1,-8.285728455E0,1.255825758E0
3.220000000E1,-1.149724364E0,-7.618110180E0,-2.546492100E0
3.222199844E1,-1.098612905E0,-7.844640255E0,-2.682559252E0
3.224199844E1,-8.612422347E-1,-7.492864609E0,-1.332105160E0
3.226200000E1,-7.810939550E-1,-6.933550835E0,2.205155492E-1
3.228400313E1,-7.073621154E-1,-6.323182583E0,1.354744673E0
3.230600000E1,-8.348485827E-1,-6.858008862E0,2.295838356E0
3.232600156E1,-1.498387218E0,-9.177023888E0,2.366697073E0
3.234800000E1,-1.801608086E0,-1.112721443E1,1.190406561E0
3.236800312E1,-1.430966377E0,-1.084517860E1,-1.019767046E0
3.238999844E1,6.232011318E-1,-1.212981129E1,-5.418672562E0
3.241000000E1,2.644405365E0,-1.357448196E1,-4.734189034E0
3.243199844E1,2.132687807E0,-1.300111771E1,1.644816548E-1
3.245200156E1,1.477011681E0,-1.250842953E1,1.445245504E0
3.247399844E1,1.321877122E0,-1.350957966E1,8.820239455E-2
3.249399844E1,1.563346624E0,-1.373125362E1,-4.865841389E0
3.251399844E1,-7.216507196E-1,-1.192781734E1,-4.929162979E0
3.253400313E1,-2.850795269E0,-1.106602955E1,-3.151315451E0
3.255599844E1,-2.790595293E0,-1.288218498E1,1.133213997E0
3.257600469E1,-2.504143476E0,-1.391994667E1,2.610350370E0
3.259601406E1,-2.980196953E0,-1.418682289E1,2.595065594E0
3.261800000E1,-2.915304422E0,-1.420603371E1,2.830473185E0
3.263800000E1,-2.948334932E0,-1.359230423E1,1.991563916E0
3.265801875E1,-4.189489365E0,-1.342363739E1,-1.801684737E0
3.267999844E1,-3.807556391E0,-1.191871834E1,-9.324170351E-1
3.269999844E1,-3.381474495E0,-9.661589622E0,1.795651205E-2
3.272000000E1,-2.482854366E0,-7.816455364E0,4.579629004E-2
3.274000000E1,-1.104742050E0,-6.757136345E0,-3.024355471E-1
3.276200000E1,-1.198154315E-1,-6.098692417E0,4.170890749E-1
3.278400000E1,3.437690437E-1,-5.897378445E0,1.037436247E0
3.280600000E1,-6.083570719E-1,-5.695126057E0,1.727224946E0
3.282600000E1,-1.950517774E0,-4.795882702E0,2.006197453E0
3.284600000E1,-2.152148008E0,-4.396022320E0,1.823969841E0
3.286799844E1,-2.262175798E0,-4.050041199E0,1.149973392E0
3.288800000E1,-2.237889051E0,-3.426993132E0,6.468654275E-1
3.290999844E1,-2.097033501E0,-3.366889238E0,-1.700180054E0
3.292999844E1,-1.129249096E0,-6.552125454E0,-6.405418396E0
3.295000000E1,5.311009288E-1,-1.403452301E1,-1.472956944E1
3.297200000E1,-1.541961730E-1,-1.874780655E1,-2.471727943E1
3.299399844E1,4.549461901E-1,-1.609265518E1,-1.059995365E1
3.301400000E1,1.176309586E0,-1.031951618E1,-8.628961563E0
3.303600000E1,8.198608160E-1,-7.787189007E0,-5.330163479E0
3.305600313E1,-2.123302460E0,-1.016891193E1,-6.009666443E0
3.307799844E1,-4.375336647E0,-1.329283810E1,2.425747871E0
3.309800000E1,-7.144862652E0,-1.311853981E1,4.179577351E0
3.311999844E1,-4.832810879E0,-6.506444454E0,4.897588253E0
3.313999844E1,-3.108564377E0,-3.840538979E0,3.205797911E0
3.315999844E1,-3.365414381E0,-5.739054680E0,2.109607697E0
3.317999844E1,-4.797003269E0,-1.187423515E1,1.810198545E0
3.320000000E1,-2.709096670E0,-1.612004471E1,3.074155003E-2
3.322200000E1,-6.049764156E-1,-1.340755844E1,-1.503146887E0
3.324399844E1,1.147741914E0,-1.141365719E1,2.366218328E0
3.326399844E1,2.617916107E0,-9.977807045E0,-1.669764161E0
3.328400000E1,8.749658465E-1,-8.394875526E0,-8.140189648E-1
3.330400000E1,-1.490055323E-1,-8.862022400E0,1.309274077E0
3.332600625E1,-4.992963970E-1,-8.522150993E0,-6.027546525E-1
3.334800000E1,-2.102587819E-1,-8.184415817E0,-1.734321356E0
3.337000000E1,-2.468326092E-1,-8.433096886E0,-2.033644438E0
3.339199844E1,-4.184106886E-1,-8.084136963E0,-1.274739981E0
3.341200000E1,-8.954889178E-1,-7.264726162E0,-5.042188615E-2
3.343400000E1,-1.125964403E0,-7.162771702E0,1.137533069E0
3.345601250E1,-1.358134866E0,-8.341944695E0,2.083807945E0
3.347799844E1,-1.906454921E0,-9.842400551E0,1.166809440E0
3.349800000E1,-1.369435549E0,-1.023924446E1,-7.379025221E-1
3.352000000E1,2.699989080E-1,-1.091053963E1,-2.362875938E0
3.354200000E1,2.386003971E0,-1.260275173E1,-5.702423573E0
3.356399844E1,2.763952732E0,-1.287927246E1,-1.262539148E0
3.358400000E1,1.759096503E0,-1.182367897E1,2.122421503E0
3.360600000E1,1.037110686E0,-1.288277817E1,8.245630190E-3
3.362600000E1,1.561287761E0,-1.378839970E1,-3.438878059E0
3.364600000E1,1.286586523E0,-1.379308224E1,-3.038481474E0
3.366600000E1,-1.230571747E0,-1.224179268E1,-2.775119066E0
3.368600000E1,-3.696838856E0,-1.124932957E1,-3.798659563E0
3.370800000E1,-2.760936022E0,-1.345631313E1,1.181164980E0
3.372800000E1,-1.948736548E0,-1.412002468E1,3.453549862E0
3.374800000E1,-3.160384417E0,-1.460539627E1,3.109321117E0
3.376999844E1,-3.583258152E0,-1.431671333E1,2.519389629E0
3.378999844E1,-2.708148718E0,-1.485472870E1,-2.099781990E0
3.381000000E1,-3.229165316E0,-1.371743488E1,-2.500523329E0
3.383200000E1,-3.458788395E0,-1.026463223E1,1.436520964E-1
3.385400000E1,-2.618251085E0,-8.070106506E0,-4.988175631E-1
3.387600000E1,-1.341251016E0,-7.430529118E0,-9.575753212E-1
3.389600625E1,-1.119490385E0,-7.052973747E0,8.214027286E-1
3.391800000E1,-7.490690947E-1,-6.645489693E0,1.345598936E0
3.393800000E1,-1.143777251E0,-5.964282036E0,1.694740534E0
3.395801875E1,-2.307196379E0,-4.230688572E0,1.928567767E0
3.397999844E1,-2.858772755E0,-2.821537971E0,1.556834459E0
3.399999844E1,-2.552563667E0,-2.336080074E0,1.094198108E0
3.402000000E1,-2.052759647E0,-1.786457539E0,8.028333187E-1
3.404200000E1,-7.933618426E-1,-1.815504074E0,-1.154579818E-1
3.406200000E1,6.639504433E-1,-3.957605600E0,-2.617839336E0
3.408400000E1,9.890255928E-1,-1.111659431E1,-1.272775745E1
3.410600469E1,-5.767440200E-1,-1.910063553E1,-3.175986099E1
3.412800000E1,-2.833298445E0,-1.879939651E1,-8.743222237E0
3.414800000E1,-1.700314164E0,-1.174279308E1,-8.498094559E0
3.417000000E1,-2.184440851E0,-9.570600510E0,-9.877843857E0
3.419200000E1,-2.350330353E0,-1.833971786E1,-1.285884571E1
3.421400000E1,-3.874067307E0,-1.259592342E1,1.275330925E1
3.423600156E1,-4.546100616E0,-5.064761162E0,1.031337833E1
3.425802031E1,-1.715589166E0,-1.934428811E0,2.933241844E0
3.427999844E1,-2.729706049E0,-3.901811361E0,5.243301988E-1
3.430000781E1,-6.436878204E0,-1.146473980E1,9.206471443E-1
3.432200000E1,-5.216333389E0,-2.146522522E1,2.154551744E0
3.434200000E1,-2.517617941E0,-1.797392464E1,2.185992479E0
3.436400000E1,1.209033608E0,-1.224783611E1,1.776104927E0
3.438601562E1,2.495121956E0,-1.027143192E1,-1.046275735E0
3.440799844E1,1.623623013E0,-8.331878662E0,-1.234948397E0
3.442800000E1,7.253377438E-1,-7.913497448E0,-1.030359030E0
3.445000000E1,1.402619183E-1,-8.084807396E0,-3.722121716E-1
3.447200000E1,-2.602018416E-1,-8.186043739E0,-2.399133682E0
3.449399844E1,-2.589089572E-1,-8.381773949E0,-3.454449892E0
3.451400000E1,-3.450331986E-1,-8.054869652E0,-1.737405181E0
3.453600156E1,-3.110738397E-1,-6.891422272E0,7.905941010E-1
3.455802031E1,-2.638410330E-1,-5.499471664E0,1.710092068E0
3.457999844E1,-3.742232919E-1,-6.438161850E0,3.309974432E0
3.460000000E1,-1.019786239E0,-9.622641563E0,3.330516577E0
3.462000000E1,-1.549000621E0,-1.082748985E1,8.887180686E-1
3.464199844E1,-1.079478502E0,-1.178605175E1,-1.369933486E0
3.466199844E1,2.143452168E0,-1.418473530E1,-1.162710571E1
3.468199844E1,3.223064661E0,-1.376405430E1,-5.607564926E0
3.470200000E1,1.612322569E0,-1.220191479E1,1.040175319E0
3.472400000E1,8.907100558E-1,-1.238431454E1,2.299228430E0
3.474600000E1,1.875138760E0,-1.398699284E1,8.713649511E-1
3.476799844E1,2.725243092E0,-1.400479698E1,-1.039169669E0
3.478800000E1,8.048539758E-1,-1.318008041E1,-9.683588147E-1
3.481000000E1,-2.677598715E0,-1.282728958E1,-3.003324986E0
3.483200000E1,-3.495103598E0,-1.402686119E1,-4.326131046E-1
3.485399844E1,-2.757449865E0,-1.477244473E1,2.663242817E0
3.487400000E1,-4.550611496E0,-1.409589195E1,2.621401787E0
3.489600000E1,-4.516335964E0,-1.319662857E1,3.088979959E0
3.491600000E1,-3.779898643E0,-1.233762836E1,2.474101067E0
3.493600938E1,-4.993893147E0,-1.216947842E1,-4.068514705E-1
3.495802031E1,-3.828778505E0,-9.982968330E0,7.370310277E-2
3.497999844E1,-3.365002632E0,-7.776721478E0,4.936365187E-1
3.499999844E1,-2.524331331E0,-7.058077812E0,5.280076861E-1
3.502000000E1,-1.131212354E0,-7.095868111E0,4.652795792E-1
3.504200000E1,-2.939983904E-1,-6.991816044E0,-3.641101718E-2
3.506200000E1,1.084956452E-1,-6.596015930E0,5.272989720E-2
3.508399844E1,-7.016064525E-1,-5.846209526E0,9.471557736E-1
3.510400000E1,-1.641091228E0,-4.384540081E0,1.754403949E0
3.512599844E1,-2.050844431E0,-3.280113697E0,2.209034204E0
3.514600156E1,-2.102798700E0,-3.049466133E0,2.127573729E0
3.516600469E1,-1.557045221E0,-4.198405266E0,2.048977137E0
3.518799844E1,-1.104263306E0,-7.222866058E0,1.186508894E0
3.520800000E1,-2.485861301E0,-9.930583954E0,-5.752950668E0
3.522800000E1,-2.944408417E0,-1.634997368E1,-2.789675903E1
3.524800000E1,-3.917613029E0,-2.158346176E1,-2.190475273E1
3.526999844E1,-5.390344143E0,-1.158402920E1,-9.637485504E0
3.528999844E1,-1.034869790E0,-4.605658531E0,-9.757081032E0
3.531000000E1,2.771326542E0,-1.660972714E0,-8.235029221E0
3.533000000E1,5.441522598E0,-6.646734715E0,-6.121916294E0
3.535000000E1,-3.753342152E0,-1.237768745E1,1.121272659E1
3.537000000E1,-3.424503326E0,-2.069833374E1,3.392584026E-1
3.539000000E1,-1.967152715E0,-1.466480160E1,5.576776028E0
3.541200000E1,-1.678785563E0,-9.003146172E0,5.001860619E0
3.543200000E1,-1.390667200E0,-1.095289803E1,5.098577023E0
3.545399844E1,-7.444818020E-1,-1.356979847E1,5.598534107E0
3.547400000E1,-4.672811329E-1,-1.442428875E1,4.647155285E0
3.549400000E1,-7.604367733E-1,-1.280206490E1,3.036901236E0
3.551400781E1,-1.201429605E0,-1.129809380E1,1.436157107E0
3.553601250E1,-1.122028351E0,-9.830639839E0,3.470538855E-1
3.555601875E1,-5.311268330E0,-6.090303421E0,-9.343180656E0
3.557800000E1,-4.219684601E0,-6.435853481E0,-4.618577957E0
3.559800625E1,-2.732751369E0,-6.654606819E0,-2.308182955E0
3.562000000E1,-1.826574802E0,-6.583240509E0,-2.001724958E0
3.564199844E1,-2.254016399E0,-6.747224331E0,-3.287803888E0
3.566200000E1,-1.802125216E0,-7.315473557E0,-1.934016943E0
3.568399844E1,-6.586449146E-1,-7.713408947E0,6.989824176E-1
3.570399844E1,-3.013916910E-1,-8.190966606E0,1.861740828E0
3.572399844E1,-2.871413827E-1,-9.969676018E0,3.421678305E0
3.574399844E1,-4.263690114E-1,-1.184966946E1,3.073225975E0
3.576400156E1,-8.582159281E-1,-1.110626030E1,6.478326917E-1
3.578600000E1,-5.730761215E-2,-1.176126671E1,-1.515836239E0
3.580600469E1,1.263803363E0,-1.339772224E1,-6.529371262E0
3.582800000E1,1.136843681E0,-1.285085869E1,-6.363989353E0
3.584800000E1,4.007031918E-1,-1.281113338E1,-1.806156993E0
3.586800000E1,6.432549357E-1,-1.356922436E1,-1.580958366E0
3.588800000E1,1.989457130E0,-1.271393013E1,-2.266006708E0
3.590800000E1,1.727818727E0,-1.058837605E1,-2.916808128E0
3.592800000E1,-1.361189842E0,-1.004040051E1,-2.632472754E0
3.595000000E1,-1.152779460E0,-1.322420120E1,1.442362815E-1
3.597000469E1,2.928587608E-2,-1.541830444E1,2.426676750E0
3.599199844E1,-1.094169259E0,-1.508986855E1,3.533726692E0
3.601200625E1,-1.060889840E0,-1.424724293E1,3.239766598E0
3.603399844E1,-8.724566698E-1,-1.297743511E1,2.582520008E0
3.605399844E1,-7.571327686E-1,-1.233879566E1,6.222434640E-1
3.607400000E1,2.096363157E-2,-1.300574398E1,-3.516239405E0
3.609601406E1,-1.524215817E0,-1.052013206E1,6.236608028E-1
3.611799844E1,-1.274548411E0,-8.758449554E0,1.687289715E0
3.613800000E1,-2.121741474E-1,-8.397298813E0,-6.386772543E-2
3.615801875E1,-1.892568469E-1,-7.798240662E0,-4.446894526E-1
3.617999844E1,-1.053429604E0,-6.871541023E0,2.266811132E0
3.620000000E1,-1.819248557E0,-5.927238941E0,3.514448643E0
3.622199844E1,-2.540899277E0,-5.222797871E0,2.348338366E0
3.624200000E1,-3.297610521E0,-4.857959747E0,1.668011546E0
3.626200000E1,-4.592921257E0,-4.036787033E0,1.715024114E0
3.628400000E1,-5.123553276E0,-2.741226912E0,1.048899770E0
3.630600000E1,-4.548666954E0,-2.481379509E0,-1.450723410E0
3.632600000E1,-3.884209156E0,-4.404057503E0,-4.940090179E0
3.634600938E1,1.423975378E-1,-1.349785805E1,-1.293855381E1
3.636800000E1,-3.096641302E0,-2.058131409E1,-2.783272934E1
3.638800000E1,-7.965030670E-1,-1.848922348E1,-1.372397518E1
3.640800000E1,6.516135693E0,-1.159608555E1,-1.066403294E1
3.642800000E1,7.088024616E0,-6.934173107E0,-6.153059959E0
3.644800000E1,3.377394915E0,-8.603746414E0,-4.232833385E0
3.646800000E1,-3.719143391E0,-1.359966850E1,4.677197933E0
3.648800000E1,-3.479100704E0,-1.720101738E1,9.228976965E-1
3.650800000E1,-4.841056824E0,-9.767902374E0,6.069291592E0
3.652800156E1,-4.963735580E0,-4.699281693E0,4.945587635E0
3.654999844E1,-5.961820602E0,-3.491090775E0,1.186722469E1
3.656999844E1,-8.191597939E0,-1.002267361E1,8.779537082E-1
3.659000000E1,-5.652461529E0,-1.638171196E1,-1.631887913E0
3.661199844E1,-3.050433397E0,-1.375625992E1,-5.403234437E-2
3.663200000E1,-1.686322331E0,-1.041673183E1,1.345924497E0
3.665400000E1,1.458748817E0,-8.137671471E0,4.337843418E0
3.667600000E1,9.650835395E-1,-9.107552528E0,-6.572055340E0
3.669600000E1,-7.205589116E-2,-9.947133064E0,-1.788152575E0
3.671600000E1,6.369054914E-1,-9.334494591E0,-6.927670240E-1
3.673601250E1,7.029375993E-3,-7.424773693E0,-1.265354753E0
3.675801875E1,-3.950815797E-1,-6.951210499E0,-1.331147432E0
3.678000000E1,5.925170332E-2,-7.263720512E0,1.024402380E0
3.680000000E1,2.145396322E-1,-6.869826794E0,1.910295248E0
3.682000000E1,2.371217310E-1,-7.394970894E0,3.258690357E0
3.684200000E1,2.107567936E-1,-9.667374611E0,2.050882816E0
3.686400000E1,-9.126026630E-1,-1.094448948E1,-9.192777276E-1
3.688600000E1,-2.476629496E0,-1.081711769E1,-2.758675814E0
3.690601719E1,-2.434903145E0,-1.128790474E1,-3.648725033E0
3.692800000E1,-2.611595094E-1,-1.178370476E1,-5.397296906E0
3.695000000E1,2.037398577E0,-1.276387215E1,-2.303193331E0
3.697000000E1,2.231683254E0,-1.276914978E1,1.247426987E0
3.699199844E1,2.105633259E0,-1.227598190E1,4.078666270E-1
3.701199844E1,2.472942114E0,-1.279469013E1,-4.285812378E0
3.703199844E1,2.209666252E0,-1.204898262E1,-4.533698559E0
3.705200000E1,2.227182090E-1,-1.221154881E1,-2.072976589E0
3.707400000E1,-2.351958513E0,-1.319166756E1,-1.549163461E0
3.709600938E1,-6.624851823E-1,-1.545486927E1,3.143845558E0
3.711799844E1,-1.935463190E0,-1.617564774E1,3.246441603E0
3.713800000E1,-3.647164106E0,-1.535717583E1,2.644213915E0
3.715801875E1,-3.967642307E0,-1.423313713E1,2.340466261E0
3.717999844E1,-4.163478374E0,-1.320280552E1,3.245866895E-1
3.719999844E1,-4.310223579E0,-1.239862251E1,-1.246766090E0
3.721999844E1,-3.712688446E0,-9.444541931E0,2.786563337E-1
3.724000000E1,-2.421160460E0,-7.828761578E0,2.901772559E-1
3.726200000E1,-5.503790975E-1,-6.577303410E0,-7.142478228E-1
3.728399844E1,-2.109291703E-1,-5.905681610E0,2.625960410E-1
3.730400000E1,-4.770207778E-2,-5.569334507E0,2.050470829E0
3.732600000E1,-8.880189657E-1,-5.508004665E0,2.348041534E0
3.734600000E1,-2.048526764E0,-4.796150684E0,2.684982061E0
3.736799844E1,-2.264407158E0,-4.083655834E0,2.452706337E0
3.738800000E1,-2.207137823E0,-3.786190748E0,2.209100962E0
3.740800000E1,-2.560914755E0,-3.424972773E0,1.735834599E0
3.742800000E1,-2.671057701E0,-3.401164532E0,1.966118440E-2
3.744800000E1,-2.380152702E0,-5.208308220E0,-2.637835741E0
3.746800000E1,-1.240273118E0,-1.158996677E1,-8.317121506E0
3.748800000E1,1.357675195E0,-1.814187050E1,-3.093297958E1
3.750800000E1,1.474263191E0,-2.112201118E1,-1.437154961E1
3.753000000E1,-1.466113329E-1,-1.422992897E1,-8.730437279E0
3.755200000E1,-5.138723254E-1,-9.491391182E0,-8.219773293E0
3.757200000E1,-3.713119745E0,-1.174604034E1,-7.258568287E0
3.759399844E1,-2.382652044E0,-1.496129036E1,-1.574082255E0
3.761399844E1,-3.603081942E0,-1.053640366E1,6.773196697E0
3.763399844E1,-3.956379890E0,-4.424983025E0,7.482809067E0
3.765404062E1,-2.346307993E0,-2.074508905E0,3.636294365E0
3.767600312E1,-2.389461279E0,-4.125448704E0,1.814824104E0
3.769600469E1,-4.493552685E0,-1.095856762E1,1.659823418E0
3.771800000E1,-3.207904816E0,-1.897377205E1,-6.918476820E-1
3.774000000E1,-8.654751778E-1,-1.495370483E1,-2.571219444E0
3.776200000E1,-3.197695687E-2,-1.100256348E1,3.710639238E0
3.778399844E1,7.097946405E-1,-9.220281601E0,-6.355073452E-1
3.780400000E1,-2.797960043E-1,-7.279426575E0,-2.858820438E0
3.782600000E1,-4.626172185E-1,-7.666933060E0,4.887906611E-1
3.784800000E1,-2.955211103E-1,-7.529716492E0,9.991578460E-1
3.786999844E1,-7.938981056E-1,-7.325558186E0,-3.130370677E-1
3.789000000E1,-6.076579690E-1,-8.018200874E0,-2.626075506E0
3.791200000E1,-6.638642401E-2,-9.120558739E0,-1.528803110E0
3.793400000E1,-2.457600087E-1,-8.696401596E0,1.128281832E0
3.795600000E1,-2.168572098E-1,-7.648430824E0,2.905497789E0
3.797600156E1,-1.269501448E-1,-8.266345978E0,2.822467089E0
3.799800000E1,-5.375940800E-1,-9.641910553E0,1.600092888E0
3.801800000E1,-1.339153528E0,-1.064121056E1,8.563005924E-1
3.803800000E1,-2.352092505E0,-1.072095680E1,-1.846848845E0
3.805802031E1,-1.105671048E0,-1.104087067E1,-9.028036118E0
3.807999844E1,2.172776461E0,-1.301634598E1,-4.429637432E0
3.810000000E1,2.479023457E0,-1.280176735E1,2.537451744E0
3.812200000E1,2.052596807E0,-1.177698231E1,3.970946312E0
3.814400000E1,1.750314713E0,-1.343585777E1,-5.192544684E-2
3.816601562E1,1.282008767E0,-1.348808956E1,-9.550317764E0
3.818800000E1,-3.419015706E-1,-1.254980183E1,-4.548983574E0
3.820800000E1,-1.690555453E0,-1.235664749E1,-4.913284779E-1
3.823000000E1,-2.377212286E0,-1.297445679E1,1.141191363E0
3.825199844E1,-1.360538602E0,-1.466183281E1,3.130045176E0
3.827199844E1,-2.999790907E0,-1.507535934E1,3.014587164E0
3.829199844E1,-4.421084881E0,-1.424659157E1,2.677981615E0
3.831199844E1,-5.235678673E0,-1.368419456E1,-5.814749599E-1
3.833200000E1,-4.044783592E0,-1.288319969E1,-1.625557661E0
3.835399844E1,-3.453655005E0,-1.080712986E1,-6.003603935E-1
3.837400000E1,-2.658004284E0,-9.562680244E0,-2.913168967E-1
3.839600000E1,-1.972793460E0,-8.081541061E0,-9.340546727E-1
3.841601250E1,-8.028523922E-1,-6.856974602E0,9.237787873E-2
3.843800156E1,-2.586886883E-1,-6.330154419E0,1.074833751E0
3.845801875E1,1.853111945E-2,-6.582848072E0,1.540027142E0
3.848000000E1,-9.194021821E-1,-6.420923233E0,1.737702012E0
3.850000000E1,-1.689511418E0,-5.508770943E0,2.020696640E0
3.852000000E1,-2.050758362E0,-4.265318394E0,1.535928249E0
3.854200000E1,-1.763109207E0,-3.288311481E0,1.512407541E0
3.856200000E1,-1.423190117E0,-2.601012945E0,9.173814654E-1
3.858200000E1,-7.976235151E-1,-2.678201914E0,8.896853775E-2
3.860399844E1,-3.060651422E-1,-6.115949631E0,-4.257752419E0
3.862399844E1,-9.238266349E-1,-1.300674057E1,-1.701518059E1
3.864400000E1,4.060087204E-1,-2.031144905E1,-2.948558044E1
3.866400000E1,4.973235726E-1,-1.762358475E1,-8.706907272E0
3.868600000E1,-1.300645232E0,-9.539159775E0,-8.431181908E0
3.870600000E1,-2.668969870E0,-6.610764027E0,-6.021589756E0
3.872600000E1,-6.892246246E0,-1.158211327E1,-7.870909214E0
3.874600000E1,-5.825533390E0,-1.623272514E1,-1.792490929E-1
3.876600000E1,-7.302162170E0,-9.997631073E0,6.054131985E0
3.878800000E1,-3.850757360E0,-2.908753872E0,4.407141209E0
3.880800000E1,-1.120294809E0,-3.108631611E0,4.445228100E0
3.882999844E1,-3.157291174E0,-9.790330887E0,2.154953957E0
3.885000000E1,-4.305301189E0,-1.830327988E1,2.202780485E0
3.887199844E1,-3.499719381E0,-1.866187286E1,1.448788881E0
3.889199844E1,5.575233698E-1,-1.464460373E1,-1.681447864E0
3.891199844E1,1.386290669E0,-9.518406868E0,4.315644741E0
3.893199844E1,3.269531488E0,-6.789046288E0,5.403904915E-1
3.895199844E1,1.584482670E0,-6.705804825E0,-2.329720974E0
3.897200000E1,5.876041055E-1,-8.266162872E0,9.932776690E-1
3.899399844E1,-1.475307196E-1,-8.353484154E0,7.531201094E-2
3.901400000E1,-1.171109319E0,-7.310464859E0,-2.347591400E0
3.903600000E1,-7.209132910E-1,-7.886012077E0,-2.557074547E0
3.905802188E1,-2.217892706E-1,-7.768236160E0,-7.585788518E-2
3.908000000E1,-1.889599711E-1,-6.520560741E0,1.507561803E0
3.910000000E1,-1.948305517E-1,-6.501799107E0,2.878634930E0
3.912200000E1,-4.858888686E-1,-9.158625603E0,1.928826332E0
3.914400000E1,-1.093336225E0,-1.137450790E1,5.468451977E-1
3.916400000E1,-1.731084466E0,-1.248547459E1,-5.232001543E-1
3.918600000E1,-2.255385876E0,-1.246968269E1,-4.975428581E0
3.920800000E1,1.963245450E-3,-1.204475021E1,-5.835291862E0
3.922800000E1,1.734532118E0,-1.269033241E1,7.431601733E-2
3.924800000E1,1.815331697E0,-1.195629883E1,2.686543226E0
3.926999844E1,1.614620805E0,-1.156250954E1,7.696112990E-1
3.928999844E1,1.076672435E0,-1.276686001E1,-5.341770649E0
3.931000000E1,-4.604815841E-1,-1.231828213E1,-6.495018959E0
3.933000000E1,-6.911581159E-1,-1.249524307E1,-1.212873936E0
3.935199844E1,-1.142924786E0,-1.272999859E1,6.925180554E-1
3.937199844E1,-1.073234320E0,-1.450224495E1,2.265048742E0
3.939199844E1,-1.514677405E0,-1.595005703E1,3.210413933E0
3.941200000E1,-3.057999134E0,-1.588438892E1,2.855401516E0
3.943400000E1,-4.190772533E0,-1.365074253E1,1.561402559E0
3.945601719E1,-5.266362667E0,-1.223505116E1,-2.849253178E0
3.947800000E1,-4.274071217E0,-1.111434364E1,-1.864728808E0
3.949800625E1,-3.387153864E0,-9.578281403E0,-4.149630293E-2
3.952000000E1,-2.247896671E0,-8.021141052E0,-1.434509903E-1
3.954000000E1,-6.071120501E-1,-7.338027000E0,2.968810126E-2
3.956199844E1,4.397669435E-2,-6.770419598E0,1.498636246E0
3.958199844E1,3.296720088E-1,-6.739218235E0,2.240800381E0
3.960199844E1,-8.339196444E-1,-6.652567387E0,2.417329550E0
3.962200000E1,-1.829706430E0,-6.182336330E0,2.424540997E0
3.964400000E1,-2.413230658E0,-5.377262115E0,1.877341390E0
3.966600000E1,-2.563634634E0,-4.420433521E0,1.539988875E0
3.968600000E1,-2.616287947E0,-2.959012985E0,1.023578644E0
3.970600000E1,-2.738239050E0,-1.671306014E0,-1.513710022E-1
3.972600469E1,-2.214923859E0,-2.129268885E0,-1.724897861E0
3.974800000E1,-4.925830662E-1,-7.742302418E0,-5.859703064E0
3.976999844E1,2.584876060E0,-1.818743706E1,-2.481055641E1
3.978999844E1,2.690115452E0,-2.378499603E1,-2.022672272E1
3.981000000E1,1.175811648E0,-1.558810139E1,-8.212006569E0
3.983200000E1,1.374645233E0,-7.410016060E0,-7.537857056E0
3.985399844E1,-9.438709021E-1,-6.027010441E0,-6.683279991E0
3.987399844E1,-2.183713198E0,-1.099238396E1,-1.675136685E0
3.989399844E1,-5.182259083E0,-1.329114246E1,7.821846962E0
3.991399844E1,-8.527341843E0,-1.021511078E1,-1.183042169E0
3.993400000E1,-4.731191635E0,-5.001516342E0,3.654059410E0
3.995599844E1,-2.797500134E0,-4.255779743E0,8.229598999E0
3.997600000E1,-4.625712395E0,-1.317779064E1,2.583554506E0
3.999800000E1,-4.171455860E0,-1.834943008E1,1.065755010E0
4.002000000E1,-8.462736607E-1,-1.628625107E1,-2.649863958E0
4.004199844E1,-1.256285608E-1,-1.198605347E1,1.097138166E0
4.006200000E1,4.729314446E-1,-9.109085083E0,4.045855999E0
4.008400000E1,6.985035539E-1,-6.714212894E0,-4.046325207E0
4.010600000E1,-9.840551615E-1,-9.661838531E0,-1.816710711E0
4.012600625E1,-4.140149355E-1,-1.038301086E1,9.643557072E-1
4.014800000E1,-9.916400313E-1,-7.054515362E0,-9.353954196E-1
4.017000000E1,-7.265348434E-1,-6.277491570E0,-3.172738552E0
4.019200000E1,-3.361459356E-3,-7.084328175E0,-2.301584482E0
4.021399844E1,7.166324556E-2,-7.773532391E0,4.252581298E-1
4.023400000E1,-9.732908756E-2,-7.395669937E0,1.925972462E0
4.025601406E1,-2.885204554E-1,-7.604722023E0,3.073321819E0
4.027800000E1,-7.540969253E-1,-9.545203209E0,2.792884350E0
4.029800000E1,-1.028089404E0,-1.037101173E1,8.643450737E-1
4.031800000E1,-1.227344394E0,-1.014793015E1,-2.150663614E0
4.033999844E1,-4.028866887E-1,-1.204410839E1,-8.988552094E0
4.035999844E1,1.863914847E0,-1.383256721E1,-4.675722599E0
4.038000000E1,1.697958231E0,-1.271484852E1,1.534970522E0
4.040000000E1,6.742168069E-1,-1.199632931E1,1.594337106E0
4.042000000E1,-2.288856916E-2,-1.278271008E1,-4.159801006E0
4.044199844E1,1.226808071E0,-1.410660744E1,-5.641218185E0
4.046199844E1,5.657977238E-2,-1.270157528E1,-2.564448595E0
4.048200000E1,-1.616488457E0,-1.182401371E1,-1.846226454E0
4.050400000E1,-1.604833364E0,-1.307758999E1,1.897107959E0
4.052400000E1,-1.176108479E0,-1.471505070E1,3.588084698E0
4.054400000E1,-2.310739756E0,-1.574200058E1,3.154197931E0
4.056599844E1,-3.401710510E0,-1.522970867E1,2.603301764E0
4.058599844E1,-3.672657490E0,-1.404794979E1,7.273392677E-1
4.060600000E1,-3.645804167E0,-1.331024837E1,-2.584492922E0
4.062600000E1,-4.118908405E0,-1.150878429E1,-1.239334583E0
4.064804219E1,-3.677321434E0,-9.540616035E0,4.116973579E-1
4.067000000E1,-2.809155226E0,-7.980046749E0,1.527021825E-1
4.069200000E1,-1.458490252E0,-7.074032784E0,2.175275832E-1
4.071399844E1,-5.923542380E-1,-6.353550434E0,1.621391773E0
4.073400000E1,-1.921777874E-1,-6.011868954E0,1.532145381E0
4.075600156E1,-1.145031691E0,-5.062942028E0,2.106600523E0
4.077600156E1,-1.852633357E0,-3.890884161E0,2.796054125E0
4.079800156E1,-1.962259054E0,-3.649079323E0,2.403759241E0
4.082000000E1,-2.113237381E0,-3.417071819E0,2.021012783E0
4.084000000E1,-2.243453026E0,-2.886928558E0,2.259025097E0
4.086000000E1,-2.098422050E0,-2.584665298E0,7.093062401E-1
4.088000000E1,-1.384997845E0,-4.767180920E0,-3.393627644E0
4.090000000E1,9.989375472E-1,-1.291217899E1,-1.596023750E1
4.092200000E1,2.075332165E0,-2.136046410E1,-3.197380638E1
4.094400000E1,-1.411860704E0,-1.743530464E1,-7.770793438E0
4.096600625E1,-1.782923698E0,-1.307136440E1,-9.393735886E0
4.098800000E1,-1.768836230E-1,-6.633451462E0,-6.773149014E0
4.100800000E1,-1.379826367E-1,-7.333008766E0,-6.593813419E0
4.103000469E1,-2.449670553E0,-1.025968075E1,9.414431572E0
4.105000781E1,-5.910355091E0,-1.208740520E1,4.219694138E0
4.107199844E1,-9.224485397E0,-1.321960354E1,-8.124368668E0
4.109200313E1,-5.452555180E0,-4.992216587E0,1.003354359E1
4.111399844E1,-5.350562096E0,-3.624601126E0,3.859529734E0
4.113400000E1,-2.665455103E0,-9.939547539E0,-4.560676098E0
4.115600000E1,-3.399718523E0,-1.460152721E1,-2.676028013E0
4.117600156E1,-2.674878597E0,-1.479547691E1,1.840317488E0
4.119800000E1,-1.187907085E-1,-1.262499905E1,4.103910446E0
4.121800000E1,5.344624519E-1,-1.030608082E1,4.099400043E0
4.124000000E1,2.519581318E0,-7.555765152E0,1.520030797E-1
4.126000000E1,1.642700076E0,-7.647377014E0,-5.423661709E0
4.128000000E1,1.025503635E0,-1.026331043E1,7.930170894E-1
4.130000000E1,4.651646614E-1,-9.612700462E0,6.734506488E-1
4.132000000E1,-6.012989283E-1,-7.575905323E0,-1.441146612E0
4.134200000E1,-1.136154056E0,-7.202725887E0,-1.824084878E0
4.136400000E1,-7.366192341E-1,-7.170844555E0,-2.122986615E-1
4.138600312E1,-6.398551464E-1,-6.707049847E0,1.041678786E0
4.140600625E1,-7.151097655E-1,-7.227443695E0,2.063409090E0
4.142800000E1,-9.680811167E-1,-9.641383171E0,2.348884344E0
4.144800000E1,-1.208707929E0,-1.143215084E1,1.502102971E0
4.146800000E1,-1.276109457E0,-1.036395359E1,-2.751895487E-1
4.148800000E1,-1.044379473E0,-1.050657082E1,-5.812374592E0
4.150800000E1,1.359418035E0,-1.285753345E1,-1.001935101E1
4.153000000E1,2.178982258E0,-1.317499542E1,-1.147799492E0
4.155200000E1,1.716106296E0,-1.173273754E1,2.876777172E0
4.157400000E1,9.103041887E-1,-1.168347454E1,-2.100481093E-1
4.159400000E1,7.824251056E-1,-1.317176723E1,-6.688499451E0
4.161600625E1,1.642518193E-1,-1.328769493E1,-3.939208746E0
4.163800000E1,-1.448721886E0,-1.299652195E1,-5.408788919E-1
4.165801875E1,-1.786955595E0,-1.435212803E1,1.710226178E0
4.168000000E1,-1.827436686E0,-1.624731064E1,2.938642979E0
4.170200000E1,-3.154217005E0,-1.663369751E1,2.769028425E0
4.172399844E1,-3.828223228E0,-1.478084373E1,2.728643179E0
4.174399844E1,-3.850786209E0,-1.317601013E1,1.882857680E0
4.176399844E1,-5.749407291E0,-1.261421585E1,-2.237994432E0
4.178399844E1,-4.382298946E0,-1.091354656E1,-1.082964420E0
4.180400000E1,-3.402955532E0,-8.742570877E0,-3.579044044E-1
4.182600000E1,-1.999378681E0,-7.092133045E0,1.388637000E-3
4.184800000E1,-4.707000554E-1,-5.881098270E0,6.445190907E-1
4.186999844E1,3.047339916E-1,-5.186951637E0,1.837396622E0
4.189000000E1,6.656264067E-1,-5.462648869E0,2.576601505E0
4.191200000E1,-4.923532009E-1,-5.362025261E0,3.003698587E0
4.193400000E1,-1.545897722E0,-4.848124504E0,2.566804409E0
4.195600000E1,-1.881574392E0,-4.277873516E0,2.108889341E0
4.197600156E1,-2.310615301E0,-3.597920179E0,1.913704634E0
4.199800156E1,-2.910429955E0,-2.956235886E0,2.422501326E0
4.202000000E1,-2.856091022E0,-3.268362999E0,-5.475347638E-1
4.204199844E1,-1.688237786E0,-1.005984211E1,-1.041767883E1
4.206199844E1,2.080628395E0,-1.838798714E1,-2.952062035E1
4.208199844E1,3.956274688E-1,-2.036431503E1,-1.786475754E1
4.210199844E1,3.529532254E-1,-1.448476696E1,-9.094873428E0
4.212200000E1,3.129030168E-1,-9.286380768E0,-8.737983704E0
4.214400000E1,-1.351785421E0,-9.490538597E0,-5.712833405E0
4.216400000E1,-4.008793831E0,-1.275620079E1,-4.528105736E0
4.218600000E1,-3.633641720E0,-1.292048168E1,7.274006367E0
4.220600312E1,-6.370300293E0,-9.770574570E0,2.921136618E0
4.222601562E1,-6.183418274E0,-4.663339615E0,2.799396217E-1
4.224800000E1,-5.818446159E0,-3.433256626E0,3.111360788E0
4.226999844E1,-6.274599075E0,-1.018702126E1,3.444863558E0
4.228999844E1,-3.768789530E0,-1.554782104E1,-1.068446040E0
4.231000000E1,-2.129594535E-1,-1.576304054E1,-3.732953072E0
4.233199844E1,-9.402509332E-1,-1.154940891E1,8.324160576E-1
4.235199844E1,1.062067896E-1,-9.649888039E0,3.945021868E0
4.237199844E1,2.135694981E0,-8.722699165E0,5.691314220E0
4.239199844E1,2.777982712E0,-8.063652039E0,-5.323698997E0
4.241200000E1,4.596005380E-1,-8.784527779E0,-1.206476569E0
