"Time (s)","Gyroscope x (rad/s)","Gyroscope y (rad/s)","Gyroscope z (rad/s)"
4.851000000E-3,-8.194320649E-2,-2.349736691E-1,-2.069785893E-1
2.485100000E-2,-9.505063295E-2,-2.693392038E-1,-2.665990293E-1
4.684943800E-2,-9.428268671E-2,-4.233994186E-1,-2.365444750E-1
6.684943800E-2,-9.857619554E-2,-3.763453364E-1,-1.705361158E-1
8.686818800E-2,-4.717624933E-2,-2.090380788E-1,-6.098180264E-2
1.088494380E-1,4.949753731E-2,-1.077391729E-1,-2.998475730E-2
1.288525630E-1,4.841543362E-2,-1.206546128E-1,1.448623277E-2
1.508510000E-1,-1.581268385E-2,-2.344675362E-1,1.134464052E-2
1.728494380E-1,-1.185078546E-2,-2.062979192E-1,-7.735299319E-2
1.928494380E-1,5.469861999E-2,-3.104940802E-2,-9.131562710E-2
2.128494380E-1,7.005751878E-2,4.886921961E-3,-5.084143952E-2
2.328494380E-1,4.417428374E-2,-1.009149402E-1,-4.356341809E-2
2.528510000E-1,6.133086979E-2,-1.543394625E-1,-2.317797206E-2
2.748510000E-1,8.874998987E-2,-7.932521403E-2,1.396263367E-3
2.948541250E-1,7.517132908E-2,-5.487314984E-2,3.040363453E-2
3.168510000E-1,5.129522830E-2,-9.002408385E-2,1.745329209E-4
3.368588130E-1,4.077089205E-2,-1.519658118E-1,-3.173008561E-2
3.588697500E-1,3.415609151E-2,-1.594881862E-1,-1.321214251E-2
3.808510000E-1,7.941247895E-3,-1.692620367E-1,-4.640830308E-2
4.008510000E-1,2.926917188E-2,-1.568527371E-1,-3.284709528E-2
4.208510000E-1,4.886921868E-2,-7.613126189E-2,-1.417207345E-2
4.408510000E-1,4.185299575E-2,-6.492624432E-2,3.926991019E-3
4.608510000E-1,3.199188411E-2,-1.047372073E-1,4.387757555E-2
4.828494380E-1,3.839724232E-4,-1.420698017E-1,2.138028294E-2
5.028556880E-1,4.799655639E-3,-9.698794782E-2,5.714207888E-2
5.248494380E-1,5.948081985E-2,-6.621779501E-2,2.251823843E-1
5.448541250E-1,2.221804112E-1,-2.800031602E-1,4.240452051E-1
5.668510000E-1,3.178419173E-1,-1.157711744E0,4.333477914E-1
5.868572500E-1,-4.028219730E-2,-1.546728253E0,4.397357106E-1
6.088494380E-1,-4.728097022E-1,-1.520478487E0,2.386563271E-1
6.288510000E-1,-6.926339269E-1,-1.028906465E0,8.560840040E-2
6.488510000E-1,-6.751282811E-1,-6.211801171E-1,5.705481395E-2
6.688510000E-1,-9.791296907E-3,-3.782477677E-1,3.624001741E-1
6.888510000E-1,3.034429550E-1,-3.603581190E-1,2.439795732E-1
7.088510000E-1,2.639810443E-1,-5.057091713E-1,3.632379174E-1
7.288931880E-1,2.359685116E-2,-5.443856716E-1,5.327268243E-1
7.508494380E-1,-8.333947510E-2,-5.870240331E-1,7.546629310E-1
7.708494380E-1,-6.792821735E-2,-9.834930301E-1,8.359952569E-1
7.908510000E-1,-1.922829300E-1,-1.514579296E0,5.905845165E-1
8.128510000E-1,-2.303485572E-1,-1.072225571E0,7.803367078E-2
8.348635000E-1,-2.752384245E-1,-5.571963787E-1,1.296605170E-1
8.568510000E-1,7.871435024E-3,-3.296403289E-1,4.154930711E-1
8.768650630E-1,5.458866358E-1,-2.262295783E-1,4.595451951E-1
8.988510000E-1,9.015323520E-1,1.632755548E-1,3.536560535E-1
9.188541250E-1,8.119271398E-1,8.524711728E-1,7.566875219E-1
9.408494380E-1,2.068564296E-1,1.780864120E0,9.967051744E-1
9.608541250E-1,-1.185794115E0,1.169998884E0,1.105212331E0
9.828494380E-1,-9.380272031E-1,1.543429613E0,1.368983865E0
1.002857250E0,-7.436673641E-1,1.783115625E0,1.079084754E0
1.024849438E0,-4.982740581E-1,1.023286581E0,3.696432710E-1
1.044849438E0,3.534291685E-2,-2.651853263E-1,3.029367924E-1
1.064851000E0,6.007423401E-1,-1.325176120E0,6.793345213E-1
1.084857250E0,1.057320476E0,-1.757965446E0,6.029763222E-1
1.106851000E0,1.010632873E0,-1.786117554E0,3.471459746E-1
1.126854125E0,5.137202144E-1,-1.610362887E0,6.976429820E-1
1.148849438E0,3.373546898E-1,-2.971073985E-1,1.960336328E0
1.168851000E0,-4.317944646E-1,9.133657217E-1,3.049334526E0
1.190849438E0,-1.118668795E0,1.544441879E-1,3.105743647E0
1.210849438E0,-1.429529428E0,-5.315923691E-1,3.062232494E0
1.230849438E0,-1.423455596E0,-6.172880530E-1,3.576057434E0
1.250849438E0,-1.246932983E0,-8.284030557E-1,4.045812607E0
1.270849438E0,-8.992983699E-1,-1.433107257E0,3.951111317E0
1.290849438E0,-7.677004933E-1,-3.176464319E0,3.051725626E0
1.310855688E0,-1.327846527E0,-3.385293007E0,2.695573807E0
1.330855688E0,-1.534441113E0,-1.609403014E0,2.904018402E0
1.352849438E0,-8.762076497E-1,-7.608937621E-1,2.248664856E0
1.372849438E0,-3.338465691E-1,-1.869893432E0,1.442148089E0
1.392852563E0,-9.068556428E-1,-2.477686882E0,1.033531666E0
1.414851000E0,-1.712499619E0,-2.568461418E0,8.496263027E-1
1.434855688E0,-1.823851585E0,-2.817834139E0,1.278697968E0
1.456860375E0,-1.610188365E0,-2.896670580E0,1.849036694E0
1.478851000E0,-1.300497174E0,-3.470342875E0,2.051477432E0
1.498851000E0,-1.048174977E0,-3.502317190E0,2.034512758E0
1.518855688E0,-8.827875257E-1,-2.891452074E0,2.050622225E0
1.540849438E0,-3.505668342E-1,-2.446899176E0,2.161956787E0
1.560849438E0,9.372417815E-3,-2.314620733E0,2.037200689E0
1.580851000E0,7.881906629E-2,-2.402672529E0,1.679809570E0
1.602851000E0,6.921976060E-2,-2.088600636E0,1.235588431E0
1.624851000E0,-7.847000659E-2,-1.668587089E0,8.383863568E-1
1.646849438E0,-9.838420898E-2,-1.374743462E0,4.760211110E-1
1.666851000E0,-1.525417715E-1,-9.238027930E-1,8.634144068E-2
1.688851000E0,-4.838052690E-1,-4.237135947E-1,-3.980921507E-1
1.708851000E0,-8.019438982E-1,-4.527384043E-2,-6.049660444E-1
1.728851000E0,-7.859566808E-1,2.145358771E-1,-4.627391398E-1
1.750849438E0,-6.892305017E-1,8.447393775E-3,-2.266135514E-1
1.770849438E0,-6.918659806E-1,-4.987103641E-1,-1.084722131E-1
1.790851000E0,-5.528504848E-1,-9.563007951E-1,-2.121971250E-1
1.812851000E0,-2.995508611E-1,-1.189459324E0,-3.212103844E-1
1.834849438E0,-3.597123548E-2,-1.064144731E0,-3.170914054E-1
1.854851000E0,5.612978712E-2,-6.490879655E-1,-3.444930911E-1
1.876851000E0,1.040914357E-1,-4.712738097E-1,-6.315299273E-1
1.898851000E0,2.845584750E-1,-4.873308241E-1,-7.744200230E-1
1.920857250E0,2.598795295E-1,-7.106980681E-1,-8.858767748E-1
1.942849438E0,6.983585954E-1,-1.182111502E0,-1.277406454E0
1.962851000E0,7.642796636E-1,-1.555524707E0,-1.289082766E0
1.984851000E0,2.598097026E-1,-1.428586841E0,-8.329932690E-1
2.006849438E0,6.342352033E-1,-1.728521705E0,-9.275028706E-1
2.026851000E0,1.182443142E0,-2.372548103E0,-1.213108540E0
2.046852563E0,1.499796271E0,-2.604764223E0,-1.172704220E0
2.068849438E0,1.585561752E0,-2.436863661E0,-1.355248213E0
2.088851000E0,1.518750548E0,-1.865564942E0,-1.582926393E0
2.108851000E0,1.184764385E0,-8.318413496E-1,-1.692515612E0
2.130851000E0,1.758436680E0,8.288394213E-1,-1.754754066E0
2.150851000E0,1.944331646E0,7.872133255E-1,-1.449111938E0
2.170851000E0,1.719376206E0,4.345869645E-2,-8.162730336E-1
2.192849438E0,2.135864019E0,-7.506835461E-1,-3.180862665E-1
2.212849438E0,2.358306408E0,-1.808684707E0,4.694586694E-1
2.232849438E0,2.678836107E0,-3.591747999E0,9.831613898E-1
2.252851000E0,2.402620316E0,-3.669554710E0,9.043074250E-1
2.274851000E0,1.558875680E0,-2.310623884E0,1.588546276E0
2.294854125E0,2.927440703E-1,-1.419458866E0,1.910873771E0
2.316851000E0,-3.144908845E-1,-4.323005974E-1,1.706792355E0
2.336852563E0,-1.325752139E-1,4.194898903E-1,1.258382440E0
2.358876000E0,-3.939731717E-1,8.806058764E-1,7.725176215E-1
2.380851000E0,-8.059756160E-1,-2.263168395E-1,1.135895133E0
2.400851000E0,-6.117029786E-1,-1.905899495E-1,2.716744661E0
2.422849438E0,-5.687155128E-1,4.406258166E-1,4.236367702E0
2.442854125E0,-4.627216756E-1,-2.985385656E-1,5.113762379E0
2.464849438E0,-3.940953314E-2,-2.094395168E-4,5.852315903E0
2.484851000E0,4.878369868E-1,7.869689465E-1,6.215833187E0
2.506851000E0,8.625591397E-1,6.718470454E-1,6.147957325E0
2.526851000E0,6.899984479E-1,1.600990444E-1,4.679873466E0
2.546851000E0,9.000662714E-2,-5.353273749E-1,3.099826813E0
2.566851000E0,-3.686659038E-1,-7.968824506E-1,3.176621437E0
2.586851000E0,-3.784571886E-1,-5.457993746E-1,3.953973532E0
2.606851000E0,-1.150521040E-1,3.346319795E-1,4.925650597E0
2.628851000E0,1.330988109E-1,8.141437173E-1,5.110201836E0
2.650851000E0,1.656142920E-1,7.457617521E-1,5.118090630E0
2.672851000E0,5.881236196E-1,-6.328912973E-1,4.813809872E0
2.694849438E0,4.259127080E-1,-4.785989285E0,6.852267265E0
2.714851000E0,-8.548448086E-1,-6.500827789E0,6.561076641E0
2.736851000E0,-2.610611200E0,-6.988018990E0,-6.428920031E-1
2.756851000E0,-2.873178482E0,-5.483475208E0,-2.407786369E0
2.776851000E0,-2.102685452E0,-3.284552574E0,-1.188551784E0
2.796851000E0,-1.072365165E0,-1.108004808E0,-2.678556740E-1
2.816851000E0,4.800179005E-1,-2.025978118E-1,-3.591887653E-2
2.838851000E0,1.874902487E0,1.568527371E-1,-5.511749908E-2
2.858869750E0,2.222362518E0,7.234389782E-1,2.618691921E-1
2.880849438E0,7.511897087E-1,1.704244137E0,4.565083086E-1
2.900849438E0,-1.490336657E-1,2.139564276E0,5.883679390E-1
2.920849438E0,-3.125710189E-1,1.506847501E0,6.987949014E-1
2.940851000E0,-1.055575162E-1,4.610112607E-1,6.523168087E-1
2.962851000E0,8.613199741E-2,2.526189685E-1,6.732782125E-1
2.984851000E0,1.130973361E-2,-4.049163684E-2,5.558873415E-1
3.006849438E0,-9.876818210E-2,-5.265833139E-1,5.673716068E-1
3.026857250E0,5.796238407E-2,-1.346800804E0,7.305948138E-1
3.048851000E0,3.155206144E-1,-2.091148853E0,6.834185719E-1
3.070851000E0,-2.944894135E-1,-1.868584394E0,3.760137260E-1
3.092849438E0,-1.359611511E0,-9.153204560E-1,1.647067219E-1
3.112851000E0,-1.645217180E0,-6.377607584E-1,-2.095791399E-1
3.134851000E0,-1.569365144E0,-7.191454768E-1,-6.028890610E-1
3.154851000E0,-2.141222239E0,-1.094059587E0,-3.780034184E-1
3.174851000E0,-2.989679098E0,-1.712551951E0,-8.044222742E-2
3.196849438E0,-3.574469090E0,-1.488469124E0,-3.663446009E-2
3.216855688E0,-3.071046352E0,-4.147251248E-1,-4.629660249E-1
3.238851000E0,-1.502920508E0,7.172430754E-1,-5.456248522E-1
3.258869750E0,-8.257152438E-1,1.951679468E0,-7.477164865E-1
3.280849438E0,-8.117177486E-1,3.085410595E0,-1.355300546E0
3.300854125E0,-4.929507971E-1,3.059649467E0,-1.551527858E0
3.320863500E0,-4.322133362E-1,1.079398870E0,-1.617553711E0
3.342849438E0,-1.197993994E0,-1.526430011E0,-1.413402557E0
3.362849438E0,-1.966602087E0,-1.705605507E0,-1.135197043E0
3.382851000E0,-2.253272533E0,-1.094146848E0,-1.249847770E0
3.402851000E0,-1.850677371E0,-1.582734346E0,-1.298594713E0
3.422851000E0,-1.255991340E0,-1.662443519E0,-1.236443639E0
3.444849438E0,-9.010785818E-1,-3.084520400E-1,-1.164291739E0
3.464849438E0,-8.355414867E-1,-1.188551784E0,-1.220892668E0
3.484851000E0,-9.404881001E-1,-1.860835195E0,-1.374132633E0
3.504851000E0,-7.282909751E-1,-1.601147652E0,-1.156908989E0
3.526851000E0,-9.906488657E-2,-1.685621500E0,-6.646562815E-1
3.546851000E0,6.004630923E-1,-1.679268479E0,-3.940255344E-1
3.566851000E0,1.132317305E0,-1.394989252E0,-2.665641308E-1
3.586858813E0,1.333606124E0,-1.500459552E0,-2.331061810E-1
3.608849438E0,1.188551784E0,-1.366278648E0,-5.094615817E-1
3.628851000E0,1.354672194E0,-2.680302262E-1,-8.517730236E-1
3.648851000E0,1.659197211E0,1.015258074E0,-1.134062529E0
3.670849438E0,-3.086091280E-1,2.198503971E0,-7.789753675E-1
3.690849438E0,-3.369532585E0,2.977915764E0,1.289571404E0
3.710849438E0,2.958507538E-1,2.158745289E0,-6.248627901E-1
3.730851000E0,2.006430387E0,8.546528220E-1,-1.360449195E0
3.752851000E0,2.209708929E0,-3.647528648E0,-1.240998864E0
3.772851000E0,2.788477659E0,-3.362516403E0,-6.806609631E-1
3.794849438E0,3.195872307E0,-6.006026864E-1,5.788384676E-1
3.814849438E0,1.695220828E0,2.904245377E0,1.249935031E0
3.834849438E0,6.886720061E-1,4.943017006E0,1.478660345E0
3.854852563E0,1.547234416E0,3.391192198E0,1.866804123E0
3.876851000E0,3.486277819E0,-2.098950386E0,1.692986846E0
3.896858813E0,1.979081154E0,2.460914291E-2,3.013485372E-1
3.918855688E0,1.296186209E0,1.593363404E0,4.600687921E-1
3.940851000E0,1.763829708E0,6.405532956E-1,7.980343699E-1
3.962854125E0,1.480964184E0,7.670722008E-1,3.370056152E-1
3.984851000E0,1.006042719E0,8.553858399E-1,9.634217620E-2
4.004851000E0,7.935837507E-1,6.776589751E-1,2.532472610E-1
4.026855688E0,8.367282748E-1,1.420698017E-1,3.165503740E-1
4.048849438E0,1.033357143E0,-1.285085976E-1,3.958232105E-1
4.068851000E0,1.222323895E0,9.773843922E-4,4.886049330E-1
4.090849438E0,1.536552906E0,2.381850779E-1,4.223696887E-1
4.110849438E0,1.782731652E0,3.590142131E-1,3.637964427E-1
4.130849438E0,1.681886554E0,5.665687919E-1,2.691472173E-1
4.150849438E0,9.218479991E-1,1.481801987E0,2.292140871E-1
4.170851000E0,1.880417764E-1,2.051285505E0,1.834515631E-1
4.192849438E0,4.714134336E-2,8.951095343E-1,-1.253670007E-1
4.212854125E0,-1.558404416E-1,-1.497666985E-1,-3.360980451E-1
4.234849438E0,-7.105235457E-1,-1.432915311E-2,-6.078458428E-1
4.254849438E0,-1.442619324E0,8.238477707E-1,-8.380198479E-1
4.274849438E0,-2.278143406E0,1.296901822E0,-9.553059340E-1
4.294849438E0,-2.995840311E0,1.241505027E0,-1.094303966E0
4.314849438E0,-3.144856453E0,9.775938392E-1,-1.299641967E0
4.334849438E0,-2.905920744E0,5.995031595E-1,-1.390015125E0
4.354849438E0,-2.554184675E0,6.395061016E-1,-1.179196835E0
4.374849438E0,-2.130418777E0,1.100133419E0,-7.820994854E-1
4.394849438E0,-2.005487919E0,1.337341070E0,-3.756995797E-1
4.414849438E0,-2.588934183E0,8.333598375E-1,2.441715635E-2
4.434849438E0,-2.810364008E0,6.940301657E-1,1.638340503E-1
4.454849438E0,-2.562160730E0,1.224138975E0,3.855257630E-1
4.474849438E0,-2.212187290E0,1.933859706E0,6.606420279E-1
4.494849438E0,-1.771247387E0,2.113907814E0,8.133059740E-1
4.514849438E0,-1.461294413E0,2.010305166E0,8.271464109E-1
4.534849438E0,-1.263915062E0,1.561284304E0,7.582582831E-1
4.554851000E0,-1.056151032E0,7.873354554E-1,6.226811409E-1
4.576855688E0,-9.159138799E-1,2.318495363E-1,4.664916098E-1
4.598852563E0,-6.860714555E-1,-1.849874407E-1,4.168544412E-1
4.620851000E0,-2.243446261E-1,-6.764895916E-1,3.943222463E-1
4.642849438E0,4.561243355E-1,-1.377954841E0,3.696956336E-1
4.662849438E0,1.057460070E0,-1.801930308E0,1.230457127E-1
4.682849438E0,1.495153785E0,-1.757947922E0,-3.495894372E-1
4.702849438E0,1.534476042E0,-1.405164599E0,-7.369478345E-1
4.722849438E0,8.005650640E-1,-1.047145128E0,-7.779455781E-1
4.742851000E0,8.634144068E-2,-1.036882639E0,-3.671125472E-1
4.762851000E0,-1.187522039E-1,-1.101634383E0,-2.392846346E-1
4.784849438E0,1.570272744E-1,-1.094670519E-1,-4.631405771E-1
4.804849438E0,-3.479837477E-1,1.522363424E0,-4.720941186E-1
4.824849438E0,-6.235886812E-1,2.184593678E0,-3.501130641E-2
4.844851000E0,4.867897928E-1,1.195899606E0,4.496491849E-1
4.864851000E0,2.669655681E-1,6.373593211E-1,6.219305992E-1
4.884851000E0,5.745100379E-1,4.454778433E-1,8.843583465E-1
4.904851000E0,1.438325882E0,1.015258074E0,5.661848187E-1
4.924851000E0,2.347031593E0,2.010444641E0,2.031912357E-1
4.946851000E0,2.673599958E0,2.797675610E0,2.208365053E-1
4.966857250E0,2.482015371E0,3.245980740E0,4.544313848E-1
4.988851000E0,2.440267086E0,2.792683840E0,8.821766376E-1
5.010849438E0,2.698837519E0,7.485542893E-1,5.961346626E-1
5.030849438E0,2.220093727E0,2.202256471E-1,2.553591132E-1
5.050849438E0,1.867956042E0,-3.336720467E-1,3.872012794E-1
5.070851000E0,1.640469909E0,-9.625839591E-1,3.303210139E-1
5.090851000E0,1.431937933E0,-1.085682034E0,1.530653685E-1
5.112849438E0,1.262640953E0,-4.309741557E-1,1.112821922E-1
5.132849438E0,1.109680295E0,3.165852726E-1,9.354964644E-2
5.152849438E0,8.870461583E-1,7.198086977E-1,1.084198505E-1
5.172851000E0,8.488583565E-1,9.977872968E-1,1.515294909E-1
5.194849438E0,1.097812057E0,1.032344818E0,2.687283456E-1
5.214849438E0,1.444713712E0,6.629633307E-1,3.200584650E-1
5.234849438E0,1.787234545E0,3.619812801E-2,3.396061659E-1
5.254849438E0,2.023150682E0,-4.851666093E-1,3.875678182E-1
5.274851000E0,2.060867310E0,-5.322381258E-1,5.384515524E-1
5.296849438E0,1.546291947E0,6.673266292E-1,7.777885199E-1
5.316851000E0,5.321334600E-1,1.913875699E0,4.067315161E-1
5.336858813E0,2.021091282E-1,1.480964184E0,-3.693116829E-2
5.358871313E0,1.905725002E-1,3.126408160E-1,-1.263792962E-1
5.380849438E0,8.508480340E-2,-3.999072909E-1,-1.552819461E-1
5.400851000E0,-4.215493798E-1,4.138175771E-2,-5.279097557E-1
5.422849438E0,-1.421780109E0,9.647656679E-1,-8.796459436E-1
5.442851000E0,-2.172620773E0,1.029150844E0,-9.975953102E-1
5.462851000E0,-2.725924969E0,9.393711090E-1,-1.022745490E0
5.484851000E0,-3.190688848E0,1.142056227E0,-1.017369866E0
5.504851000E0,-2.998458147E0,1.051019788E0,-1.216232657E0
5.526851000E0,-2.612618208E0,1.486374736E0,-1.070148587E0
5.546851000E0,-2.254319668E0,2.308424711E0,-7.442083955E-1
5.568849438E0,-2.411364317E0,1.852143407E0,-5.106658936E-1
5.588849438E0,-2.989958525E0,5.477192402E-1,-2.620088160E-1
5.608849438E0,-2.921524048E0,2.165430039E-1,1.193805225E-2
5.628849438E0,-2.552090168E0,9.354615808E-1,3.304431736E-1
5.648849438E0,-2.174872160E0,1.967858672E0,4.637863338E-1
5.668849438E0,-1.663682699E0,2.302839756E0,5.474225283E-1
5.688849438E0,-1.117202759E0,1.744177341E0,4.337666631E-1
5.708849438E0,-7.791498899E-1,1.125440717E0,1.566607505E-1
5.728849438E0,-6.524389982E-1,5.531821251E-1,-4.576253146E-2
5.748849438E0,-5.072624683E-1,-1.879894137E-1,-4.522148147E-2
5.768851000E0,-2.585007250E-1,-8.170933127E-1,5.752605200E-2
5.790851000E0,1.506044567E-1,-1.220613480E0,2.508736253E-1
5.810851000E0,7.291113138E-1,-1.548857570E0,3.744429350E-1
5.830851000E0,1.571651578E0,-2.316488266E0,3.325375915E-1
5.852849438E0,2.603874207E0,-3.083263636E0,-2.304532677E-1
5.872849438E0,2.277619839E0,-2.283274651E0,-7.216413021E-1
5.892851000E0,-6.481454968E-1,2.717477642E-2,-6.632251143E-1
5.914851000E0,-1.722936630E0,-1.309223771E0,-4.492826462E-1
5.936851000E0,-3.698178232E-1,-1.277476311E0,-4.735427201E-1
5.956851000E0,4.382521659E-2,3.650181592E-1,-3.398505151E-1
5.976857250E0,-1.073342562E0,2.860577106E0,-1.972222002E-3
5.998851000E0,-5.949827433E-1,2.579142809E0,-3.567453101E-2
6.018851000E0,5.052030087E-1,4.982216954E-1,1.203579083E-1
6.040849438E0,8.545480967E-1,-8.105309010E-1,3.648436368E-1
6.060857250E0,1.239445567E0,-5.393416286E-1,5.247507095E-1
6.082851000E0,1.726584435E0,1.097637564E-1,5.087809563E-1
6.102851000E0,1.817254305E0,8.339357376E-1,2.559700012E-1
6.122851000E0,1.900209785E0,7.539822459E-1,5.160938501E-1
6.144849438E0,2.541670561E0,-1.187522039E-1,6.359281540E-1
6.164849438E0,2.523030519E0,1.394518018E-1,3.107907772E-1
6.184849438E0,2.515281200E0,-2.151990980E-1,1.207593307E-1
6.204851000E0,2.106996298E0,-4.299443960E-1,2.762856148E-2
6.226849438E0,1.595126152E0,-3.078237176E-1,8.878489584E-2
6.246851000E0,1.438570142E0,-6.726498902E-2,1.897696555E-1
6.268849438E0,1.391498685E0,2.344151735E-1,2.370680720E-1
6.288849438E0,1.265869856E0,5.980195999E-1,2.992017865E-1
6.308849438E0,1.221590877E0,8.469558954E-1,3.637440801E-1
6.328849438E0,1.287389755E0,8.843758106E-1,3.940429986E-1
6.348849438E0,1.514579296E0,5.928359628E-1,3.790331483E-1
6.368849438E0,1.766116142E0,1.659284532E-1,3.455402851E-1
6.388849438E0,1.860398769E0,3.083996847E-2,4.117231667E-1
6.408852563E0,1.825370073E0,2.842617631E-1,5.825734735E-1
6.430851000E0,1.416160107E0,1.121897697E0,6.884102225E-1
6.452849438E0,5.233020782E-1,1.975136757E0,2.524967790E-1
6.472851000E0,1.910437346E-1,1.462585926E0,-2.160892189E-1
6.494849438E0,1.644972861E-1,3.664318621E-1,-2.921332121E-1
6.514849438E0,-2.989749014E-1,9.183922410E-2,-3.595901728E-1
6.534849438E0,-1.072085977E0,6.491228342E-1,-6.963340044E-1
6.554849438E0,-1.964717150E0,1.020022750E0,-9.488307834E-1
6.574849438E0,-2.723970175E0,8.917585015E-1,-9.867044091E-1
6.594849438E0,-3.245649099E0,8.699942827E-1,-9.046565294E-1
6.614851000E0,-3.195052147E0,5.332853794E-1,-1.055994034E0
6.634851000E0,-2.859198332E0,4.428772926E-1,-1.234052539E0
6.656855688E0,-2.455137253E0,1.097288489E0,-8.374264240E-1
6.678849438E0,-2.178345442E0,1.524457812E0,-3.896447420E-1
6.698852563E0,-2.616562605E0,1.273339868E0,-3.143686950E-1
6.720851000E0,-2.790938616E0,7.065965533E-1,-2.507514656E-1
6.740851000E0,-2.410351992E0,8.195542693E-1,5.590289459E-2
6.762851000E0,-1.846628189E0,1.549642920E0,1.825265288E-1
6.784851000E0,-1.249673247E0,2.053938389E0,-2.673844434E-2
6.804851000E0,-7.539647818E-1,1.593886971E0,-2.581691146E-1
6.824851000E0,-6.425953507E-1,6.473775506E-1,-5.027944446E-1
6.844851000E0,-8.067435622E-1,-1.905899495E-1,-5.504943132E-1
6.866851000E0,-9.305048585E-1,-1.113851666E0,-1.984613836E-1
6.886851000E0,-8.424878716E-1,-1.633348942E0,9.608037770E-2
6.908851000E0,-4.004832506E-1,-1.820779800E0,2.669132054E-1
6.928854125E0,2.831447721E-1,-2.043204546E0,3.600788713E-1
6.950849438E0,1.303499103E0,-2.576193333E0,4.539601505E-1
6.970849438E0,2.297010422E0,-2.964738369E0,2.706307471E-1
6.990849438E0,2.649566889E0,-2.205764532E0,-2.152514607E-1
7.010851000E0,4.944343269E-1,2.369808108E-1,-5.103167892E-1
7.032851000E0,-1.674730659E0,-4.773475602E-2,-5.711240768E-1
7.054849438E0,-7.332826257E-1,-9.378701448E-1,-1.562593281E-1
7.074849438E0,2.978229821E-1,-4.970174134E-1,-2.791479528E-1
7.094849438E0,4.317246377E-1,2.581167519E-1,-2.921506763E-1
7.114851000E0,-6.843087077E-1,1.421204209E0,-3.069336116E-1
7.134851000E0,-5.668480396E-1,8.735721707E-1,-6.448293328E-1
7.156851000E0,2.174505740E-1,-1.435882300E-1,-2.017600648E-2
7.178851000E0,1.661378890E-1,-5.378057361E-1,5.759761333E-1
7.198852563E0,-1.649336070E-1,-6.810972691E-1,5.300041437E-1
7.220851000E0,1.225692391E0,-1.280548096E0,3.052580953E-1
7.242849438E0,2.097519159E0,-6.540446877E-1,-1.017003357E-1
7.262849438E0,1.948450685E0,3.916518688E-1,-1.291194558E-1
7.282849438E0,1.488067746E0,1.508156419E0,2.163335532E-1
7.302854125E0,2.410805941E0,-3.496417999E-1,2.935818434E-1
7.324849438E0,2.300448656E0,-6.746046543E-1,5.784020945E-2
7.344849438E0,1.954506993E0,-2.567379177E-1,5.071926862E-2
7.364849438E0,1.786117554E0,-1.648812592E-1,5.777040031E-3
7.384849438E0,1.770846009E0,-1.789660603E-1,1.210560352E-1
7.404849438E0,1.862091780E0,-1.732937396E-1,1.880417764E-1
7.424857250E0,1.789660573E0,3.400425017E-1,1.782679260E-1
7.446851000E0,1.476531148E0,1.148391724E0,2.392497361E-1
7.466851000E0,1.354427814E0,1.363014817E0,3.293436170E-1
7.486851000E0,1.355475068E0,9.518851042E-1,4.400324225E-1
7.506866625E0,1.438413143E0,2.998126447E-1,5.515240431E-1
7.528851000E0,1.712010860E0,-4.455825686E-1,6.081250906E-1
7.548857250E0,1.893734574E0,-7.940026522E-1,5.422563553E-1
7.570851000E0,1.704942346E0,-2.208539695E-1,5.025501251E-1
7.592849438E0,1.019342065E0,1.441572189E0,3.403915763E-1
7.612851000E0,3.396934271E-1,2.053327560E0,-1.384395212E-1
7.634851000E0,1.164832711E-1,1.048785806E0,-4.586376250E-1
7.656852563E0,-1.116661653E-1,-1.755801216E-2,-3.352428377E-1
7.678849438E0,-1.096031904E0,3.365692794E-1,-2.367015481E-1
7.698851000E0,-2.164592266E0,9.038885832E-1,-4.869817793E-1
7.718863500E0,-2.959519863E0,8.611978292E-1,-7.306995392E-1
7.740851000E0,-3.432696104E0,5.766916871E-1,-8.568519354E-1
7.760851000E0,-3.227881670E0,-3.134611249E-2,-1.095159173E0
7.780851000E0,-2.918347597E0,-2.622008026E-1,-1.175444365E0
7.800851000E0,-2.611623526E0,1.283689588E-1,-8.853008151E-1
7.820851000E0,-2.251492262E0,9.767560363E-1,-4.263664782E-1
7.840851000E0,-2.363088608E0,1.643681288E0,-2.964965403E-1
7.860852563E0,-2.718751669E0,1.523044109E0,-4.330685437E-1
7.882849438E0,-2.373944521E0,1.012989044E0,-3.697479963E-1
7.902851000E0,-1.751612425E0,1.323605299E0,-1.919513047E-1
7.922851000E0,-1.222009778E0,1.579557896E0,-2.253743708E-1
7.942851000E0,-8.056789041E-1,1.208483458E0,-4.939979911E-1
7.962851000E0,-5.789082646E-1,5.452582836E-1,-7.769333124E-1
7.982851000E0,-6.246010065E-1,-1.472708881E-1,-9.495114684E-1
8.002851000E0,-7.027393579E-1,-1.013320684E0,-7.497410774E-1
8.022851000E0,-7.064394951E-1,-1.736689925E0,-3.622081876E-1
8.042851000E0,-5.384340882E-1,-1.953320146E0,-3.907792270E-2
8.062851000E0,-1.783028394E-1,-1.888585925E0,1.381951720E-1
8.082851000E0,4.484972656E-1,-2.217213869E0,3.402519226E-1
8.102851000E0,1.213422656E0,-2.739922523E0,6.141813397E-1
8.122851000E0,1.587045312E0,-2.837364197E0,6.580414772E-1
8.142851000E0,1.220177174E0,-2.056573868E0,-6.695082784E-2
8.162851000E0,-6.218084693E-1,1.467821896E-1,-7.226535678E-1
8.182851000E0,-1.155023932E0,-1.024682820E-1,-4.200309217E-1
8.202851000E0,-1.782330275E-1,2.526364028E-1,-1.524195969E-1
8.222851000E0,5.425705314E-1,1.439547539E-1,-6.116157174E-1
8.242851000E0,4.222300649E-1,-6.976081133E-1,-7.431786656E-1
8.262851000E0,-2.519557178E-1,-2.420248091E-1,-4.731238484E-1
8.282851000E0,3.465874791E-1,-6.166073680E-1,-1.065523475E-1
8.302860375E0,6.475171540E-3,8.659101725E-1,2.446951531E-2
8.324851000E0,-1.994876385E0,2.738700867E0,2.437177747E-1
8.344851000E0,-3.950378299E-1,-2.866912842E0,-1.166752577E-1
8.364851000E0,2.172568321E0,-4.765743732E0,1.252099127E-1
8.384851000E0,3.043679714E0,-2.500655413E0,-1.240929123E-2
8.404851000E0,2.636668921E0,-4.577998444E-2,-1.634500772E-1
8.424851000E0,1.430960536E0,2.907910585E0,-1.322959550E-2
8.444851000E0,1.391219378E0,3.257936239E0,4.422140718E-1
8.464851000E0,1.759815454E0,2.152951002E0,4.067838788E-1
8.484851000E0,3.276960373E0,-1.597447515E0,2.881713212E-1
8.504851000E0,2.059959650E0,-6.165899038E-1,3.913377225E-1
8.524851000E0,1.519832730E0,-3.446152508E-1,1.204626262E-1
8.544855688E0,1.671100378E0,-7.813490033E-1,6.178465672E-3
8.566857250E0,1.750704885E0,-6.781476736E-1,8.131489158E-2
8.588851000E0,1.488277197E0,2.115688175E-1,1.307600737E-1
8.608851000E0,1.245082974E0,1.185183287E0,1.983915716E-1
8.628852563E0,1.197051525E0,1.573728442E0,2.604205906E-1
8.650851000E0,1.324704885E0,1.353258491E0,3.899938166E-1
8.670851000E0,1.633732915E0,5.989271998E-1,5.582610369E-1
8.690851000E0,1.799835920E0,-2.012539208E-1,6.540621519E-1
8.710851000E0,1.844725728E0,-7.265456319E-1,5.990144610E-1
8.730851000E0,1.930281758E0,-7.463027835E-1,5.494121909E-1
8.750851000E0,9.104335308E-1,1.434730411E0,2.904925942E-1
8.770851000E0,-1.805892140E-1,2.443513393E0,-2.416233867E-1
8.790852563E0,-9.372417815E-3,1.006601214E0,-3.342480063E-1
8.812851000E0,6.457718462E-2,-8.365712166E-1,-1.119279638E-1
8.832851000E0,-4.482180178E-1,-7.221823335E-1,-1.304808110E-1
8.852851000E0,-1.691276431E0,8.350353241E-1,-5.480682850E-1
8.872851000E0,-2.555423737E0,1.226006508E0,-8.279842138E-1
8.892851000E0,-3.307730436E0,1.158305168E0,-7.775092721E-1
8.912851000E0,-3.460359573E0,6.106209159E-1,-9.039409161E-1
8.932851000E0,-3.123737812E0,-1.556484550E-1,-1.245955586E0
8.952851000E0,-2.870787382E0,-4.190884531E-1,-1.131095529E0
8.972851000E0,-2.575861692E0,-2.032784969E-1,-6.684785485E-1
8.992851000E0,-2.225835800E0,3.752632439E-1,-4.001516402E-1
9.012851000E0,-2.705364943E0,1.032170296E0,-3.075270057E-1
9.032851000E0,-3.025615454E0,8.691216111E-1,-3.604104817E-1
9.052851000E0,-2.496431589E0,6.713060141E-1,-2.961998284E-1
9.072851000E0,-1.734176636E0,1.250022292E0,-8.613199741E-2
9.092851000E0,-1.149212003E0,2.013429165E0,-7.394959778E-2
9.114851000E0,-7.090574503E-1,2.086680651E0,-2.087762803E-1
9.134851000E0,-5.086063743E-1,1.041996479E0,-3.866078854E-1
9.156851000E0,-6.377782226E-1,-5.879141688E-1,-3.878819644E-1
9.176854125E0,-7.892553210E-1,-1.495520234E0,-1.208465993E-1
9.198851000E0,-5.958204865E-1,-1.701800704E0,6.647959352E-2
9.220851000E0,2.120575123E-2,-2.050220728E0,1.155058891E-1
9.240851000E0,7.698996663E-1,-2.467529058E0,2.823593616E-1
9.260852563E0,1.698851109E0,-3.324049473E0,3.650006950E-1
9.282849438E0,2.024110794E0,-3.566370964E0,-2.745402977E-2
9.302849438E0,1.981995851E-1,-1.125929356E0,-5.854881406E-1
9.322851000E0,-1.298996210E0,-5.024104714E-1,-6.012484431E-1
9.344851000E0,-1.334827840E-1,-9.017941952E-1,-2.403667420E-1
9.366849438E0,4.060682952E-1,5.407030135E-2,-4.979598820E-1
9.386851000E0,-3.299370408E-1,5.380326509E-1,-6.191904545E-1
9.408851000E0,-8.004080057E-1,1.364288926E0,-5.356590152E-1
9.428854125E0,3.218736053E-1,8.990016580E-1,-3.052580915E-2
9.450851000E0,-8.227481693E-2,8.610407114E-1,3.972020149E-1
9.472849438E0,-1.941853315E-1,1.215447262E-1,1.985661089E-1
9.492849438E0,9.828996062E-1,-8.906415105E-1,4.626867920E-2
9.512849438E0,2.076889515E0,-6.638883352E-1,2.721666396E-1
9.532851000E0,2.524775743E0,-4.789183438E-1,4.183205068E-1
9.554849438E0,2.584309101E0,-4.013733566E-1,5.137900114E-1
9.574849438E0,2.390315771E0,-2.316924632E-1,5.028468370E-1
9.594849438E0,1.424310803E0,1.059222817E0,2.940181792E-1
9.614851000E0,2.451070547E0,-7.200355530E-1,3.924896419E-1
9.634851000E0,2.379808903E0,-9.565102458E-1,3.840422332E-1
9.656851000E0,1.627344966E0,-8.448615074E-1,5.799729005E-2
9.676851000E0,1.310829520E0,-5.517334938E-1,6.642723083E-2
9.696868188E0,1.394849658E0,-8.208283782E-2,1.258207858E-1
9.718851000E0,1.499883652E0,8.416152000E-1,1.684242785E-1
9.738851000E0,1.460753322E0,1.435341358E0,3.008773029E-1
9.758871313E0,1.620887280E0,1.394675136E0,3.048915565E-1
9.780849438E0,2.073678017E0,3.608642817E-1,4.063999057E-1
9.800851000E0,2.035280704E0,-4.228932858E-1,5.727646947E-1
9.822851000E0,1.841322303E0,-7.849792838E-1,6.375862360E-1
9.844851000E0,6.137799621E-1,9.980141521E-1,5.468814373E-1
9.864851000E0,2.745402977E-2,1.692707539E0,3.288025856E-1
9.886865063E0,-8.138470352E-2,7.797083855E-1,1.804845035E-1
9.908851000E0,1.548630595E-1,-6.204121709E-1,1.016654298E-1
9.930851000E0,-4.333652556E-1,-4.089655578E-1,-1.735206395E-1
9.950851000E0,-2.061897039E0,7.370176315E-1,-8.308116198E-1
9.972849438E0,-2.946045876E0,7.774045467E-1,-1.169248462E0
9.992849438E0,-3.358449697E0,4.873133898E-1,-1.163052559E0
1.001284944E1,-3.108186960E0,-7.815584540E-2,-1.333396673E0
1.003285100E1,-2.863945723E0,-1.769065708E-1,-1.381602645E0
1.005484944E1,-2.665763617E0,1.226791963E-1,-9.494591355E-1
1.007485100E1,-2.394696474E0,5.786290169E-1,-7.233167887E-1
1.009685100E1,-2.238856077E0,7.014827132E-1,-7.360053658E-1
1.011685100E1,-2.758440495E0,-2.075720131E-1,-6.704682112E-1
1.013685256E1,-2.737077713E0,-5.602332354E-1,-5.839522481E-1
1.015886975E1,-2.215887547E0,2.187246680E-1,-2.619390190E-1
1.018084944E1,-1.538804412E0,1.538158655E0,-8.587019891E-2
1.020084944E1,-1.052311420E0,1.843521476E0,-2.107834071E-1
1.022085100E1,-6.805737019E-1,1.082680106E0,-2.411870509E-1
1.024284944E1,-4.470311701E-1,-3.897843659E-1,-3.378957510E-1
1.026285100E1,-4.081976116E-1,-1.130240321E0,-2.755002081E-1
1.028485100E1,-3.539702296E-1,-1.257754087E0,1.312487572E-2
1.030686975E1,-1.424363256E-1,-1.399212956E0,2.391973734E-1
1.032884944E1,3.775321543E-1,-2.009781599E0,3.096563220E-1
1.034885100E1,1.467804432E0,-3.680288553E0,3.068637848E-1
1.037085413E1,2.110434771E0,-4.371177197E0,-3.200933710E-2
1.039285100E1,-4.976631701E-1,-1.099347949E0,-6.103067398E-1
1.041485100E1,-1.932044625E0,-2.967408895E-1,-5.151688457E-1
1.043684944E1,-4.510279894E-1,-3.537433445E-1,-2.272069603E-1
1.045685256E1,7.051129937E-1,1.098876715E0,-3.942524195E-1
1.047885100E1,6.542541385E-1,2.630734742E-1,-7.520798445E-1
1.049886662E1,-4.018969536E-1,1.690351367E-1,-7.201402783E-1
1.052085100E1,-2.895501256E-2,-1.994213164E-1,-3.654370308E-1
1.054284944E1,-3.997153044E-1,6.288770437E-1,-1.450368576E-2
1.056284944E1,-8.060803413E-1,5.570392609E-1,2.950653732E-1
1.058284944E1,-9.026842713E-1,-1.467717171E0,5.928883329E-2
1.060285412E1,1.408236384E0,-3.804433823E0,-4.127703607E-2
1.062484944E1,2.597852707E0,-1.103414655E0,2.714685202E-1
1.064485569E1,2.804604530E0,8.691041470E-1,7.833037525E-2
1.066685100E1,2.543241501E0,2.370768070E0,2.585879862E-1
1.068685569E1,2.090642691E0,3.443098307E0,4.856029451E-1
1.070889163E1,2.960078478E0,1.343816280E0,7.069281340E-1
1.073085100E1,2.591918707E0,3.370928764E-1,5.854706764E-1
1.075085100E1,1.888987303E0,-1.764527857E-1,4.936489165E-1
1.077284944E1,1.432775736E0,-1.020371795E0,2.581167519E-1
1.079284944E1,1.362316728E0,-1.377274156E0,3.175975680E-1
1.081284944E1,1.261436701E0,-8.154876232E-1,2.782054842E-1
1.083285100E1,1.302975535E0,3.298672289E-2,1.972396523E-1
1.085285725E1,1.371497154E0,6.013706326E-1,2.369109988E-1
1.087484944E1,1.473075390E0,8.744797707E-1,3.694338500E-1
1.089485412E1,1.724053741E0,6.301685572E-1,4.480085671E-1
1.091684944E1,2.027042866E0,-4.129448906E-2,5.161811113E-1
1.093685100E1,1.837604761E0,-3.142465353E-1,5.505291820E-1
1.095685100E1,1.426248193E0,2.090555429E-1,5.309815407E-1
1.097685413E1,3.798010945E-1,1.908709526E0,3.922627568E-1
1.099885100E1,-1.538158655E-1,1.764231205E0,-5.647885427E-2
1.101885100E1,4.064871743E-2,6.483898312E-2,-2.120226026E-1
1.104084944E1,-4.308519661E-1,-4.487066865E-1,-1.091877967E-1
1.106085100E1,-1.722657442E0,5.577898026E-1,-3.939731717E-1
1.108085100E1,-2.718437672E0,6.681469679E-1,-9.012705684E-1
1.110085100E1,-3.372639418E0,2.743483186E-1,-1.269744515E0
1.112285100E1,-3.119671345E0,-4.574508071E-1,-1.596121073E0
1.114485100E1,-2.767271996E0,-5.631479621E-1,-1.660122275E0
1.116685100E1,-2.552107573E0,-1.702917814E-1,-1.306989789E0
1.118885100E1,-2.265733957E0,4.828976989E-1,-8.478285670E-1
1.120885100E1,-2.513431311E0,5.054473281E-1,-4.427551329E-1
1.123084944E1,-3.013206244E0,-3.041934371E-1,-3.473554254E-1
1.125084944E1,-2.708052874E0,-3.249279559E-1,-2.571218908E-1
1.127084944E1,-2.128184557E0,3.592061996E-1,-2.055997774E-2
1.129085100E1,-1.624168515E0,1.214120865E0,5.900958180E-2
1.131284944E1,-1.208518386E0,1.541474819E0,-1.706931926E-2
1.133284944E1,-9.094387293E-1,1.197627425E0,-1.308473349E-1
1.135284944E1,-6.223844290E-1,2.983291149E-1,-2.258106917E-1
1.137284944E1,-3.817733228E-1,-6.275680661E-1,-2.171014994E-1
1.139285100E1,-2.438748628E-1,-1.026899338E0,-8.901178837E-2
1.141484944E1,-9.712757170E-2,-1.029290438E0,3.145083413E-2
1.143484944E1,1.428028345E-1,-1.035783052E0,1.696460098E-1
1.145484944E1,6.325422525E-1,-1.720388532E0,2.661452591E-1
1.147484944E1,1.468380451E0,-3.358275175E0,3.293436170E-1
1.149485100E1,1.333449006E0,-3.533628464E0,-7.885397226E-2
1.151685100E1,-5.257804394E-1,-3.793647587E-1,-9.703856111E-1
1.153686506E1,-1.618356586E0,-7.504915702E-4,-4.907516837E-1
1.155886975E1,-5.053251982E-1,-1.022675633E0,-2.302089334E-2
1.158085100E1,2.341882735E-1,5.002113804E-2,-4.863883555E-1
1.160285100E1,4.211130440E-1,-5.058313012E-1,-7.293207049E-1
1.162285100E1,-3.320837915E-1,-1.821949184E-1,-5.479112267E-1
1.164484944E1,-2.730916739E-1,2.745577395E-1,-5.579468608E-1
1.166484944E1,9.948376566E-3,8.797681332E-1,4.719370231E-2
1.168484944E1,-3.717725873E-1,1.432531357E0,4.650604427E-1
1.170485100E1,-6.031159759E-1,7.983136177E-2,9.512044489E-2
1.172685100E1,1.749622703E0,-3.498704433E0,1.082627699E-1
1.174685100E1,3.140109062E0,-7.132462263E-1,4.368559122E-1
1.176685100E1,3.020484209E0,1.845772982E0,2.243620753E-1
1.178685100E1,2.386999607E0,3.628818750E0,4.125434756E-1
1.180685100E1,2.476255655E0,3.682574987E0,9.574003816E-1
1.182685100E1,2.614398479E0,2.638431787E0,9.093514681E-1
1.184686506E1,3.370091200E0,-4.174827635E-1,6.569768190E-1
1.186884944E1,2.367207527E0,-6.544635892E-1,4.406781793E-1
1.188884944E1,1.666248322E0,-5.347514153E-1,5.041732788E-1
1.190885100E1,1.560271978E0,-7.245908976E-1,2.876826227E-1
1.192885100E1,1.595388055E0,-4.117231667E-1,1.605528444E-1
1.195084944E1,1.434660673E0,2.099631131E-1,1.720021963E-1
1.197084944E1,1.210089087E0,6.592981219E-1,2.702293396E-1
1.199084944E1,1.354672194E0,8.848121166E-1,3.252595663E-1
1.201084944E1,1.607134104E0,6.893876195E-1,4.065744579E-1
1.203084944E1,1.595667243E0,2.957111299E-1,5.251695514E-1
1.205084944E1,1.667627215E0,-2.796890140E-1,4.804542363E-1
1.207084944E1,1.612422466E0,-2.626197040E-1,4.392993748E-1
1.209084944E1,6.841690540E-1,1.029552221E0,5.669178367E-1
1.211084944E1,-5.899212882E-2,1.675219417E0,5.314876437E-1
1.213084944E1,-3.773401678E-2,6.626142263E-1,2.141344398E-1
1.215084944E1,2.565459311E-1,-7.837226391E-1,2.701769583E-2
1.217084944E1,4.643622935E-1,-1.227071166E0,7.860963047E-2
1.219084944E1,-2.517986596E-1,2.533519864E-1,-2.631433010E-1
1.221084944E1,-1.744456530E0,1.571581721E0,-7.546454668E-1
1.223084944E1,-2.671819925E0,1.197435498E0,-1.133713484E0
1.225084944E1,-3.303960562E0,6.541842818E-1,-1.228292942E0
1.227084944E1,-3.529561996E0,2.754129469E-2,-1.367517829E0
1.229084944E1,-3.128502607E0,-7.294778228E-1,-1.646561027E0
1.231084944E1,-2.828969240E0,-6.385636330E-1,-1.366278648E0
1.233085256E1,-2.565442085E0,-1.130973324E-1,-6.753202677E-1
1.235284944E1,-2.256466389E0,7.166321874E-1,-2.915921509E-1
1.237284944E1,-2.964040279E0,7.902327180E-1,-3.496069014E-1
1.239284944E1,-3.039944649E0,-6.305874884E-2,-5.486267805E-1
1.241285100E1,-2.420701742E0,-2.651678622E-1,-3.556806445E-1
1.243484944E1,-1.761927366E0,5.565156937E-1,-1.422268748E-1
1.245484944E1,-1.355195761E0,1.171988606E0,-3.254689872E-1
1.247484944E1,-1.070567489E0,1.210752368E0,-5.889962316E-1
1.249485100E1,-8.541292548E-1,7.223393917E-1,-7.697250843E-1
1.251685100E1,-6.976429820E-1,-4.334699810E-1,-6.693686843E-1
1.253685100E1,-7.020761371E-1,-1.473686218E0,-3.365518451E-1
1.255886975E1,-5.730963349E-1,-1.574252129E0,-7.836528122E-3
1.258085100E1,-3.839724511E-2,-1.427434921E0,1.019970402E-1
1.260285100E1,8.756316900E-1,-1.944087386E0,2.832669318E-1
1.262285100E1,1.893158674E0,-2.638187408E0,4.249178469E-1
1.264484944E1,2.578671694E0,-2.656094313E0,3.814940751E-1
1.266484944E1,2.212361813E0,-1.710405231E0,-1.916720569E-1
1.268484944E1,-8.526456952E-1,6.433632374E-1,-7.977899909E-1
1.270489475E1,-1.925499558E0,-1.472673893E0,-5.144357681E-1
1.272685100E1,-2.868099511E-1,-7.046417594E-1,-3.962770104E-1
1.274685100E1,5.173854232E-1,4.873657525E-1,-6.908362508E-1
1.276885100E1,-1.094670534E0,2.369109869E0,-4.137128592E-1
1.279085100E1,-1.282642484E0,2.616964102E0,-2.553765774E-1
1.281284944E1,-1.702743173E-1,3.971845806E-1,1.080882400E-1
1.283285100E1,1.142841578E-1,-1.212131158E-1,-3.853686899E-2
1.285485100E1,7.446621656E-1,3.483677283E-2,-3.330088034E-2
1.287685569E1,1.778246164E0,6.528927684E-1,2.955889702E-1
1.289884944E1,2.485034704E0,6.531894803E-1,7.167369127E-1
1.291885569E1,2.780431747E0,3.093247116E-1,8.534659743E-1
1.294085100E1,2.802963972E0,-1.342681795E-1,9.914692044E-1
1.296285100E1,1.855058074E0,-6.647435427E-1,2.591115832E-1
1.298285100E1,2.068878412E0,-8.576198816E-1,4.432787299E-1
1.300285725E1,2.282402039E0,-7.989593744E-1,5.858023167E-1
1.302484944E1,2.080833912E0,-7.211700678E-1,4.819726646E-1
1.304484944E1,2.071688414E0,-5.084493160E-1,5.045223236E-1
1.306484944E1,1.920001745E0,2.276258469E-1,4.429820180E-1
1.308484944E1,1.747266531E0,7.812442780E-1,2.782578468E-1
1.310484944E1,1.602107525E0,8.499055505E-1,2.425309569E-1
1.312484944E1,1.517912865E0,6.397678852E-1,3.844087720E-1
1.314484944E1,1.710928798E0,9.922196716E-2,4.709072709E-1
1.316484944E1,1.932236552E0,-4.444480836E-1,5.046968460E-1
1.318485881E1,1.854482174E0,-4.190011919E-1,5.851041675E-1
1.320684944E1,1.389997721E0,5.052204728E-1,7.287622094E-1
1.322685725E1,8.062024713E-1,1.661902547E0,5.338613391E-1
1.324687131E1,3.703937829E-1,1.658848166E0,-6.569419056E-2
1.326885100E1,7.552039623E-2,6.562787294E-1,-4.320213497E-1
1.329085100E1,-8.404109478E-1,2.546784580E-1,-4.277627468E-1
1.331284944E1,-2.125968218E0,2.660230696E-1,-6.798232198E-1
1.333284944E1,-2.958647251E0,9.149015695E-2,-1.023478508E0
1.335284944E1,-3.584051132E0,1.552644968E-1,-1.147030354E0
1.337284944E1,-3.421194315E0,1.016305238E-1,-1.301142931E0
1.339285725E1,-2.935294628E0,1.205848008E-1,-1.487177610E0
1.341484944E1,-2.631991386E0,6.873630285E-1,-1.126697302E0
1.343484944E1,-2.368237257E0,1.218117595E0,-6.526309848E-1
1.345484944E1,-2.297830582E0,1.190506577E0,-4.842416048E-1
1.347484944E1,-3.021967888E0,-2.240653634E-1,-4.051432908E-1
1.349485100E1,-2.990290165E0,-8.025896549E-1,-2.705260217E-1
1.351685412E1,-2.492731571E0,-3.815289587E-2,2.324778587E-2
1.353686506E1,-1.991630077E0,1.048157454E0,1.248259470E-1
1.355886975E1,-1.414641738E0,1.375965238E0,-1.014036313E-2
1.358085100E1,-8.185943365E-1,8.354716301E-1,-1.369908899E-1
1.360284944E1,-4.609938264E-1,7.157595456E-2,-3.825936317E-1
1.362285100E1,-3.769038618E-1,-6.578494906E-1,-3.742160499E-1
1.364484944E1,-3.017499745E-1,-1.165845037E0,-9.676105529E-2
1.366484944E1,-6.920230389E-2,-1.222323895E0,6.328564137E-2
1.368484944E1,3.436553180E-1,-1.250144482E0,1.273741275E-1
1.370485100E1,1.139176369E0,-2.201558352E0,1.067268848E-1
1.372685100E1,2.501981735E0,-4.020243645E0,-1.359611470E-2
1.374685100E1,2.681104898E0,-3.834959507E0,-4.684638083E-1
1.376685100E1,-1.047214985E0,-4.231027067E-1,-8.127300143E-1
1.378685100E1,-2.675223112E0,-1.362927556E0,-5.490806103E-1
1.380685100E1,-9.526530504E-1,-1.932027102E0,-2.116560787E-1
1.382685100E1,5.012236238E-1,2.234195918E-1,-3.637440801E-1
1.384885100E1,-1.420872509E-1,2.001857758E0,-3.554711938E-1
1.386885100E1,-1.295557857E0,3.283191204E0,-1.643401980E-1
1.388885100E1,-7.904595882E-2,1.228467464E0,7.230898738E-2
1.390885100E1,6.429094672E-1,-4.932300448E-1,2.949431837E-1
1.392885100E1,7.386407852E-1,-8.069878817E-1,2.916270494E-1
1.394885100E1,9.702110887E-1,-2.631607354E-1,5.124286562E-2
1.397084944E1,1.333082438E0,6.693162918E-1,1.028347984E-1
1.399085100E1,1.710614681E0,1.051648140E0,3.714933395E-1
1.401085100E1,2.214945078E0,5.303357244E-1,6.870663166E-1
1.403285100E1,2.350853682E0,5.808455870E-2,4.136779308E-1
1.405484944E1,2.554271936E0,-1.625076085E-1,3.082775176E-1
1.407484944E1,2.652830601E0,-5.416454673E-1,2.903704345E-1
1.409484944E1,2.306470156E0,-4.461236000E-1,2.931804061E-1
1.411485100E1,2.079402685E0,-4.318468273E-1,2.261074036E-1
1.413685100E1,1.943668485E0,-1.039867178E-1,2.709099948E-1
1.415686038E1,1.788229465E0,4.661774337E-1,3.114714622E-1
1.417686506E1,1.547356606E0,9.291434884E-1,2.404365540E-1
1.419885100E1,1.328998446E0,1.022762895E0,2.332283407E-1
1.422085100E1,1.343746424E0,6.252118349E-1,4.273438752E-1
1.424284944E1,1.613190413E0,-1.343903542E-1,4.997401237E-1
1.426285100E1,1.792051673E0,-6.709220409E-1,4.864058197E-1
1.428485100E1,1.737492681E0,-5.496041775E-1,5.729217529E-1
1.430685100E1,1.367989063E0,3.427652121E-1,7.568795085E-1
1.432685100E1,8.507782221E-1,1.117778659E0,5.667083859E-1
1.434685100E1,4.690048695E-1,1.025660157E0,4.066617042E-2
1.436685100E1,3.909886479E-1,3.067939878E-1,-2.042907923E-1
1.438685100E1,5.279621109E-2,2.522000670E-2,-2.021789402E-1
1.440685100E1,-9.783443213E-1,4.560719728E-1,-2.469117343E-1
1.442685100E1,-1.944541097E0,5.170014501E-1,-5.788210034E-1
1.444685100E1,-2.722643852E0,1.236565784E-1,-8.656483889E-1
1.446685100E1,-3.415504694E0,2.813994288E-1,-8.672366738E-1
1.448885100E1,-3.495772362E0,4.339237511E-1,-1.004419565E0
1.451085100E1,-2.891469479E0,3.500607014E-1,-1.353921652E0
1.453085100E1,-2.604973793E0,5.992937088E-1,-1.073970914E0
1.455285100E1,-2.335163355E0,9.471029043E-1,-5.498136282E-1
1.457485100E1,-2.337013245E0,1.015589595E0,-5.210331678E-1
1.459685100E1,-3.033172846E0,3.618591130E-1,-6.222622395E-1
1.461685725E1,-2.906758547E0,-1.902757883E-1,-4.814665318E-1
1.463885100E1,-2.337693930E0,1.103397161E-1,-1.842369586E-1
1.465886975E1,-1.766639709E0,7.133684158E-1,-1.592612863E-1
1.468084944E1,-1.197400570E0,1.220718145E0,-2.986607552E-1
1.470089475E1,-7.452905178E-1,1.022693157E0,-5.354670286E-1
1.472285100E1,-4.831420481E-1,2.617644668E-1,-6.210055947E-1
1.474484944E1,-4.846779406E-1,-1.121269345E0,-3.192556202E-1
1.476484944E1,-4.351629317E-1,-1.874099612E0,-6.351253390E-2
1.478485100E1,-1.107411385E-1,-1.715571404E0,8.353145421E-2
1.480685100E1,6.074618697E-1,-1.801633596E0,2.457249016E-1
1.482884944E1,1.705413580E0,-2.777412176E0,3.892956972E-1
1.484885100E1,2.506257772E0,-3.543489695E0,3.283313513E-1
1.487084944E1,1.651779652E0,-2.461437941E0,-1.350012124E-1
1.489084944E1,-2.113366842E0,6.037268639E-1,-7.519227266E-1
1.491084944E1,-1.893228412E0,-9.825680256E-1,-4.539601505E-1
1.493084944E1,-1.262571216E-1,-3.077888191E-1,-1.470090896E-1
1.495085100E1,9.823411107E-1,7.574380040E-1,-5.979498029E-1
1.497285100E1,9.826203436E-2,7.286400795E-1,-7.541393042E-1
1.499485100E1,2.062979192E-1,5.658531785E-1,-3.489087820E-1
1.501684944E1,4.583758116E-1,-1.094670519E-1,2.758318484E-1
1.503684944E1,-1.164047360E0,1.687314510E0,2.882934809E-1
1.505685881E1,-7.707024813E-1,1.386140466E0,-6.935938448E-2
1.507884944E1,1.211886764E0,-2.181609154E0,-2.793748379E-1
1.509884944E1,2.536242723E0,-2.253691196E0,6.525786221E-2
1.511884944E1,2.709466457E0,-1.150102139E0,2.848377228E-1
1.513885100E1,2.211367130E0,-9.635962546E-2,4.287575781E-1
1.515886975E1,1.595388055E0,1.024316311E0,4.606447518E-1
1.518084944E1,1.820151567E0,7.626216412E-1,4.546059072E-1
1.520084944E1,2.881084681E0,-1.040041685E0,2.063328177E-1
1.522085100E1,2.562562227E0,-5.070704818E-1,2.447300702E-1
1.524085100E1,2.169374466E0,-3.351031989E-2,1.402895600E-1
1.526284944E1,1.836802006E0,3.232524395E-1,8.585274220E-2
1.528284944E1,1.787042618E0,9.417447448E-1,2.543642819E-1
1.530284944E1,1.634640455E0,1.710090995E0,3.300243020E-1
1.532285100E1,1.378216743E0,1.949916720E0,3.304257393E-1
1.534285100E1,1.379700184E0,1.566537738E0,3.933448493E-1
1.536285100E1,1.689757943E0,4.535063505E-1,5.030388236E-1
1.538484944E1,1.656352401E0,-5.500928760E-1,5.594827533E-1
1.540484944E1,1.667312980E0,-9.429315925E-1,4.948008358E-1
1.542485100E1,1.270686984E0,1.336224079E-1,5.384166241E-1
1.544685100E1,9.375908971E-2,1.770653963E0,4.204323590E-1
1.546685100E1,-1.805194020E-1,1.155041456E0,1.342507303E-1
1.548685725E1,2.656740248E-1,-5.001938939E-1,3.532546386E-2
1.550885256E1,4.043753445E-1,-1.431379437E0,1.047197497E-3
1.553084944E1,-6.198013425E-1,-1.237263903E-1,-4.435230792E-1
1.555084944E1,-1.864849448E0,9.269443750E-1,-8.100247383E-1
1.557084944E1,-2.693234921E0,9.008865952E-1,-8.125380278E-1
1.559084944E1,-3.545409441E0,9.080773592E-1,-6.288421154E-1
1.561084944E1,-3.566248655E0,5.555208325E-1,-9.844180346E-1
1.563084944E1,-3.026784897E0,2.808932960E-1,-1.351530552E0
1.565084944E1,-2.645098925E0,3.334451616E-1,-1.052957177E0
1.567084944E1,-2.320013762E0,4.538728595E-1,-6.498035192E-1
1.569084944E1,-2.010252714E0,7.638956904E-1,-4.971570373E-1
1.571084944E1,-2.642882347E0,6.253514886E-1,-4.922003150E-1
1.573085100E1,-3.113440514E0,-3.202679008E-2,-4.824962616E-1
1.575284944E1,-2.573016644E0,-2.839999795E-1,-1.994213164E-1
1.577284944E1,-1.891256213E0,1.236740276E-1,-2.926917188E-2
1.579284944E1,-1.369472623E0,6.417226791E-1,-1.614429504E-1
1.581284944E1,-9.779079556E-1,8.693310618E-1,-3.802374303E-1
1.583284944E1,-7.586247921E-1,6.014578938E-1,-5.886646509E-1
1.585284944E1,-7.023553848E-1,-1.699078083E-1,-5.553637743E-1
1.587284944E1,-7.706501484E-1,-1.304267049E0,-2.916445136E-1
1.589284944E1,-6.292260885E-1,-1.877764821E0,-1.231504306E-1
1.591284944E1,-1.455953717E-1,-1.985608697E0,-4.187044874E-2
1.593284944E1,6.839421988E-1,-2.191697121E0,8.293804526E-2
1.595284944E1,1.639509916E0,-2.596177340E0,2.113244683E-1
1.597285100E1,2.445345879E0,-3.086702108E0,2.209586836E-2
1.599484944E1,2.352581739E0,-2.236569643E0,-4.818505049E-1
1.601484944E1,-8.792445064E-1,3.481582701E-1,-7.368081808E-1
1.603485100E1,-1.673666000E0,-1.683055878E0,-4.979075193E-1
1.605685256E1,-3.515093029E-1,-9.182875156E-1,-2.204350829E-1
1.607884944E1,6.383192539E-1,4.426504076E-1,-5.216789246E-1
1.609885100E1,2.727949619E-2,1.213754296E0,-4.025602043E-1
1.611885100E1,-9.120566845E-1,2.046957016E0,-4.813443422E-1
1.614084944E1,-1.413018554E-1,9.638231397E-1,-4.769985005E-2
1.616084944E1,2.975262702E-1,2.904227935E-2,2.501580417E-1
1.618084944E1,4.473802447E-1,-1.621061862E-1,1.855285019E-1
1.620084944E1,7.961843014E-1,7.888887823E-2,7.756242901E-2
1.622084944E1,1.310724854E0,2.179916203E-1,2.473131567E-1
1.624084944E1,1.653716922E0,-6.230825558E-2,4.799306393E-1
1.626085569E1,2.022609711E0,-5.325523019E-1,5.821196437E-1
1.628284944E1,2.142548800E0,-1.061858296E0,4.238532186E-1
1.630284944E1,2.039975643E0,-1.351041913E0,1.486845911E-1
1.632284944E1,2.213374138E0,-1.648114443E0,1.330464482E-1
1.634284944E1,2.039242744E0,-1.396874309E0,7.070329040E-2
1.636284944E1,1.742746115E0,-7.270169258E-1,-5.044001620E-3
1.638284944E1,1.698676586E0,-5.658357590E-2,2.530727349E-2
1.640284944E1,1.904049516E0,6.230825186E-1,1.426283121E-1
1.642284944E1,1.895602107E0,1.432164788E0,2.594257295E-1
1.644285100E1,1.628514409E0,2.006517649E0,2.733185589E-1
1.646285100E1,1.414432287E0,1.953686595E0,3.597297966E-1
1.648285100E1,1.679809570E0,9.445547462E-1,5.463578701E-1
1.650485100E1,1.945064783E0,-5.662371516E-1,6.498907804E-1
1.652685100E1,1.734647870E0,-1.360501647E0,5.195845366E-1
1.654885100E1,1.588720798E0,-1.122368932E0,4.631056488E-1
1.657084944E1,3.344050944E-1,1.493041873E0,4.544662833E-1
1.659085100E1,-3.204599023E-1,2.234824181E0,1.533969939E-1
1.661285100E1,-1.232551485E-1,7.542964220E-1,-1.030791476E-1
1.663485100E1,-7.501424849E-2,-7.877194285E-1,-1.186300293E-1
1.665685569E1,-1.098143697E0,-4.754451513E-1,-3.488040566E-1
1.667884944E1,-2.469483852E0,2.630385756E-1,-7.330208421E-1
1.669885100E1,-3.226537704E0,1.169196069E-1,-9.432283044E-1
1.672085100E1,-3.637266159E0,2.305579931E-2,-9.382541180E-1
1.674085100E1,-3.270520210E0,-1.397659630E-1,-1.313395143E0
1.676285100E1,-2.736222506E0,9.967575222E-2,-1.274125218E0
1.678485100E1,-2.273832321E0,7.273659706E-1,-6.599613428E-1
1.680685100E1,-1.922462702E0,1.416212559E0,-4.910134673E-1
1.682685100E1,-2.664489508E0,6.569244862E-1,-5.576152205E-1
1.684685569E1,-3.157318115E0,-3.857701123E-1,-3.887022734E-1
1.686885100E1,-2.669166803E0,-3.460813463E-1,-5.153957382E-2
1.688885100E1,-2.057865381E0,3.080331683E-1,3.909537569E-2
1.690885100E1,-1.503479004E0,9.529672265E-1,-1.370956153E-1
1.693085100E1,-9.592155218E-1,9.252513647E-1,-3.513347805E-1
1.695284944E1,-6.224542260E-1,2.631956525E-2,-6.337639689E-1
1.697284944E1,-5.574232340E-1,-9.673312902E-1,-7.113612890E-1
1.699285100E1,-5.393765569E-1,-1.622510433E0,-5.384515524E-1
1.701485100E1,-2.968281507E-1,-1.810953617E0,-3.466049433E-1
1.703685100E1,2.313783020E-1,-2.048580170E0,-1.806066632E-1
1.705685100E1,1.014420271E0,-2.458051920E0,8.674286306E-3
1.707885100E1,2.078948975E0,-3.323421001E0,1.605179310E-1
1.709885725E1,2.587380886E0,-3.346023083E0,-7.808603346E-2
1.712084944E1,5.425705314E-1,-6.137450337E-1,-7.080277205E-1
1.714085100E1,-1.908918977E0,-1.011069268E-1,-6.345842481E-1
1.716085100E1,-1.006217241E0,-1.241138577E0,-2.229134440E-1
1.718285100E1,2.227912843E-1,2.464055866E-1,-4.631580114E-1
1.720485100E1,5.635667965E-2,7.976154685E-1,-7.951021791E-1
1.722685725E1,6.517059356E-2,1.880033731E0,-5.257979035E-1
1.724884944E1,1.131304979E0,7.513293624E-1,1.987406462E-1
1.726885100E1,-4.892681539E-1,1.158881187E0,1.974665523E-1
1.729085100E1,-8.062373996E-1,6.740636230E-1,2.729694843E-1
1.731284944E1,2.637541592E-1,-3.817034885E-2,1.099906489E-1
1.733285100E1,1.851515055E0,-1.342681766E0,2.762507200E-1
1.735484944E1,2.603368044E0,-1.290897846E0,3.785270154E-1
1.737484944E1,2.677003384E0,-9.134005904E-1,5.545434356E-1
1.739484944E1,1.558456898E0,9.929352403E-1,3.085218370E-1
1.741485100E1,1.779712200E0,8.018740416E-1,3.304606378E-1
1.743485569E1,2.867750406E0,-8.601680398E-1,2.235941291E-1
1.745686975E1,2.380786180E0,-3.860319257E-1,1.572541595E-1
1.747885100E1,1.907941580E0,-7.014477998E-2,2.762856148E-2
1.749885100E1,1.812629104E0,2.030166984E-1,5.263913050E-2
1.751885256E1,1.816660881E0,7.035073042E-1,1.892111450E-1
1.754085100E1,1.631394148E0,1.534301519E0,2.951177359E-1
1.756284944E1,1.245205164E0,1.830274463E0,3.615972996E-1
1.758284944E1,1.129926205E0,1.243023515E0,4.342553616E-1
1.760284944E1,1.436789989E0,-2.384119667E-2,5.635493398E-1
1.762285100E1,1.576259255E0,-9.510648251E-1,6.415480971E-1
1.764285256E1,1.563221574E0,-1.156699538E0,6.284930706E-1
1.766484944E1,1.506376266E0,-5.371250510E-1,5.037543774E-1
1.768485256E1,9.446245432E-1,8.755269647E-1,3.225019276E-1
1.770685100E1,1.355248094E-1,1.782417536E0,8.639379591E-2
1.772685100E1,4.932300374E-2,8.567996025E-1,-1.652826816E-1
1.774685100E1,2.569997311E-1,-5.764997005E-1,-2.412219495E-1
1.776885100E1,-4.124736488E-1,-4.843288660E-1,-3.619289398E-1
1.779085100E1,-1.689373970E0,4.950277209E-1,-6.178290844E-1
1.781085100E1,-2.599615574E0,5.729916096E-1,-7.273485065E-1
1.783285412E1,-3.542878628E0,7.353770137E-1,-6.396282911E-1
1.785485100E1,-3.459748745E0,4.334001541E-1,-8.578642607E-1
1.787485256E1,-3.025074482E0,2.189690024E-1,-1.080149412E0
1.789685100E1,-2.714720011E0,3.520678282E-1,-9.240121841E-1
1.791685412E1,-2.454735756E0,6.179687381E-1,-6.631553173E-1
1.793884944E1,-2.271703005E0,8.394335508E-1,-5.055345893E-1
1.795886975E1,-2.897351265E0,5.166174769E-1,-4.059635699E-1
1.798084944E1,-2.931105852E0,1.222428605E-1,-3.388033211E-1
1.800084944E1,-2.274827242E0,4.463505149E-1,-1.281944364E-1
1.802085100E1,-1.646595955E0,1.176107526E0,-7.649777830E-2
1.804085100E1,-1.133957863E0,1.479882121E0,-1.936966330E-1
1.806284944E1,-6.590712070E-1,7.470183969E-1,-5.303881168E-1
1.808284944E1,-4.975061119E-1,-3.345447183E-1,-8.443379402E-1
1.810284944E1,-5.616993308E-1,-1.331040502E0,-7.269296050E-1
1.812285100E1,-5.147674084E-1,-1.848164082E0,-4.043404162E-1
1.814485100E1,-2.180963457E-1,-1.868846178E0,-2.299296707E-1
1.816685100E1,5.210157037E-1,-2.472607851E0,-1.352979243E-1
1.818884944E1,1.869561791E0,-4.167078495E0,-1.836958975E-1
1.820885100E1,2.562405109E0,-2.848342419E0,1.543743759E-1
1.823085100E1,1.393907189E0,-3.890164495E-1,-5.129522681E-1
1.825285100E1,1.323657632E-1,-6.940476298E-1,-1.280513167E0
1.827484944E1,-1.758663535E0,7.194247097E-2,-9.118472934E-1
1.829485100E1,-1.206982493E0,-1.242115974E0,-7.870911360E-1
1.831685100E1,2.354449183E-1,-1.604603291E0,-6.142162681E-1
1.833686350E1,1.607273668E-1,1.245432019E0,9.791296721E-2
1.835886975E1,-3.996280432E-1,1.956549048E0,5.505990386E-1
1.838085100E1,-8.417723179E-1,6.250722408E-1,2.834240198E-1
1.840285100E1,-5.568996668E-1,1.191414118E0,5.133537054E-1
1.842485100E1,4.053352773E-1,8.699593544E-1,4.522322714E-1
1.844685100E1,1.688623548E0,-3.334102333E-1,8.436921239E-2
1.846685100E1,2.593611717E0,-1.062870622E0,2.687981427E-1
1.848685100E1,2.864259720E0,-1.183315754E0,8.264483213E-1
1.850885100E1,2.287480831E0,-5.356240869E-1,8.042302728E-1
1.853084944E1,1.079538465E0,1.015816569E0,4.047767520E-1
1.855084944E1,2.467022896E0,-1.623697281E0,1.756150275E-1
1.857084944E1,2.523466825E0,-1.575386524E0,2.225294858E-1
1.859085100E1,2.256518841E0,-6.905918717E-1,9.834930301E-2
1.861285100E1,2.091201067E0,3.708824515E-2,-2.755874954E-2
1.863485100E1,2.111080408E0,9.633345008E-1,1.565385759E-1
1.865685100E1,1.953564525E0,1.885636210E0,2.992366850E-1
1.867685256E1,1.666126251E0,1.973705530E0,3.221005201E-1
1.869685569E1,1.467019081E0,1.255781889E0,3.755075932E-1
1.871884944E1,1.503723264E0,-1.517214775E-1,5.569519997E-1
1.873885100E1,1.436388493E0,-1.047284842E0,6.688625216E-1
1.875887131E1,1.499866128E0,-1.179144382E0,6.178814769E-1
1.878084944E1,1.404309392E0,1.041088924E-1,6.041108370E-1
1.880085100E1,7.452555895E-1,1.775191784E0,5.140517950E-1
1.882085100E1,2.462834120E-1,2.079053640E0,2.578200400E-1
1.884284944E1,1.119628698E-1,6.453878284E-1,-5.316272750E-2
1.886284944E1,2.627418637E-1,-7.966206074E-1,-5.412266031E-2
1.888284944E1,-4.183554053E-1,-5.038416386E-1,-2.566157579E-1
1.890285100E1,-1.521333694E0,2.339090258E-1,-7.190232873E-1
1.892485100E1,-2.370523691E0,1.217018068E-1,-1.016479731E0
1.894684944E1,-3.572409630E0,4.799481034E-1,-8.901179433E-1
1.896685569E1,-3.956137896E0,4.257032573E-1,-1.101320267E0
1.898885100E1,-3.317783594E0,1.621410809E-2,-1.514963269E0
1.900885100E1,-2.866319418E0,-5.215043947E-2,-1.229863763E0
1.902885100E1,-2.459413290E0,-8.395033889E-3,-7.396531105E-1
1.904885100E1,-2.033413410E0,4.877497256E-1,-5.621181726E-1
1.906885100E1,-2.053344965E0,7.990989685E-1,-6.542716026E-1
1.909085100E1,-3.083141565E0,1.892984062E-1,-4.729493260E-1
1.911085100E1,-2.798967123E0,-1.160992980E-1,-3.251897395E-1
1.913284944E1,-1.951103568E0,2.704038620E-1,-1.202706397E-1
1.915285100E1,-1.258940935E0,9.178337455E-1,-1.933824867E-1
1.917484944E1,-7.552912235E-1,1.044631958E0,-4.520926476E-1
1.919484944E1,-4.517610073E-1,5.507211685E-1,-6.732956767E-1
1.921484944E1,-4.540474117E-1,-5.373170376E-1,-5.954190493E-1
1.923485100E1,-5.150466561E-1,-1.452567697E0,-2.890788913E-1
1.925684944E1,-3.131818771E-1,-1.566729665E0,3.944443911E-2
1.927684944E1,1.503252089E-1,-1.550096750E0,2.752035260E-1
1.929684944E1,9.280264378E-1,-2.326506376E0,4.934918582E-1
1.931685100E1,1.927576542E0,-3.530539274E0,5.081176758E-1
1.933685725E1,2.192587376E0,-3.561187267E0,-3.071779385E-3
1.935887131E1,-2.469815463E-1,-1.889493465E-1,-5.825560093E-1
1.938085100E1,-1.682253003E0,4.118976891E-1,-3.433935344E-1
1.940285100E1,-1.044579521E-1,-4.721115530E-2,-2.532647252E-1
1.942485100E1,1.944994926E-1,6.998246908E-1,-6.889861822E-1
1.944685100E1,-1.269604802E0,1.574234605E0,-6.342700720E-1
1.946685100E1,-1.740093231E-1,1.058018565E0,-8.442157507E-2
1.948885100E1,-5.152386427E-1,1.044719219E0,5.884203315E-1
1.950885100E1,-1.127290726E0,1.069433093E0,3.359235227E-1
1.952885100E1,2.545039058E-1,-1.342838883E0,-2.206794322E-1
1.954885100E1,1.756639004E0,-1.613556862E0,1.012989059E-1
1.956885100E1,2.360679865E0,-2.916968763E-1,2.000321895E-1
1.959085100E1,2.500812531E0,7.058460712E-1,2.905798554E-1
1.961285100E1,2.305091143E0,1.037510991E0,6.002885699E-1
1.963485100E1,1.972291827E0,1.220107317E0,6.457194686E-1
1.965685725E1,2.170177221E0,-3.127455413E-1,4.936140180E-1
1.967884944E1,2.460739613E0,-1.327357769E0,5.465149283E-1
1.969885725E1,2.144084692E0,-1.098946571E0,4.433136284E-1
1.972084944E1,1.959236741E0,-8.718094230E-1,2.667386830E-1
1.974084944E1,2.041302204E0,-2.812423408E-1,3.087138236E-1
1.976084944E1,2.014092445E0,7.780852318E-1,3.595727384E-1
1.978084944E1,1.752921462E0,1.534406185E0,3.584033549E-1
1.980084944E1,1.482098699E0,1.511664510E0,4.123689532E-1
1.982084944E1,1.476758003E0,7.115009427E-1,5.531297326E-1
1.984084944E1,1.616698503E0,-6.283708811E-1,6.385287046E-1
1.986084944E1,1.551405668E0,-1.523166299E0,5.849121809E-1
1.988084944E1,1.387030602E0,-1.301771283E0,4.456000030E-1
1.990084944E1,8.167442679E-1,2.239606529E-1,3.156253397E-1
1.992084944E1,5.438445881E-2,1.506603122E0,1.729097664E-1
1.994084944E1,-3.251548484E-2,1.144744039E0,-5.204571784E-2
1.996084944E1,3.510555327E-1,-2.094395086E-2,-1.061858311E-1
1.998084944E1,1.887399107E-1,-4.977155328E-1,-1.420523524E-1
2.000084944E1,-7.145901322E-1,1.209338605E-1,-3.089581728E-1
2.002084944E1,-1.893525124E0,6.292784810E-1,-5.128300786E-1
2.004084944E1,-3.007638693E0,5.575104952E-1,-6.683912873E-1
2.006084944E1,-3.732526302E0,3.537607789E-1,-8.154178262E-1
2.008084944E1,-3.466677666E0,-1.733810008E-1,-1.109593034E0
2.010084944E1,-3.010117054E0,-3.558202684E-1,-1.276237130E0
2.012085100E1,-2.690337658E0,-3.879692256E-1,-1.036271811E0
2.014085100E1,-2.407367468E0,-1.609542668E-1,-6.562961340E-1
2.016085100E1,-2.363682032E0,1.668011099E-1,-5.179089904E-1
2.018085100E1,-2.946831465E0,3.312809467E-1,-4.262093902E-1
2.020284944E1,-2.861292839E0,3.645643592E-1,-4.110250473E-1
2.022284944E1,-2.152148008E0,5.315400362E-1,-2.903704345E-1
2.024284944E1,-1.528157949E0,1.134254575E0,-1.924749166E-1
2.026285100E1,-1.054807186E0,1.483425140E0,-3.096213937E-1
2.028485100E1,-6.818303466E-1,1.012692332E0,-5.502324700E-1
2.030685100E1,-5.500056148E-1,-2.578375041E-1,-8.461181521E-1
2.032685100E1,-6.432585716E-1,-1.468851686E0,-7.242069244E-1
2.034685100E1,-6.964212656E-1,-2.013185024E0,-4.164530039E-1
2.036884944E1,-5.194623470E-1,-1.930805326E0,-1.775348932E-1
2.038885100E1,-1.492780149E-1,-1.646945000E0,-7.271041721E-2
2.040885100E1,7.723081708E-1,-2.417176247E0,7.016223390E-3
2.042885100E1,1.881447434E0,-3.199380398E0,2.329665422E-1
2.045085100E1,2.583174467E0,-2.998562813E0,2.498962432E-1
2.047285100E1,1.047895670E0,-5.406855345E-1,-3.190461993E-1
2.049485100E1,-1.496061325E0,7.086036727E-3,-4.657585621E-1
2.051685100E1,-9.403659701E-1,-1.063813090E0,-3.532720804E-1
2.053685100E1,4.726351425E-2,6.287723184E-1,-5.566727519E-1
2.055685100E1,4.166624546E-1,-5.305800959E-2,-1.091860533E0
2.057686350E1,2.229309082E-1,-6.306572556E-1,-7.283957005E-1
2.059885100E1,5.116781592E-1,-5.030388236E-1,1.959830225E-1
2.062085100E1,-7.753799558E-1,1.221381426E0,9.801769257E-2
2.064085100E1,-1.613888502E0,2.269922972E0,-3.120648563E-1
2.066085100E1,-4.315501153E-1,-5.044350624E-1,-7.931823134E-1
2.068285100E1,2.051617146E0,-5.408146858E0,-5.949129462E-1
2.070484944E1,2.812842369E0,-2.320188284E0,2.826909721E-1
2.072484944E1,2.215765238E0,6.505016685E-1,5.907067060E-1
2.074484944E1,1.256881356E0,2.529034376E0,6.799453497E-1
2.076484944E1,1.205900311E0,2.664506912E0,8.592255712E-1
2.078484944E1,2.301844835E0,7.984532118E-1,8.058708906E-1
2.080484944E1,3.016173363E0,-8.775166273E-1,4.092971683E-1
2.082484944E1,2.187124491E0,3.560471581E-3,1.659982651E-1
2.084484944E1,2.043431520E0,-1.759990007E-1,1.271123290E-1
2.086484944E1,2.117625475E0,-4.041309953E-1,8.274605870E-2
2.088484944E1,1.883105516E0,1.193979755E-1,2.189166546E-1
2.090484944E1,1.509221077E0,8.257851005E-1,3.005631566E-1
2.092484944E1,1.274561644E0,1.299676895E0,3.179466426E-1
2.094484944E1,1.072574615E0,1.133102655E0,3.137578368E-1
2.096484944E1,9.987820983E-1,6.268524528E-1,4.490033984E-1
2.098484944E1,1.321702957E0,-2.967757881E-1,5.653994083E-1
2.100484944E1,1.741000772E0,-1.270041227E0,4.648684561E-1
2.102484944E1,1.825160623E0,-1.404222131E0,2.824466228E-1
2.104484944E1,1.301369786E0,-3.352777660E-2,4.043404162E-1
2.106484944E1,2.466499358E-1,1.838494897E0,4.445528090E-1
2.108484944E1,-1.491558403E-1,1.821478009E0,1.869945824E-1
2.110484944E1,7.407177240E-2,4.241324663E-1,-2.888519876E-2
2.112485100E1,2.988178134E-1,-9.986425042E-1,-4.492477328E-2
2.114485100E1,-1.331162602E-1,-8.847073913E-1,-2.087239176E-1
2.116685100E1,-1.897836089E0,6.071476936E-1,-4.236612320E-1
2.118685100E1,-2.761425018E0,5.937784910E-1,-6.598217487E-1
2.120885100E1,-3.311657429E0,2.815739810E-1,-7.554657459E-1
2.123084944E1,-3.455437660E0,-8.534660190E-2,-8.969072700E-1
2.125084944E1,-3.003449917E0,-4.913974404E-1,-1.150712967E0
2.127084944E1,-2.656111956E0,-5.021835566E-1,-1.007351637E0
2.129084944E1,-2.398291826E0,-1.776919663E-1,-5.569869280E-1
2.131084944E1,-2.190091610E0,4.139746428E-1,-3.333404362E-1
2.133085100E1,-2.883615494E0,8.952142596E-1,-3.926467299E-1
2.135284944E1,-3.108117342E0,7.529175878E-1,-4.682718217E-1
2.137284944E1,-2.397209644E0,3.175975680E-1,-4.019667804E-1
2.139285100E1,-1.694505215E0,3.726801574E-1,-3.865031600E-1
2.141484944E1,-1.284126043E0,7.465122342E-1,-5.660451651E-1
2.143485100E1,-1.095613003E0,7.691840529E-1,-6.763325334E-1
2.145685100E1,-9.272759557E-1,-1.552470326E-1,-7.502647042E-1
2.147885100E1,-8.666432500E-1,-1.570168018E0,-6.354743838E-1
2.149885100E1,-7.181331515E-1,-2.073171854E0,-4.080405235E-1
2.152085100E1,-2.925171852E-1,-1.949585080E0,-2.776469886E-1
2.154285100E1,4.912054539E-1,-1.902077317E0,-1.605004817E-1
2.156485100E1,1.517581224E0,-2.239466906E0,9.482374042E-2
2.158685100E1,2.557884693E0,-2.801829338E0,3.186272979E-1
2.160686194E1,2.890492201E0,-2.595269680E0,1.287180334E-1
2.162885100E1,3.999596536E-1,-2.148500271E-2,-5.498310924E-1
2.164885100E1,-1.925848603E0,-8.998917341E-1,-5.749987364E-1
2.166885100E1,-9.564578533E-1,-1.151882410E0,-4.625820518E-1
2.169084944E1,2.048318386E-1,6.247406006E-1,-9.095783234E-1
2.171084944E1,4.808381945E-2,3.553141356E-1,-1.083622575E0
2.173085100E1,3.663097024E-1,9.942442775E-1,-3.945316672E-1
2.175284944E1,9.727592468E-1,2.434908897E-1,5.127428174E-1
2.177284944E1,-1.960109472E0,2.134747028E0,2.356194556E-1
2.179284944E1,-1.747406244E0,1.780689597E0,-2.491457462E-1
2.181284944E1,5.421341658E-1,-1.927018046E0,-1.836958975E-1
2.183284944E1,2.515804768E0,-2.718716860E0,2.032086849E-1
2.185284944E1,2.820068121E0,-1.736061573E0,2.365619242E-1
2.187284944E1,2.422342539E0,-8.426449895E-1,5.278398991E-1
2.189284944E1,2.002433777E0,-1.438674927E-1,6.712361574E-1
2.191284944E1,1.852998614E0,1.291543595E-3,5.032482147E-1
2.193284944E1,1.899232388E0,-8.620180935E-2,1.997354776E-1
2.195284944E1,2.702310801E0,-5.470560193E-1,1.965938807E-1
2.197284944E1,2.653930187E0,9.351474047E-2,1.697856337E-1
2.199284944E1,2.324795961E0,7.188662291E-1,2.115339041E-2
2.201284944E1,1.985504031E0,1.327986121E0,7.461282611E-2
2.203284944E1,1.744299531E0,1.839926124E0,2.458470762E-1
2.205284944E1,1.361670971E0,1.774895072E0,3.364471197E-1
2.207284944E1,1.174222589E0,8.800822496E-1,4.091749787E-1
2.209284944E1,1.309695125E0,-5.638460517E-1,5.621531010E-1
2.211285100E1,1.464994431E0,-1.621899605E0,6.435726881E-1
2.213285569E1,1.338004351E0,-1.525208354E0,5.300914049E-1
2.215485100E1,1.092104912E0,-4.054399729E-1,4.131019711E-1
2.217686663E1,5.805488825E-1,8.739038110E-1,3.650879860E-1
2.219885256E1,1.612509638E-1,1.253530383E0,1.971349418E-1
2.222085100E1,1.174606569E-2,4.384441674E-1,-7.995353639E-2
2.224085881E1,-3.310016990E-1,-3.793298602E-1,-2.033308595E-1
2.226285100E1,-1.388322115E0,-4.080579877E-1,-3.480710089E-1
2.228285725E1,-2.455049992E0,-3.051708043E-1,-6.601009965E-1
2.230484944E1,-3.627684355E0,-3.851417899E-1,-8.507083654E-1
2.232484944E1,-3.957586527E0,-5.238780379E-1,-1.006304502E0
2.234484944E1,-3.470063686E0,-7.958003283E-1,-1.305506229E0
2.236485412E1,-2.748055696E0,-5.154655576E-1,-1.445115209E0
2.238685100E1,-2.201575756E0,1.585282534E-1,-9.055815339E-1
2.240885100E1,-1.976969361E0,9.747489095E-1,-4.074122012E-1
2.242885100E1,-2.585670471E0,1.187906027E0,-4.573286176E-1
2.244885569E1,-3.213203430E0,3.847403824E-1,-4.354945421E-1
2.247085100E1,-2.663721561E0,-7.366685867E-1,-3.401646614E-1
2.249284944E1,-2.044426203E0,-3.967307806E-1,-1.441292912E-1
2.251285100E1,-1.614132881E0,6.612877846E-1,-9.358455241E-2
2.253484944E1,-1.250074625E0,1.491924882E0,-2.160717547E-1
2.255484944E1,-9.192823768E-1,1.172878742E0,-3.163758218E-1
2.257484944E1,-5.987700820E-1,-4.993386939E-2,-2.962347269E-1
2.259484944E1,-4.863883555E-1,-1.635268807E0,-1.474628747E-1
2.261485412E1,-3.108780384E-1,-2.196566582E0,7.963937521E-2
2.263685100E1,9.841911495E-2,-1.891081691E0,2.831098437E-1
2.265685100E1,6.658256650E-1,-1.904293776E0,4.120198786E-1
2.267685256E1,1.691939592E0,-2.890282631E0,3.736575246E-1
2.269685256E1,3.085113764E0,-3.869988441E0,-1.801179796E-1
2.271685412E1,2.191958904E0,-2.959083557E0,-5.383642316E-1
2.273885413E1,-2.395708799E0,-7.408573627E-1,-5.762553811E-1
2.275886975E1,-1.645234585E0,-1.691974521E0,-4.235565066E-1
2.278084944E1,4.088433683E-1,2.607347369E-1,-3.462209702E-1
2.280085100E1,1.018539190E0,2.004493237E0,-6.365565062E-1
2.282085569E1,-3.213151172E-2,1.449460983E0,-6.023654938E-1
2.284285100E1,-3.869220316E-1,8.508654833E-1,-8.314748853E-2
2.286285413E1,-9.327039123E-2,3.912329972E-1,2.589195967E-1
2.288484944E1,-5.301612020E-1,3.508635461E-1,5.831145048E-1
2.290485412E1,-5.393765569E-1,1.396263367E-3,3.283487856E-1
2.292685100E1,1.099225760E0,-1.984701157E0,2.141519077E-2
2.294884944E1,2.327222109E0,-1.082348466E0,2.329840064E-1
2.296884944E1,2.470304012E0,-2.293362617E-1,2.352354825E-1
2.298885413E1,2.314393759E0,8.051203936E-2,3.107035160E-1
2.301085100E1,1.879632354E0,4.626867771E-1,3.012787402E-1
2.303284944E1,2.113366842E0,1.702045053E-1,2.425833046E-1
2.305285100E1,2.619686842E0,-5.806186795E-1,2.719397545E-1
2.307484944E1,2.269050121E0,-8.540419340E-1,2.387610450E-2
2.309485100E1,1.794180989E0,-8.176692724E-1,-4.401720315E-2
2.311485100E1,1.781091094E0,-5.886821151E-1,1.445656270E-1
2.313685725E1,1.660576105E0,2.476447672E-1,2.975786328E-1
2.315887131E1,1.227402806E0,7.079753280E-1,2.502976656E-1
2.318085100E1,1.010894656E0,5.752954483E-1,3.062354624E-1
2.320285256E1,1.452305913E0,-2.042384297E-1,3.111223876E-1
2.322484944E1,1.684382319E0,-1.012674928E0,4.334874153E-1
2.324485100E1,1.485589385E0,-1.050932527E0,4.840670526E-1
2.326684944E1,1.552662373E0,-7.544884086E-1,3.901858032E-1
2.328686663E1,1.461660862E0,3.377212211E-2,3.670427501E-1
2.330885100E1,3.302686512E-1,1.595143676E0,3.806563020E-1
2.332885413E1,-2.146929502E-1,1.652495146E0,1.974840015E-1
2.335084944E1,-3.598868847E-2,1.950754523E-1,5.401793867E-2
2.337085100E1,-4.845383167E-1,-7.827627063E-1,-7.998844236E-2
2.339285100E1,-1.696809053E0,-6.315124631E-1,-4.632976353E-1
2.341285100E1,-2.570137024E0,-5.047317743E-1,-8.452454805E-1
2.343485100E1,-3.341973782E0,-4.263839424E-1,-1.036184549E0
2.345685256E1,-3.681946516E0,-3.020466864E-1,-1.030110717E0
2.347885100E1,-3.171856642E0,-1.784075499E-1,-1.298437715E0
2.349885100E1,-2.726535797E0,1.250877529E-1,-1.069921732E0
2.351885100E1,-2.481194973E0,4.951499104E-1,-6.401343942E-1
2.353885100E1,-2.435956001E0,7.810522914E-1,-4.500855207E-1
2.355886975E1,-2.978962898E0,1.926319897E-1,-3.288200200E-1
2.358085100E1,-3.211458206E0,-4.283038080E-1,-3.725230694E-1
2.360284944E1,-2.777743816E0,-2.573313415E-1,-2.569997311E-1
2.362285100E1,-2.268648863E0,2.614677846E-1,-1.535540670E-1
2.364485100E1,-1.737370491E0,3.282266259E-1,-2.309245169E-1
2.366685100E1,-1.215115666E0,2.227738202E-1,-4.111646712E-1
2.368685100E1,-9.601055980E-1,-2.412394136E-1,-6.544635892E-1
2.370885100E1,-8.410217762E-1,-1.060060620E0,-6.042329669E-1
2.372885412E1,-6.731560230E-1,-1.733792663E0,-4.672769904E-1
2.375084944E1,-2.208539695E-1,-1.988418698E0,-4.306599796E-1
2.377085256E1,5.752430558E-1,-1.942638755E0,-3.837106228E-1
2.379284944E1,1.697315216E0,-2.081758976E0,-1.606575549E-1
2.381284944E1,2.732243061E0,-2.443129301E0,-3.539527580E-2
2.383285100E1,3.358292818E0,-2.517532825E0,-2.344849855E-1
2.385485100E1,1.431972861E0,-7.938979268E-1,-7.873703837E-1
2.387685100E1,-2.677911043E0,-1.601950407E0,-5.556953549E-1
2.389685100E1,-1.483006239E0,-2.542141914E0,-4.679576755E-1
2.391685100E1,-3.560471535E-2,3.364994749E-2,-9.245532751E-1
2.393686350E1,-2.704213262E-1,7.643494606E-1,-8.484743834E-1
2.395887131E1,-7.352548242E-1,2.119266033E0,-7.065092772E-2
2.398084944E1,-2.576629519E-1,2.035141230E0,4.522322714E-1
2.400084944E1,-3.035127521E-1,8.936260343E-1,2.631956525E-2
2.402085100E1,-8.150687814E-2,1.637118906E-1,-1.056971401E-1
2.404285100E1,1.586225033E0,-1.406700492E0,2.199812979E-1
2.406485100E1,2.467406750E0,2.331410795E-1,6.362248659E-1
2.408685100E1,2.714685202E0,8.628558517E-1,6.901904345E-1
2.410685100E1,2.539663553E0,9.830915928E-1,8.247727752E-1
2.412685100E1,2.182656288E0,1.134586215E0,5.758190155E-1
2.414685100E1,2.704370260E0,-3.118903339E-1,4.116708040E-1
2.416685100E1,2.475313187E0,-1.006444097E0,3.738320768E-1
2.418685100E1,2.016989708E0,-1.444556713E0,2.743308544E-1
2.420685100E1,1.691590548E0,-1.453510165E0,2.052332610E-1
2.422884944E1,1.670227766E0,-6.723706126E-1,2.924299240E-1
2.424885100E1,1.552034020E0,7.478736043E-1,2.886076570E-1
2.426885100E1,1.329329967E0,1.474227309E0,2.654994726E-1
2.429084944E1,1.122613192E0,1.407869816E0,3.666238487E-1
2.431085256E1,1.375616193E0,9.950994849E-1,4.930380583E-1
2.433285725E1,2.207684517E0,-4.609938264E-1,4.529827535E-1
2.435485100E1,2.266990662E0,-1.459618807E0,2.654820383E-1
2.437685100E1,1.871481657E0,-1.329277635E0,2.590417564E-1
2.439685100E1,5.201255679E-1,1.109209061E0,4.843986928E-1
2.441685256E1,-2.123891115E-1,2.160193920E0,3.958581388E-1
2.443885100E1,-2.357416153E-1,9.615891576E-1,1.741489470E-1
2.445886975E1,7.686430216E-2,-7.705802917E-1,1.077217236E-1
2.448084944E1,-1.154186204E-1,-1.364079475E0,-1.656317525E-2
2.450084944E1,-1.586766124E0,5.162683874E-2,-4.128576219E-1
2.452085100E1,-2.845270634E0,5.182406306E-1,-7.787309885E-1
2.454285100E1,-3.444267750E0,-9.431759268E-2,-1.023408651E0
2.456485100E1,-3.581712246E0,-6.506063938E-1,-1.150294185E0
2.458685725E1,-3.260624170E0,-7.859042883E-1,-1.440245748E0
2.460885100E1,-2.830505133E0,-5.892580748E-1,-1.148775697E0
2.462885100E1,-2.448819160E0,1.265363675E-2,-6.617241502E-1
2.465085100E1,-2.105600119E0,8.951444626E-1,-6.298544407E-1
2.467284944E1,-2.841954470E0,8.314573765E-1,-6.087708473E-1
2.469285100E1,-3.526664734E0,-3.570943698E-2,-5.499358177E-1
2.471485100E1,-2.749260187E0,-8.914443851E-1,-3.785619140E-1
2.473685725E1,-1.908377886E0,-5.890486240E-1,-2.267880887E-1
2.475886975E1,-1.422321200E0,1.566083878E-1,-2.966012657E-1
2.478084944E1,-9.818524122E-1,4.770508409E-1,-4.910483956E-1
2.480085100E1,-6.693686843E-1,-2.655169368E-1,-5.318541527E-1
2.482085100E1,-5.255011916E-1,-1.395006776E0,-4.304679930E-1
2.484085100E1,-4.132765234E-1,-1.862650275E0,-2.834589183E-1
2.486284944E1,-3.241076320E-2,-1.740005970E0,-1.603259444E-1
2.488284944E1,6.297497153E-1,-1.867711782E0,1.923352852E-2
2.490285100E1,1.475658417E0,-2.256379128E0,2.502627671E-1
2.492485100E1,2.444944382E0,-2.995892525E0,2.555336654E-1
2.494685100E1,2.174662828E0,-2.162375689E0,-4.352676570E-1
2.496685100E1,-1.050600886E0,3.820525706E-1,-8.362919688E-1
2.498885100E1,-1.605825067E0,-1.975712657E0,-3.686659038E-1
2.500885100E1,-3.814591467E-1,-1.227926373E0,-3.472681642E-1
2.502885100E1,1.642005742E-1,3.082076907E-1,-7.842636704E-1
2.505084944E1,-1.036585927E0,8.315097690E-1,-4.738568962E-1
2.507084944E1,-9.734573960E-1,2.562911272E0,-1.388409436E-1
2.509085100E1,4.414286613E-1,1.839559555E0,1.071981192E-1
2.511285100E1,7.808603048E-1,6.956009865E-1,7.218682021E-2
2.513484944E1,1.039971828E0,5.621705651E-1,1.771509200E-1
2.515485100E1,1.661710501E0,1.189581513E0,4.503298402E-1
2.517485100E1,2.167018175E0,1.424101353E0,7.782772183E-1
2.519685100E1,2.459256172E0,9.761277437E-1,9.493194818E-1
2.521685100E1,2.890055895E0,-1.601863205E-1,1.130065799E0
2.523685100E1,2.497426510E0,-7.460758686E-1,4.550422430E-1
2.525685881E1,2.190649986E0,-7.661122680E-1,1.931555867E-1
2.527885100E1,2.149338007E0,-9.294052720E-1,5.109276772E-1
2.530085100E1,1.823799253E0,-8.360825181E-1,3.818605840E-1
2.532085100E1,1.618059874E0,-5.288696885E-1,2.741737664E-1
2.534085100E1,1.490790486E0,2.219360620E-1,2.995683253E-1
2.536284944E1,1.177556157E0,1.035329342E0,3.170390427E-1
2.538285100E1,9.234886169E-1,1.127151132E0,2.398605943E-1
2.540285100E1,1.084774494E0,9.253910184E-1,2.215870023E-1
2.542485100E1,1.723250866E0,1.707106531E-1,2.396337092E-1
2.544685100E1,1.912566662E0,-4.413937628E-1,2.889392674E-1
2.546685100E1,1.917052150E0,-7.472452521E-1,3.200759292E-1
2.548685100E1,1.980966091E0,-7.544360161E-1,3.363772929E-1
2.550685100E1,1.501541615E0,-1.820378378E-2,4.210083187E-1
2.552685100E1,3.926641643E-1,1.335735321E0,5.944591165E-1
2.554685100E1,-3.107733130E-1,1.426666975E0,4.486717880E-1
2.556686350E1,-8.967501670E-2,1.210385859E-1,1.544092745E-1
2.558884944E1,1.251401100E-2,-9.823585749E-1,-3.338814899E-2
2.560885100E1,-7.792371511E-1,-4.778886139E-1,-3.311238587E-1
2.562885100E1,-2.065457582E0,4.303981736E-2,-7.850316167E-1
2.564885100E1,-2.986363173E0,-2.205048949E-1,-1.145267606E0
2.566885100E1,-3.478580713E0,-3.863460720E-1,-1.252779841E0
2.568885100E1,-3.451702833E0,-5.793271661E-1,-1.517668486E0
2.570885100E1,-3.112358332E0,-4.040088058E-1,-1.658691049E0
2.573085100E1,-2.687178612E0,7.534586638E-2,-1.244070649E0
2.575285100E1,-2.259834766E0,6.972416043E-1,-6.821095943E-1
2.577285100E1,-2.677422285E0,2.529854774E-1,-2.044478655E-1
2.579484944E1,-3.234356880E0,-4.129274487E-1,-1.147553995E-1
2.581484944E1,-3.060312748E0,-1.337969452E-1,4.625122529E-3
2.583484944E1,-2.557256460E0,4.869817793E-1,2.171713114E-1
2.585485100E1,-1.998977900E0,8.520522714E-1,2.370855212E-1
2.587685100E1,-1.507772446E0,6.752853394E-1,3.485422581E-2
2.589685725E1,-1.171587110E0,3.242123723E-1,-2.001543641E-1
2.591685725E1,-9.219003320E-1,1.861219108E-1,-3.339512944E-1
2.593686350E1,-5.952445269E-1,-4.361926913E-1,-3.540051281E-1
2.595886975E1,-3.001966178E-1,-1.251261473E0,-2.799333632E-1
2.598084944E1,3.874630854E-2,-1.495555162E0,-9.026842564E-2
2.600084944E1,5.207364559E-1,-1.620800018E0,5.215043947E-2
2.602085100E1,1.319346786E0,-2.304131269E0,1.556484550E-1
2.604285100E1,2.509556532E0,-3.141348362E0,-4.319689795E-2
2.606484944E1,3.032108068E0,-2.296015501E0,-8.366584778E-1
2.608484944E1,-9.108873457E-2,8.384386897E-1,-1.043061137E0
2.610484944E1,-2.765439272E0,-9.195092320E-1,-4.553389549E-1
2.612484944E1,-1.443526864E0,-2.589038849E0,-1.288227588E-1
2.614484944E1,2.035053968E-1,-5.473527312E-1,-5.102295280E-1
2.616484944E1,9.862681031E-1,4.375889599E-1,-7.323052287E-1
2.618484944E1,8.932594955E-2,1.130484700E0,-3.843564093E-1
2.620484944E1,1.459095180E-1,1.141881704E0,-9.201376140E-2
2.622485100E1,-4.246909618E-1,1.564879656E0,1.094495952E-1
2.624685100E1,-3.405312002E-1,1.437680006E0,4.250400364E-1
2.626685256E1,-3.220132366E-2,1.565560326E-2,1.650208831E-1
2.628884944E1,2.067674160E0,-2.393666744E0,2.676811516E-1
2.630884944E1,2.570486069E0,-2.352005690E-1,3.498512506E-1
2.632885256E1,1.756481886E0,2.250148296E0,7.661995292E-2
2.635084944E1,1.723634839E0,3.202906132E0,7.726398110E-1
2.637085100E1,2.602216005E0,1.894467592E0,9.948376417E-1
2.639285725E1,3.185138702E0,-4.239579141E-1,4.477991164E-1
2.641484944E1,1.980180740E0,-1.764702350E-1,1.537286043E-1
2.643485100E1,1.643262386E0,-3.630110323E-1,3.027622700E-1
2.645485100E1,1.742728710E0,-8.201127648E-1,1.403942853E-1
2.647485256E1,1.905986786E0,-6.619335413E-1,7.042403519E-2
2.649687131E1,1.729184985E0,6.129072905E-1,1.458048075E-1
2.651885100E1,1.290845513E0,1.622370839E0,1.505346447E-1
2.653885100E1,1.119454145E0,1.806625247E0,1.898220032E-1
2.655886975E1,1.375389218E0,1.368547559E0,2.802824378E-1
2.658085100E1,1.736672401E0,3.834837377E-1,4.188266695E-1
2.660085100E1,1.623121262E0,-2.890614271E-1,4.900361001E-1
2.662285100E1,1.587499142E0,-5.895547867E-1,4.525813162E-1
2.664485100E1,9.896714687E-1,2.805965841E-1,4.533492625E-1
2.666486038E1,2.139250040E-1,1.338056684E0,4.533318281E-1
2.668687288E1,-3.902556375E-2,1.206354141E0,2.465102971E-1
2.670885100E1,7.332128286E-2,-1.854935884E-1,-3.454006463E-2
2.672885100E1,-1.363451183E-1,-9.595645666E-1,-1.732588410E-1
2.674885412E1,-9.602801800E-1,-4.272216856E-1,-5.396732688E-1
2.677084944E1,-2.265035868E0,2.346944213E-1,-9.046913981E-1
2.679085100E1,-3.114941359E0,3.039665520E-1,-9.517629147E-1
2.681085100E1,-3.550837517E0,2.691646814E-1,-8.353145719E-1
2.683285100E1,-3.226241112E0,-9.777334332E-2,-1.183821917E0
2.685485100E1,-2.752820492E0,2.272593230E-1,-1.079102159E0
2.687685100E1,-2.451140404E0,5.095139742E-1,-6.301162243E-1
2.689685100E1,-2.257670641E0,9.335417151E-1,-4.825311899E-1
2.691885100E1,-2.243917465E0,1.087113261E0,-5.755921602E-1
2.694085100E1,-3.318446875E0,-6.073745713E-2,-2.511354387E-1
2.696284944E1,-3.121242046E0,-8.797855377E-1,-1.759117395E-1
2.698284944E1,-2.399461269E0,-3.720343709E-1,5.361651629E-2
2.700284944E1,-1.697367549E0,5.372297764E-1,1.487020552E-1
2.702284944E1,-1.141305685E0,1.029360294E0,2.541199327E-2
2.704284944E1,-7.262663841E-1,6.919357777E-1,-1.967160553E-1
2.706284944E1,-4.946961105E-1,-3.393094540E-1,-2.547657192E-1
2.708284944E1,-3.657861054E-1,-1.216459632E0,-1.071981192E-1
2.710285100E1,-1.010022014E-1,-1.463179350E0,1.822123677E-2
2.712285100E1,3.829950392E-1,-1.431169987E0,1.077042669E-1
2.714485100E1,1.161795855E0,-1.709113717E0,1.761560738E-1
2.716685100E1,2.287341356E0,-2.585146666E0,-7.881906629E-2
2.718685100E1,3.106633663E0,-2.891923189E0,-6.666808724E-1
2.720685100E1,1.586015582E0,-9.918182492E-1,-9.134704471E-1
2.722685100E1,-2.535404921E0,3.991218805E-1,-6.471157074E-1
2.724685256E1,-1.909494877E0,-2.346071482E0,-1.427853853E-1
2.726885100E1,-2.198416740E-1,-9.586046338E-1,-2.480287403E-1
2.728885100E1,7.522194386E-1,9.062796831E-1,-3.419449031E-1
2.731085100E1,-2.795842886E-1,2.268805742E0,-5.235987483E-4
2.733284944E1,-9.234886169E-1,1.868811250E0,1.232376993E-1
2.735284944E1,-4.750088155E-1,1.130728960E0,4.935791194E-1
2.737284944E1,2.907369435E-1,7.350279689E-1,5.427450538E-1
2.739284944E1,9.767211676E-1,1.823868975E-2,3.275110424E-1
2.741285100E1,2.113314390E0,-3.245265186E-1,2.990970612E-1
2.743285100E1,2.567745924E0,7.056366205E-1,2.273465842E-1
2.745285100E1,2.053327560E0,1.850275874E0,2.712416053E-1
2.747285100E1,1.783778906E0,2.166232824E0,6.302558184E-1
2.749485100E1,2.569578409E0,8.317540884E-1,6.683738232E-1
2.751485100E1,2.724825382E0,-4.122467637E-1,2.082526833E-1
2.753685100E1,2.189690113E0,-6.029065251E-1,2.323382348E-1
2.755685100E1,2.051512241E0,-8.016820550E-1,2.027723491E-1
2.757685725E1,2.067080736E0,-8.082968593E-1,4.166100919E-2
2.759885100E1,2.149809361E0,-3.455053866E-1,1.628741324E-1
2.761885100E1,2.002538443E0,7.383092046E-1,2.656565607E-1
2.763885100E1,1.587062836E0,1.699409604E0,2.236813903E-1
2.765886975E1,1.212078810E0,1.961104274E0,2.127381861E-1
2.768084944E1,1.173890948E0,1.697070837E0,3.681073785E-1
2.770085100E1,1.569260478E0,8.103738427E-1,4.619188309E-1
2.772085100E1,1.762992024E0,-9.264207631E-2,5.039114356E-1
2.774085100E1,1.864081502E0,-7.230724692E-1,5.187641978E-1
2.776285100E1,1.954611659E0,-6.504492760E-1,6.183701754E-1
2.778485100E1,5.673018098E-1,1.491226792E0,4.682194889E-1
2.780685100E1,-6.813765317E-2,1.641394854E0,-4.495968297E-2
2.782685725E1,1.653699428E-1,9.157742560E-2,-2.779785991E-1
2.784885100E1,1.167799830E-1,-1.293917298E0,-2.670877278E-1
2.787085100E1,-8.051727414E-1,-4.639608860E-1,-3.194999695E-1
2.789085100E1,-2.239519119E0,8.245284557E-1,-5.710892081E-1
2.791285100E1,-3.111764908E0,1.015921235E0,-7.696902156E-1
2.793485100E1,-3.559337139E0,8.886343837E-1,-7.325146794E-1
2.795685100E1,-3.329145670E0,4.828802347E-1,-1.105509043E0
2.797884944E1,-2.947651625E0,4.370304346E-1,-1.242465019E0
2.799885569E1,-2.578165531E0,5.067214370E-1,-8.286299706E-1
2.802085100E1,-2.200895071E0,8.206712604E-1,-5.241048932E-1
2.804085100E1,-2.728054285E0,4.019667804E-1,-3.970100582E-1
2.806085100E1,-3.485806465E0,-4.086164832E-1,-1.629788429E-1
2.808085100E1,-3.275843382E0,-3.875678182E-1,-2.183406800E-2
2.810085569E1,-2.593978167E0,3.179117143E-1,2.206096202E-1
2.812285100E1,-1.920699954E0,1.072347760E0,2.024232894E-1
2.814485100E1,-1.313744187E0,1.149997473E0,3.316125646E-2
2.816685100E1,-8.449138999E-1,5.475097895E-1,-2.399478704E-1
2.818685100E1,-6.609387398E-1,-2.164731920E-1,-3.255911767E-1
2.820685100E1,-5.262866020E-1,-1.130519509E0,-1.538158655E-1
2.822884944E1,-2.903878689E-1,-1.423909426E0,-1.293289009E-2
2.824885100E1,1.071457639E-1,-1.260145187E0,8.918632753E-3
2.826885100E1,7.849792838E-1,-1.596208334E0,7.801621687E-3
2.828885100E1,1.776832461E0,-2.357032299E0,-2.211332135E-2
2.830885100E1,2.827328682E0,-3.043731928E0,-3.740764260E-1
2.832885100E1,2.753850222E0,-2.332789660E0,-7.696029544E-1
2.834885100E1,-1.166002154E0,5.791351795E-1,-7.808428407E-1
2.836885100E1,-2.335459948E0,-1.619752765E0,-2.819928527E-1
2.838885100E1,-8.822813630E-1,-2.209569454E0,-2.081654221E-1
2.840885100E1,1.465727538E-1,9.365436435E-2,-4.709770977E-1
2.842885100E1,-4.542044699E-1,1.183821917E0,-5.322207212E-1
2.845084944E1,-7.373318076E-1,1.418149829E0,-3.260624111E-1
2.847084944E1,-2.137504667E-1,5.440889597E-1,4.329289198E-1
2.849085100E1,-6.624048352E-1,3.147003055E-1,5.645442009E-1
2.851085412E1,1.174955666E-1,-2.232450694E-1,2.655169368E-1
2.853085569E1,1.479742527E0,-1.761054635E0,1.933824830E-2
2.855284944E1,2.313189507E0,-5.752255917E-1,-5.150466785E-2
2.857284944E1,2.182848454E0,9.599310756E-1,-1.314756572E-1
2.859284944E1,1.844778061E0,1.952953577E0,2.114989907E-1
2.861285100E1,2.042558908E0,1.710701942E0,3.754726946E-1
2.863484944E1,2.759522676E0,9.815731645E-2,2.214299142E-1
2.865485100E1,2.530448198E0,-8.964011073E-1,5.010840297E-2
2.867685100E1,2.104657650E0,-1.238276243E0,1.142143458E-1
2.869885100E1,1.896212935E0,-1.290234685E0,3.162536770E-2
2.871885256E1,2.006186247E0,-1.043549776E0,2.988003753E-2
2.874085100E1,2.145934582E0,-3.485771716E-1,8.808676898E-2
2.876284944E1,1.917593241E0,8.023976684E-1,1.574985087E-1
2.878284944E1,1.605825067E0,1.609909177E0,2.008873969E-1
2.880285100E1,1.463092089E0,1.935657382E0,3.540574908E-1
2.882484944E1,1.449635506E0,1.665166259E0,5.365840197E-1
2.884484944E1,1.460124969E0,8.339008689E-1,5.897118449E-1
2.886485100E1,1.594654918E0,-1.936617345E-1,5.753128529E-1
2.888685100E1,1.862196445E0,-8.996124864E-1,5.121319890E-1
2.890685100E1,1.440734386E0,-2.720968239E-2,3.439171314E-1
2.892685100E1,2.259503305E-1,1.652268291E0,-4.956734832E-3
2.894884944E1,-3.371975943E-2,1.120047569E0,-3.330262601E-1
2.896884944E1,-3.490658419E-4,-3.740764260E-1,-3.711093664E-1
2.898885100E1,-4.959003925E-1,-8.675507903E-1,-2.741912305E-1
2.901085100E1,-2.301059484E0,3.242123723E-1,-2.872113883E-1
2.903085100E1,-3.529108047E0,1.306902528E0,-5.168443322E-1
2.905285100E1,-3.708301067E0,1.369699478E0,-8.443554044E-1
2.907485100E1,-3.242088795E0,3.711442649E-1,-1.231312275E0
2.909685100E1,-2.829370737E0,-1.130973324E-1,-1.371462226E0
2.911686350E1,-2.371954918E0,-1.289449185E-1,-1.129210591E0
2.913885100E1,-1.910891175E0,5.537929758E-2,-7.412238717E-1
2.915886975E1,-2.301269054E0,-4.884827435E-1,-5.298470259E-1
2.918084944E1,-3.029612303E0,-9.522342086E-1,-2.888345420E-1
2.920085100E1,-2.800956726E0,-6.520550251E-1,-6.698573381E-2
2.922284944E1,-2.140175104E0,1.149822921E-1,7.787659019E-2
2.924284944E1,-1.671362162E0,8.389623165E-1,2.951351739E-2
2.926285100E1,-1.309049249E0,1.038785100E0,-1.090132669E-1
2.928485100E1,-1.048436761E0,7.733204961E-1,-1.258207858E-1
2.930684944E1,-7.898662090E-1,9.341002256E-2,-4.677482322E-2
2.932685100E1,-5.130918622E-1,-5.219756365E-1,7.499679923E-2
2.934885100E1,-2.449918687E-1,-9.983457923E-1,1.627868563E-1
2.937085100E1,1.403244734E-1,-1.237665296E0,2.623404264E-1
2.939284944E1,7.560940981E-1,-1.859718084E0,3.496767282E-1
2.941284944E1,1.613434672E0,-2.904559374E0,2.244668007E-1
2.943284944E1,2.584919930E0,-3.506261826E0,-4.325449467E-1
2.945284944E1,2.268858194E0,-3.187878847E0,-7.871434689E-1
2.947285100E1,-1.424188614E0,-1.091336966E0,-5.632700920E-1
2.949484944E1,-2.248664856E0,-9.671393037E-1,-2.869495749E-1
2.951485100E1,-5.641252995E-1,-1.386838555E-1,-2.480811030E-1
2.953685100E1,5.294630527E-1,1.501855850E0,-4.298047721E-1
2.955685412E1,-8.937831223E-2,1.090376973E0,-5.389925838E-1
2.957685569E1,-1.070201039E0,4.248480499E-1,-2.838603556E-1
2.959885100E1,-2.283239663E-1,-1.851794273E-1,4.750088155E-1
2.961885100E1,2.843839526E-1,-8.285077661E-2,6.166073680E-1
2.963885256E1,5.124635696E-1,2.432988957E-2,2.255488932E-1
2.965886975E1,3.006678820E-1,2.738421559E-1,-3.430619240E-1
2.968085100E1,1.096206427E0,7.327764630E-1,-7.265805453E-2
2.970085100E1,2.039818764E0,1.855110526E-1,5.101946592E-1
2.972085100E1,2.049522638E0,1.666789502E-1,5.672319978E-2
2.974085100E1,1.802418947E0,1.020843089E-1,-9.093165398E-3
2.976284944E1,2.069977999E0,-8.307766914E-1,2.398082316E-1
2.978284944E1,1.957439065E0,-1.693527818E0,7.707373798E-2
2.980285100E1,1.647311568E0,-2.036624670E0,-6.677629799E-2
2.982484944E1,1.516411901E0,-1.682759166E0,-1.674294323E-1
2.984484944E1,1.554774165E0,-1.157607079E0,-9.220574051E-2
2.986485100E1,1.803239226E0,-4.355294704E-1,6.874851882E-2
2.988685256E1,1.871376872E0,9.573654532E-1,1.924225539E-1
2.990885100E1,1.570255280E0,2.180073261E0,2.275036722E-1
2.992885725E1,1.199460030E0,2.427962303E0,1.673945338E-1
2.995085100E1,1.065663099E0,1.959393859E0,2.467895597E-1
2.997285100E1,1.536622763E0,5.762727857E-1,3.312285841E-1
2.999484944E1,1.952430010E0,-8.818799853E-1,2.911209166E-1
3.001484944E1,1.909582138E0,-1.367866874E0,2.781531215E-1
3.003484944E1,2.017024755E0,-1.424991488E0,1.922480166E-1
3.005484944E1,1.958678246E0,-7.115358114E-1,2.236290425E-1
3.007485725E1,8.187688589E-1,1.340919018E0,2.158797681E-1
3.009686819E1,-6.363470107E-2,2.621659040E0,-6.553710997E-2
3.011885100E1,1.137431040E-1,1.644309640E0,-1.451590359E-1
3.013885100E1,-1.063952744E-1,3.891386092E-1,-5.885250121E-2
3.015886975E1,-6.650053263E-1,-2.924473584E-1,-6.888814270E-2
3.018084944E1,-1.742222548E0,-2.814866900E-1,-4.754625857E-1
3.020084944E1,-2.669201851E0,-2.851693332E-1,-8.282983303E-1
3.022084944E1,-3.355674744E0,-2.183581442E-1,-9.445896149E-1
3.024084944E1,-3.588920593E0,-5.235987902E-2,-1.110378504E0
3.026084944E1,-3.144280434E0,3.861890137E-1,-1.541928530E0
3.028084944E1,-2.582930088E0,1.183437943E0,-1.238328576E0
3.030085100E1,-2.032505751E0,1.880557299E0,-5.489060283E-1
3.032085725E1,-1.798317432E0,2.096838474E0,-4.291939139E-1
3.034285100E1,-2.689814091E0,7.020586729E-1,-4.967556000E-1
3.036485100E1,-2.778389692E0,-4.353025556E-1,-3.281219006E-1
3.038685100E1,-2.147400856E0,-5.279272199E-1,4.532619938E-2
3.040884944E1,-1.615057826E0,-1.723338068E-1,-1.281071641E-2
3.042885100E1,-1.438081503E0,1.693667471E-1,-2.846632004E-1
3.045084944E1,-1.296413064E0,3.495545387E-1,-3.633950055E-1
3.047084944E1,-9.792693257E-1,4.921828583E-2,-3.693116605E-1
3.049084944E1,-6.163630486E-1,-5.421865582E-1,-3.830299675E-1
3.051085100E1,-4.347964227E-1,-1.081685305E0,-2.871764600E-1
3.053085100E1,-3.292039931E-1,-1.313552260E0,-2.707005665E-2
3.055285100E1,3.134611249E-2,-1.432060122E0,1.952499896E-1
3.057485100E1,8.568868637E-1,-2.018246412E0,3.799930811E-1
3.059685100E1,1.848949432E0,-2.736571550E0,5.112418532E-1
3.061685100E1,2.216131926E0,-2.506956100E0,8.463101834E-2
3.063885100E1,1.158287764E0,1.218239777E-2,-8.074940443E-1
3.065886975E1,-1.716653466E0,5.318541527E-1,-6.052103639E-1
3.068084944E1,-1.289745927E0,-1.378775239E0,-1.601165086E-1
3.070085100E1,-4.150218368E-1,-4.342728257E-1,-4.645542800E-1
3.072284944E1,1.793325841E-1,-1.136314034E0,-7.055493593E-1
3.074285100E1,-4.655491114E-1,-9.288293123E-1,-4.242371917E-1
3.076285100E1,-1.049501419E0,2.395813465E-1,-6.463826895E-1
3.078485413E1,-5.827828646E-1,8.968898058E-1,-5.391147733E-1
3.080685100E1,-3.300417587E-2,8.936783671E-1,-2.628814876E-1
3.082685100E1,-1.872214675E-1,-2.453374386E0,-2.279400080E-2
3.084885100E1,1.983653903E0,-2.887053728E0,6.939429045E-1
3.087085100E1,2.433599949E0,1.707019210E0,7.095286846E-1
3.089284944E1,2.057760715E0,4.466803551E0,2.883633077E-1
3.091284944E1,2.463898659E0,4.327212334E0,7.859392166E-1
3.093284944E1,2.749486923E0,2.959676981E0,1.006967664E0
3.095284944E1,2.821551561E0,9.030682445E-1,6.391221285E-1
3.097285100E1,1.938223004E0,-3.644945621E-1,2.150769234E-1
3.099484944E1,1.649597883E0,-1.704418778E0,4.636816084E-1
3.101485100E1,1.678640246E0,-2.540937662E0,3.682470322E-1
3.103685100E1,1.610170960E0,-2.347781897E0,2.010793835E-1
3.105686350E1,1.523253560E0,-1.090376973E0,1.212829277E-1
3.107884944E1,1.440140963E0,3.878819644E-1,-9.773843922E-4
3.109885256E1,1.267650127E0,1.354672194E0,2.469640970E-2
3.112085100E1,1.135005116E0,1.757529140E0,1.735380888E-1
3.114085100E1,1.297599912E0,1.536675096E0,2.614328563E-1
3.116085100E1,1.736445546E0,6.124185920E-1,3.168296218E-1
3.118285100E1,1.909529805E0,-3.459242582E-1,4.287226796E-1
3.120285100E1,1.817690611E0,-6.659129262E-1,5.831843019E-1
3.122485100E1,1.441606998E0,-2.487617731E-1,6.410594583E-1
3.124685100E1,5.782275796E-1,1.011086702E0,2.794272006E-1
3.126885100E1,7.487462461E-2,1.324565291E0,-1.006880477E-1
3.128885100E1,-4.283038154E-2,7.175048590E-1,-1.673072577E-1
3.131085413E1,-4.370827973E-1,1.378810126E-2,-1.032362282E-1
3.133284944E1,-1.324879408E0,-7.166321576E-2,-4.692841172E-1
3.135284944E1,-2.247774601E0,-5.888740718E-2,-8.094837070E-1
3.137284944E1,-3.141889334E0,1.761037298E-2,-8.885820508E-1
3.139284944E1,-3.634875059E0,1.724559814E-1,-8.810247779E-1
3.141285100E1,-3.274324894E0,1.274264902E-1,-1.217820883E0
3.143485100E1,-2.751738548E0,5.081176758E-1,-1.126767159E0
3.145685100E1,-2.394591808E0,1.019115210E0,-6.777811646E-1
3.147685100E1,-2.047148943E0,1.483686924E0,-5.719444156E-1
3.149685256E1,-2.462467670E0,1.271821380E0,-5.228308439E-1
3.151884944E1,-3.167580605E0,9.138543904E-2,-4.240452051E-1
3.153884944E1,-2.808915377E0,-5.275432467E-1,-2.782229483E-1
3.155887131E1,-2.169740915E0,-3.255388141E-1,-4.035201296E-2
3.158084944E1,-1.670873523E0,9.728465229E-2,-7.511897385E-2
3.160084944E1,-1.252552986E0,4.057715833E-1,-2.204350829E-1
3.162084944E1,-7.608239055E-1,3.412642181E-1,-3.966784179E-1
3.164084944E1,-3.355046511E-1,5.071926862E-2,-5.789082646E-1
3.166085100E1,-1.101477295E-1,-4.623900652E-1,-4.580267668E-1
3.168285100E1,1.919862116E-3,-9.194568992E-1,-1.097986624E-1
3.170285100E1,1.765400469E-1,-9.222843051E-1,1.825963408E-1
3.172485100E1,6.072174907E-1,-1.085455179E0,4.132939577E-1
3.174685100E1,1.424502850E0,-1.887015104E0,6.029065251E-1
3.176885100E1,2.239868402E0,-2.829108953E0,3.571641743E-1
3.178885100E1,2.091445446E0,-2.325406790E0,-4.142364562E-1
3.181085100E1,-7.886095643E-1,3.449119627E-1,-6.615321636E-1
3.183284944E1,-1.948119044E0,-1.371357560E0,-2.415186614E-1
3.185284944E1,-7.083069682E-1,-1.384011149E0,-3.768514991E-1
3.187284944E1,3.335324228E-1,-1.910088360E-1,-5.667782426E-1
3.189284944E1,1.773952693E-1,-1.903630644E-1,-6.130992770E-1
3.191285100E1,-8.312479854E-1,4.190535471E-2,-5.438097119E-1
3.193484944E1,-5.081351399E-1,7.151137590E-1,-3.504097462E-1
3.195484944E1,-2.087762803E-1,1.301579237E0,1.111774705E-2
3.197484944E1,-3.903952539E-1,7.953814268E-1,5.227261037E-2
3.199484944E1,2.552020550E-1,-3.483170986E0,-4.511675984E-2
3.201484944E1,2.221140862E0,-2.850297213E0,5.476145148E-1
3.203484944E1,2.650264978E0,9.598962069E-1,6.141639352E-1
3.205484944E1,1.796519756E0,4.216610909E0,2.195275128E-1
3.207485100E1,1.920525432E0,4.843166351E0,8.099549413E-1
3.209485413E1,2.726535797E0,3.237585783E0,1.271053433E0
3.211685100E1,3.263626099E0,6.242693663E-1,7.427772284E-1
3.213685100E1,1.916336656E0,3.577401340E-1,1.546361744E-1
3.215887131E1,1.554564714E0,-1.020773292E0,3.676012456E-1
3.218085100E1,1.692812324E0,-2.399147034E0,4.114264548E-1
3.220085100E1,1.615686178E0,-2.342615843E0,3.070732355E-1
3.222284944E1,1.283497691E0,-1.117691398E0,1.899267286E-1
3.224284944E1,1.053358555E0,1.504473835E-1,1.094321460E-1
3.226285100E1,1.087182999E0,1.108580828E0,1.426457614E-1
3.228485412E1,1.238241315E0,1.606523156E0,2.393195480E-1
3.230685100E1,1.511228204E0,1.275870562E0,3.008249402E-1
3.232685256E1,1.813362122E0,4.466297626E-1,3.874281943E-1
3.234885100E1,1.891692519E0,-4.581140280E-1,4.761258066E-1
3.236885412E1,1.674084902E0,-7.857995629E-1,5.343499780E-1
3.239084944E1,1.070113778E0,-8.824384958E-2,5.888915658E-1
3.241085100E1,1.350186765E-1,1.187155485E0,2.624975145E-1
3.243284944E1,-2.288126647E-1,1.231015682E0,-1.570098251E-1
3.245285256E1,-1.635722518E-1,3.372325301E-1,-2.900038958E-1
3.247484944E1,-3.804468811E-1,-6.931226254E-1,-2.722015381E-1
3.249484944E1,-9.143605232E-1,-6.492973566E-1,-5.198986530E-1
3.251484944E1,-2.239239931E0,-1.579522900E-2,-7.602130771E-1
3.253485412E1,-3.307102203E0,4.159294069E-1,-7.479957342E-1
3.255684944E1,-3.570332766E0,5.000717640E-1,-8.780751228E-1
3.257685569E1,-3.064379215E0,3.915122449E-1,-1.141707182E0
3.259686506E1,-2.616894245E0,6.417750120E-1,-9.282882810E-1
3.261885100E1,-2.280255318E0,8.612501621E-1,-6.162408590E-1
3.263885100E1,-2.111307383E0,1.090167522E0,-5.522221923E-1
3.265886975E1,-2.565703869E0,8.129045367E-1,-4.308345318E-1
3.268084944E1,-3.105830908E0,-4.480260238E-2,-2.668608427E-1
3.270084944E1,-2.793032885E0,-4.644844830E-1,-1.628043056E-1
3.272085100E1,-2.177263260E0,-1.559102684E-1,-8.136724681E-2
3.274085100E1,-1.654467463E0,4.196993113E-1,-1.610938907E-1
3.276285100E1,-1.155931592E0,7.597592473E-1,-3.532546461E-1
3.278485100E1,-7.131415009E-1,6.584603786E-1,-5.265309215E-1
3.280685100E1,-4.660727084E-1,-3.316125600E-3,-5.753827095E-1
3.282685100E1,-3.874107301E-1,-8.607963920E-1,-3.708999157E-1
3.284685100E1,-3.183131516E-1,-1.467717171E0,-1.646892726E-1
3.286884944E1,-4.546582699E-2,-1.597290397E0,-4.230678082E-2
3.288885100E1,6.162931919E-1,-1.958608508E0,1.147728488E-1
3.291084944E1,1.523550272E0,-2.486396074E0,3.756995797E-1
3.293084944E1,2.036502600E0,-2.728822231E0,3.033731282E-1
3.295085100E1,1.874361396E0,-1.756132841E0,-3.239854574E-1
3.297285100E1,-4.014606476E-1,2.486570626E-1,-6.521073580E-1
3.299484944E1,-1.244315028E0,-1.292538524E0,-3.284535110E-1
3.301485100E1,-4.239404798E-1,-5.008222461E-1,-4.537681639E-1
3.303685100E1,1.448972374E-1,-2.228785492E-2,-6.864554286E-1
3.305685412E1,-2.193006128E-1,-3.746174574E-1,-5.335122347E-1
3.307884944E1,-5.892580748E-1,5.332679152E-1,-2.014109939E-1
3.309885100E1,-1.143016145E-1,9.200503230E-1,1.425235868E-1
3.312084944E1,1.136034802E-1,7.029488087E-1,8.737118542E-2
3.314084944E1,4.843463302E-1,4.298047721E-1,-7.105235010E-2
3.316084944E1,9.298416376E-1,2.854835093E-1,-4.410447180E-2
3.318084944E1,1.844760656E0,6.946410537E-1,4.191757143E-1
3.320085100E1,2.014092445E0,1.117953181E0,4.449542463E-1
3.322285100E1,1.339924216E0,1.576765299E0,4.263490140E-1
3.324484944E1,2.195013285E0,-1.074250117E-1,9.642769694E-1
3.326484944E1,2.308756351E0,-4.920781255E-1,3.667809367E-1
3.328485100E1,2.028648615E0,-4.168544412E-1,5.618214980E-2
3.330485100E1,1.992677331E0,-7.280291915E-1,2.293362617E-1
3.332685725E1,1.831147075E0,-9.303826690E-1,3.934670389E-1
3.334885100E1,1.806590319E0,-8.113686442E-1,2.840348780E-1
3.337085100E1,1.907156229E0,-1.412494928E-1,1.309171468E-1
3.339284944E1,1.639614701E0,6.771354079E-1,1.008102149E-1
3.341285100E1,1.369140983E0,1.094461083E0,1.602212191E-1
3.343485100E1,1.216372371E0,1.209862232E0,3.007027805E-1
3.345686350E1,1.595265865E0,7.412762642E-1,3.327993751E-1
3.347884944E1,2.118096590E0,3.698352724E-2,3.868871331E-1
3.349885100E1,1.945186853E0,1.014036313E-2,6.079679728E-1
3.352085100E1,1.570918441E0,3.422067165E-1,6.544984579E-1
3.354285100E1,1.006513953E0,1.223981977E0,4.538030624E-1
3.356484944E1,-5.925392732E-2,1.708310843E0,1.727875904E-3
3.358485100E1,-7.281513512E-2,6.699271798E-1,-1.755975783E-1
3.360685100E1,-5.092870817E-2,-4.828453362E-1,-8.346164227E-2
3.362685100E1,-7.530921102E-1,-4.990070760E-1,-1.828756034E-1
3.364685100E1,-1.704924822E0,-1.212654784E-1,-5.865702629E-1
3.366685100E1,-2.709309578E0,4.181808978E-2,-8.915491104E-1
3.368685100E1,-3.641786575E0,4.888318181E-1,-7.660424709E-1
3.370885100E1,-3.691755295E0,4.842416048E-1,-1.021017551E0
3.372885100E1,-2.960130692E0,4.283736050E-1,-1.356208086E0
3.374885100E1,-2.442675591E0,6.668379307E-1,-1.016409993E0
3.377084944E1,-2.051843882E0,9.777858257E-1,-4.489510357E-1
3.379084944E1,-2.144974709E0,1.060985684E0,-4.146727622E-1
3.381085100E1,-3.050451517E0,-1.306029856E-1,-4.659680128E-1
3.383285100E1,-2.888537407E0,-1.136122108E0,-2.509085238E-1
3.385485100E1,-2.307394981E0,-6.396456957E-1,-9.075712413E-3
3.387685100E1,-1.938135743E0,7.068932652E-1,-1.064999923E-1
3.389685725E1,-1.511699438E0,1.174292445E0,-3.384367824E-1
3.391885100E1,-1.038366199E0,8.541990519E-1,-5.704608560E-1
3.393885100E1,-7.947182059E-1,2.594082952E-1,-6.813591123E-1
3.395886975E1,-7.035422325E-1,-7.365289330E-1,-4.711167216E-1
3.398084944E1,-6.254562140E-1,-1.425794363E0,-6.901031733E-2
3.400084944E1,-3.376688361E-1,-1.423246145E0,2.038020939E-1
3.402085100E1,2.558129132E-1,-1.482395411E0,4.910483956E-1
3.404285100E1,1.209094286E0,-1.921991467E0,7.315722108E-1
3.406285100E1,2.157506227E0,-2.626615763E0,5.782625079E-1
3.408485100E1,2.460407972E0,-2.341673374E0,-1.685464382E-1
3.410685569E1,-5.371774435E-1,7.855377793E-1,-6.568720937E-1
3.412885100E1,-1.682270527E0,-8.644964695E-1,-2.755700350E-1
3.414885100E1,-6.318789721E-1,-1.190750837E0,-3.141592741E-1
3.417085100E1,-4.790928662E-1,4.124387503E-1,-5.897816420E-1
3.419285100E1,-2.114728212E0,1.268452883E0,-4.819552302E-1
3.421485100E1,-6.797882915E-1,1.185933828E0,-5.985257626E-1
3.423685256E1,1.283061385E0,-3.022037446E-1,1.923178285E-1
3.425887131E1,1.348685741E0,-7.438418865E-1,-4.286528751E-2
3.428084944E1,1.465326071E0,4.202927351E-1,-2.258456126E-2
3.430085881E1,1.766360521E0,2.143822908E0,7.119372487E-1
3.432285100E1,1.824811578E0,2.997445822E0,1.079660654E0
3.434285100E1,1.958329201E0,2.754077196E0,6.706427336E-1
3.436485100E1,2.346664906E0,9.167341590E-1,9.578017592E-1
3.438686662E1,2.420771599E0,-6.529625654E-1,7.229153514E-1
3.440884944E1,2.122529745E0,-1.248067498E0,4.724780917E-1
3.442885100E1,1.803815246E0,-1.320498705E0,5.743005872E-1
3.445085100E1,1.678221345E0,-1.437959313E0,6.771702766E-1
3.447285100E1,1.839908600E0,-1.548316479E0,5.722934604E-1
3.449484944E1,1.743322134E0,-6.669426560E-1,3.569721878E-1
3.451485100E1,1.550061822E0,4.539775848E-1,1.775697917E-1
3.453685256E1,1.347446561E0,1.142806649E0,1.804321408E-1
3.455887131E1,1.265136838E0,1.584671736E0,3.756297529E-1
3.458084944E1,1.703895092E0,1.418463945E0,4.725653529E-1
3.460085100E1,2.534951210E0,2.764601447E-2,4.461759627E-1
3.462085100E1,2.359353542E0,-9.330530167E-1,5.628512502E-1
3.464284944E1,2.034425497E0,-1.576922417E0,8.155748844E-1
3.466284944E1,1.070026398E0,-6.662096381E-1,8.047364354E-1
3.468284944E1,-5.083969831E-1,1.039954424E0,3.052406311E-1
3.470285100E1,-5.174726844E-1,7.931299806E-1,6.293657422E-2
3.472485100E1,-4.317421019E-1,-2.472782433E-1,6.010913849E-2
3.474685100E1,-8.282459974E-1,-1.121757984E0,-6.159266829E-2
3.476884944E1,-1.581442833E0,-1.473773479E0,-4.684463739E-1
3.478885100E1,-2.511476517E0,-1.418952703E0,-8.486837745E-1
3.481085100E1,-3.376007795E0,-8.961043954E-1,-1.022536039E0
3.483285100E1,-3.921388388E0,-1.929985136E-1,-1.066186786E0
3.485484944E1,-3.420059919E0,3.467096686E-1,-1.359332204E0
3.487485100E1,-2.853665590E0,1.071230769E0,-1.048140049E0
3.489685100E1,-2.269818068E0,1.615284801E0,-5.513495207E-1
3.491685100E1,-1.949288368E0,1.679774642E0,-5.949652791E-1
3.493686038E1,-2.617574930E0,-6.422811747E-2,-5.517858267E-1
3.495887131E1,-3.225734949E0,-1.510181069E0,-3.355220854E-1
3.498084944E1,-2.948855877E0,-1.176718473E0,-2.279400080E-2
3.500084944E1,-2.439499140E0,-5.856277943E-1,1.637467891E-1
3.502085100E1,-1.939287663E0,-4.389503002E-1,5.976007506E-2
3.504285100E1,-1.421343803E0,-4.174652994E-1,-1.358738840E-1
3.506285100E1,-9.100320935E-1,-3.928561509E-1,-3.558202684E-1
3.508484944E1,-3.495720029E-1,-5.675810575E-1,-4.944343269E-1
3.510485100E1,6.747443229E-2,-8.829795122E-1,-3.741287887E-1
3.512684944E1,4.453731179E-1,-1.100901365E0,-1.325926632E-1
3.514685256E1,7.815584540E-1,-1.291316748E0,1.159945801E-1
3.516685569E1,1.219548821E0,-1.719288945E0,1.644972861E-1
3.518884944E1,2.331463099E0,-3.016347885E0,-2.963394523E-1
3.520885100E1,2.949082851E0,-3.743312359E0,-6.849893928E-1
3.522885100E1,2.135235816E-1,-3.254288435E0,-5.791351795E-1
3.524885100E1,-3.647930145E0,-1.908028841E0,-2.134188563E-1
3.527084944E1,-1.840868592E0,-1.451206326E0,-1.485798806E-1
3.529084944E1,8.107054234E-2,8.578293324E-1,-3.387160599E-1
3.531085100E1,6.653892994E-1,2.220215797E0,-8.916014433E-1
3.533085100E1,-3.056595027E-1,2.840174139E-1,-1.107760429E0
3.535085100E1,1.291980028E0,7.951021791E-1,3.684215546E-1
3.537085100E1,1.126749635E0,9.293878078E-1,1.837081194E0
3.539085100E1,-7.602654099E-1,8.065864444E-1,5.013807416E-1
3.541285100E1,-6.947631836E-1,-1.378810150E-3,-1.727003306E-1
3.543285100E1,-1.046848446E-1,-6.233617663E-1,-2.891312540E-1
3.545484944E1,9.229475856E-1,-1.544354558E0,-3.237411082E-1
3.547485100E1,1.732570887E0,-2.426548719E0,-4.469439089E-1
3.549485100E1,2.294252634E0,-3.021182299E0,-5.137725472E-1
3.551485881E1,2.605113268E0,-3.075304985E0,-4.259301424E-1
3.553686350E1,2.726361275E0,-2.677928448E0,-5.326919556E-1
3.555686975E1,2.202989578E0,-2.693549156E0,-5.065643787E-1
3.557885100E1,1.472534299E0,-3.001268148E0,-3.312809467E-1
3.559885725E1,1.624395370E0,-1.699514389E0,-2.718175650E-1
3.562085100E1,1.888289213E0,-1.918989569E-1,-2.033483088E-1
3.564284944E1,1.783778906E0,7.229328156E-1,-9.923942387E-2
3.566285100E1,1.333152294E0,1.446965218E0,7.321656495E-2
3.568484944E1,9.966179132E-1,1.999152422E0,2.178345472E-1
3.570484944E1,9.238900542E-1,2.085703373E0,3.009645641E-1
3.572484944E1,1.235518575E0,1.181448221E0,4.109203219E-1
3.574484944E1,1.726776361E0,-4.588296115E-1,3.265860081E-1
3.576485256E1,1.549241543E0,-1.501785994E0,3.195872307E-1
3.578685100E1,1.122595787E0,-2.021597385E0,5.147324800E-1
3.580685569E1,4.952022731E-1,-1.846052170E0,4.418999255E-1
3.582885100E1,-5.141914487E-1,-4.737347066E-1,2.275909334E-1
3.584885100E1,-6.895097494E-1,1.838355362E-1,1.070584953E-1
3.586885100E1,-1.004786015E0,2.678731382E-1,9.981537610E-2
3.588885100E1,-1.727439642E0,1.367640048E-1,-6.932447851E-2
3.590885100E1,-2.678783655E0,-7.035422325E-2,-2.966535985E-1
3.592885100E1,-3.651647568E0,-4.419173598E-1,-5.270894244E-2
3.595085100E1,-3.986576319E0,-7.253413796E-1,-9.958848357E-2
3.597085569E1,-3.369812012E0,-2.797239125E-1,-7.296872735E-1
3.599284944E1,-2.514495850E0,2.674891651E-1,-8.578467965E-1
3.601285725E1,-2.090555429E0,4.123514891E-1,-5.282762647E-1
3.603484944E1,-1.943738222E0,4.423362315E-1,-6.003932357E-1
3.605484944E1,-1.997215152E0,5.322555900E-1,-7.442956567E-1
3.607485100E1,-2.927807331E0,5.507735610E-1,-1.052189231E0
3.609686506E1,-2.661958694E0,-5.073846579E-1,-8.918108940E-1
3.611884944E1,-1.528524399E0,-1.221939921E0,-8.268322945E-1
3.613885100E1,-9.010087848E-1,-8.921250701E-1,-1.042642236E0
3.615886975E1,-7.688873410E-1,-3.909188509E-1,-1.278488636E0
3.618084944E1,-7.166845202E-1,-8.376009464E-1,-1.268348217E0
3.620085100E1,-6.712885499E-1,-2.111778498E0,-1.009638071E0
3.622284944E1,-6.480931044E-1,-2.822005510E0,-6.689672470E-1
3.624285100E1,-5.471607447E-1,-2.468261957E0,-4.749040902E-1
3.626285100E1,-2.574535310E-1,-2.003987074E0,-3.199014068E-1
3.628485100E1,6.920579672E-1,-2.622741222E0,-1.424014121E-1
3.630685100E1,1.745678306E0,-2.820731401E0,2.634050846E-1
3.632685100E1,2.388413191E0,-2.758056641E0,6.355965734E-1
3.634686038E1,1.994632125E0,-2.021370411E0,1.848827302E-1
3.636885100E1,-5.923472643E-1,2.917841375E-1,-5.972167850E-1
3.638885100E1,-1.481627464E0,-1.247194767E0,-3.814068139E-1
3.640885100E1,-3.544414639E-1,-1.099557430E-1,-8.692612052E-1
3.642885100E1,7.106108069E-1,1.024455905E0,-1.602543831E0
3.644885100E1,9.160186052E-1,4.127005637E-1,-1.280530572E0
3.646885100E1,5.405110121E-1,1.129751563E0,3.338640332E-1
3.648885100E1,-7.841240764E-1,1.487928033E0,4.730889499E-1
3.650885100E1,-9.063494802E-1,1.390067458E0,-4.752357006E-1
3.652885256E1,-4.901408255E-1,7.346963286E-1,-1.068804741E0
3.655084944E1,9.513440728E-1,-2.809386730E0,-1.024996996E0
3.657084944E1,2.720601797E0,-3.463588476E0,1.737649739E-1
3.659085100E1,2.550397158E0,-9.881879687E-1,7.402639389E-1
3.661284944E1,1.650313497E0,5.416105986E-1,6.289643049E-1
3.663285100E1,1.364236593E0,6.216513515E-1,8.295375109E-1
3.665485100E1,2.398187160E0,-2.171503782E0,7.871958613E-1
3.667685100E1,1.969673872E0,-2.792893410E0,1.572367102E-1
3.669685100E1,1.466879368E0,-1.280583024E0,1.528210342E-1
3.671685100E1,1.670594215E0,-1.881115884E-1,-4.136430472E-2
3.673686350E1,2.094429970E0,7.244338393E-1,-1.822821796E-1
3.675886975E1,2.070291996E0,1.735311031E0,-1.530653704E-2
3.678085100E1,1.447750568E0,2.161956787E0,1.446005255E-1
3.680085100E1,9.763895273E-1,1.794128656E0,1.593311131E-1
3.682085100E1,1.091040254E0,7.585026622E-1,2.010095716E-1
3.684285100E1,1.951173425E0,-1.014315486E0,2.687283456E-1
3.686485100E1,1.748243928E0,-1.521089315E0,9.819222242E-2
3.688685100E1,1.224331021E0,-1.008119583E0,2.028945237E-1
3.690686819E1,1.011505604E0,-1.224348471E-1,2.543642819E-1
3.692885100E1,5.795540214E-1,1.076536536E0,3.102846444E-1
3.695085100E1,-3.851941600E-2,1.891011834E0,3.147701323E-1
3.697085100E1,-2.657961845E-1,1.297285795E0,4.078834504E-2
3.699284944E1,-1.550725102E-1,-1.296430528E-1,-8.925613761E-2
3.701284944E1,-9.225286841E-1,-7.177491784E-1,-1.804670393E-1
3.703284944E1,-2.181452036E0,-4.601036906E-1,-4.808905721E-1
3.705285100E1,-3.050189734E0,-3.670601845E-1,-7.883826494E-1
3.707485100E1,-3.767869234E0,-2.883633077E-1,-8.476191759E-1
3.709686038E1,-3.630790949E0,-3.297450542E-1,-1.175723553E0
3.711884944E1,-2.991878271E0,1.932603121E-1,-1.417155027E0
3.713885100E1,-2.491195679E0,9.534035325E-1,-1.059048295E0
3.715886975E1,-2.048405647E0,1.808894157E0,-7.237705588E-1
3.718084944E1,-1.912147760E0,2.074830055E0,-7.580662966E-1
3.720084944E1,-3.078429222E0,-5.474050641E-1,-7.040832639E-1
3.722084944E1,-2.978858232E0,-1.706338644E0,-4.061904848E-1
3.724085100E1,-2.306382895E0,-1.413315296E0,-3.827507049E-2
3.726285100E1,-1.879213452E0,-2.966012657E-1,-1.323134154E-1
3.728484944E1,-1.550585389E0,5.267229080E-1,-3.425208628E-1
3.730485100E1,-1.039395928E0,3.133040667E-1,-4.156850576E-1
3.732685100E1,-7.274706960E-1,-4.276056588E-1,-4.513944983E-1
3.734685100E1,-5.777214170E-1,-1.186125755E0,-2.685188949E-1
3.736884944E1,-3.578099608E-1,-1.555297852E0,-1.057844087E-1
3.738885100E1,2.946115844E-2,-1.577515841E0,-3.602359444E-2
3.740885100E1,7.567223907E-1,-1.948363423E0,1.333431602E-1
3.742885100E1,1.691381097E0,-2.517812014E0,3.027971685E-1
3.744885100E1,2.648956060E0,-2.855637789E0,2.191784531E-1
3.746885100E1,3.222383976E0,-2.149373055E0,-3.089756370E-1
3.748885100E1,8.062199354E-1,2.510307133E-1,-9.172577858E-1
3.750885100E1,-2.642201662E0,-3.636218905E-1,-7.041879892E-1
3.753085100E1,-1.326677084E0,-2.157558441E0,-1.224348471E-1
3.755285100E1,5.000717640E-1,2.072927505E-1,-4.750960767E-1
3.757285100E1,8.503243923E-1,6.501176953E-1,-4.772253633E-1
3.759484944E1,-3.181909621E-1,8.476191759E-1,-3.555759192E-1
3.761484944E1,-5.277352333E-1,9.583428502E-1,-4.201182127E-1
3.763484944E1,2.123018503E-1,3.921580315E-1,-2.460914198E-3
3.765489163E1,6.706776619E-1,2.298598550E-2,1.585806161E-1
3.767685413E1,1.132125258E0,3.057293296E-1,1.779886782E-1
3.769685569E1,1.692341089E0,6.198362112E-1,3.842865825E-1
3.771885100E1,1.887748122E0,7.991688251E-1,4.275707603E-1
3.774085100E1,1.054964304E0,9.567196965E-1,8.124507964E-2
3.776285100E1,2.017443419E0,-9.345365167E-1,5.341056585E-1
3.778484944E1,2.618622303E0,-1.702725768E0,1.388234943E-1
3.780485100E1,2.008175850E0,-9.585173726E-1,-3.728023171E-2
3.782685100E1,1.522782326E0,3.556980938E-2,1.118930578E-1
3.784885100E1,1.574269533E0,3.802548945E-1,5.162683874E-2
3.787084944E1,2.126090288E0,1.801877916E-1,8.683013171E-2
3.789085100E1,2.138569355E0,7.252890468E-1,2.070309520E-1
3.791285100E1,1.436074376E0,1.702481389E0,2.449395061E-1
3.793485100E1,9.435075521E-1,1.846453667E0,2.127381861E-1
3.795685100E1,1.167363524E0,1.034997702E0,3.302686512E-1
3.797685256E1,1.596801758E0,-8.927359432E-2,3.858050406E-1
3.799885100E1,1.619683027E0,-8.947954178E-1,3.407231867E-1
3.801885100E1,1.725764155E0,-1.297634840E0,2.489712238E-1
3.803885100E1,1.964926600E0,-1.201816320E0,2.195973247E-1
3.805887131E1,1.359105349E0,3.142290711E-1,4.478340447E-1
3.808084944E1,-7.972663641E-2,2.373560429E0,4.470835328E-1
3.810085100E1,-3.059038520E-1,1.830675840E0,4.899139330E-2
3.812285100E1,1.028173491E-1,8.236208558E-2,-2.760063708E-1
3.814485100E1,2.933200300E-1,-1.018294930E0,-2.267182618E-1
3.816686663E1,-7.108027935E-1,-1.003913358E-1,-4.760211110E-1
3.818885100E1,-2.453095198E0,1.157903790E0,-7.008020282E-1
3.820885100E1,-3.151191950E0,1.019167542E0,-8.928056955E-1
3.823085100E1,-3.423480749E0,6.370626092E-1,-9.161407948E-1
3.825284944E1,-3.138206720E0,5.745275021E-1,-1.330202699E0
3.827284944E1,-2.749434710E0,9.393361807E-1,-1.383400321E0
3.829284944E1,-2.372495890E0,1.087532163E0,-9.463873506E-1
3.831284944E1,-2.345722437E0,4.636292756E-1,-4.824264646E-1
3.833285100E1,-2.938890219E0,-5.475097895E-1,-3.153984547E-1
3.835484944E1,-3.095987082E0,-7.899185419E-1,-9.749408811E-2
3.837485100E1,-2.778389692E0,-3.980223238E-1,8.964011073E-2
3.839685100E1,-2.234370470E0,6.278647184E-1,1.989675313E-1
3.841686350E1,-1.719550729E0,1.208186746E0,9.039060026E-2
3.843885256E1,-1.188132882E0,1.057896376E0,-4.068362340E-2
3.845886975E1,-9.104859233E-1,3.817907870E-1,-2.555510998E-1
3.848085100E1,-7.904770970E-1,-5.520127416E-1,-3.269699812E-1
3.850085100E1,-7.059507966E-1,-1.300549507E0,-2.198067605E-1
3.852085100E1,-5.175599456E-1,-1.422233939E0,-1.864011586E-2
3.854285100E1,-5.267403647E-2,-1.346329570E0,8.077383786E-2
3.856285100E1,5.350131989E-1,-1.571773648E0,2.297900468E-1
3.858285100E1,1.405443788E0,-2.260672569E0,2.863038182E-1
3.860484944E1,2.562160730E0,-3.238650322E0,-9.477137774E-2
3.862484944E1,2.432587624E0,-2.472311258E0,-6.748315692E-1
3.864485100E1,-6.142337322E-1,2.184628546E-1,-6.975906491E-1
3.866485100E1,-1.741297483E0,-1.031070709E0,-3.691546023E-1
3.868685100E1,-5.689773560E-1,-6.785840392E-1,-4.913450778E-1
3.870685100E1,1.051386371E-1,2.754653096E-1,-8.501673341E-1
3.872685100E1,-3.246836066E-1,4.841194153E-1,-4.702789783E-1
3.874685100E1,-1.146611452E0,1.425026417E0,-1.596976258E-2
3.876685100E1,-6.117379069E-1,1.100656986E0,3.729070425E-1
3.878885100E1,9.707520902E-2,5.328315496E-1,8.254883885E-1
3.880885100E1,9.906314015E-1,3.259053230E-1,5.522570610E-1
3.883084944E1,2.440546274E0,7.384662628E-1,3.498163521E-1
3.885085100E1,3.226433039E0,2.035280704E0,3.003537059E-1
3.887284944E1,3.331274986E0,2.738334417E0,6.544809937E-1
3.889284944E1,2.256396532E0,3.275581598E0,8.185594082E-1
3.891284944E1,1.951033711E0,2.430562973E0,8.255232573E-1
3.893284944E1,2.641590834E0,-5.586275458E-1,7.370525599E-1
3.895284944E1,1.994213223E0,-1.519745469E0,6.104637980E-1
3.897285100E1,1.532084942E0,-1.954576731E0,6.252642274E-1
3.899484944E1,1.367238522E0,-2.187473536E0,2.476796806E-1
3.901485100E1,1.497143388E0,-1.539450169E0,1.864709705E-1
3.903685100E1,1.508156419E0,5.637413636E-2,1.788089871E-1
3.905887288E1,1.156577349E0,1.172512174E0,1.931381375E-1
3.908085100E1,9.613797069E-1,1.335875034E0,2.801951468E-1
3.910085100E1,1.535470843E0,7.977725267E-1,3.577750325E-1
3.912285100E1,1.996691585E0,-2.699675262E-1,3.808831871E-1
3.914485100E1,1.630189896E0,-9.068730474E-1,4.240801036E-1
3.916485100E1,1.543534279E0,-1.101756573E0,3.515616655E-1
3.918685100E1,1.361164808E0,-3.990869820E-1,3.093247116E-1
3.920885100E1,2.115688175E-1,1.416875720E0,3.823492825E-1
3.922885100E1,-1.839402467E-1,1.769554377E0,2.568775713E-1
3.924885100E1,-5.534439161E-2,6.691417694E-1,6.082472578E-2
3.927084944E1,-1.980948634E-2,-5.124810338E-1,-1.035503820E-1
3.929084944E1,-4.786914587E-1,-3.169692457E-1,-4.698775411E-1
3.931085100E1,-1.794093728E0,8.675507903E-1,-7.825532556E-1
3.933085100E1,-2.821604013E0,1.051857591E0,-8.701862693E-1
3.935284944E1,-3.273365021E0,6.147572994E-1,-9.456717372E-1
3.937284944E1,-3.159691811E0,2.154608965E-1,-1.184101224E0
3.939284944E1,-2.794935465E0,-6.796312332E-2,-1.464086890E0
3.941285100E1,-2.486518145E0,-1.803623289E-1,-1.306972384E0
3.943485100E1,-2.238943338E0,-3.537782282E-2,-7.845603824E-1
3.945686819E1,-2.625236988E0,8.035495877E-2,-3.943222463E-1
3.947885100E1,-3.129375219E0,-9.255480766E-2,-2.905449569E-1
3.949885725E1,-2.760465145E0,-1.393470913E-1,-2.672797143E-1
3.952085100E1,-2.018543005E0,5.589765906E-1,-1.433613449E-1
3.954085100E1,-1.559730887E0,1.222917318E0,-2.552369535E-1
3.956284944E1,-1.184345484E0,1.247840643E0,-4.534539878E-1
3.958284944E1,-9.551139474E-1,5.983337760E-1,-6.879738569E-1
3.960284944E1,-9.438042641E-1,-4.014082849E-1,-7.007846236E-1
3.962285100E1,-9.745045900E-1,-1.479620337E0,-4.806636870E-1
3.964485100E1,-8.498880863E-1,-2.000915289E0,-2.393195480E-1
3.966685100E1,-3.784920871E-1,-1.935866833E0,-1.494001895E-1
3.968685100E1,3.347716033E-1,-1.673718333E0,-1.727875881E-2
3.970685100E1,1.239532828E0,-1.688780546E0,3.093421459E-1
3.972685569E1,2.179951191E0,-1.989500761E0,6.055768728E-1
3.974885100E1,2.886809587E0,-2.270830393E0,4.282863438E-1
3.977084944E1,1.420872569E0,-4.409050643E-1,-5.527632236E-1
3.979084944E1,-2.119335890E0,-1.075820923E-1,-7.460758686E-1
3.981085100E1,-1.559556365E0,-1.858025193E0,-2.906671464E-1
3.983285100E1,-1.775348932E-1,-5.801823735E-1,-5.968851447E-1
3.985484944E1,3.605501056E-1,-1.526290476E-1,-6.964387298E-1
3.987484944E1,-1.077042669E-1,8.610232472E-1,-3.973242044E-1
3.989484944E1,3.171437681E-1,8.514937758E-1,-2.571568191E-1
3.991484944E1,-8.567123413E-1,1.637398124E0,1.750565171E-1
3.993485100E1,-1.126383185E0,1.461922646E0,4.777664244E-1
3.995684944E1,1.672199965E-1,-1.310567737E0,1.195026934E-1
3.997685100E1,2.399059772E0,-1.877939343E0,2.611012459E-1
3.999885100E1,2.925660610E0,-2.905624211E-1,2.288650274E-1
4.002085100E1,2.225312233E0,1.194869876E0,3.990520835E-1
4.004284944E1,1.419895172E0,2.200633287E0,5.356415510E-1
4.006285100E1,1.789678097E0,1.434800267E0,6.438694000E-1
4.008485100E1,2.608900785E0,-1.097393274E0,4.091226161E-1
4.010685100E1,2.088478327E0,-9.944885969E-1,4.195596874E-1
4.012685725E1,1.820884585E0,-8.404458165E-1,2.438573986E-1
4.014885100E1,1.808370590E0,-5.312258601E-1,2.244842499E-1
4.017085100E1,1.807637453E0,2.967583239E-1,3.662398756E-1
4.019285100E1,1.497998595E0,1.394849658E0,3.311936855E-1
4.021484944E1,1.107167006E0,1.811965942E0,2.513448596E-1
4.023485100E1,9.642071128E-1,1.389701009E0,3.086789250E-1
4.025686506E1,1.291124821E0,3.639883995E-1,4.161912203E-1
4.027885100E1,1.815683484E0,-1.012605071E0,4.206592441E-1
4.029885100E1,2.077465296E0,-1.651011705E0,3.765198886E-1
4.031885100E1,2.023604631E0,-1.311108828E0,3.644247353E-1
4.034084944E1,1.285243034E0,6.013531685E-1,4.128576219E-1
4.036084944E1,1.440943778E-1,2.189637661E0,1.875530779E-1
4.038085100E1,-6.510078162E-2,1.511577249E0,-1.091877967E-1
4.040085100E1,1.831548512E-1,-1.711644381E-1,-1.750565171E-1
4.042085100E1,-2.285683155E-1,-8.153828979E-1,-7.632324845E-2
4.044284944E1,-1.410383105E0,7.187265903E-2,-2.400351316E-1
4.046284944E1,-2.312037706E0,5.332679152E-1,-5.209807754E-1
4.048285100E1,-3.160023212E0,6.232047081E-1,-6.579716802E-1
4.050485100E1,-3.601259947E0,4.231550694E-1,-8.664512634E-1
4.052485100E1,-3.182433367E0,-5.260422453E-2,-1.251750112E0
4.054485100E1,-2.723743439E0,-9.402088821E-2,-1.306640744E0
4.056684944E1,-2.285508633E0,1.489114910E-1,-9.123708606E-1
4.058684944E1,-2.105024099E0,4.302062094E-1,-6.242344379E-1
4.060685100E1,-2.576804161E0,4.847652018E-1,-5.955761671E-1
4.062685100E1,-2.915223360E0,2.140297294E-1,-4.795641303E-1
4.064889319E1,-2.507688999E0,-1.539904028E-1,-2.831273079E-1
4.067085100E1,-1.867833853E0,5.918411538E-2,-1.840798706E-1
4.069285100E1,-1.403017879E0,5.483999252E-1,-3.028320670E-1
4.071484944E1,-1.019376993E0,6.683738232E-1,-4.481830895E-1
4.073485100E1,-7.627612352E-1,3.720692992E-1,-6.089802980E-1
4.075685256E1,-6.494020820E-1,-1.118581519E-1,-5.506164432E-1
4.077685256E1,-6.330483556E-1,-9.936159253E-1,-2.984164059E-1
4.079885256E1,-5.244714618E-1,-1.516307116E0,-4.550073296E-2
4.082085100E1,-2.210808545E-1,-1.495415568E0,5.934119597E-2
4.084085100E1,4.374144077E-1,-1.947263837E0,2.244668007E-1
4.086085100E1,1.403960347E0,-2.736414433E0,4.443084598E-1
4.088085100E1,2.058388948E0,-3.239226341E0,5.180311799E-1
4.090085100E1,1.540532351E0,-2.465033293E0,-9.487609565E-2
4.092285100E1,-1.206964970E0,1.181902051E0,-1.166682839E0
4.094485100E1,-1.196702480E0,-1.357848644E0,-1.832595766E-1
4.096685725E1,-1.129053459E-1,-6.613575816E-1,-8.482300490E-2
4.098885100E1,7.267551124E-2,-4.623726308E-1,-7.413635254E-1
4.100885100E1,-4.107283354E-1,-3.800105453E-1,-5.652946830E-1
4.103085569E1,1.733111963E-2,-1.727875881E-2,-2.822895646E-1
4.105085881E1,1.198395371E0,-5.017995834E-1,1.308298856E-1
4.107284944E1,-1.988872528E0,2.924316645E0,3.670951128E-1
4.109285412E1,-5.662022829E-1,4.176921844E-1,3.159045940E-3
4.111484944E1,2.140279770E0,-3.618503809E0,6.096434966E-2
4.113485100E1,2.842792273E0,-1.397938967E0,2.240479141E-1
4.115685100E1,2.334552288E0,2.545894384E0,3.934146762E-1
4.117685256E1,2.118672609E0,3.785287619E0,7.882605195E-1
4.119885100E1,2.131989479E0,3.304571390E0,6.757565737E-1
4.121885100E1,2.300850153E0,2.180509567E0,5.785940886E-1
4.124085100E1,2.975768805E0,-5.989620686E-1,5.741086006E-1
4.126085100E1,2.050849199E0,-8.853182793E-1,4.642052054E-1
4.128085100E1,1.688675880E0,-9.934414029E-1,3.903603256E-1
4.130085100E1,1.707123995E0,-1.261576295E0,6.213372201E-2
4.132085100E1,1.743444324E0,-8.170235157E-1,3.647738136E-3
4.134285100E1,1.468834162E0,2.055125237E-1,1.268854290E-1
4.136485100E1,1.072452426E0,9.882054329E-1,1.947089285E-1
4.138685412E1,9.461429715E-1,1.212689638E0,2.487792373E-1
4.140685725E1,1.224261165E0,1.049902797E0,3.226066530E-1
4.142885100E1,1.672723532E0,2.885727286E-1,3.763104379E-1
4.144885100E1,1.899092793E0,-5.297597647E-1,3.983539343E-1
4.146885100E1,1.978574991E0,-9.646958113E-1,3.657686412E-1
4.148885100E1,1.763829708E0,-5.908463001E-1,4.008148611E-1
4.150885100E1,4.159468710E-1,1.408847213E0,3.833266497E-1
4.153085100E1,-4.156326950E-1,2.018700123E0,1.188220158E-1
4.155285100E1,-2.927091718E-1,6.107779741E-1,-6.850416958E-2
4.157485100E1,-2.369458973E-1,-9.436995387E-1,-1.296256036E-1
4.159485100E1,-1.194695354E0,-7.096159458E-1,-2.769837379E-1
4.161685725E1,-2.638675928E0,1.730493903E-1,-5.959077477E-1
4.163885100E1,-3.474723577E0,2.057045102E-1,-8.237953782E-1
4.165886975E1,-3.556143284E0,6.761405617E-2,-1.035817981E0
4.168085100E1,-3.095097065E0,1.038645431E-1,-1.344322443E0
4.170285100E1,-2.710426569E0,5.496041775E-1,-1.180017114E0
4.172484944E1,-2.278928757E0,9.271712303E-1,-8.326267600E-1
4.174484944E1,-1.987964869E0,1.157642007E0,-7.764446139E-1
4.176484944E1,-2.526189566E0,1.423665136E-1,-6.031683087E-1
4.178484944E1,-2.889375210E0,-7.448366880E-1,-4.305552840E-1
4.180485100E1,-2.568932772E0,-5.400048494E-1,-2.294584364E-1
4.182685100E1,-1.957718372E0,4.101000130E-1,-5.080653355E-2
4.184885100E1,-1.414240241E0,1.080864906E0,-1.838180721E-1
4.187084944E1,-9.401390553E-1,9.214465618E-1,-3.702890575E-1
4.189085100E1,-6.232919693E-1,1.687733382E-1,-5.743355155E-1
4.191285100E1,-5.070530772E-1,-9.312378764E-1,-5.969898701E-1
4.193485100E1,-4.090528190E-1,-1.699235082E0,-3.627143204E-1
4.195685100E1,-2.369284481E-1,-1.709532499E0,-2.208190560E-1
