"Time (s)","Linear Acceleration x (m/s^2)","Linear Acceleration y (m/s^2)","Linear Acceleration z (m/s^2)"
2.400000000E-2,-1.209999993E-1,4.818999767E-1,-4.913999736E-1
5.400000000E-2,-2.134999931E-1,4.800999761E-1,-3.161999881E-1
8.400000000E-2,-7.859999686E-2,3.316999972E-1,-4.536999762E-1
1.040000000E-1,-5.599999800E-3,2.155999988E-1,9.189999849E-2
1.240000000E-1,-1.973000020E-1,8.769999444E-2,-6.430000067E-2
1.440062500E-1,-2.113999873E-1,-1.370000001E-2,-7.750000060E-2
1.740000000E-1,2.500000000E-1,-2.987000048E-1,-1.712999940E-1
2.040000000E-1,-3.249999881E-2,7.739999890E-2,-1.327999979E-1
2.339984380E-1,8.679999411E-2,3.629999980E-2,-1.702999920E-1
2.539984380E-1,1.668999940E-1,-7.809999585E-2,-7.939999551E-2
2.740000000E-1,1.379999965E-1,-1.344999969E-1,-1.260000020E-1
2.940031250E-1,1.999999862E-3,-8.909999579E-2,-1.179999951E-2
3.239984380E-1,2.265999913E-1,-1.650999933E-1,7.849999517E-2
3.440015630E-1,4.889999703E-2,-1.230999976E-1,-6.740000099E-2
3.740000000E-1,2.771999836E-1,-1.132999957E-1,-4.746999741E-1
3.940015630E-1,1.072999984E-1,-4.050000012E-2,-1.797999889E-1
4.240000000E-1,1.387999952E-1,3.999999724E-3,-3.188999891E-1
4.440031250E-1,-8.839999884E-2,7.539999485E-2,-1.739999950E-1
4.739984380E-1,1.673000008E-1,9.719999880E-2,-1.791999936E-1
4.940078130E-1,-4.600000009E-2,6.319999695E-2,-3.129000068E-1
5.239984380E-1,-1.148199916E0,7.725999951E-1,3.303000033E-1
5.440031250E-1,-1.496500015E0,1.180699944E0,2.451400042E0
5.739984380E-1,-8.736999631E-1,7.658999562E-1,-2.359999903E-2
5.939984380E-1,9.208999872E-1,-1.393000036E-1,-8.865999579E-1
6.140000000E-1,1.518700004E0,-4.905999899E-1,-1.483199954E0
6.340000000E-1,1.339399934E0,-6.261000037E-1,-1.557199955E0
6.640000000E-1,2.407999933E-1,-2.043000013E-1,6.929999590E-1
6.840015630E-1,4.786999822E-1,-9.104999900E-1,2.917000055E-1
7.140000000E-1,-3.649999797E-1,4.012999833E-1,-1.289799929E0
7.340062500E-1,-4.099999964E-1,6.122999787E-1,-8.731999993E-1
7.639984380E-1,-3.096999824E-1,3.495000005E-1,3.695999980E-1
7.840046880E-1,9.390999675E-1,-8.219999671E-1,8.592999578E-1
8.139984380E-1,1.374699950E0,-4.345999956E-1,-1.653399944E0
8.340125000E-1,3.411999941E-1,4.596000016E-1,-1.635899901E0
8.639984380E-1,1.796199918E0,-1.145900011E0,4.129999876E-2
8.840031250E-1,1.017899990E0,-2.009399891E0,2.069000006E-1
9.140000000E-1,2.919999957E-1,9.999999776E-3,-3.304399967E0
9.340031250E-1,5.740999579E-1,-8.090999722E-1,-4.614999771E0
9.639984380E-1,1.504099965E0,-5.634999871E-1,-3.641799927E0
9.840000000E-1,2.101799965E0,6.715999842E-1,-2.808799982E0
1.013998438E0,2.521600008E0,8.357999921E-1,-2.067499876E0
1.034003125E0,2.528300047E0,-1.084499955E0,-1.098699927E0
1.064000000E0,-1.539499998E0,-1.081699967E0,-1.312699914E0
1.084006250E0,-2.283400059E0,-1.876299977E0,-3.152400017E0
1.114000000E0,-4.499899864E0,-1.879599929E0,-2.360699892E0
1.134001563E0,-7.936699867E0,-3.195299864E0,-1.304700017E0
1.163998438E0,-7.160799980E0,-3.523899794E0,-2.309000015E0
1.184001563E0,-3.366299868E0,-2.924799919E0,-2.933899879E0
1.213998438E0,-2.307600021E0,-3.295399904E0,-4.781000018E-1
1.234003125E0,-1.516399980E0,-4.154699802E0,9.088999629E-1
1.263998438E0,4.062999725E0,-3.784600019E0,2.551999986E-1
1.284004688E0,6.532499790E0,-2.813099861E0,2.764799833E0
1.313998438E0,6.178699970E0,-2.617799997E0,4.369999841E-2
1.333998438E0,7.345999718E0,-3.240399837E0,2.097100019E0
1.354000000E0,7.426699638E0,-2.599400043E0,5.260399818E0
1.374000000E0,5.306399822E0,-3.518999815E-1,1.933599949E0
1.404000000E0,3.564800024E0,1.557599902E0,-1.589999914E0
1.424000000E0,-2.715699911E0,-6.597999930E-1,1.174399972E0
1.453998438E0,-3.710799932E0,8.730999827E-1,2.917500019E0
1.473998438E0,-3.748099804E0,1.485099912E0,3.858799934E0
1.494000000E0,-1.624499917E0,2.281199932E0,3.689299822E0
1.523998438E0,2.505999804E-1,2.010299921E0,3.978899956E0
1.543998438E0,1.248499990E0,1.967399955E0,3.862699986E0
1.564000000E0,2.618899822E0,2.179600000E0,2.357399940E0
1.584001563E0,3.929499865E0,1.883099914E0,1.277999997E0
1.613998438E0,4.838500023E0,1.546399951E0,1.070999950E-1
1.633998438E0,4.534199715E0,1.015100002E0,-9.200000204E-3
1.653998438E0,4.729300022E0,9.730999470E-1,-7.393999696E-1
1.673998438E0,4.921000004E0,1.136399984E0,-1.684199929E0
1.693998438E0,4.513199806E0,6.908999681E-1,-1.464499950E0
1.714000000E0,2.533399820E0,2.827000022E-1,-7.850999832E-1
1.743998438E0,1.208999977E-1,2.139999904E-2,-6.270999908E-1
1.763998438E0,-3.746999800E-1,2.483999878E-1,-9.185000062E-1
1.783998438E0,5.425999761E-1,8.989999443E-2,-2.874999940E-1
1.803998438E0,1.105799913E0,-3.603999913E-1,3.766999841E-1
1.823998438E0,1.190799952E0,-5.611999631E-1,7.080999613E-1
1.844000000E0,1.643099904E0,-4.430999756E-1,1.092999950E-1
1.873998438E0,2.583099842E0,-2.214999944E-1,4.925999939E-1
1.893998438E0,2.051399946E0,6.780000031E-2,6.590999961E-1
1.914000000E0,1.759199977E0,2.364999950E-1,-1.215000004E-1
1.943998438E0,2.848099947E0,5.133999586E-1,1.385900021E0
1.963998438E0,2.566999793E-1,1.835299969E0,-8.011999726E-1
1.984000000E0,-1.151000023E0,3.323999882E0,-2.634299994E0
2.013998438E0,3.272999823E-1,2.901799917E0,1.264999956E-1
2.033998438E0,-1.195999980E-1,2.450299978E0,4.708999991E-1
2.054000000E0,1.421199918E0,2.193799973E0,-1.877999902E-1
2.074000000E0,3.378399849E0,2.023200035E0,-3.079999983E-1
2.103998438E0,3.241499901E0,8.195999861E-1,6.870999932E-1
2.124000000E0,1.982199907E0,8.266999722E-1,2.983500004E0
2.154000000E0,-2.493000031E0,7.895999551E-1,4.165899754E0
2.184000000E0,-6.517099857E0,-1.831900001E0,5.447499752E0
2.213998438E0,-1.168419933E1,-2.806399822E0,2.766700029E0
2.233998438E0,-9.350500107E0,-2.397699833E0,-1.458599925E0
2.254000000E0,-5.154999733E0,-3.538299799E0,-2.519000053E0
2.274000000E0,-2.608299971E0,-1.121399999E0,-8.189399719E0
2.294003125E0,-1.262999922E-1,-1.034299970E0,-2.656499863E0
2.323998438E0,7.471799850E0,-3.281499863E0,1.736899972E0
2.344004688E0,8.942699432E0,-2.325399876E0,-7.062999606E-1
2.373998438E0,5.618499756E0,1.349299908E0,-7.079999894E-2
2.393998438E0,7.190999985E-1,4.286099911E0,3.684999943E-1
2.414000000E0,-2.825099945E0,2.887899876E0,-9.770999551E-1
2.434001563E0,-4.345799923E0,1.497099996E0,3.641999960E-1
2.463998438E0,-8.491899490E0,5.180999637E-1,-1.469399929E0
2.484000000E0,-6.448299885E0,1.252999902E-1,1.442999989E-1
2.513998438E0,-3.896399975E0,-1.918799996E0,1.399799943E0
2.533998438E0,-5.940999985E-1,-2.262399912E0,2.175199986E0
2.554000000E0,6.784999967E-1,1.413999945E-1,2.030200005E0
2.583998438E0,2.114300013E0,2.912099838E0,2.009000063E0
2.603998438E0,3.695999861E0,5.830599785E0,1.389500022E0
2.623998438E0,3.592700005E0,6.104399681E0,1.655099988E0
2.644000000E0,1.735000014E0,6.760999680E0,1.162199974E0
2.673998438E0,1.948199987E0,7.231000066E-1,2.408799887E0
2.693998438E0,-5.513400078E0,-1.364099979E1,1.503299952E0
2.714000000E0,-1.787899971E0,-2.298390007E1,1.656000018E-1
2.743998438E0,1.192700028E0,-1.030760002E1,-3.571999967E-1
2.763998438E0,-2.764999866E0,2.152499914E0,5.346999764E-1
2.783998438E0,-9.957000017E-1,5.853899956E0,3.650999963E-1
2.803998438E0,-6.284999847E-1,5.838599682E0,1.213099957E0
2.823998438E0,-7.375999689E-1,3.351500034E0,2.441799879E0
2.844000000E0,-1.690400004E0,1.097499967E0,-8.280000091E-2
2.873998438E0,-2.606999874E-1,-2.274799824E0,-8.420999527E0
2.893998438E0,7.189999819E-1,-1.152099967E0,-3.549799919E0
2.913998438E0,1.456099987E0,-6.416000128E-1,-3.224000037E-1
2.933998438E0,2.516799927E0,-6.667000055E-1,1.166899920E0
2.953998438E0,1.990599990E0,3.102000058E-1,7.129999995E-1
2.973998438E0,2.884799957E0,-4.036999941E-1,6.223999858E-1
2.994000000E0,3.043999910E0,-1.039499998E0,7.076999545E-1
3.023998438E0,3.560299873E0,-7.994999886E-1,1.236599922E0
3.043998438E0,4.417999744E0,-1.085199952E0,2.429999970E-2
3.064000000E0,5.289099693E0,-2.121299982E0,-4.989699841E0
3.093998438E0,4.514599800E0,-2.866299868E0,-3.707299948E0
3.114000000E0,4.338200092E0,-3.698799849E0,-2.759000063E-1
3.134000000E0,2.427799940E0,-3.886899948E0,-1.095199943E0
3.154000000E0,-2.086499929E0,-4.606599808E0,-5.240999699E0
3.174000000E0,-3.546199799E0,-3.808499813E0,-5.335299969E0
3.204000000E0,-1.225799918E0,-1.834699988E0,-2.901199818E0
3.233998438E0,1.801999956E-1,-2.835299969E0,1.795799971E0
3.253998438E0,1.828099966E0,-3.154099941E0,7.669000030E-1
3.274000000E0,2.871399879E0,-2.896100044E0,4.558999836E-1
3.303998438E0,6.367999911E-1,-2.856999934E-1,4.845200062E0
3.323998438E0,-1.061999947E-1,5.742999911E-1,5.553899765E0
3.344000000E0,-2.313099861E0,2.339999914E0,3.125999928E0
3.373998438E0,-1.852499962E0,2.390599966E0,1.358099937E0
3.393998438E0,-1.029600024E0,1.277099967E0,3.191999912E0
3.414000000E0,8.567999601E-1,3.996999860E-1,1.995899916E0
3.443998438E0,6.708999872E-1,8.060000092E-2,1.481299996E0
3.463998438E0,1.049999986E-2,1.198400021E0,3.487200022E0
3.484000000E0,5.819000006E-1,3.329599857E0,3.266999960E0
3.504000000E0,-2.302199841E0,4.648799896E0,2.648599863E0
3.533998438E0,-1.145499945E0,3.974900007E0,1.618999958E0
3.554000000E0,3.342999816E-1,3.587599993E0,9.999999776E-3
3.574000000E0,1.193899989E0,3.453199863E0,-1.391199946E0
3.604007813E0,4.016900063E0,1.909399986E0,-5.599799633E0
3.634000000E0,5.601299763E0,2.175000012E-1,-4.832999706E0
3.664006250E0,1.523599982E0,-6.182699680E0,-1.065119934E1
3.693998438E0,-1.563589954E1,-2.286179924E1,1.217389965E1
3.714000000E0,-1.084410000E1,-3.467499971E0,1.706959915E1
3.743998438E0,-4.875400066E0,8.791199684E0,9.736800194E0
3.763998438E0,-3.937599897E0,8.100099564E0,4.970399857E0
3.783998438E0,-5.636699677E0,4.918999672E0,2.708899975E0
3.804004688E0,-6.871599674E0,-3.908999920E0,-2.907199860E0
3.833998438E0,-4.805200100E0,-5.215699673E0,1.843400002E0
3.854001563E0,-1.532400012E0,-1.500599980E0,1.221759987E1
3.883998438E0,7.208699703E0,-4.016799927E0,-5.445399761E0
3.904006250E0,5.327199936E0,-1.124199986E0,-5.005499840E0
3.933998438E0,3.951799870E0,1.429199934E0,1.622499943E0
3.953998438E0,3.282899857E0,1.096899986E0,-1.793900013E0
3.974000000E0,1.625999928E0,2.004299879E0,-1.068199992E0
4.004000000E0,9.142999649E-1,3.666999817E0,3.610000014E-2
4.033998438E0,8.788999915E-1,2.343499899E0,1.609999873E-2
4.053998438E0,5.618000031E-1,2.913999856E-1,-3.939999938E-1
4.073998438E0,5.712000132E-1,-1.330199957E0,-7.737999558E-1
4.094003125E0,8.729999661E-1,-1.027099967E0,-1.364499927E0
4.123998438E0,1.016600013E0,-7.332999706E-1,-3.917500019E0
4.144004688E0,8.878999949E-1,-2.171399832E0,-7.753999710E0
4.173998438E0,3.633099794E0,-2.999899864E0,-3.520099878E0
4.194006250E0,3.629799843E0,-2.065899849E0,-1.221099973E0
4.223998438E0,1.943199992E0,-2.553099871E0,-4.512899876E0
4.244000000E0,8.682000041E-1,-2.828199863E0,-6.323899746E0
4.273998438E0,-1.379999965E-1,-2.349799871E0,-3.407199860E0
4.293998438E0,-5.324999690E-1,-2.887799978E0,-1.110899925E0
4.313998438E0,-1.823899984E0,-4.326099873E0,4.874999821E-1
4.333998438E0,-3.282500029E0,-6.157299995E0,1.833499908E0
4.353998438E0,-4.741600037E0,-6.629799843E0,2.201299906E0
4.373998438E0,-5.476199627E0,-4.356299877E0,2.446899891E0
4.393998438E0,-7.358099937E0,-1.206399918E0,6.297000051E-1
4.413998438E0,-7.576399803E0,3.330999911E-1,1.229999959E-2
4.433998438E0,-5.110699654E0,1.110100031E0,1.608199954E0
4.453998438E0,-3.844799995E0,1.676100016E0,2.221099854E0
4.473998438E0,-3.059999943E0,2.158200026E0,2.626799822E0
4.493998438E0,-2.374199867E0,2.318599939E0,3.660899878E0
4.513998438E0,-1.474699974E0,2.037699938E0,3.801999807E0
4.533998438E0,-1.056699991E0,1.780900002E0,5.181200027E0
4.554000000E0,-4.484999776E-1,1.292500019E0,5.940700054E0
4.583998438E0,2.547000051E-1,1.424799919E0,5.251299858E0
4.603998438E0,4.759999812E-1,2.370699883E0,5.222899914E0
4.623998438E0,7.838000059E-1,3.433599949E0,5.101200104E0
4.643998438E0,1.480199933E0,3.680099964E0,4.117099762E0
4.663998438E0,2.252699852E0,3.136499882E0,1.249599934E0
4.683998438E0,1.777699947E0,2.379099846E0,-2.230999947E0
4.703998438E0,1.354300022E0,2.129999995E-1,-7.767699718E0
4.723998438E0,3.684999943E-1,-3.033599854E0,-1.269569969E1
4.743998438E0,-1.065699935E0,-4.863599777E0,-1.011749935E1
4.763998438E0,-2.703199863E0,-2.158900023E0,-6.834300041E0
4.783998438E0,-3.899899960E0,5.444999933E-1,-4.789499760E0
4.803998438E0,-6.102599621E0,-1.060299993E0,-3.878099918E0
4.823998438E0,-7.977399826E0,-3.134399891E0,5.379699707E0
4.844000000E0,-6.369499683E0,-1.177399993E0,9.280200005E0
4.864000000E0,-3.052799940E0,3.916299820E0,4.940299988E0
4.884000000E0,-1.782999992E0,4.126999855E0,6.560400009E0
4.904000000E0,-1.349799991E0,-6.595999599E-1,5.683599949E0
4.924000000E0,-2.241699934E0,-4.478199959E0,4.989399910E0
4.953998438E0,-9.050999880E-1,-5.360099792E0,2.652299881E0
4.974000000E0,-1.052999943E-1,-3.354799986E0,3.218799829E0
4.994000000E0,2.983000040E0,-1.102800012E0,5.238599777E0
5.014000000E0,5.273900032E0,1.827999949E-1,1.087999940E-1
5.043998438E0,2.292999983E0,1.384499907E0,1.444299936E0
5.064000000E0,1.769599915E0,9.538999796E-1,1.628999949E0
5.093998438E0,5.947999954E-1,1.605499983E0,-1.410099983E0
5.113998438E0,9.799999744E-2,1.599699974E0,-2.043699980E0
5.134000000E0,-7.930000126E-2,1.696200013E0,-1.528299928E0
5.163998438E0,1.454999894E-1,2.009299994E0,1.943999976E-1
5.183998438E0,-8.630000055E-2,2.433099985E0,9.538999796E-1
5.204000000E0,-2.953000069E-1,1.867399931E0,1.528199911E0
5.233998438E0,-8.477999568E-1,-6.216999888E-1,9.448999763E-1
5.253998438E0,-1.181499958E0,-9.933999777E-1,-7.317000031E-1
5.274000000E0,-7.875999808E-1,-4.116999805E-1,-3.253899813E0
5.303998438E0,3.273099899E0,-3.578699827E0,-8.850799561E0
5.323998438E0,4.191199780E0,-4.071099758E0,-3.943499804E0
5.343998438E0,3.592299938E0,-2.488999844E0,-1.237900019E0
5.363998438E0,3.224299908E0,-1.513399959E0,-1.586399913E0
5.383998438E0,3.101300001E0,-3.184199810E0,-3.993599892E0
5.403998438E0,2.463299990E0,-4.860799789E0,-7.505699635E0
5.423998438E0,1.400599957E0,-4.009299755E0,-5.177299976E0
5.443998438E0,3.093999922E-1,-3.162599802E0,-2.587800026E0
5.463998438E0,-1.164199948E0,-2.497699976E0,-3.343099833E0
5.484000000E0,-2.680199862E0,-3.266599894E0,-1.774199963E0
5.504000000E0,-2.423099995E0,-3.833199978E0,1.599900007E0
5.533998438E0,-4.080699921E0,-3.871299982E0,2.463999987E0
5.553998438E0,-5.695600033E0,-3.154699802E0,2.520999908E0
5.573998438E0,-7.586699963E0,-2.353099823E0,-2.502999902E-1
5.593998438E0,-5.895099640E0,-1.036899924E0,1.474799991E0
5.613998438E0,-4.633899689E0,4.562999904E-1,2.664499998E0
5.633998438E0,-3.215199947E0,1.093899965E0,2.335999966E0
5.653998438E0,-2.288199902E0,1.910399914E0,3.033900023E0
5.673998438E0,-1.195099950E0,2.181200027E0,4.901799679E0
5.693998438E0,5.659999698E-2,1.588299990E0,5.642699718E0
5.713998438E0,5.062999725E-1,1.220399976E0,5.157799721E0
5.733998438E0,4.106999934E-1,1.326799989E0,5.610300064E0
5.754000000E0,2.048999965E-1,2.560099840E0,6.055399895E0
5.774000000E0,-2.811999917E-1,4.468499660E0,6.005599976E0
5.804000000E0,-3.630999923E-1,5.714799881E0,5.391099930E0
5.833998438E0,5.399999619E-1,5.201399803E0,4.344099998E0
5.853998438E0,9.413999915E-1,2.484299898E0,-1.673000008E-1
5.873998438E0,4.705999792E-1,-2.166800022E0,-1.303969955E1
5.893998438E0,1.674699903E0,-1.115460014E1,-2.510239983E1
5.914000000E0,1.935699940E0,-9.439999580E0,-6.091000080E0
5.943998438E0,-7.673000097E-1,1.547699928E0,-5.574299812E0
5.963998438E0,-6.047100067E0,-3.882599831E0,-8.849599838E0
5.984000000E0,-7.787600040E0,-7.847999573E0,2.920099974E0
6.013998438E0,-4.667500019E0,4.092599869E0,1.482989979E1
6.033998438E0,-1.659399986E0,7.299999714E0,9.246399879E0
6.053998438E0,-8.700000048E-1,5.819099903E0,5.548799992E0
6.073998438E0,-2.825599909E0,-1.516199946E0,5.214999676E0
6.093998438E0,-3.980399847E0,-9.653999329E0,4.171000004E0
6.113998438E0,-1.045300007E0,-8.739799500E0,1.280999929E-1
6.134000000E0,2.360199928E0,-4.138899803E0,1.474999905E0
6.163998438E0,1.788499951E0,1.572999954E-1,2.918699980E0
6.183998438E0,1.632399917E0,2.788499832E0,2.690099955E0
6.204000000E0,9.502999783E-1,3.730899811E0,6.926000118E-1
6.233998438E0,-4.208999872E-1,2.642299891E0,-3.102999926E-1
6.253998438E0,-3.962999880E-1,1.768499970E0,-8.647999763E-1
6.273998438E0,-2.383999974E-1,1.111099958E0,-6.194999814E-1
6.293998438E0,-9.910000116E-2,1.511799932E0,-8.129999787E-2
6.313998438E0,1.332999915E-1,2.004699945E0,4.592999816E-1
6.333998438E0,1.642999947E-1,2.470299959E0,6.498999596E-1
6.353998438E0,-1.953999996E-1,1.587199926E0,6.456999779E-1
6.373998438E0,-7.674999833E-1,-4.629999772E-2,-3.386999965E-1
6.393998438E0,-8.622999787E-1,-5.446000099E-1,-1.879899979E0
6.414000000E0,6.213999987E-1,-9.153999686E-1,-4.262199879E0
6.434000000E0,3.191299915E0,-3.043299913E0,-7.240999699E0
6.463998438E0,4.548500061E0,-3.907699823E0,-2.973199844E0
6.484000000E0,3.941699982E0,-2.225800037E0,-1.560199976E0
6.504000000E0,3.264199972E0,-2.544600010E0,-3.857699871E0
6.533998438E0,2.263200045E0,-4.989500046E0,-7.221299648E0
6.553998438E0,1.067899942E0,-3.881399870E0,-4.674200058E0
6.573998438E0,-3.252999783E-1,-3.102099895E0,-2.655200005E0
6.593998438E0,-1.758700013E0,-3.156699896E0,-2.244899988E0
6.614000000E0,-1.428300023E0,-4.567999840E0,2.036499977E0
6.634000000E0,-2.073999882E0,-5.084700108E0,2.787199974E0
6.663998438E0,-4.405200005E0,-3.324199915E0,2.934499979E0
6.683998438E0,-5.360899925E0,-2.270799875E0,-2.172999978E-1
6.704000000E0,-4.568200111E0,-1.555400014E0,-2.820000052E-1
6.733998438E0,-3.497399807E0,7.317000031E-1,2.817399979E0
6.753998438E0,-2.242799997E0,1.598599911E0,3.290599823E0
6.774000000E0,-8.582999706E-1,1.928900003E0,4.034800053E0
6.804000000E0,5.648999810E-1,2.123800039E0,6.332299709E0
6.824000000E0,1.032999992E0,1.751999974E0,5.614199638E0
6.844000000E0,-5.059999973E-2,1.866400003E0,5.443299770E0
6.873998438E0,-1.579100013E0,3.436199903E0,5.674599648E0
6.893998438E0,-1.754299998E0,4.130799770E0,5.634599686E0
6.914000000E0,-1.447199941E0,4.608399868E0,5.635999680E0
6.943998438E0,-6.782000065E-1,5.596600056E0,4.402999878E0
6.963998438E0,1.282999963E-1,4.369199753E0,1.932599902E0
6.984000000E0,8.309999853E-2,-3.289999962E-1,-4.208699703E0
7.004000000E0,7.505999804E-1,-5.157799721E0,-1.755229950E1
7.033998438E0,2.235399961E0,-1.022359943E1,-7.442599773E0
7.053998438E0,-3.495000005E-1,-3.045599937E0,-3.130399942E0
7.073998438E0,-1.036499977E0,1.118000031E0,-3.582700014E0
7.093998438E0,-3.099200010E0,-9.407999516E-1,-5.405099869E0
7.114000000E0,-3.576299906E0,-4.895999908E0,-1.592299938E0
7.134000000E0,-1.641699910E0,-2.908599854E0,1.103319931E1
7.163998438E0,-3.145799875E0,5.828899860E0,7.969199657E0
7.183998438E0,-1.873999953E0,6.728600025E0,2.380300045E0
7.204000000E0,-2.177199841E0,1.135299921E0,6.155399799E0
7.233998438E0,-2.577899933E0,-8.148399353E0,5.531499863E0
7.253998438E0,-9.555999637E-1,-6.276199818E0,2.895499945E0
7.273998438E0,5.605999827E-1,-2.334699869E0,-1.040000003E-2
7.293998438E0,1.535599947E0,2.906999886E-1,5.833299637E0
7.313998438E0,1.390599966E0,8.509999514E-1,8.089999855E-2
7.333998438E0,-3.772999942E-1,4.039999843E-1,-1.714999974E-1
7.353998438E0,-1.245999932E-1,-4.406999946E-1,2.266599894E0
7.373998438E0,-2.160999924E-1,1.128199935E0,1.753699899E0
7.393998438E0,-1.958999932E-1,2.568699837E0,4.964999855E-1
7.414010938E0,1.669999957E-2,2.474299908E0,-8.168999553E-1
7.443998438E0,3.999999911E-2,2.026399851E0,-1.298399925E0
7.463998438E0,3.260000050E-1,2.081500053E0,-8.929999918E-2
7.484000000E0,4.887999892E-1,2.206500053E0,7.755999565E-1
7.514003125E0,8.554999828E-1,1.199999928E0,8.078999519E-1
7.543998438E0,1.051200032E0,-1.214900017E0,-1.103999972E0
7.564000000E0,1.456200004E0,-1.945799947E0,-4.138299942E0
7.593998438E0,3.972199917E0,-3.863399982E0,-8.851200104E0
7.614000000E0,4.169099808E0,-3.896299839E0,-4.242000103E0
7.634000000E0,3.009099960E0,-2.647199869E0,-2.035099983E0
7.663998438E0,1.074299932E0,-2.963099957E0,-6.546400070E0
7.683998438E0,1.491500020E0,-4.156599998E0,-8.107199669E0
7.704000000E0,1.989399910E0,-3.744299889E0,-3.736500025E0
7.724000000E0,6.694999933E-1,-3.173799992E0,-1.633799911E0
7.753998438E0,7.799999788E-3,-4.661099911E0,2.566799879E0
7.774000000E0,-5.148000121E-1,-5.472899914E0,3.371899843E0
7.794000000E0,-2.081399918E0,-5.713900089E0,3.026099920E0
7.814000000E0,-3.282500029E0,-4.326200008E0,2.787999868E0
7.834000000E0,-3.806399822E0,-3.530599833E0,8.590000123E-2
7.854000000E0,-3.272499800E0,-2.690199852E0,-2.370999902E-1
7.874000000E0,-2.930199862E0,-4.950999916E-1,2.526199818E0
7.894000000E0,-2.615999937E0,1.396399975E0,3.487399817E0
7.914000000E0,-1.505800009E0,2.736500025E0,4.309099674E0
7.934000000E0,-4.183999896E-1,3.290899992E0,5.929199696E0
7.954000000E0,4.978999794E-1,3.304600000E0,6.334599972E0
7.984000000E0,2.752999961E-1,3.113099813E0,6.008800030E0
8.014000000E0,-1.040300012E0,3.554999828E0,6.216599941E0
8.034000000E0,-1.916999936E0,3.944899797E0,5.837100029E0
8.054000000E0,-2.529099941E0,4.081299782E0,5.347499847E0
8.074000000E0,-2.954200029E0,4.813899994E0,5.039999962E0
8.094000000E0,-2.629799843E0,5.621200085E0,3.675099850E0
8.114000000E0,-1.730499983E0,4.224699974E0,-5.409999937E-2
8.134000000E0,2.721000016E-1,-1.912299991E0,-6.225899696E0
8.154000000E0,2.426100016E0,-7.996099949E0,-1.827739906E1
8.174000000E0,2.106499910E0,-1.028429985E1,-1.424979973E1
8.194000000E0,1.704599977E0,-5.271100044E0,-5.637899876E0
8.214000000E0,2.650300026E0,-7.955999970E-1,-2.876199961E0
8.234000000E0,3.353499889E0,1.770499945E0,-1.859099984E0
8.254000000E0,8.331999779E-1,4.553999901E-1,-1.366199970E0
8.274000000E0,-2.076499939E0,-2.252099991E0,1.117869949E1
8.294000000E0,-5.858999729E0,-4.974199772E0,6.273299694E0
8.314000000E0,-8.886199951E0,-1.074000001E0,-5.628699780E0
8.334000000E0,-5.428899765E0,3.986999989E0,1.102680016E1
8.354000000E0,-4.277699947E0,3.885099888E0,1.173859978E1
8.374000000E0,-3.354599953E0,-2.805199862E0,4.788899899E0
8.394000000E0,-1.777300000E0,-4.954799652E0,2.972199917E0
8.414000000E0,1.402400017E0,-4.189199924E0,-3.703799963E0
8.434000000E0,-1.494999975E-1,-1.427699924E0,3.954599857E0
8.454000000E0,1.082599998E0,-8.154999614E-1,5.614199638E0
8.474000000E0,2.059399843E0,6.450999975E-1,1.015539932E1
8.494000000E0,9.213999510E-1,1.642099977E0,-7.335399628E0
8.514000000E0,9.853000045E-1,-8.083999753E-1,-6.283999681E-1
8.534000000E0,8.919999599E-1,4.961999953E-1,2.179899931E0
8.554000000E0,1.048000008E-1,2.550499916E0,4.029999971E-1
8.574000000E0,-1.846999973E-1,2.846199989E0,-1.337299943E0
8.594000000E0,-2.347999960E-1,3.061899900E0,-1.965699911E0
8.614000000E0,-8.679999411E-2,2.960500002E0,-9.465000033E-1
8.634000000E0,1.515000015E-1,2.587399960E0,3.497000039E-1
8.654000000E0,1.520999968E-1,1.687199950E0,1.156799912E0
8.674000000E0,1.263999939E-1,7.310000062E-2,1.430199981E0
8.694000000E0,6.434000134E-1,-1.115299940E0,2.117999941E-1
8.714000000E0,1.319999933E0,-1.759899974E0,-1.473299980E0
8.734000000E0,2.514499903E0,-3.528100014E0,-7.092299938E0
8.754000000E0,5.021899700E0,-5.050899982E0,-1.254899979E1
8.774000000E0,3.934499979E0,-3.788100004E0,-2.595999956E0
8.794000000E0,2.797299862E0,-2.174799919E0,5.356000066E-1
8.814000000E0,2.051800013E0,-2.893399954E0,-2.145099878E0
8.834000000E0,2.387899876E0,-4.386799812E0,-1.013739967E1
8.854000000E0,2.177199841E0,-3.456300020E0,-8.623899460E0
8.874000000E0,4.949999750E-1,-2.085399866E0,-3.775399923E0
8.894000000E0,-7.507999539E-1,-1.890799999E0,-1.751299977E0
8.914000000E0,1.308999956E-1,-4.506000042E0,2.655699968E0
8.934000000E0,-3.130000085E-2,-6.029900074E0,4.011199951E0
8.954000000E0,-1.540899992E0,-6.540099621E0,3.705999851E0
8.974000000E0,-2.355399847E0,-5.072199821E0,3.566399813E0
8.994000000E0,-2.644799948E0,-3.335199833E0,2.154500008E0
9.014000000E0,-4.532199860E0,-2.341500044E0,-1.829100013E0
9.034000000E0,-4.533099651E0,-9.243999720E-1,1.529899955E0
9.054000000E0,-4.409100056E0,7.163000107E-1,3.495199919E0
9.074000000E0,-2.867599964E0,1.932999969E0,3.566699982E0
9.094000000E0,-9.393000007E-1,2.959599972E0,3.965999842E0
9.114000000E0,6.399999838E-3,3.696199894E0,5.628499985E0
9.134000000E0,3.409000039E-1,3.604499817E0,7.927799702E0
9.163998438E0,-1.004899979E0,3.442199945E0,7.418799877E0
9.183998438E0,-1.309099913E0,3.369799852E0,6.653299809E0
9.204000000E0,-1.611699939E0,3.771699905E0,6.802700043E0
9.233998438E0,-1.725399971E0,6.128499985E0,5.451099873E0
9.253998438E0,-7.479000092E-1,6.355299950E0,4.152899742E0
9.274000000E0,4.089999944E-2,1.961699963E0,-2.651999950E0
9.303998438E0,2.896499872E0,-9.454699516E0,-2.821899986E1
9.323998438E0,2.746700048E0,-1.066809940E1,-1.031509972E1
9.344000000E0,-1.270999908E-1,-3.290699959E0,-3.461399794E0
9.373998438E0,-1.334999949E-1,9.260999560E-1,-4.125699997E0
9.393998438E0,-2.713299990E0,-3.343999863E0,-4.892699718E0
9.414000000E0,-4.047999859E0,-3.963499784E0,1.143429947E1
9.443998438E0,-6.070999622E0,1.588499904E0,4.851999760E0
9.463998438E0,-3.121899843E0,5.039099693E0,5.957099915E0
9.483998438E0,-2.148699999E0,2.666199923E0,8.554499626E0
9.503998438E0,-3.794099808E0,-3.699199915E0,7.141899586E0
9.523998438E0,-3.098099947E0,-6.888799667E0,6.254899979E0
9.543998438E0,-1.130299926E0,-6.377500057E0,5.672399998E0
9.564000000E0,6.230999827E-1,-3.366599798E0,4.727799892E0
9.593998438E0,3.244899988E0,2.163599968E0,-2.003599882E0
9.614000000E0,1.874399900E0,2.822700024E0,-2.022999972E-1
9.634000000E0,8.590999842E-1,-5.752999783E-1,5.599999800E-2
9.663998438E0,3.208000064E-1,7.041999698E-1,2.035999894E-1
9.683998438E0,-2.653999925E-1,2.868000031E0,-6.653999686E-1
9.704000000E0,9.899999946E-3,2.873999834E0,-3.883999884E-1
9.724000000E0,3.596999943E-1,3.103099823E0,-6.749999523E-2
9.753998438E0,5.864999890E-1,3.032299995E0,7.917999625E-1
9.774000000E0,1.381999999E-1,1.361599922E0,1.160699964E0
9.803998438E0,4.890999794E-1,-1.515699983E0,-1.589599967E0
9.823998438E0,1.735099912E0,-8.185999990E-1,-7.129499912E0
9.844000000E0,3.956499815E0,-2.266899824E0,-1.187300014E1
9.864000000E0,3.889599800E0,-3.527799845E0,-4.029500008E0
9.893998438E0,4.249799728E0,-3.322000027E0,2.307999879E-1
9.914000000E0,4.853199959E0,-2.409199953E0,-2.750099897E0
9.934000000E0,4.842099667E0,-4.175300121E0,-1.052849960E1
9.963998438E0,1.506799936E0,-3.510900021E0,-4.551799774E0
9.983998438E0,-4.569999874E-1,-3.095099926E0,-2.673300028E0
1.000399844E1,-1.799999969E-3,-5.178400040E0,2.474699974E0
1.002400000E1,-6.078999639E-1,-7.712399960E0,3.348299980E0
1.005399844E1,-2.826999903E0,-7.090299606E0,3.587899923E0
1.007400000E1,-2.802000046E0,-4.811399937E0,3.721400023E0
1.010400000E1,-5.345299721E0,-2.719599962E0,2.172999978E-1
1.013400000E1,-5.011899948E0,-2.000999898E-1,2.628499985E0
1.016399844E1,-3.437799931E0,2.203099966E0,3.309499979E0
1.018399844E1,-1.507499933E0,3.448299885E0,3.931999922E0
1.020400000E1,-4.193999767E-1,4.474100113E0,5.825299740E0
1.023399844E1,1.481000036E-1,4.281499863E0,8.411799431E0
1.025399844E1,-1.706999987E-1,3.752300024E0,7.285399914E0
1.027400000E1,-1.004099965E0,3.779999971E0,6.363299847E0
1.030399844E1,-1.624899983E0,4.465300083E0,6.433300018E0
1.032399844E1,-1.533699989E0,5.485699654E0,6.480000019E0
1.034400000E1,-1.263099909E0,4.870299816E0,6.671700001E0
1.037399844E1,-4.432999790E-1,-2.252699852E0,-8.523499489E0
1.039399844E1,1.166999936E-1,-8.444000244E0,-2.701809883E1
1.041400000E1,-1.191599965E0,-7.734699726E0,-1.189489937E1
1.044399844E1,8.294999599E-1,-4.678999782E-1,-3.915399790E0
1.046399844E1,2.887300014E0,1.547199965E0,-6.974999905E-1
1.048399844E1,2.904299974E0,3.146999776E-1,-2.634299994E0
1.050400000E1,9.843999743E-1,-5.674799919E0,1.315599918E0
1.053399844E1,-4.456099987E0,-6.003299713E0,3.379199982E0
1.055399844E1,-6.230799675E0,2.520599842E0,5.507400036E0
1.057399844E1,-5.017299652E0,5.761199951E0,4.453899860E0
1.059400781E1,-4.575399876E0,2.528800011E0,1.142219925E1
1.062399844E1,-3.707799911E0,-5.626999855E0,4.008999825E0
1.064400469E1,-1.710199952E0,-5.513700008E0,3.635699987E0
1.067399844E1,1.061800003E0,-2.737499952E0,1.311800003E0
1.069400469E1,1.179700017E0,-5.802999735E-1,3.734899998E0
1.072399844E1,2.974699974E0,1.376299977E0,-2.379999876E0
1.074400625E1,1.287099957E0,-5.498999953E-1,1.238899946E0
1.077400000E1,7.423999906E-1,1.397899985E0,1.735899925E0
1.079400625E1,3.930999935E-1,2.644999981E0,-1.960999966E-1
1.082399844E1,7.608000040E-1,2.542700052E0,-1.013000011E0
1.084400000E1,5.453000069E-1,2.615599871E0,-4.416999817E-1
1.086400000E1,6.201999784E-1,2.746199846E0,-1.150000002E-2
1.088400156E1,6.509999633E-1,2.042199850E0,4.204999804E-1
1.091399844E1,5.557000041E-1,-4.623000026E-1,-4.239999950E-1
1.093400000E1,1.019699931E0,-7.511000037E-1,-2.532399893E0
1.096399844E1,2.938999891E0,-3.490099907E0,-1.047609997E1
1.098400156E1,4.957699776E0,-4.611299992E0,-6.167199612E0
1.101399844E1,4.671199799E0,-2.773699999E0,2.122999877E-1
1.103399844E1,4.446799755E0,-1.940599918E0,-4.923199654E0
1.105399844E1,4.456900120E0,-3.581399918E0,-9.721199989E0
1.107399844E1,3.097399950E0,-3.632699966E0,-5.633399963E0
1.109399844E1,7.640999556E-1,-3.482999802E0,-2.521399975E0
1.111400000E1,2.439999878E-1,-5.088999748E0,2.653199911E0
1.113400000E1,-7.938999534E-1,-7.000299931E0,3.507999897E0
1.116399844E1,-3.266799927E0,-7.211499691E0,3.203199863E0
1.118399844E1,-4.155799866E0,-5.238399982E0,3.256899834E0
1.120399844E1,-6.536299706E0,-3.197999954E0,3.901999891E-1
1.122399844E1,-5.946699619E0,-2.187999964E0,8.215000033E-1
1.124399844E1,-4.753399849E0,-4.359000027E-1,3.018599987E0
1.126399844E1,-3.812899828E0,1.237900019E0,3.613299847E0
1.128400000E1,-2.158400059E0,2.448499918E0,3.402400017E0
1.131399844E1,6.699999794E-3,3.946099997E0,4.582399845E0
1.133399844E1,3.889999986E-1,4.128399849E0,6.081899643E0
1.135399844E1,5.570000038E-2,3.952199936E0,7.385699749E0
1.137399844E1,-5.424999595E-1,3.779599905E0,7.416199684E0
1.139399844E1,-1.121799946E0,3.908699989E0,6.729300022E0
1.141399844E1,-1.521799922E0,4.057399750E0,6.381399632E0
1.143399844E1,-1.768599987E0,4.680099964E0,6.162199974E0
1.145399844E1,-1.560199976E0,5.053699970E0,6.456199646E0
1.147399844E1,-1.268899918E0,3.737599850E0,3.254599810E0
1.149400000E1,1.254999936E-1,-2.295799971E0,-8.684700012E0
1.152399844E1,1.068499923E0,-8.801199913E0,-2.308939934E1
1.154399844E1,-6.128000021E-1,-5.981400013E0,-5.369699955E0
1.156399844E1,6.784999967E-1,-2.191900015E0,-4.988399982E0
1.158399844E1,1.912799954E0,1.393599987E0,-2.881599903E0
1.160399844E1,1.441599965E0,2.315799952E0,-1.823699951E0
1.162399844E1,-2.649999969E-2,-2.184099913E0,-3.104399920E0
1.164399844E1,-2.085099936E0,-4.429999828E0,1.006139946E1
1.166399844E1,-6.768899918E0,-4.330899715E0,3.465899944E0
1.168399844E1,-6.594199657E0,2.680399895E0,5.776299953E0
1.170400000E1,-4.398999691E0,5.349400043E0,5.304199696E0
1.173399844E1,-5.280999660E0,-2.184200048E0,5.786299706E0
1.175399844E1,-3.407599926E0,-6.779899597E0,3.138199806E0
1.177400000E1,-1.917999983E-1,-6.098399639E0,-5.996999741E-1
1.180399844E1,-2.030999959E-1,-1.673900008E0,5.825099945E0
1.182399844E1,1.764400005E0,-8.167999983E-1,6.409800053E0
1.184400000E1,3.065899849E0,9.680999517E-1,6.802399635E0
1.187399844E1,2.110800028E0,1.047399998E0,-2.414199829E0
1.189399844E1,1.856699944E0,6.999999881E-1,6.572999954E-1
1.191399844E1,1.411799908E0,2.026200056E0,-3.486000001E-1
1.193399844E1,8.801999688E-1,2.690999985E0,-8.331999779E-1
1.195399844E1,6.223999858E-1,3.163899899E0,-7.380999923E-1
1.197399844E1,6.171000004E-1,3.399399996E0,-5.878999829E-1
1.199399844E1,6.728999615E-1,3.309799910E0,9.849999845E-2
1.201399844E1,3.468999863E-1,1.078899980E0,-1.149999946E-1
1.203399844E1,2.649999857E-1,-1.909399986E0,-6.074000001E-1
1.205399844E1,2.954999804E-1,-2.772699833E0,-1.930899978E0
1.207399844E1,4.989999831E-1,-1.146199942E0,-6.383199692E0
1.209399844E1,2.505899906E0,-2.308599949E0,-8.014100075E0
1.211399844E1,4.130700111E0,-4.001899719E0,-2.310400009E0
1.213399844E1,4.835799694E0,-3.880800009E0,8.824999928E-1
1.215399844E1,4.287099838E0,-2.544699907E0,3.156999946E-1
1.217399844E1,4.319299698E0,-3.295499802E0,-5.133399963E0
1.219399844E1,3.499799967E0,-3.814799786E0,-1.169429970E1
1.221399844E1,2.235599995E0,-3.670199871E0,-6.097099781E0
1.223399844E1,8.775999546E-1,-3.238199949E0,-2.235800028E0
1.225399844E1,-8.974999785E-1,-3.437599897E0,-2.388099909E0
1.227399844E1,-7.712999582E-1,-5.499300003E0,1.854099989E0
1.229399844E1,-9.559999704E-1,-5.869199753E0,3.643199921E0
1.231399844E1,-2.511899948E0,-5.244699955E0,3.207599878E0
1.233399844E1,-3.208499908E0,-4.068500042E0,3.216300011E0
1.235399844E1,-3.477699995E0,-3.467499971E0,1.469200015E0
1.237399844E1,-4.269499779E0,-3.515100002E0,-1.614399910E0
1.239399844E1,-3.649399996E0,-1.243199944E0,2.500999928E0
1.241400000E1,-3.356499910E0,1.236299992E0,3.816399813E0
1.244399844E1,-9.451999664E-1,2.503099918E0,3.733899832E0
1.246399844E1,-2.099999972E-2,2.872999907E0,4.766299725E0
1.248399844E1,2.859999835E-1,3.146499872E0,5.580499649E0
1.250400000E1,-3.333999813E-1,3.268199921E0,6.531499863E0
1.253399844E1,-2.081199884E0,4.597700119E0,6.870800018E0
1.255399844E1,-2.323600054E0,4.794699669E0,5.809499741E0
1.257399844E1,-2.170799971E0,4.610799789E0,5.864500046E0
1.259399844E1,-2.100499868E0,5.103499889E0,5.768899918E0
1.261399844E1,-1.785099983E0,5.826499939E0,4.286399841E0
1.263400000E1,-1.032799959E0,5.175600052E0,8.046000004E-1
1.266399844E1,1.333499908E0,-3.688199997E0,-9.359999657E0
1.268399844E1,2.588099957E0,-1.219939995E1,-2.686310005E1
1.270404375E1,2.187799931E0,-9.839699745E0,-8.270599365E0
1.273399844E1,2.245499849E0,-3.418000042E-1,-5.560999870E0
1.275399844E1,-2.152400017E0,-5.052199841E0,-7.816999912E0
1.277399844E1,-4.434899807E0,-1.008619976E1,-1.994199991E0
1.279399844E1,-8.152899742E0,-3.091499805E0,1.939359856E1
1.281399844E1,-5.389899731E0,4.613699913E0,1.281169987E1
1.283399844E1,-1.583499908E0,7.491099834E0,8.302700043E0
1.285400000E1,-1.385900021E0,6.427399635E0,7.004999638E0
1.288399844E1,-6.500999928E0,-7.196599960E0,6.655499935E0
1.290399844E1,-5.563799858E0,-1.128439999E1,6.362899780E0
1.292400000E1,-2.952600002E0,-6.218499660E0,5.392999649E0
1.294400625E1,1.794299960E0,-1.222499967E0,-1.544899940E0
1.297399844E1,1.763299942E0,1.636399984E0,-1.089299917E0
1.299400000E1,9.461999536E-1,-6.944999695E-1,2.762399912E0
1.302399844E1,1.245000005E0,5.471000075E-1,8.679999709E-1
1.304399844E1,1.199599981E0,3.029099941E0,-2.044100046E0
1.306399844E1,1.337199926E0,2.932799816E0,-2.324300051E0
1.308399844E1,1.291100025E0,2.784199953E0,-8.939999938E-1
1.310399844E1,8.115999699E-1,3.178200006E0,-1.713999957E-1
1.312399844E1,4.545999765E-1,3.407199860E0,2.070000023E-2
1.314399844E1,9.380000085E-2,2.563999891E0,1.799999923E-2
1.316399844E1,-2.777999938E-1,1.044099927E0,-1.098199964E0
1.318400781E1,-2.480999976E-1,-2.514999807E-1,-3.255800009E0
1.321399844E1,3.223899841E0,-3.129599810E0,-7.499300003E0
1.323400625E1,5.361799717E0,-4.713200092E0,-5.875299931E0
1.326399844E1,4.373399734E0,-3.340499878E0,-3.535499811E0
1.328400156E1,2.266599894E0,-4.276199818E0,-6.457900047E0
1.331399844E1,2.255899906E0,-5.253900051E0,-4.731499672E0
1.333400312E1,1.394500017E0,-4.067699909E0,-2.835799932E0
1.336400000E1,-1.223899961E0,-4.321599960E0,-6.154999733E-1
1.338400156E1,-9.529999495E-1,-5.554499626E0,2.977599859E0
1.341399844E1,-3.350999832E0,-5.407199860E0,3.058499813E0
1.343399844E1,-4.053800106E0,-4.367499828E0,3.502899885E0
1.345399844E1,-5.189599991E0,-3.383499861E0,9.745000005E-1
1.347399844E1,-5.069099903E0,-2.720199823E0,6.888999939E-1
1.349400000E1,-4.164700031E0,-8.366000056E-1,2.458999872E0
1.352399844E1,-2.575399876E0,1.394699931E0,2.703699827E0
1.354399844E1,-9.095999599E-1,2.261499882E0,3.889799833E0
1.356400000E1,-3.543999791E-1,2.799099922E0,5.714299679E0
1.359399844E1,5.577999949E-1,2.624399900E0,6.799099922E0
1.361400000E1,-2.883999944E-1,2.735399961E0,6.921899796E0
1.363400000E1,-1.414799929E0,3.640599966E0,6.776000023E0
1.366399844E1,-1.452499986E0,5.100899696E0,6.664999962E0
1.368399844E1,-1.412699938E0,6.051599979E0,6.565399647E0
1.370400000E1,-1.011299968E0,6.552399635E0,7.571300030E0
1.373399844E1,-1.846999973E-1,2.676399946E0,7.778999805E-1
1.375399844E1,1.092999950E-1,-4.070799828E0,-1.709580040E1
1.377400000E1,1.949599981E0,-1.350739956E1,-2.725519943E1
1.380399844E1,-4.765999913E-1,-3.160499811E0,-4.604300022E0
1.382399844E1,8.630000055E-2,2.244199991E0,-5.103399754E0
1.384399844E1,-3.323899984E0,-1.313599944E0,-7.487399578E0
1.386400000E1,-5.005399704E0,-7.202299595E0,1.031199932E0
1.389399844E1,-5.576299667E0,6.549999714E-1,1.600619888E1
1.391399844E1,-2.644999981E0,5.382800102E0,8.760499954E0
1.393399844E1,-8.491999507E-1,5.274899960E0,5.532700062E0
1.395399844E1,-2.671399832E0,-1.051499963E0,4.968199730E0
1.397399844E1,-4.635900021E0,-8.222299576E0,4.982299805E0
1.399400000E1,-3.957000017E0,-9.039199829E0,5.583299637E0
1.402399844E1,3.108000040E0,-4.004199982E0,-1.630000025E-2
1.404399844E1,1.924099922E0,-1.049199939E0,1.762599945E0
1.406400000E1,1.403999925E0,1.360000014E0,2.377899885E0
1.409399844E1,3.904999793E-1,2.094300032E0,1.730999947E-1
1.411400000E1,2.444999963E-1,1.920399904E0,5.001999736E-1
1.414399844E1,4.641999900E-1,2.514499903E0,-1.566100001E0
1.416399844E1,8.059999943E-1,2.713799953E0,-1.804399967E0
1.418399844E1,7.167999744E-1,2.667199850E0,-6.692999601E-1
1.420400000E1,2.105000019E-1,3.096299887E0,1.658999920E-1
1.423399844E1,3.534999788E-1,2.682899952E0,7.322999835E-1
1.425399844E1,1.726000011E-1,5.144999623E-1,-1.923999935E-1
1.427400000E1,1.339999959E-2,-6.771999598E-1,-1.938199997E0
1.429400000E1,1.124499917E0,-7.475999594E-1,-4.250899792E0
1.432399844E1,4.230199814E0,-3.753499985E0,-5.147999763E0
1.434399844E1,4.732500076E0,-4.648900032E0,-2.992599964E0
1.436399844E1,3.615499973E0,-3.142999887E0,-2.868099928E0
1.438399844E1,2.081699848E0,-3.515799999E0,-5.807300091E0
1.440399844E1,1.969499946E0,-5.210299969E0,-7.540199757E0
1.442400000E1,2.843199968E0,-4.839799881E0,-4.260200024E0
1.445400000E1,8.810999990E-1,-3.212899923E0,-2.617399931E0
1.447400000E1,-1.347599983E0,-3.747799873E0,-3.233399868E0
1.449400000E1,-5.855999589E-1,-5.674399853E0,2.211199999E0
1.452400000E1,-2.242899895E0,-5.027100086E0,3.296199799E0
1.455400000E1,-3.038100004E0,-3.275199890E0,3.789199829E0
1.457400000E1,-3.404299974E0,-3.368399858E0,9.534999728E-1
1.460399844E1,-3.786499977E0,-2.104399920E0,1.711099982E0
1.462399844E1,-3.500199795E0,1.868999898E-1,3.121999979E0
1.464399844E1,-2.382099867E0,1.763899922E0,3.591899872E0
1.466399844E1,-8.637999892E-1,2.637199879E0,4.074800014E0
1.468399844E1,-2.965999842E-1,3.154299974E0,5.577099800E0
1.470400000E1,-9.339999408E-2,2.932999849E0,6.407799721E0
1.472400000E1,-1.223299980E0,3.192499876E0,6.931099892E0
1.475399844E1,-2.075500011E0,4.171400070E0,7.152999878E0
1.477400312E1,-1.938699961E0,4.433000088E0,6.229899883E0
1.480399844E1,-1.983599901E0,5.666899681E0,6.405299664E0
1.482399844E1,-1.546100020E0,6.092499733E0,6.109399796E0
1.484399844E1,-1.164799929E0,4.278399944E0,2.799000025E0
1.486399844E1,-1.044799924E0,-1.680599928E0,-8.143799782E0
1.488399844E1,2.187899828E0,-1.076859951E1,-3.222089767E1
1.490399844E1,2.031100035E0,-1.093959999E1,-9.717700005E0
1.492400000E1,7.831999660E-1,-2.730299950E0,-4.593400002E0
1.495399844E1,3.174999952E0,4.078499794E0,-4.410299778E0
1.497399844E1,1.399299979E0,9.631999731E-1,-3.717299938E0
1.499400000E1,-3.806799889E0,-3.262399912E0,1.653520012E1
1.502399844E1,-7.395199776E0,-7.142499924E0,-4.021800041E0
1.504399844E1,-4.177400112E0,1.403899908E0,7.384899616E0
1.506399844E1,-2.567499876E0,3.329200029E0,7.949399948E0
1.508399844E1,-4.286399841E0,-1.222700000E0,9.876899719E0
1.510399844E1,-4.073699951E0,-6.043099880E0,5.097499847E0
1.512399844E1,-2.519399881E0,-6.308300018E0,3.642799854E0
1.514400000E1,1.169999968E-2,-3.995799780E0,1.107999921E0
1.517399844E1,1.111299992E0,2.694999874E-1,4.008899689E0
1.519399844E1,2.409800053E0,3.065399885E0,1.519299984E0
1.521400000E1,3.633999825E-1,1.625499964E0,-2.806799889E0
1.524399844E1,5.027999878E-1,2.283999920E-1,5.006999969E-1
1.526399844E1,-1.752000004E-1,2.760900021E0,-1.350199938E0
1.528400000E1,-3.129999936E-1,3.334800005E0,-1.977899909E0
1.531399844E1,6.579999924E-1,3.123899937E0,-4.084999859E-1
1.533399844E1,8.394999504E-1,3.759799957E0,4.475999773E-1
1.535400000E1,7.093999982E-1,2.681799889E0,1.247499943E0
1.538399844E1,5.726999640E-1,-1.511500001E0,-6.746999621E-1
1.540399844E1,9.685999751E-1,-2.037499905E0,-3.227499962E0
1.542400000E1,2.245199919E0,-1.083099961E0,-1.000309944E1
1.545399844E1,3.820899963E0,-3.708400011E0,-2.424599886E0
1.547399844E1,3.948699951E0,-3.750000000E0,1.614199996E0
1.549399844E1,3.838499784E0,-3.256799936E0,5.928999782E-1
1.551399844E1,3.610299826E0,-4.275599957E0,-5.504999638E0
1.553399844E1,2.223999977E0,-4.285299778E0,-1.050430012E1
1.555399844E1,5.593000054E-1,-3.130299807E0,-5.317999840E0
1.557399844E1,-8.777999878E-1,-1.998799920E0,-3.240000010E0
1.559399844E1,-1.594299912E0,-3.142299891E0,-2.265199900E0
1.561399844E1,-3.510999978E-1,-5.493700027E0,2.891399860E0
1.563399844E1,-9.983999729E-1,-5.680599689E0,3.650799990E0
1.565399844E1,-2.241299868E0,-5.425499916E0,4.126399994E0
1.567399844E1,-2.490099907E0,-4.404399872E0,4.113899708E0
1.569399844E1,-2.641000032E0,-3.073799849E0,3.012399912E0
1.571399844E1,-3.447399855E0,-2.377399921E0,-1.289499998E0
1.573399844E1,-3.251799822E0,-3.542999923E-1,1.836899996E0
1.575399844E1,-2.895499945E0,1.645799994E0,3.947799921E0
1.577399844E1,-1.275200009E0,2.531100035E0,4.013299942E0
1.579399844E1,7.270000130E-2,3.001799822E0,4.817100048E0
1.581399844E1,4.862999916E-1,3.010599852E0,5.572499752E0
1.583399844E1,1.999999955E-2,2.986299992E0,6.164599895E0
1.585399844E1,-1.433099985E0,3.217799902E0,7.136399746E0
1.587399844E1,-2.246899843E0,3.618799925E0,7.375799656E0
1.589399844E1,-2.212100029E0,3.646299839E0,6.914899826E0
1.591399844E1,-2.243399858E0,4.096600056E0,6.531899929E0
1.593400000E1,-2.102900028E0,4.955699921E0,5.694699764E0
1.595400000E1,-1.499099970E0,5.082200050E0,3.834399939E0
1.598399844E1,3.739999980E-2,-8.445000052E-1,-4.924200058E0
1.600400000E1,2.077499866E0,-7.187699795E0,-2.270269966E1
1.603400000E1,1.968199968E0,-9.126500130E0,-5.707900047E0
1.606400000E1,-2.368999869E-1,6.621999741E-1,-4.549200058E0
1.609399844E1,-2.865599871E0,-2.710999966E0,-5.642499924E0
1.611400000E1,-2.518100023E0,-6.505300045E0,2.173199892E0
1.614399844E1,-5.165999889E0,1.870099902E0,1.300729942E1
1.616399844E1,-2.472699881E0,6.143399715E0,8.354700089E0
1.618399844E1,-6.117999554E-1,6.808099747E0,5.820999622E0
1.620399844E1,-1.771699905E0,1.639599919E0,5.764699936E0
1.622399844E1,-4.391299725E0,-7.936999798E0,5.988199711E0
1.624399844E1,-3.481799841E0,-1.046729946E1,6.004799843E0
1.626399844E1,-9.536999464E-1,-6.232999802E0,6.065799713E0
1.628399844E1,3.436399937E0,-1.160200000E0,-2.531599998E0
1.630399844E1,1.546599984E0,1.588999987E0,2.511999905E-1
1.632399844E1,1.772999913E-1,1.490099907E0,1.305799961E0
1.634399844E1,3.102999926E-1,1.036299944E0,1.605999947E0
1.636399844E1,3.452000022E-1,1.960500002E0,8.618999720E-1
1.638399844E1,-3.050999939E-1,3.338399887E0,-4.718999863E-1
1.640399844E1,-3.050000072E-1,3.026499987E0,-1.436999917E0
1.642399844E1,2.399999946E-1,2.080999851E0,-1.295599937E0
1.644400000E1,6.546999812E-1,1.934699893E0,-3.440999985E-1
1.646400000E1,8.008999825E-1,2.826999903E0,6.462999582E-1
1.648400000E1,8.296999931E-1,2.420199871E0,1.923099995E0
1.650400000E1,6.883999705E-1,-1.298999935E-1,8.136000037E-1
1.653400000E1,3.680000007E-1,-1.708499908E0,-2.494599819E0
1.656400000E1,2.477200031E0,-2.778599977E0,-1.282599926E1
1.659400000E1,3.725199938E0,-4.124599934E0,-1.158100009E0
1.661400000E1,3.819199800E0,-3.520699978E0,1.272499919E0
1.663400000E1,4.176199913E0,-3.937799931E0,-1.852999926E0
1.666399844E1,5.046700001E0,-4.407700062E0,-8.600899696E0
1.668399844E1,2.223599911E0,-3.271999836E0,-3.830499887E0
1.670400000E1,-7.878999710E-1,-2.370599985E0,-2.667699814E0
1.673399844E1,-1.231999993E0,-5.387000084E0,2.520699978E0
1.675399844E1,-1.988999963E0,-5.452899933E0,3.819899797E0
1.677399844E1,-3.545300007E0,-4.220699787E0,3.839499950E0
1.679399844E1,-3.495299816E0,-3.473199844E0,3.708400011E0
1.681399844E1,-3.458299875E0,-3.153399944E0,1.429999948E0
1.683399844E1,-3.779599905E0,-2.600399971E0,5.879999697E-2
1.685400000E1,-3.200099945E0,-6.319999695E-2,2.646899939E0
1.688399844E1,-1.631799936E0,1.921599984E0,3.716499805E0
1.690399844E1,-1.504999995E-1,2.539799929E0,4.157899857E0
1.692400000E1,2.275999933E-1,2.843799829E0,5.857199669E0
1.695399844E1,4.014999866E-1,2.267999887E0,7.441299915E0
1.697399844E1,-5.065999627E-1,2.070999861E0,7.282599926E0
1.699400000E1,-1.526600003E0,2.564999819E0,6.528800011E0
1.701400000E1,-2.077999830E0,3.762199879E0,6.635799885E0
1.704400000E1,-2.458400011E0,5.587500095E0,6.199999809E0
1.706400000E1,-2.133100033E0,6.152899742E0,5.026999950E0
1.708400000E1,-1.590099931E0,4.326900005E0,1.110100031E0
1.711400000E1,1.145499945E0,-5.496900082E0,-1.843459892E1
1.713400000E1,1.548499942E0,-1.158099937E1,-2.127750015E1
1.716399844E1,-4.569999874E-1,-4.092899799E0,-4.400499821E0
1.718399844E1,1.589900017E0,1.532199979E0,-3.929499865E0
1.720400000E1,7.324000001E-1,2.112299919E0,-4.942899704E0
1.723399844E1,-5.184000015E0,-3.066200018E0,1.594779968E1
1.725399844E1,-6.789700031E0,-4.878499985E0,6.587599754E0
1.727399844E1,-6.274299622E0,2.220399857E0,4.049699783E0
1.729399844E1,-2.794100046E0,3.483099937E0,7.447199821E0
1.731399844E1,-2.637599945E0,-1.324999928E-1,9.684599876E0
1.733399844E1,-3.383199930E0,-5.173599720E0,7.974099636E0
1.735399844E1,-2.449899912E0,-6.634399891E0,5.864699841E0
1.737399844E1,-9.589999914E-1,-5.069600105E0,4.222700119E0
1.739399844E1,2.792500019E0,-2.045500040E0,-4.159199715E0
1.741400000E1,1.916399956E0,1.962599993E0,5.980999947E0
1.743400469E1,1.795199990E0,2.058599949E0,-6.866999865E-1
1.746400000E1,6.402999759E-1,-1.324999928E-1,1.066200018E0
1.749400000E1,1.405999959E-1,2.828500032E0,1.313000023E-1
1.752400000E1,-2.547000051E-1,3.698400021E0,-1.828499913E0
1.754400000E1,1.246999949E-1,3.039299965E0,-1.508899927E0
1.756400000E1,7.238000035E-1,2.268599987E0,-3.929999843E-2
1.758400000E1,8.690999746E-1,1.897899985E0,1.120899916E0
1.761399844E1,8.339999914E-1,-4.653999805E-1,7.002999783E-1
1.763400000E1,1.169000030E0,-9.669999480E-1,-9.959999919E-1
1.765400000E1,1.602999926E0,-1.352399945E0,-3.420899868E0
1.767400000E1,2.147699833E0,-2.864899874E0,-7.159100056E0
1.769404219E1,3.367499828E0,-3.545499802E0,-7.261600018E0
1.772400000E1,3.813899994E0,-3.311599970E0,-1.202999949E-1
1.775399844E1,2.828599930E0,-3.711399794E0,-3.821899891E0
1.777399844E1,2.182299852E0,-4.548199654E0,-9.026299477E0
1.779400000E1,1.386199951E0,-3.477599859E0,-6.044300079E0
1.782400000E1,-8.011999726E-1,-2.021199942E0,-4.355299950E0
1.785400000E1,-5.989999771E-1,-4.073299885E0,2.316699982E0
1.787400156E1,-7.996999621E-1,-5.105400085E0,3.421499968E0
1.790399844E1,-1.890799999E0,-4.693200111E0,3.788299799E0
1.792400313E1,-2.430699825E0,-3.950099945E0,4.098799706E0
1.795399844E1,-4.146800041E0,-4.136799812E0,-8.750000000E-1
1.797399844E1,-3.748499870E0,-2.033599854E0,1.470499992E0
1.799400000E1,-2.880599976E0,6.859999895E-1,3.477499962E0
1.802399844E1,-4.296000004E-1,2.845000029E0,4.102399826E0
1.804400000E1,4.934999943E-1,3.490999937E0,6.351899624E0
1.806400000E1,1.260499954E0,3.155699968E0,7.447199821E0
1.809399844E1,-2.146999985E-1,3.037499905E0,7.026899815E0
1.811400000E1,-1.470899940E0,3.724699974E0,6.880300045E0
1.813400000E1,-1.883899927E0,4.185800076E0,6.544399738E0
1.816399844E1,-2.504899979E0,4.780999660E0,6.289499760E0
1.818399844E1,-1.355299950E0,4.343599796E0,3.477999926E0
1.820400000E1,5.799999926E-3,4.008100033E0,-2.659099817E0
1.823399844E1,5.647500038E0,-4.072700024E0,-6.924499989E0
1.825399844E1,1.919600010E0,-8.200799942E0,-1.314400005E1
1.827399844E1,-2.724299908E0,-8.084599495E0,-1.115719986E1
1.829400000E1,-1.700399995E0,-6.902999878E-1,-4.942800045E0
1.832399844E1,-5.310999751E-1,4.787699699E0,-5.795499802E0
1.834399844E1,-4.035099983E0,-9.424999952E-1,-1.315999925E-1
1.836400000E1,-7.222099781E0,-8.169799805E0,1.262889957E1
1.839399844E1,-5.560599804E0,-8.660999537E-1,7.185599804E0
1.841399844E1,-2.284100056E0,3.115299940E0,8.848400116E0
1.843400000E1,-5.710999966E-1,1.125499964E0,9.306499481E0
1.846399844E1,-2.952899933E0,-5.875899792E0,7.536699772E0
1.848399844E1,-3.016199827E0,-7.518199921E0,5.814799786E0
1.850400000E1,4.219000041E-1,-6.028599739E0,1.866400003E0
1.852400000E1,1.967000008E0,-1.735899925E0,-1.222000003E0
1.854400000E1,1.407899976E0,2.361500025E0,6.471999645E0
1.856400000E1,-3.432999849E-1,2.625999928E0,-2.349499941E0
1.859399844E1,6.161999702E-1,2.797999978E-1,5.335000157E-1
1.861400000E1,6.146000028E-1,2.065599918E0,-3.994999826E-1
1.863400000E1,6.387999654E-1,3.211499929E0,-1.795799971E0
1.866399844E1,1.013199925E0,3.360800028E0,-6.875999570E-1
1.868399844E1,1.057199955E0,3.822499990E0,3.810999990E-1
1.870400000E1,8.928999901E-1,3.973899841E0,1.218299985E0
1.873399844E1,4.074999988E-1,5.689999834E-2,-2.579999901E-2
1.875399844E1,4.319999814E-1,-2.306200027E0,-1.781599998E0
1.877399844E1,7.928000093E-1,-2.650699854E0,-5.306299686E0
1.879400000E1,2.352399826E0,-2.440199852E0,-7.355299950E0
1.882399844E1,4.367700100E0,-3.755999804E0,-1.708799958E0
1.884399844E1,4.536999702E0,-3.130899906E0,5.925999880E-1
1.886400000E1,4.274300098E0,-4.155299664E0,-2.503399849E0
1.889399844E1,4.076200008E0,-5.868999958E0,-7.971199989E0
1.891399844E1,1.879499912E0,-4.149300098E0,-4.660500050E0
1.893400000E1,-6.101999879E-1,-2.078199863E0,-5.464099884E0
1.896399844E1,-1.475199938E0,-3.574699879E0,-1.061000004E-1
1.898399844E1,-3.191999793E-1,-4.471199989E0,4.641299725E0
1.900399844E1,-2.019899845E0,-5.116899967E0,4.714099884E0
1.902399844E1,-3.059700012E0,-4.989299774E0,4.776499748E0
1.904399844E1,-2.959199905E0,-4.882699966E0,4.316999912E0
1.906400000E1,-3.059099913E0,-3.952600002E0,2.969799995E0
1.909399844E1,-4.247399807E0,-1.596300006E0,1.832000017E-1
1.911402188E1,-2.808699846E0,1.421499968E0,3.865399837E0
1.914400000E1,-3.692999780E-1,3.535099983E0,4.808799744E0
1.917399844E1,5.906999707E-1,3.276099920E0,5.944799900E0
1.919399844E1,-3.805999756E-1,3.082799911E0,6.884500027E0
1.921399844E1,-2.010499954E0,3.778999805E0,7.322199821E0
1.923400000E1,-2.805099964E0,4.738800049E0,7.269999981E0
1.926399844E1,-2.430500031E0,5.319099903E0,6.792500019E0
1.928399844E1,-1.954399943E0,5.964499950E0,6.631999969E0
1.930399844E1,-1.116899967E0,5.885900021E0,5.776700020E0
1.932399844E1,-8.419999480E-2,2.059700012E0,3.082000017E-1
1.934399844E1,1.543799996E0,-4.676599979E0,-1.449169922E1
1.936399844E1,1.661399961E0,-1.212419987E1,-2.790129852E1
1.938399844E1,-2.074300051E0,-9.291899681E0,-7.933599949E0
1.940399844E1,-2.871199846E0,-9.253999591E-1,-2.281800032E0
1.942400000E1,1.190299988E0,2.803400040E0,-2.985299826E0
1.945399844E1,2.512300014E0,-8.919000030E-1,5.043900013E0
1.947399844E1,-4.562399864E0,-3.093600035E0,1.414489937E1
1.949400000E1,-5.157000065E0,-6.231899738E0,-3.393399954E0
1.952399844E1,-3.712299824E0,2.850299835E0,1.086079979E1
1.954399844E1,-4.764400005E0,-1.224699974E0,7.607100010E0
1.956400000E1,-3.626899958E0,-6.282199860E0,5.717400074E0
1.959399844E1,-2.269500017E0,-5.956099987E0,5.237499714E0
1.961400000E1,-8.924999833E-1,-3.736599922E0,5.001899719E0
1.963400000E1,1.487299919E0,-1.094599962E0,1.377499938E0
1.966399844E1,1.191699982E0,2.551899910E0,7.754999995E-1
1.968399844E1,5.475999713E-1,1.943999976E-1,9.219999611E-2
1.970399844E1,8.260999918E-1,-3.339999914E-1,1.724499941E0
1.972399844E1,6.886999607E-1,2.337399960E0,1.105999947E-1
1.974399844E1,6.724999547E-1,3.532099962E0,-2.059700012E0
1.976399844E1,1.102200031E0,3.335699797E0,-1.971599936E0
1.978399844E1,1.361999989E0,3.123600006E0,-8.309999704E-1
1.980399844E1,1.526999950E0,3.293699980E0,3.862999976E-1
1.982399844E1,1.555499911E0,2.322499990E0,9.185000062E-1
1.984399844E1,1.376599908E0,-6.168999672E-1,5.740999579E-1
1.986399844E1,1.419099927E0,-1.858299971E0,-1.471300006E0
1.988399844E1,1.518199921E0,-1.201499939E0,-5.414299965E0
1.990399844E1,1.629899979E0,-2.411200047E0,-8.303099632E0
1.992399844E1,2.960000038E0,-3.454099894E0,-3.392400026E0
1.994399844E1,3.365599871E0,-3.219300032E0,3.989000022E-1
1.996399844E1,2.832199812E0,-3.329999924E0,-6.961999536E-1
1.998399844E1,2.497900009E0,-5.044899940E0,-5.386499882E0
2.000399844E1,2.329699993E0,-5.294199944E0,-8.116299629E0
2.002399844E1,1.536499977E0,-4.064199924E0,-5.827600002E0
2.004399844E1,2.018999904E-1,-2.817699909E0,-4.004399776E0
2.006399844E1,-4.169999808E-2,-3.043599844E0,5.137999654E-1
2.008399844E1,1.447999924E-1,-4.200999737E0,3.483799934E0
2.010399844E1,-6.681999564E-1,-5.517999649E0,3.990000010E0
2.012400000E1,-2.012500048E0,-5.468299866E0,4.011300087E0
2.014400000E1,-2.357899904E0,-4.266200066E0,3.763899803E0
2.017399844E1,-3.814299822E0,-2.922499895E0,-1.040599942E0
2.019399844E1,-3.392999887E0,-1.211199999E0,9.188999534E-1
2.021400000E1,-2.600600004E0,7.400000095E-1,3.493700027E0
2.024399844E1,-3.939999938E-1,2.808099985E0,4.246699810E0
2.026400000E1,5.798999667E-1,3.648999929E0,5.545300007E0
2.028400000E1,1.066299915E0,3.531899929E0,6.873699665E0
2.031399844E1,6.999999750E-4,2.660799980E0,7.634299755E0
2.033399844E1,-1.429899931E0,3.132400036E0,7.054299831E0
2.035400000E1,-2.029700041E0,3.468400002E0,6.759999752E0
2.038399844E1,-2.658599854E0,4.055900097E0,6.319499969E0
2.040399844E1,-3.114899874E0,4.977799892E0,6.698299885E0
2.042400000E1,-2.306099892E0,5.112199783E0,4.069600105E0
2.045400000E1,-3.028999865E-1,-1.357599974E0,-4.929100037E0
2.048399844E1,-7.453999519E-1,-1.038840008E1,-2.200009918E1
2.050400000E1,8.194999695E-1,-8.019000053E0,-8.905799866E0
2.053399844E1,3.434099913E0,-1.877699971E0,-3.756399870E0
2.055399844E1,5.320600033E0,9.614999890E-1,2.644000053E-1
2.057400000E1,2.537699938E0,1.148199916E0,-5.519999936E-2
2.060399844E1,-4.834700108E0,-4.903999805E0,1.048129940E1
2.062399844E1,-7.036299706E0,-8.729299545E0,-5.294699669E0
2.064400000E1,-5.109399796E0,6.348999739E-1,1.009140015E1
2.067399844E1,-4.593100071E0,6.762599945E0,1.293269920E1
2.069399844E1,-5.454599857E0,9.125999808E-1,4.080199718E0
2.071399844E1,-3.659600019E0,-3.976399899E0,1.494899988E0
2.073399844E1,-1.234099984E0,-5.836599827E0,4.170999825E-1
2.075399844E1,-6.538000107E-1,-2.966099977E0,4.581199646E0
2.077399844E1,8.675999641E-1,-1.500899911E0,6.298899651E0
2.079399844E1,3.343400002E0,8.419999480E-2,5.134399891E0
2.081399844E1,3.568699837E0,-7.369999588E-2,-4.789499760E0
2.083399844E1,1.810400009E0,-9.875999689E-1,1.569499969E0
2.085399844E1,1.635299921E0,8.007999659E-1,1.238600016E0
2.087399844E1,6.455000043E-1,2.952399969E0,-1.554600000E0
2.089399844E1,6.460999846E-1,3.425400019E0,-2.293200016E0
2.091399844E1,8.598999977E-1,3.561899900E0,-1.755800009E0
2.093399844E1,1.467499971E0,2.657299995E0,7.519999892E-2
2.095399844E1,1.474900007E0,2.538300037E0,1.201499939E0
2.097399844E1,1.398199916E0,1.476300001E0,2.147199869E0
2.099399844E1,1.314899921E0,-1.426299930E0,1.775699973E0
2.101399844E1,9.882999659E-1,-2.914799929E0,-8.743000031E-1
2.103399844E1,4.789999872E-2,-1.457000017E0,-5.526099682E0
2.105399844E1,9.053999782E-1,-1.647199988E0,-9.639699936E0
2.107399844E1,3.320999861E0,-3.500199795E0,-3.891099930E0
2.109399844E1,3.990899801E0,-3.300899982E0,5.087999701E-1
2.111400000E1,3.331599951E0,-2.928900003E0,1.175300002E0
2.113400000E1,2.861099958E0,-4.918699741E0,-3.813799858E0
2.115400000E1,2.403599977E0,-4.588299751E0,-1.149559975E1
2.118399844E1,1.308099985E0,-3.257499933E0,-3.097100019E0
2.120399844E1,1.122999936E-1,-2.091300011E0,-2.175899982E0
2.122399844E1,-3.125000000E-1,-2.915299892E0,7.779999822E-2
2.124399844E1,1.229999959E-2,-4.173399925E0,3.132499933E0
2.126399844E1,-7.313999534E-1,-4.076299667E0,3.770699978E0
2.128399844E1,-1.809099913E0,-3.816299915E0,3.868799925E0
2.130399844E1,-1.862499952E0,-3.411399841E0,3.534399986E0
2.132400000E1,-2.276499987E0,-3.695400000E0,-1.434099913E0
2.135400000E1,-2.968199968E0,-1.191499949E0,2.631899834E0
2.138399844E1,-1.735799909E0,1.701299906E0,4.766399860E0
2.140399844E1,-5.449999869E-2,2.280200005E0,4.331799984E0
2.142400000E1,4.068999887E-1,2.603099823E0,4.689499855E0
2.145399844E1,2.387999892E-1,2.209199905E0,7.181799889E0
2.147399844E1,-7.421000004E-1,2.284100056E0,7.433099747E0
2.149400000E1,-1.872099996E0,2.664399862E0,6.580199718E0
2.152399844E1,-2.336699963E0,3.724299908E0,6.396299839E0
2.154399844E1,-2.471099854E0,5.079400063E0,6.055699825E0
2.156400000E1,-2.240299940E0,6.371999741E0,4.666199684E0
2.159400000E1,-5.615999699E-1,3.335699797E0,6.288999915E-1
2.162399844E1,1.593500018E0,-7.620299816E0,-2.021269989E1
2.164400000E1,2.800000012E-1,-1.138879967E1,-1.685319901E1
2.167399844E1,2.766599894E0,-2.097599983E0,-5.731699944E0
2.169399844E1,5.214499950E0,2.500799894E0,-3.362699986E0
2.171399844E1,4.110099792E0,1.719399929E0,-1.926699996E0
2.173399844E1,-3.400300026E0,-1.027199984E0,1.377810001E1
2.175399844E1,-6.857199669E0,-6.977200031E0,9.838999748E0
2.177399844E1,-8.538999557E0,-4.796000004E0,2.750000060E-1
2.179399844E1,-4.551599979E0,1.551100016E0,9.182999611E0
2.181399844E1,-4.006899834E0,1.900299907E0,1.553169918E1
2.183399844E1,-3.686999798E0,-4.651799679E0,6.250899792E0
2.185399844E1,-2.353999853E0,-5.657199860E0,4.826299667E0
2.187399844E1,-1.423499942E0,-4.877599716E0,3.634999990E0
2.189399844E1,7.446999550E-1,-2.929399967E0,3.925299883E0
2.191399844E1,1.904500008E0,-3.754999936E-1,3.654500008E0
2.193400312E1,2.555999994E0,3.475199938E0,-2.046700001E0
2.196399844E1,9.391999841E-1,1.113499999E0,-1.706699967E0
2.198399844E1,1.345099926E0,3.565999866E-1,1.203999966E-1
2.200399844E1,1.132799983E0,2.572399855E0,-1.148899913E0
2.202400625E1,8.980999589E-1,4.219199657E0,-1.690999985E0
2.205399844E1,1.479499936E0,4.332799911E0,-7.759999484E-2
2.207400312E1,1.558599949E0,4.185400009E0,1.073499918E0
2.210399844E1,1.289600015E0,-1.288999915E-1,2.820999920E-1
2.212399844E1,1.696399927E0,-1.681299925E0,-2.376399994E0
2.214400000E1,1.555199981E0,-1.306800008E0,-5.113899708E0
2.217399844E1,2.276900053E0,-2.941499949E0,-5.823299885E0
2.219399844E1,3.775699854E0,-4.288700104E0,-3.709599972E0
2.221400938E1,4.223199844E0,-4.197799683E0,-1.601999998E0
2.224400000E1,2.990599871E0,-4.638299942E0,-4.349100113E0
2.226400469E1,3.470399857E0,-6.036999702E0,-6.055899620E0
2.229400000E1,2.260200024E0,-4.179599762E0,-4.366300106E0
2.231400156E1,-2.676999867E-1,-2.468899965E0,-3.098699808E0
2.234399844E1,-5.478999615E-1,-3.733500004E0,2.469599962E0
2.236400312E1,-5.451999903E-1,-4.543099880E0,4.241199970E0
2.239399844E1,-3.103799820E0,-5.543200016E0,3.929299831E0
2.241400312E1,-1.988199949E0,-5.135499954E0,3.725799799E0
2.244400000E1,-2.540199995E0,-3.399799824E0,8.187999725E-1
2.246400469E1,-2.945299864E0,-6.994999647E-1,4.337599754E0
2.249400000E1,-2.434999943E0,2.225999832E0,4.019199848E0
2.251400313E1,-1.607399940E0,2.732499838E0,4.094399929E0
2.254399844E1,-1.330399990E0,2.786299944E0,5.967000008E0
2.256400625E1,-1.188099980E0,2.935199976E0,7.739699841E0
2.259399844E1,-1.428900003E0,3.235299826E0,8.576299667E0
2.261400312E1,-1.307600021E0,3.323400021E0,7.513799667E0
2.264399844E1,-1.640499949E0,5.073699951E0,6.739699841E0
2.266400469E1,-1.339499950E0,5.734699726E0,6.933300018E0
2.268404219E1,-2.109999955E-1,3.276399851E0,5.707499981E0
2.271400000E1,-1.349299908E0,-3.385200024E0,-1.344999981E1
2.273400000E1,6.994000077E-1,-1.163229942E1,-2.759789848E1
2.275400156E1,1.820999980E-1,-9.126099586E0,-6.906199932E0
2.278400000E1,4.549999908E-2,1.848299980E0,-5.810800076E0
2.280400156E1,1.438799977E0,2.979799986E0,-3.188099861E0
2.283399844E1,4.228999913E-1,-4.666599751E0,4.765899658E0
2.285400625E1,-2.539000034E0,-4.460099697E0,1.145819950E1
2.288399844E1,-4.335299969E0,3.424700022E0,5.923299789E0
2.290400313E1,-1.565899968E0,4.329699993E0,5.743499756E0
2.293400000E1,-3.213199854E0,-4.531699657E0,7.836400032E0
2.295400312E1,-1.826299906E0,-9.093500137E0,5.617199898E0
2.298399844E1,6.538999677E-1,-5.622299671E0,5.068299770E0
2.300400156E1,2.078899860E0,-1.927599907E0,2.681699991E0
2.303399844E1,2.023799896E0,3.303099871E0,-1.331099987E0
2.305399844E1,8.691999912E-1,6.592000127E-1,-5.163999796E-1
2.307399844E1,1.603399992E0,-1.254899979E0,2.072700024E0
2.309400000E1,1.339499950E0,1.562999964E0,1.036899924E0
2.311400000E1,6.423000097E-1,4.299799919E0,-8.393999934E-1
2.314400781E1,9.980999827E-1,2.971400023E0,-1.287999988E0
2.317399844E1,1.301399946E0,3.109499931E0,5.157999992E-1
2.319400313E1,1.139199972E0,2.634899855E0,1.421100020E0
2.322399844E1,5.223000050E-1,-2.823999822E-1,-5.939999968E-2
2.324400000E1,7.648999691E-1,-9.569999576E-1,-1.442099929E0
2.327399844E1,6.424999833E-1,-1.780599952E0,-3.846299887E0
2.329400781E1,2.192699909E0,-3.802299976E0,-8.430500031E0
2.332399844E1,4.563600063E0,-4.299999714E0,-3.369599819E0
2.334399844E1,4.648799896E0,-3.644500017E0,-3.025999963E-1
2.336400000E1,4.866499901E0,-4.341399670E0,-2.759500027E0
2.339399844E1,5.250799656E0,-4.092199802E0,-5.633199692E0
2.341399844E1,3.213299990E0,-3.348299980E0,-3.255599976E0
2.343400000E1,-1.389999967E-2,-2.959100008E0,-3.411000013E0
2.346399844E1,-6.441000104E-1,-5.612799644E0,1.857499957E0
2.348399844E1,-9.900999665E-1,-5.572899818E0,3.686999798E0
2.350400000E1,-2.181200027E0,-4.389100075E0,3.840299845E0
2.353399844E1,-2.642599821E0,-2.853099823E0,3.447499990E0
2.355399844E1,-3.941599846E0,-2.876299858E0,1.252900004E0
2.357400000E1,-3.214399815E0,-1.988899946E0,2.289099932E0
2.360399844E1,-2.427599907E0,4.100999832E-1,3.484599829E0
2.362399844E1,-6.495999694E-1,1.490299940E0,3.870199919E0
2.364400000E1,7.828999758E-1,1.959399939E0,5.055900097E0
2.367399844E1,1.734200001E0,2.232199907E0,6.403599739E0
2.369399844E1,7.102999687E-1,2.129199982E0,7.524600029E0
2.371400000E1,-8.503999710E-1,2.528699875E0,7.717499733E0
2.374399844E1,-1.890999913E0,3.574899912E0,7.384799957E0
2.376399844E1,-1.763099909E0,4.557199955E0,6.880899906E0
2.378400000E1,-1.560299993E0,6.146800041E0,5.584799767E0
2.381399844E1,7.199999876E-3,5.617799759E0,3.231099844E0
2.383399844E1,1.304700017E0,7.400000095E-2,-1.511099935E0
2.385400000E1,1.581399918E0,-8.409999847E0,-2.389319992E1
2.388399844E1,2.063999891E0,-1.179649925E1,-7.338399887E0
2.390399844E1,2.435600042E0,-2.024899960E0,-5.316099644E0
2.392400000E1,2.786900043E0,2.240499973E0,-3.823299885E0
2.395399844E1,-3.290899992E0,-5.824599743E0,4.299499989E0
2.397399844E1,-8.173099518E0,-5.092899799E0,1.223600006E1
2.399399844E1,-5.861799717E0,9.281999469E-1,1.130789948E1
2.401400000E1,-2.964699984E0,5.478300095E0,7.785899639E0
2.404399844E1,-3.591899872E0,1.036999941E0,6.842499733E0
2.406400000E1,-4.352499962E0,-8.236299515E0,5.676799774E0
2.409399844E1,-1.625599980E0,-8.438699722E0,5.424200058E0
2.411400000E1,3.083400011E0,-4.127999783E0,-8.411999941E-1
2.414399844E1,4.044699669E0,1.099099994E0,1.349499941E0
2.416399844E1,2.134899855E0,1.135699987E0,1.345700026E0
2.418399844E1,1.372499943E0,1.121899962E0,1.918499947E0
2.420399844E1,4.326999784E-1,2.723799944E0,3.269999847E-2
2.422399844E1,2.399999881E-3,3.817299843E0,-2.578199863E0
2.424399844E1,1.052500010E0,2.953799963E0,-3.109299898E0
2.426399844E1,1.598799944E0,2.226799965E0,-3.806999922E-1
2.428400000E1,1.746099949E0,2.759199858E0,1.274199963E0
2.431399844E1,1.924499989E0,2.846999884E0,2.874699831E0
2.433399844E1,1.790699959E0,2.745999992E-1,2.006799936E0
2.435400000E1,1.192299962E0,-1.661700010E0,-8.528999686E-1
2.438399844E1,-6.038999557E-1,-2.454299927E0,-1.215759945E1
2.440399844E1,2.501999855E0,-3.326099873E0,-9.072899818E0
2.442400000E1,4.084099770E0,-3.798099995E0,-1.220099926E0
2.445399844E1,4.234399796E0,-3.104099989E0,1.757799983E0
2.447399844E1,4.640299797E0,-4.613899708E0,-2.884599924E0
2.449400000E1,4.997999668E0,-4.711999893E0,-1.091289997E1
2.452399844E1,3.165699959E0,-3.544600010E0,-2.712399960E0
2.454399844E1,4.448999763E-1,-3.273200035E0,-1.643799901E0
2.456400000E1,3.810999990E-1,-4.689300060E0,1.776199937E0
2.459399844E1,-7.112999558E-1,-6.178499699E0,4.302400112E0
2.461400000E1,-2.675199986E0,-5.258500099E0,4.410099983E0
2.464400000E1,-2.819099903E0,-4.383399963E0,4.048999786E0
2.467399844E1,-4.745199680E0,-3.424799919E0,-1.499799967E0
2.469399844E1,-3.392899990E0,-1.726099968E0,2.754400015E0
2.471400000E1,-2.481499910E0,1.367900014E0,4.794399738E0
2.474399844E1,-8.989999443E-2,3.071699858E0,3.966499805E0
2.476399844E1,8.937999606E-1,2.977200031E0,4.658199787E0
2.478400000E1,7.904999852E-1,2.866199970E0,6.362999916E0
2.481399844E1,-7.412999868E-1,2.705199957E0,8.206799507E0
2.483399844E1,-1.702899933E0,3.449899912E0,7.515499592E0
2.485400000E1,-1.942299962E0,4.548999786E0,6.960999966E0
2.488399844E1,-1.824899912E0,6.030600071E0,6.377999783E0
2.490399844E1,-1.523599982E0,6.371699810E0,4.945699692E0
2.492400000E1,-9.081999660E-1,4.137899876E0,1.007599950E0
2.495399844E1,2.511199951E0,-7.721399784E0,-2.378569984E1
2.497399844E1,2.697700024E0,-1.194779968E1,-1.505259991E1
2.499400000E1,1.558799982E0,-6.426799774E0,-3.361199856E0
2.501400000E1,1.007399917E0,-3.935000002E-1,-4.436999798E0
2.504399844E1,-3.086599827E0,-5.005799770E0,-6.532499790E0
2.506400000E1,-2.903499842E0,-7.270999908E0,6.168499947E0
2.509399844E1,-4.628299713E0,1.325299978E0,1.334350014E1
2.511400000E1,-2.397799969E0,5.803599834E0,9.248499870E0
2.514400000E1,-2.702999830E0,2.427799940E0,6.282499790E0
2.517400000E1,-5.151599884E0,-1.029629993E1,6.243000031E0
2.520399844E1,-1.442199945E0,-6.378399849E0,6.303499699E0
2.522400000E1,3.583400011E0,-1.982299924E0,2.408200026E0
2.525399844E1,3.963299990E0,2.853499889E0,-1.802299976E0
2.527399844E1,1.602299929E0,1.928499937E0,8.589999676E-1
2.529400000E1,1.518899918E0,1.103999972E0,9.361999631E-1
2.532400000E1,9.167000055E-1,3.143399954E0,-1.599799991E0
2.534400000E1,1.023000002E0,2.470299959E0,-2.119299889E0
2.536400000E1,1.573899984E0,1.463499904E0,1.942999959E-1
2.539399844E1,1.963899970E0,2.553400040E0,1.750199914E0
2.541399844E1,1.835199952E0,2.774399996E0,2.416299820E0
2.543400000E1,1.324800014E0,5.526999831E-1,1.332399964E0
2.546399844E1,4.472000003E-1,-1.452899933E0,-6.101999879E-1
2.548399844E1,1.044999957E-1,-4.012999833E-1,-2.518599987E0
2.550400000E1,2.709999867E-2,-1.122499943E0,-6.710799694E0
2.553399844E1,4.152400017E0,-4.329599857E0,-5.600599766E0
2.555399844E1,5.134399891E0,-4.738699913E0,1.329999976E-2
2.557400000E1,5.443299770E0,-3.506999969E0,5.374999642E-1
2.560399844E1,5.795000076E0,-3.593799829E0,-7.078099728E0
2.562399844E1,4.733399868E0,-3.351699829E0,-6.057999611E0
2.564400000E1,2.097399950E0,-3.671000004E0,-2.505800009E0
2.567399844E1,-8.417999744E-1,-4.759099960E0,3.592000008E-1
2.569399844E1,-1.297799945E0,-6.259799957E0,2.762099981E0
2.571400000E1,-2.909600019E0,-6.035699844E0,3.671299934E0
2.574399844E1,-4.726999760E0,-4.092999935E0,3.630499840E0
2.576399844E1,-6.542199612E0,-2.788899899E0,1.196900010E0
2.578400000E1,-5.057600021E0,-2.338199854E0,1.039399981E0
2.581399844E1,-2.785599947E0,8.150000125E-2,2.942899942E0
2.583399844E1,-1.716099977E0,1.631899953E0,3.917500019E0
2.585400000E1,-5.072000027E-1,2.701299906E0,4.985399723E0
2.588399844E1,6.753000021E-1,2.834800005E0,6.732699871E0
2.590399844E1,7.532999516E-1,2.604699850E0,6.116999626E0
2.592400000E1,4.038999975E-1,2.340399981E0,7.017499924E0
2.595400000E1,-3.542999923E-1,3.237900019E0,7.868499756E0
2.598399844E1,-6.962999701E-1,4.469699860E0,7.511199951E0
2.600400000E1,-6.038999557E-1,5.092599869E0,7.177299976E0
2.603399844E1,-6.223999858E-1,4.124199867E0,4.519299984E0
2.605399844E1,-2.644000053E-1,-1.019799948E0,-1.947299957E0
2.607399844E1,3.023000062E-1,-5.953899860E0,-1.740340042E1
2.609399844E1,9.494999647E-1,-1.421579933E1,-2.541729927E1
2.611400000E1,-2.633000016E-1,-8.770999908E0,-7.741000056E-1
2.614399844E1,7.938999534E-1,2.799099922E0,-3.600299835E0
2.616399844E1,-1.548599958E0,3.178699970E0,-2.954200029E0
2.618399844E1,-2.763099909E0,-1.706099987E0,1.197499990E0
2.620399844E1,-3.389799833E0,-4.893399715E0,1.132159996E1
2.622400000E1,-4.478099823E0,-1.404399991E0,4.614200115E0
2.625399844E1,-2.646199942E0,4.833699703E0,7.236799717E0
2.627399844E1,-2.811300039E0,3.179999828E0,1.011699963E1
2.629400000E1,-3.923699856E0,-4.233999729E0,5.131499767E0
2.632399844E1,4.421999753E-1,-7.319699764E0,-1.478199959E0
2.634399844E1,-1.044999957E0,-2.871899843E0,3.999599934E0
2.636400000E1,7.446999550E-1,-6.762999892E-1,7.271100044E0
2.638400313E1,3.159600019E0,5.949999765E-2,5.832299709E0
2.641399844E1,1.380699992E0,9.350999594E-1,-1.196099997E0
2.643400000E1,1.241999984E0,1.336999983E-1,2.615200043E0
2.645400000E1,1.263099909E0,8.840999603E-1,1.978799939E0
2.647400156E1,6.168000102E-1,2.040799856E0,-8.377999663E-1
2.650400000E1,7.343999743E-1,1.996099949E0,-2.514899969E0
2.652400469E1,9.465000033E-1,1.975199938E0,-6.324999928E-1
2.655399844E1,7.876999974E-1,2.529199839E0,1.097800016E0
2.657400469E1,8.294000030E-1,1.270699978E0,1.155599952E0
2.660399844E1,1.001199961E0,-3.373000026E-1,-8.245999813E-1
2.662399844E1,8.959999681E-1,-8.568999767E-1,-3.331199884E0
2.664400000E1,1.298200011E0,-1.642099977E0,-7.089900017E0
2.666400938E1,3.291100025E0,-2.794800043E0,-5.493400097E0
2.669399844E1,4.758800030E0,-3.724200010E0,-1.639999896E-1
2.671400000E1,4.690999985E0,-3.501199961E0,-1.727999896E-1
2.674399844E1,4.619599819E0,-4.447299957E0,-7.370199680E0
2.676399844E1,2.628399849E0,-3.730099916E0,-6.997900009E0
2.678400000E1,-2.584999800E-1,-2.340899944E0,-5.052799702E0
2.681400625E1,-2.087899923E0,-3.352699995E0,-1.354699969E0
2.684399844E1,-1.082999945E0,-4.863499641E0,3.646299839E0
2.686400000E1,-2.223099947E0,-5.017499924E0,4.510099888E0
2.689399844E1,-2.496899843E0,-4.551199913E0,4.237400055E0
2.691399844E1,-2.620199919E0,-3.566399813E0,4.017499924E0
2.693400000E1,-5.112400055E0,-3.401099920E0,-1.620000005E-1
2.695400000E1,-3.640499830E0,-1.209399939E0,2.646100044E0
2.698399844E1,-2.117799997E0,2.504299879E0,3.773999929E0
2.700400000E1,-5.368999839E-1,3.222499847E0,4.405099869E0
2.703399844E1,8.069999814E-1,3.313499928E0,6.361499786E0
2.705399844E1,7.769999653E-2,3.102399826E0,7.477399826E0
2.707400000E1,-9.818999767E-1,3.332000017E0,7.357999802E0
2.710399844E1,-1.189299941E0,4.290100098E0,6.822000027E0
2.712399844E1,-9.619999528E-1,5.087599754E0,6.878999710E0
2.714400000E1,-5.744000077E-1,5.370199680E0,6.661999702E0
2.717399844E1,2.062999904E-1,2.766299963E0,3.356799841E0
2.719399844E1,-9.000999928E-1,-1.771799922E0,-8.369899750E0
2.721399844E1,6.132999659E-1,-1.045949936E1,-3.568799973E1
2.723399844E1,-5.849999934E-2,-1.197109985E1,-7.087399960E0
2.725399844E1,-1.371599913E0,-3.626499891E0,-3.027299881E0
2.727399844E1,1.290999949E-1,3.395900011E0,-4.184499741E0
2.729399844E1,-3.269799948E0,1.783399940E0,-4.391699791E0
2.731399844E1,-4.732199669E0,-3.763899803E0,7.428999543E-1
2.733399844E1,-3.973199844E0,-4.722399712E0,9.639999390E0
2.735400000E1,-5.135499954E0,1.004999995E0,1.096999931E1
2.738399844E1,-8.723999858E-1,4.941400051E0,7.220299721E0
2.740399844E1,-1.301199913E0,-3.899999894E-3,7.287199974E0
2.742400156E1,-2.842599869E0,-7.833399773E0,4.950699806E0
2.745400000E1,-3.592000008E-1,-8.026999474E0,1.157500029E0
2.748399844E1,1.380299926E0,-1.858299971E0,6.612599850E0
2.750400000E1,3.498899937E0,9.271000028E-1,3.345999956E0
2.753399844E1,7.967000008E-1,2.025699854E0,-3.867000043E-1
2.755399844E1,8.661999702E-1,-2.209999971E-2,2.198499918E0
2.757399844E1,5.363999605E-1,6.566999555E-1,1.329699993E0
2.759399844E1,7.499999553E-2,2.552299976E0,-1.261199951E0
2.761399844E1,2.814999819E-1,3.014299870E0,-3.000499964E0
2.763399844E1,5.807999969E-1,2.648099899E0,-2.282500029E0
2.765399844E1,6.187999845E-1,2.986099958E0,-3.998000026E-1
2.767404219E1,6.250999570E-1,3.679899931E0,6.214999557E-1
2.770399844E1,7.423999906E-1,1.350299954E0,1.628399968E0
2.772400000E1,4.621999860E-1,-1.327000022E0,2.300999910E-1
2.775399844E1,1.042599916E0,-1.830500007E0,-3.494299889E0
2.777399844E1,3.428599834E0,-2.283299923E0,-1.204469967E1
2.779400000E1,4.993899822E0,-4.299200058E0,-6.419399738E0
2.782399844E1,3.790599823E0,-3.672499895E0,6.098999977E-1
2.784399844E1,2.402699947E0,-3.816200018E0,-1.678900003E0
2.786400000E1,1.102800012E0,-5.222499847E0,-8.828100204E0
2.789399844E1,6.373999715E-1,-3.763499975E0,-6.177399635E0
2.791399844E1,-1.071999967E-1,-2.788699865E0,-2.783699989E0
2.793400000E1,-7.949000001E-1,-2.865900040E0,-8.284999728E-1
2.796399844E1,4.264999926E-1,-4.590199947E0,3.485499859E0
2.798399844E1,-1.623299956E0,-4.937200069E0,3.847199917E0
2.800400000E1,-2.939899921E0,-4.426300049E0,3.931599855E0
2.803399844E1,-4.708699703E0,-3.723299980E0,8.879999816E-2
2.805399844E1,-5.520899773E0,-2.740299940E0,-7.199999690E-2
2.807400000E1,-4.149399757E0,-6.279000044E-1,2.136499882E0
2.810399844E1,-1.567399979E0,1.932599902E0,3.448599815E0
2.812399844E1,2.583000064E-1,2.527199984E0,4.184799671E0
2.814400000E1,8.528999686E-1,2.469599962E0,5.789000034E0
2.817399844E1,7.921999693E-1,1.993599892E0,6.757999897E0
2.819400000E1,-4.822999835E-1,2.544899940E0,7.631799698E0
2.821400000E1,-1.232800007E0,3.567999840E0,7.593599796E0
2.823400156E1,-1.330199957E0,4.354899883E0,6.927599907E0
2.826399844E1,-8.388999701E-1,5.252599716E0,7.176899910E0
2.828400000E1,-4.039999843E-1,5.692999840E0,6.091199875E0
2.831399844E1,9.024999738E-1,1.855499983E0,-1.572399974E0
2.833399844E1,8.300999999E-1,-4.356400013E0,-1.796879959E1
2.835400000E1,1.460399985E0,-1.506289959E1,-2.477969933E1
2.838399844E1,-1.992699981E0,-3.591099977E0,-4.239099979E0
2.840399844E1,2.210999876E-1,4.300099850E0,-4.822099686E0
2.842400000E1,-1.159899950E0,4.251399994E0,-5.111599922E0
2.845399844E1,-3.646299839E0,-5.273399830E0,1.274059963E1
2.847399844E1,-4.663799763E0,-5.275199890E0,4.382800102E0
2.849399844E1,-2.151499987E0,2.328500032E0,9.321299553E0
2.851399844E1,1.925999969E-1,4.838699818E0,8.881099701E0
2.853399844E1,-9.812999964E-1,-2.317999899E-1,7.253399849E0
2.855399844E1,-1.934199929E0,-8.074799538E0,4.482199669E0
2.857400000E1,-6.399999857E-1,-9.008199692E0,1.611400008E0
2.860399844E1,1.611000001E-1,-4.292099953E0,5.893699646E0
2.862399844E1,1.755399942E0,-1.120199919E0,6.823599815E0
2.864400000E1,2.213599920E0,1.358799934E0,9.888999462E-1
2.867399844E1,-1.711999923E-1,3.615999818E-1,1.396099925E0
2.869399844E1,-4.039999843E-2,1.099999994E-1,1.690400004E0
2.871400000E1,-4.978999794E-1,1.894099951E0,5.336999893E-1
2.874399844E1,-5.910999775E-1,2.919699907E0,-1.997399926E0
2.876399844E1,-3.619999886E-1,2.867499828E0,-2.577800035E0
2.878400000E1,1.159999967E-1,2.857199907E0,-1.628499985E0
2.881399844E1,8.502999544E-1,2.781899929E0,-4.041000009E-1
2.883399844E1,1.544099927E0,1.677299976E0,5.555999875E-1
2.885400000E1,1.779299974E0,1.401999891E-1,9.167000055E-1
2.888399844E1,2.432600021E0,-1.657400012E0,-2.157700062E0
2.890399844E1,3.679099798E0,-2.996799946E0,-9.972099304E0
2.892400000E1,4.373099804E0,-3.865399837E0,-9.293199539E0
2.895399844E1,3.166899920E0,-3.059700012E0,-8.156999946E-1
2.897399844E1,1.760899901E0,-2.984699965E0,-3.051499844E0
2.899399844E1,4.567999840E-1,-4.031399727E0,-9.977699280E0
2.901400000E1,4.658999741E-1,-4.135499954E0,-8.842399597E0
2.904399844E1,5.819999576E-1,-4.295000076E0,-3.937000036E-1
2.906399844E1,1.579999924E0,-4.967899799E0,4.314099789E0
2.908399844E1,9.178999662E-1,-5.853899956E0,4.370999813E0
2.910399844E1,-9.619999528E-1,-6.154099941E0,4.145899773E0
2.912399844E1,-2.765599966E0,-5.551199913E0,4.238500118E0
2.914400000E1,-3.330799818E0,-4.054199696E0,3.462800026E0
2.917399844E1,-4.279900074E0,-1.429099917E0,-3.876000047E-1
2.919399844E1,-3.833299875E0,-9.449999779E-2,2.206399918E0
2.921399844E1,-2.982100010E0,9.152999520E-1,3.292899847E0
2.923399844E1,-1.649399996E0,2.009500027E0,3.536199808E0
2.925399844E1,-4.977999926E-1,2.940799952E0,4.910999775E0
2.927399844E1,-5.629000068E-1,3.228999853E0,5.540599823E0
2.929400000E1,-7.694000006E-1,3.376799822E0,6.512499809E0
2.932399844E1,-9.914000034E-1,3.544899940E0,7.278899670E0
2.934399844E1,-5.309000015E-1,3.610299826E0,7.158999920E0
2.936400000E1,-3.799999831E-3,3.658499956E0,6.800899982E0
2.939399844E1,1.046999991E-1,3.825199842E0,6.733299732E0
2.941399844E1,7.145999670E-1,2.563599825E0,5.449899673E0
2.943400000E1,5.353999734E-1,-2.970999777E-1,9.154999852E-1
2.946399844E1,-1.261199951E0,-6.769000053E0,-2.415539932E1
2.948399844E1,-2.682899952E0,-1.003949928E1,-1.745660019E1
2.950400000E1,-2.648599863E0,-3.318699837E0,-5.002699852E0
2.953399844E1,1.436100006E0,3.695400000E0,-2.598599911E0
2.955399844E1,1.696900010E0,2.237400055E0,-2.597899914E0
2.957399844E1,9.716999531E-1,-4.536999702E0,2.825099945E0
2.959399844E1,-2.565299988E0,-5.416299820E0,1.128339958E1
2.961400000E1,-3.151099920E0,-8.865999579E-1,9.246099472E0
2.964400000E1,1.730000041E-2,3.892599821E0,6.122900009E0
2.966400000E1,-4.555999935E-1,1.176999956E-1,3.739399910E0
2.969399844E1,-2.692800045E0,-7.636899948E0,7.276599884E0
2.971400000E1,1.259899974E0,-8.353300095E0,3.774099827E0
2.974399844E1,1.428099990E0,-2.335399866E0,4.074399948E0
2.976399844E1,1.401899934E0,2.395999879E-1,4.254699707E0
2.978400000E1,3.288999796E-1,2.109499931E0,9.825999737E-1
2.981399844E1,-9.715999961E-1,1.483999938E-1,1.242699981E0
2.983399844E1,-8.037999868E-1,2.157000005E-1,1.240999937E0
2.985400000E1,-1.387399912E0,2.017299891E0,-7.003999949E-1
2.988399844E1,9.099999815E-2,2.812199831E0,-3.289299965E0
2.990399844E1,1.296199918E0,2.000799894E0,-1.951200008E0
2.992400000E1,1.729900002E0,1.845999956E0,5.866000056E-1
2.994400469E1,1.529099941E0,2.560600042E0,2.134999990E0
2.997399844E1,1.371099949E0,1.882499933E0,3.699599981E0
2.999399844E1,8.374999762E-1,6.046000123E-1,1.883699894E0
3.001399844E1,6.872999668E-1,4.549999908E-2,-5.889999866E-2
3.003399844E1,3.385999799E-1,-1.015699983E0,-1.827600002E0
3.005399844E1,5.565999746E-1,-3.111500025E0,-6.541499615E0
3.007400625E1,2.456099987E0,-3.772399902E0,-1.206729984E1
3.010399844E1,3.294899940E0,-3.853099823E0,-3.191200018E0
3.012399844E1,3.251999855E0,-3.515499830E0,-1.115000010E0
3.014400000E1,3.893199921E0,-3.719399929E0,-2.400399923E0
3.017399844E1,4.949299812E0,-3.232499838E0,-5.195199966E0
3.019399844E1,2.842999935E0,-2.625900030E0,-3.372099876E0
3.021400000E1,1.270000041E-1,-1.957699895E0,-2.956499815E0
3.024399844E1,-1.136999965E0,-4.450399876E0,3.567999899E-1
3.026399844E1,-1.694899917E0,-5.236199856E0,2.233799934E0
3.028400000E1,-3.708099842E0,-5.042999744E0,2.949299812E0
3.031399844E1,-3.534699917E0,-4.240799904E0,3.530099869E0
3.033399844E1,-3.883899927E0,-3.687199831E0,-5.920000002E-2
3.035400000E1,-3.196599960E0,-1.720799923E0,2.303900003E0
3.037400000E1,-3.173899889E0,1.791999936E-1,4.036200047E0
3.040399844E1,-1.314999938E0,1.295300007E0,3.977399826E0
3.042400000E1,7.509999722E-2,1.824799895E0,3.673799992E0
3.045399844E1,3.556999862E-1,2.611099958E0,4.902400017E0
3.047399844E1,4.633999765E-1,2.816900015E0,6.237599850E0
3.049399844E1,-2.674999833E-1,3.264599800E0,6.380699635E0
3.051400000E1,-1.518199921E0,4.320499897E0,6.166499615E0
3.054399844E1,-1.771999955E0,5.186399937E0,6.029200077E0
3.056399844E1,-1.701599956E0,5.572799683E0,6.281399727E0
3.058400000E1,-1.848299980E0,5.398200035E0,4.921899796E0
3.061399844E1,-4.377000034E-1,3.073000014E-1,-3.637799978E0
3.063399844E1,1.305299997E0,-6.058099747E0,-1.615589905E1
3.065400000E1,1.997299910E0,-1.099240017E1,-2.247699928E1
3.068400312E1,3.877899885E0,-4.871599674E0,-3.148900032E0
3.071400000E1,1.664199948E0,1.166999936E0,-6.248999834E-1
3.074400000E1,-2.554299831E0,-2.775099993E0,-2.079699993E0
3.077399844E1,-3.458199978E0,-3.437999964E0,7.962999821E0
3.079400000E1,-5.780600071E0,3.197599888E0,9.033100128E0
3.082399844E1,-6.872699738E0,8.362099648E0,7.440699577E0
3.084399844E1,-5.177199841E0,2.020400047E0,5.090099812E0
3.086400000E1,-2.082299948E0,-5.278999805E0,3.721999824E-1
3.089399844E1,-1.029299974E0,-6.503799915E0,3.407799959E0
3.091399844E1,-9.934999943E-1,-3.778199911E0,7.815199852E0
3.093400000E1,9.585999846E-1,-2.821399927E0,7.484099865E0
3.096399844E1,4.264100075E0,1.799999923E-1,-1.188899994E0
3.098399844E1,1.610299945E0,4.721999764E-1,2.214900017E0
3.100400000E1,1.530399919E0,-3.069999814E-1,3.637599945E0
3.103399844E1,5.328999758E-1,2.339900017E0,-1.664799929E0
3.105399844E1,4.147000015E-1,2.258199930E0,-2.871599913E0
3.107400000E1,6.376999617E-1,2.118700027E0,-2.304100037E0
3.110399844E1,4.603999853E-1,2.290799856E0,-6.759999990E-1
3.112400000E1,4.869000018E-1,2.607199907E0,4.614999890E-1
3.114400000E1,4.294999838E-1,2.337199926E0,1.503000021E0
3.117399844E1,-7.549999654E-2,1.876999885E-1,5.407999754E-1
3.119399844E1,-2.201999873E-1,-6.186999679E-1,-1.292500019E0
3.121400000E1,1.138100028E0,-1.766199946E0,-4.122699738E0
3.124399844E1,4.179599762E0,-3.612299919E0,-8.060599327E0
3.126399844E1,4.099800110E0,-3.117899895E0,-4.477499962E0
3.128400000E1,3.380299807E0,-2.676599979E0,-2.606499910E0
3.131399844E1,3.214900017E0,-4.464200020E0,-3.953199863E0
3.133399844E1,3.979699850E0,-5.041999817E0,-5.002099991E0
3.135400000E1,2.009099960E0,-3.309199810E0,-4.082999706E0
3.138399844E1,-1.632499933E0,-1.946199894E0,-3.079599857E0
3.140399844E1,-6.146999598E-1,-3.939499855E0,1.589299917E0
3.142399844E1,-1.132599950E0,-4.878299713E0,3.022500038E0
3.144399844E1,-2.490299940E0,-5.281399727E0,3.230399847E0
3.146399844E1,-2.914799929E0,-5.166800022E0,3.907899857E0
3.148399844E1,-3.094199896E0,-4.378299713E0,2.993199825E0
3.150400000E1,-4.812599659E0,-4.050199986E0,1.252999902E-1
3.153399844E1,-3.435999870E0,-9.989999533E-1,3.879299879E0
3.155399844E1,-2.665099859E0,9.208999872E-1,4.029299736E0
3.157399844E1,-9.925999641E-1,1.498899937E0,3.616099834E0
3.159399844E1,-2.761999965E-1,1.665899992E0,4.005899906E0
3.161399844E1,4.858999848E-1,2.068099976E0,4.916299820E0
3.163399844E1,8.773999810E-1,2.563899994E0,5.503699780E0
3.165400000E1,-6.747999787E-1,4.167900085E0,6.139100075E0
3.168399844E1,-2.200700045E0,5.794799805E0,6.345799923E0
3.170399844E1,-2.360899925E0,5.867599964E0,6.032199860E0
3.172400000E1,-2.189199924E0,5.878699780E0,5.918099880E0
3.175399844E1,-9.648000002E-1,4.695499897E0,4.827899933E0
3.177399844E1,3.163999915E-1,-1.053999960E-1,-9.153999686E-1
3.179400000E1,1.667799950E0,-5.662399769E0,-1.466259956E1
3.182399844E1,1.307600021E0,-1.020769978E1,-1.284350014E1
3.184399844E1,3.256199837E0,-4.047899723E0,-4.368499756E0
3.186400000E1,2.836099863E0,9.900999665E-1,-4.059799671E0
3.189399844E1,1.152999997E-1,-1.276000023E0,-1.600799918E0
3.191399844E1,-1.591599941E0,-5.827199936E0,2.761799812E0
3.193399844E1,-4.988499641E0,-5.301799774E0,8.238299370E0
3.195399844E1,-6.747200012E0,1.848899961E0,7.660999775E0
3.197399844E1,-5.233999729E0,6.223299980E0,4.980599880E0
3.199399844E1,-4.771500111E0,7.375499725E0,1.029049969E1
3.201399844E1,-4.726200104E0,-4.127999842E-1,4.181299686E0
3.203399844E1,-2.127500057E0,-6.542899609E0,5.546000004E-1
3.205399844E1,-2.740000002E-2,-6.737199783E0,-7.906000018E-1
3.207400000E1,-1.653100014E0,-3.382399797E0,6.806599617E0
3.209400312E1,7.565000057E-1,-1.957299948E0,9.978399277E0
3.212399844E1,5.368199825E0,-1.492200017E0,-3.202299833E0
3.214400000E1,2.074599981E0,9.139999747E-2,2.255899906E0
3.217399844E1,1.247499943E0,1.150399923E0,3.099099874E0
3.219400312E1,3.048999906E-1,2.042999983E0,-1.402300000E0
3.222400000E1,2.549000084E-1,1.891799927E0,-2.667399883E0
3.225399844E1,5.022999644E-1,2.561499834E0,-8.693000078E-1
3.227399844E1,7.071999907E-1,3.114199877E0,2.824999988E-1
3.229400312E1,7.822999954E-1,3.344899893E0,8.981999755E-1
3.232399844E1,1.868999898E-1,7.317999601E-1,1.180999994E0
3.234400312E1,-1.128999963E-1,-1.418799996E0,-3.709999844E-2
3.237399844E1,7.087999582E-1,-1.505899906E0,-4.117899895E0
3.239400156E1,3.057299852E0,-3.230799913E0,-8.431499481E0
3.242399844E1,4.447799683E0,-4.100999832E0,-3.712399960E0
3.244400000E1,3.757599831E0,-3.243999958E0,-1.031099916E0
3.247399844E1,3.309299946E0,-4.171700001E0,-2.220599890E0
3.249399844E1,3.458499908E0,-4.362999916E0,-7.104399681E0
3.251399844E1,1.041299939E0,-2.476599932E0,-6.912899971E0
3.253400313E1,-1.221400023E0,-1.501500010E0,-4.672899723E0
3.256399844E1,-9.878999591E-1,-3.753000021E0,1.681499958E0
3.258400000E1,-1.487699986E0,-4.363199711E0,2.773200035E0
3.261399844E1,-2.056499958E0,-4.584300041E0,4.066599846E0
3.263399844E1,-2.064199924E0,-4.045300007E0,3.523099899E0
3.265399844E1,-3.381899834E0,-3.841499805E0,5.651000142E-1
3.267399844E1,-3.503399849E0,-2.922099829E0,7.220999599E-1
3.269399844E1,-3.020299911E0,-9.958999753E-1,2.831699848E0
3.271400000E1,-2.376999855E0,9.226999879E-1,3.536999941E0
3.274400000E1,-4.675999880E-1,2.410099983E0,3.781199932E0
3.277399844E1,4.402999878E-1,2.954299927E0,5.124700069E0
3.279400000E1,2.578999996E-1,2.863600016E0,5.645499706E0
3.281400000E1,-1.241500020E0,3.371799946E0,6.569499969E0
3.284399844E1,-2.119099855E0,4.213500023E0,6.556599617E0
3.286399844E1,-2.124500036E0,4.489599705E0,5.880499840E0
3.288399844E1,-1.939999938E0,5.045799732E0,5.604700089E0
3.290400000E1,-1.756899953E0,5.531899929E0,3.760999918E0
3.293400000E1,4.199999850E-3,1.141899943E0,-3.620800018E0
3.296399844E1,1.642199993E0,-8.238999367E0,-2.026219940E1
3.298399844E1,8.456999660E-1,-9.207200050E0,-1.215069962E1
3.300400000E1,2.072299957E0,-4.085599899E0,-5.536799908E0
3.303399844E1,1.888700008E0,1.179700017E0,-1.699899912E0
3.305399844E1,-1.057999969E0,-7.777999640E-1,-2.089200020E0
3.307400000E1,-3.030799866E0,-4.257499695E0,3.790599823E0
3.310399844E1,-6.397500038E0,-2.636999846E0,8.103799820E0
3.312399844E1,-3.797199965E0,3.192999840E0,8.779299736E0
3.314400000E1,-2.560400009E0,5.311299801E0,6.514499664E0
3.317399844E1,-4.202099800E0,-1.069599986E0,5.940999985E0
3.319399844E1,-3.322399855E0,-5.985099792E0,4.870199680E0
3.321400000E1,1.552999914E-1,-6.020099640E0,-2.866999805E-1
3.324399844E1,1.734200001E0,-1.984499931E0,5.021699905E0
3.326399844E1,3.380599976E0,-4.434999824E-1,5.661999583E-1
3.328400000E1,1.704999924E0,1.220799923E0,9.831999540E-1
3.330400000E1,7.360000014E-1,8.127999902E-1,2.684599876E0
3.333399844E1,6.570000052E-1,1.360299945E0,-4.899999797E-1
3.335400000E1,8.844999671E-1,1.500499964E0,-1.375999928E0
3.338399844E1,7.910999656E-1,1.454499960E0,-1.822499990E0
3.340399844E1,4.537999928E-1,2.225399971E0,-9.617999792E-1
3.342399844E1,1.369999945E-1,2.599699974E0,-1.777999997E-1
3.344400000E1,7.050000131E-2,2.259500027E0,7.583999634E-1
3.347399844E1,-4.579999745E-1,-7.609999925E-2,1.324999928E-1
3.349399844E1,-1.036999971E-1,-6.538999677E-1,-2.222399950E0
3.351400000E1,1.398699999E0,-1.188099980E0,-3.867299795E0
3.354399844E1,4.315999985E0,-3.421700001E0,-8.192099571E0
3.356399844E1,4.674799919E0,-3.600099802E0,-3.819199800E0
3.358400000E1,3.732699871E0,-2.543099880E0,-3.847999871E-1
3.361399844E1,3.109400034E0,-4.180599689E0,-3.964299917E0
3.363399844E1,3.611199856E0,-4.407399654E0,-6.130699635E0
3.365400000E1,2.261600018E0,-3.904899836E0,-4.700200081E0
3.368399844E1,-1.966499925E0,-1.620700002E0,-5.387000084E0
3.370399844E1,-1.689700007E0,-3.313599825E0,-7.365999818E-1
3.372400000E1,-5.945000052E-1,-4.355599880E0,3.356299877E0
3.374400000E1,-1.886199951E0,-4.782899857E0,3.738600016E0
3.377399844E1,-2.742100000E0,-4.525599957E0,3.630499840E0
3.379400000E1,-2.113100052E0,-5.407000065E0,-1.771699905E0
3.382399844E1,-2.906599998E0,-2.004099846E0,1.930699944E0
3.384399844E1,-2.578299999E0,5.001000166E-1,3.145399809E0
3.386400000E1,-1.493199944E0,1.578199983E0,2.198299885E0
3.389399844E1,-7.396999598E-1,1.845899940E0,4.597099781E0
3.391399844E1,-5.282999873E-1,2.064800024E0,5.717999935E0
3.393400000E1,-8.484999537E-1,2.535599947E0,5.999700069E0
3.396399844E1,-2.681699991E0,4.987499714E0,6.460799694E0
3.398399844E1,-2.810299873E0,5.864299774E0,6.167599678E0
3.400400000E1,-2.345999956E0,6.363199711E0,5.852999687E0
3.403399844E1,-8.844999671E-1,6.877199650E0,5.011199951E0
3.405399844E1,9.448999763E-1,5.885799885E0,3.412599802E0
3.407400000E1,2.035899878E0,1.478699923E0,-2.490200043E0
3.410399844E1,9.512999654E-1,-8.926899910E0,-2.897849846E1
3.412399844E1,-1.457999945E0,-1.103160000E1,-7.795199871E0
3.414399844E1,-9.338999987E-1,-4.263400078E0,-4.096600056E0
3.416399844E1,2.999999933E-2,-1.263999939E-1,-5.227399826E0
3.418399844E1,-2.722299814E0,-5.692800045E0,-1.084420013E1
3.420399844E1,6.269999593E-2,-8.915299416E0,7.408999920E0
3.422399844E1,-5.546299934E0,7.109000087E-1,1.982289886E1
3.424399844E1,-2.659199953E0,5.138199806E0,1.150990009E1
3.426399844E1,-8.834999800E-1,6.947499752E0,6.086999893E0
3.428400000E1,-2.783699989E0,3.874499798E0,4.448699951E0
3.430400000E1,-6.390699863E0,-4.938499928E0,4.845200062E0
3.432400000E1,-4.078599930E0,-1.253949928E1,5.727999687E0
3.434400000E1,-1.588499904E0,-7.916199684E0,5.058399677E0
3.436400000E1,1.812699914E0,-2.861999989E0,4.572299957E0
3.439399844E1,3.154699802E0,6.369999796E-2,8.976999521E-1
3.441399844E1,2.213899851E0,1.606699944E0,2.757000029E-1
3.443400000E1,1.641199946E0,1.745599985E0,5.209999681E-1
3.446399844E1,1.280200005E0,1.605599999E0,-6.268999577E-1
3.448399844E1,1.112900019E0,1.479599953E0,-3.298799992E0
3.450400000E1,1.318799973E0,1.314299941E0,-2.950199842E0
3.453399844E1,1.294899940E0,2.643800020E0,7.159999758E-2
3.455399844E1,1.399399996E0,3.934700012E0,8.090999722E-1
3.457400000E1,1.490599990E0,3.909799814E0,1.685899973E0
3.460399844E1,7.856999636E-1,-5.584999919E-1,1.361199975E0
3.462400000E1,4.608999789E-1,-1.483600020E0,-1.284799933E0
3.464400000E1,1.267099977E0,-2.740099907E0,-4.383999825E0
3.467399844E1,5.650599957E0,-5.184700012E0,-1.289949989E1
3.469399844E1,4.598000050E0,-3.572799921E0,-3.470099926E0
3.471400000E1,3.462399960E0,-2.855399847E0,-3.118999898E-1
3.474399844E1,4.139599800E0,-4.717199802E0,-1.416700006E0
3.476399844E1,4.993099689E0,-4.756099701E0,-3.199800014E0
3.478400000E1,3.564999819E0,-3.956299782E0,-3.127199888E0
3.481399844E1,-1.486299992E0,-3.366999865E0,-4.756599903E0
3.483399844E1,-1.651600003E0,-4.487999916E0,-5.889999866E-1
3.485399844E1,-1.344099998E0,-5.052999973E0,2.669399977E0
3.487400000E1,-3.399499893E0,-4.364399910E0,3.264899969E0
3.490399844E1,-3.143800020E0,-3.219799995E0,4.093699932E0
3.492399844E1,-3.409299850E0,-2.518399954E0,3.713099957E0
3.494400000E1,-3.929299831E0,-2.084100008E0,2.130800009E0
3.497399844E1,-2.885499954E0,1.068799973E0,3.529899836E0
3.499399844E1,-2.222100019E0,1.877900004E0,4.153500080E0
3.501399844E1,-8.730999827E-1,1.852399945E0,4.710299969E0
3.503399844E1,2.294999957E-1,1.672699928E0,4.463900089E0
3.505399844E1,7.799999714E-1,1.830199957E0,4.503299713E0
3.507400000E1,5.892999768E-1,2.220099926E0,5.366299629E0
3.510400000E1,-8.994999528E-1,4.076299667E0,6.668399811E0
3.513399844E1,-1.250699997E0,5.403599739E0,7.081899643E0
3.515400000E1,-1.066100001E0,5.271399975E0,6.689799786E0
3.518399844E1,1.475999951E-1,2.193699837E0,6.199999809E0
3.520399844E1,-6.669999957E-1,-4.952999949E-1,3.569999933E-1
3.522400000E1,-1.355299950E0,-5.137899876E0,-1.735070038E1
3.525399844E1,-2.714900017E0,-1.060219955E1,-1.219649982E1
3.527399844E1,-3.318499804E0,-1.080799937E0,-5.872299671E0
3.529400000E1,1.761299968E0,5.000299931E0,-5.165299892E0
3.532400000E1,6.352399826E0,4.758599758E0,-4.667699814E0
3.535400000E1,-4.369800091E0,-4.083300114E0,1.639150047E1
3.538399844E1,-7.430999875E-1,-8.783199310E0,6.295099735E0
3.540399844E1,-2.569999993E-1,-7.720999718E-1,9.133899689E0
3.542399844E1,-9.219999611E-2,-9.777999520E-1,8.811499596E0
3.544400000E1,3.418000042E-1,-3.525599957E0,9.459699631E0
3.546400625E1,8.784999847E-1,-5.356899738E0,8.946800232E0
3.549400000E1,8.247999549E-1,-3.645799875E0,6.207900047E0
3.551400781E1,4.721999764E-1,-1.990700006E0,4.059599876E0
3.554400000E1,6.122999787E-1,2.069999874E-1,1.835699916E0
3.556400625E1,-4.432600021E0,4.501800060E0,-7.293900013E0
3.559399844E1,-1.382599950E0,2.996399879E0,-1.920399904E0
3.561399844E1,-2.003999949E-1,3.038899899E0,-1.718699932E0
3.563399844E1,-5.393999815E-1,3.074100018E0,-3.003599882E0
3.565400000E1,-5.072999597E-1,2.673300028E0,-3.351599932E0
3.568399844E1,9.843999743E-1,1.930099964E0,-9.730000049E-2
3.570399844E1,1.426800013E0,1.432299972E0,9.398999810E-1
3.572399844E1,1.536399961E0,-3.790999949E-1,2.397699833E0
3.574399844E1,1.503999949E0,-2.313099861E0,1.788699985E0
3.576400156E1,1.104599953E0,-1.612800002E0,-9.544999599E-1
3.579400000E1,2.465199947E0,-3.055599928E0,-5.211599827E0
3.582400000E1,3.252499819E0,-3.798599958E0,-9.626699448E0
3.585400156E1,2.249199867E0,-3.749199867E0,-3.706899881E0
3.588399844E1,3.788199902E0,-3.679099798E0,-4.088699818E0
3.590400000E1,4.073999882E0,-1.467599988E0,-4.386899948E0
3.593400000E1,1.241999939E-1,-8.424999714E-1,-2.958899975E0
3.595400781E1,1.111699939E0,-4.237199783E0,7.861999869E-1
3.598399844E1,1.269799948E0,-5.786999702E0,4.350800037E0
3.600400781E1,2.999999821E-1,-4.996299744E0,4.737899780E0
3.603399844E1,5.956999660E-1,-3.502300024E0,4.649199963E0
3.605399844E1,5.478000045E-1,-2.932999849E0,3.103199959E0
3.607400000E1,1.144099951E0,-3.698400021E0,-6.301000118E-1
3.610399844E1,-8.654999733E-1,-7.403999567E-1,5.103899956E0
3.612399844E1,-1.682000011E-1,3.043999970E-1,5.246200085E0
3.614400000E1,6.565999985E-1,5.796999931E-1,3.785199881E0
3.617399844E1,-3.652999997E-1,1.580799937E0,5.820399761E0
3.619399844E1,-1.317299962E0,2.530499935E0,7.977200031E0
3.621400000E1,-2.014600039E0,3.213500023E0,7.563299656E0
3.624399844E1,-2.885099888E0,3.734799862E0,6.438999653E0
3.626399844E1,-4.030900002E0,4.566100121E0,6.788300037E0
3.628400000E1,-4.291299820E0,5.754099846E0,5.878699780E0
3.631399844E1,-3.237599850E0,5.865799904E0,2.146600008E0
3.633399844E1,-1.122699976E0,1.763599992E0,-3.287400007E0
3.635399844E1,2.393599987E0,-8.577699661E0,-1.497859955E1
3.637399844E1,-1.983699918E0,-1.176799965E1,-2.102099991E1
3.639399844E1,3.696799994E0,-7.303699970E0,-8.963299751E0
3.641399844E1,8.957900047E0,-1.047600031E0,-5.947799683E0
3.643400000E1,7.981899738E0,2.345599890E0,-1.260499954E0
3.646399844E1,-1.233199954E0,-4.041199684E0,5.199100018E0
3.648399844E1,-1.869199991E0,-8.672599792E0,3.776799917E0
3.650400000E1,-3.867299795E0,-2.183199883E0,9.879599571E0
3.653399844E1,-4.289799690E0,5.133899689E0,8.247699738E0
3.655399844E1,-6.471899986E0,4.527100086E0,1.389519978E1
3.657400000E1,-7.233699799E0,-2.300699949E0,3.481499910E0
3.660399844E1,-2.636699915E0,-6.219299793E0,1.675599933E0
3.662399844E1,-1.208799958E0,-1.875099897E0,3.141399860E0
3.664400000E1,4.316999912E-1,9.089999646E-2,4.870899677E0
3.667399844E1,2.820799828E0,5.015999675E-1,-5.390199661E0
3.669399844E1,1.425400019E0,-2.264999896E-1,-1.343599916E0
3.671399844E1,2.222800016E0,1.750999987E-1,-5.009999871E-2
3.673400000E1,1.599200010E0,2.113999844E0,-1.001500010E0
3.676399844E1,1.232499957E0,2.559499979E0,-1.136500001E0
3.678400000E1,1.704399943E0,2.474699974E0,7.863000035E-1
3.680400000E1,1.849200010E0,2.738499880E0,1.402499914E0
3.683399844E1,1.924600005E0,8.560000062E-1,2.202800035E0
3.685399844E1,1.564399958E0,-1.080199957E0,-1.152499914E0
3.687400000E1,-1.323999912E-1,-1.341699958E0,-3.750099897E0
3.690399844E1,-7.526999712E-1,-1.824899912E0,-5.748099804E0
3.692399844E1,9.277999997E-1,-2.402099848E0,-7.530200005E0
3.694399844E1,3.498399973E0,-3.068199873E0,-6.038199902E0
3.696399844E1,4.254600048E0,-3.611399889E0,-1.930299997E0
3.698399844E1,4.281899929E0,-2.994499922E0,-8.060999513E-1
3.700400000E1,4.290999889E0,-3.317099810E0,-4.595599651E0
3.702400000E1,4.565999985E0,-2.955699921E0,-7.458999634E0
3.704400000E1,3.120399952E0,-2.588799953E0,-4.453000069E0
3.707400000E1,-6.543999910E-1,-3.562399864E0,-2.442899942E0
3.710399844E1,8.413999677E-1,-6.124799728E0,3.853199959E0
3.712399844E1,-1.480599999E0,-6.320799828E0,3.911799908E0
3.714400000E1,-2.966300011E0,-5.331699848E0,3.917599916E0
3.717399844E1,-3.225499868E0,-3.791599989E0,4.040400028E0
3.719399844E1,-4.451699734E0,-3.639599800E0,2.572999895E-1
3.721400000E1,-3.511600018E0,-8.836999536E-1,2.998699903E0
3.723400000E1,-2.707099915E0,1.011699915E0,4.477299690E0
3.726399844E1,-6.480000168E-2,2.392400026E0,3.378899813E0
3.728399844E1,1.266999990E-1,2.847999811E0,4.686599731E0
3.730400000E1,1.921999902E-1,3.051800013E0,6.724799633E0
3.733399844E1,-1.400799990E0,3.251099825E0,7.516599655E0
3.735399844E1,-2.091300011E0,3.970499992E0,7.590199947E0
3.737399844E1,-1.957499981E0,4.381400108E0,7.442199707E0
3.739399844E1,-1.838099957E0,4.690099716E0,7.309700012E0
3.741399844E1,-2.014299870E0,5.067499638E0,6.266799927E0
3.743400000E1,-1.805400014E0,4.912799835E0,4.188600063E0
3.745400000E1,-1.071300030E0,2.151299953E0,5.216000080E-1
3.748399844E1,2.290699959E0,-7.297999859E0,-2.043210030E1
3.750400000E1,2.839499950E0,-1.281989956E1,-1.864489937E1
3.753399844E1,9.355999827E-1,-4.157499790E0,-5.573499680E0
3.755399844E1,5.363999605E-1,-5.809000134E-1,-3.964900017E0
3.757400000E1,-2.860899925E0,-3.243899822E0,-3.097499847E0
3.760400000E1,-6.912999749E-1,-4.522699833E0,7.371999741E0
3.762400000E1,-3.891799927E0,2.258899927E0,1.241519928E1
3.764400000E1,-2.333600044E0,6.143199921E0,9.465199471E0
3.767399844E1,-1.488999963E0,5.416899681E0,5.628299713E0
3.769399844E1,-3.401899815E0,-7.577999830E-1,5.131700039E0
3.771400000E1,-3.585999966E0,-8.732899666E0,3.824199915E0
3.774399844E1,-1.806999892E-1,-4.268799782E0,1.874099970E0
3.776399844E1,9.221999645E-1,-1.513399959E0,6.224199772E0
3.778399844E1,1.687799931E0,3.217000067E-1,1.465600014E0
3.780400000E1,7.767999768E-1,2.344300032E0,-1.271600008E0
3.783399844E1,8.073999882E-1,1.893499970E0,1.953899980E0
3.785399844E1,6.820999980E-1,2.342799902E0,1.610799909E0
3.787399844E1,2.856000066E-1,2.351399899E0,-4.936999977E-1
3.789399844E1,6.484000087E-1,1.493799925E0,-2.804999828E0
3.791399844E1,1.124199986E0,5.703999996E-1,-1.566999912E0
3.793400000E1,1.003899932E0,1.023000002E0,5.551999807E-1
3.796399844E1,1.201799989E0,1.985299945E0,2.408900023E0
3.798399844E1,1.222000003E0,9.483000040E-1,1.305599928E0
3.800400000E1,7.006999850E-1,-4.161999822E-1,-1.669999957E-2
3.802400000E1,-1.299999952E-1,-1.218099952E0,-1.409799933E0
3.804400000E1,-9.641999602E-1,-1.230199933E0,-5.697299957E0
3.807400000E1,3.336699963E0,-3.226199865E0,-9.880099297E0
3.810399844E1,4.284699917E0,-3.277099848E0,6.602999568E-1
3.812399844E1,3.890199900E0,-2.429899931E0,1.518599987E0
3.814400000E1,3.574299812E0,-4.086400032E0,-2.400300026E0
3.817399844E1,2.302399874E0,-3.466799974E0,-1.187430000E1
3.819399844E1,9.542999864E-1,-3.157599926E0,-4.638599873E0
3.821400000E1,-7.453999519E-1,-2.616699934E0,-1.763000011E0
3.823400000E1,-7.143999934E-1,-3.716399908E0,1.006099939E0
3.826399844E1,-1.214900017E0,-5.368999958E0,3.266499996E0
3.828399844E1,-3.184599876E0,-4.860599995E0,3.586999893E0
3.830399844E1,-4.792699814E0,-4.069999695E0,2.272699833E0
3.832399844E1,-4.007699966E0,-3.830499887E0,-3.920000046E-2
3.834399844E1,-3.352699995E0,-2.065500021E0,1.205799937E0
3.836400000E1,-2.804800034E0,-6.419999599E-1,2.348099947E0
3.839399844E1,-1.681100011E0,9.250999689E-1,2.634699821E0
3.841399844E1,-4.869000018E-1,1.991499901E0,3.919699907E0
3.843400000E1,-1.118000001E-1,2.543999910E0,5.130799770E0
3.846400000E1,-2.099999925E-3,2.033400059E0,6.145199776E0
3.849399844E1,-1.285499930E0,2.664099932E0,6.903899670E0
3.851400000E1,-1.907299995E0,3.913999796E0,6.474899769E0
3.854400000E1,-1.372499943E0,5.217000008E0,6.468899727E0
3.857399844E1,-4.131999910E-1,6.009399891E0,5.369299889E0
3.859399844E1,5.870000124E-1,4.611399651E0,3.356699944E0
3.861399844E1,4.925999939E-1,-2.483999878E-1,-5.206099987E0
3.863399844E1,7.245000005E-1,-7.314999580E0,-2.298329926E1
3.865400000E1,1.879799962E0,-1.150500011E1,-1.370609951E1
3.868399844E1,-2.439999953E-2,-1.217299938E0,-4.380099773E0
3.870399844E1,-1.212700009E0,2.257299900E0,-2.091199875E0
3.872400000E1,-5.798399925E0,-1.902599931E0,-3.799099922E0
3.875399844E1,-5.607599735E0,-6.292500019E0,7.651999950E0
3.877399844E1,-6.505099773E0,2.723399878E0,1.014159966E1
3.879400000E1,-1.699299932E0,6.035500050E0,8.438199997E0
3.882399844E1,-1.499699950E0,1.559599996E0,7.132799625E0
3.884399844E1,-3.239699841E0,-7.276299953E0,6.032099724E0
3.886400000E1,-3.332299948E0,-1.024259949E1,5.365699768E0
3.889399844E1,1.404399991E0,-4.606999874E0,1.183699965E0
3.891399844E1,2.526299953E0,7.694999576E-1,7.465600014E0
3.893400000E1,4.088299751E0,2.912899971E0,1.301899910E0
3.896399844E1,1.717799902E0,2.209300041E0,8.783999681E-1
3.898399844E1,1.735499978E0,8.010999560E-1,1.859399915E0
3.900400000E1,4.016999900E-1,2.170699835E0,-8.995999694E-1
3.903399844E1,6.085999608E-1,1.873299956E0,-2.852099895E0
3.905399844E1,1.135800004E0,1.850299954E0,-9.973999858E-1
3.907400000E1,1.304799914E0,2.793999910E0,4.748999774E-1
3.910399844E1,1.389899969E0,2.750200033E0,2.132900000E0
3.912400000E1,1.114699960E0,2.506999969E-1,5.925999880E-1
3.914400000E1,6.243000031E-1,-1.842199922E0,-1.053099990E0
3.916400000E1,3.639999777E-2,-3.012599945E0,-2.402299881E0
3.919399844E1,-2.539999969E-2,-2.773699999E0,-9.054299355E0
3.921400000E1,2.638900042E0,-2.981299877E0,-6.583099842E0
3.923400000E1,3.879899979E0,-3.311699867E0,-9.802999496E-1
3.926399844E1,3.779399872E0,-2.223000050E0,-5.123000145E-1
3.928399844E1,3.387300014E0,-3.041299820E0,-5.497900009E0
3.930400000E1,1.940099955E0,-3.152999878E0,-9.792200089E0
3.933399844E1,1.127300024E0,-3.088599920E0,-2.231099844E0
3.935399844E1,5.062999725E-1,-3.193099976E0,-1.693999916E-1
3.937400000E1,4.323999882E-1,-4.971199989E0,2.073899984E0
3.940399844E1,-1.301599979E0,-6.496299744E0,3.542699814E0
3.942399844E1,-2.922499895E0,-5.008100033E0,3.285699844E0
3.944400000E1,-4.185100079E0,-3.064499855E0,1.034899950E0
3.947399844E1,-3.977699995E0,-1.809099913E0,-2.269999981E-1
3.949399844E1,-3.016499996E0,-4.816999733E-1,2.624399900E0
3.951400000E1,-2.248699903E0,9.607999921E-1,3.235800028E0
3.954400000E1,-1.507000029E-1,1.834800005E0,4.027100086E0
3.957400000E1,4.113999903E-1,2.130300045E0,6.206399918E0
3.960399844E1,-1.096499920E0,2.151099920E0,6.864199638E0
3.962399844E1,-2.128999949E0,2.562999964E0,6.905599594E0
3.964400000E1,-2.553599834E0,3.217000008E0,6.617300034E0
3.967399844E1,-2.542999983E0,4.577499866E0,6.276499748E0
3.969399844E1,-2.354399920E0,6.147699833E0,5.535799980E0
3.971400000E1,-2.241499901E0,7.068299770E0,4.082499981E0
3.974399844E1,-9.599999525E-3,2.636099815E0,-6.383000016E-1
3.976400000E1,3.033099890E0,-7.002299786E0,-1.375329971E1
3.979400000E1,3.352299929E0,-1.364249992E1,-1.109869957E1
3.982400000E1,2.121199846E0,-1.213899970E0,-4.130499840E0
3.985399844E1,-4.169999808E-2,2.904399872E0,-2.704999924E0
3.987399844E1,-1.390100002E0,-2.030999899E0,2.267600060E0
3.989399844E1,-4.550499916E0,-4.321499825E0,1.175010014E1
3.991399844E1,-8.014800072E0,-1.247699976E0,2.774499893E0
3.993400000E1,-4.282999992E0,3.883399963E0,7.796099663E0
3.996399844E1,-3.029500008E0,1.648800015E0,1.157450008E1
3.998399844E1,-4.004799843E0,-7.225299835E0,5.436599731E0
4.000400000E1,-3.068799973E0,-8.913399696E0,4.319299698E0
4.003399844E1,7.310999632E-1,-4.026599884E0,1.732299924E0
4.005399844E1,8.914999962E-1,-9.172999859E-1,5.522399902E0
4.007400000E1,2.684799910E0,2.627699852E0,3.976399899E0
4.010399844E1,2.410000004E-2,2.381999940E-1,-7.859999537E-1
4.012400000E1,7.454999685E-1,-8.312000036E-1,1.990499973E0
4.014400000E1,3.328999877E-1,2.029199839E0,4.242999852E-1
4.017399844E1,7.045999765E-1,3.365199804E0,-3.080600023E0
4.019399844E1,1.394500017E0,2.550899982E0,-2.269399881E0
4.021399844E1,1.491199970E0,1.936899900E0,3.099999949E-2
4.023400000E1,1.403800011E0,2.294199944E0,1.405099988E0
4.026399844E1,1.183099985E0,1.449100018E0,2.540499926E0
4.028399844E1,8.260999918E-1,-3.858999908E-1,1.213599920E0
4.030400000E1,6.403999925E-1,-7.752999663E-1,-1.438699961E0
4.033399844E1,7.466999888E-1,-1.673399925E0,-9.313099861E0
4.035399844E1,3.341300011E0,-4.424499989E0,-9.558400154E0
4.037400000E1,3.820799828E0,-3.832499981E0,-2.234799862E0
4.040399844E1,2.438899994E0,-2.727399826E0,-1.595199943E0
4.042399844E1,2.075799942E0,-3.746299982E0,-7.703999996E0
4.044400000E1,3.135099888E0,-4.642899990E0,-7.498099804E0
4.047399844E1,8.853999972E-1,-2.494599819E0,-3.374499798E0
4.049399844E1,-1.520999968E-1,-2.653699875E0,-1.500599980E0
4.051400000E1,2.601999938E-1,-4.291299820E0,3.076900005E0
4.054400000E1,-1.068499923E0,-6.019399643E0,3.739099979E0
4.057400000E1,-2.640300035E0,-5.024799824E0,3.453699827E0
4.060399844E1,-2.875900030E0,-3.852299929E0,-5.916000009E-1
4.062399844E1,-3.499399900E0,-2.171900034E0,9.882999659E-1
4.064400000E1,-3.308099985E0,-5.073999763E-1,3.218799829E0
4.066400000E1,-2.714099884E0,7.969999909E-1,3.661199808E0
4.069399844E1,-1.019799948E0,2.004299879E0,4.169199944E0
4.071399844E1,-3.269000053E-1,2.526999950E0,5.788899899E0
4.073400000E1,-7.239999622E-2,2.793299913E0,5.856499672E0
4.076399844E1,-1.546899915E0,4.207299709E0,7.019000053E0
4.078399844E1,-2.018899918E0,4.942800045E0,7.415199757E0
4.080399844E1,-1.942399979E0,4.986299992E0,6.918099880E0
4.082399844E1,-1.939899921E0,5.218499660E0,6.843400002E0
4.084399844E1,-1.885499954E0,5.781399727E0,6.924900055E0
4.086400000E1,-1.313499928E0,5.904500008E0,4.878399849E0
4.089399844E1,9.085999727E-1,-7.565999627E-1,-6.872799873E0
4.091400000E1,4.630300045E0,-1.044530010E1,-2.890689850E1
4.093400000E1,1.071200013E0,-1.145629978E1,-1.143550014E1
4.096399844E1,-7.554999590E-1,-4.664700031E0,-5.210999966E0
4.098399844E1,7.024999857E-1,1.353999972E0,-2.709599972E0
4.100400000E1,1.124599934E0,2.207099915E0,-3.394500017E0
4.103399844E1,-2.151900053E0,-1.200099945E0,1.637759972E1
4.105400000E1,-5.314699650E0,-5.122999668E0,-7.123000026E-1
4.107400469E1,-8.333199501E0,-3.422399998E0,-1.368499994E0
4.110400000E1,-4.665699959E0,6.134399891E0,1.239499950E1
4.112400312E1,-3.380399942E0,2.099799871E0,3.514599800E0
4.115399844E1,-2.032500029E0,-5.327799797E0,2.824999988E-1
4.117399844E1,-1.753899932E0,-5.614799976E0,4.654500008E0
4.119399844E1,6.884999871E-1,-3.743299961E0,6.767899990E0
4.121399844E1,1.395999908E0,-1.172799945E0,6.571799755E0
4.123400000E1,2.390599966E0,1.342999935E0,8.105599403E0
4.126399844E1,2.491199970E0,1.545699954E0,-2.971099854E0
4.128399844E1,2.294100046E0,-7.936999798E-1,2.070400000E0
4.130400000E1,1.613999963E0,5.672000051E-1,7.994999886E-1
4.132400313E1,6.251999736E-1,2.354699850E0,-1.615199924E0
4.135399844E1,4.641999900E-1,2.493000031E0,-1.396099925E0
4.137400000E1,8.320999742E-1,2.722899914E0,-1.212999970E-1
4.140399844E1,8.308999538E-1,2.567999840E0,1.225299954E0
4.142400313E1,7.344999909E-1,4.569999874E-1,1.442499995E0
4.145399844E1,4.736999869E-1,-1.763499975E0,-4.928999841E-1
4.147400625E1,5.209999681E-1,-6.735000014E-1,-3.079099894E0
4.150400000E1,2.645699978E0,-3.103600025E0,-1.333199978E1
4.152400156E1,4.165699959E0,-4.070300102E0,-5.787399769E0
4.155399844E1,3.752699852E0,-2.265199900E0,6.872000098E-1
4.157400000E1,2.997599840E0,-2.349400043E0,-2.411700010E0
4.159400000E1,2.797299862E0,-3.814499855E0,-8.853599548E0
4.162399844E1,1.583599925E0,-3.780499935E0,-3.935799837E0
4.164399844E1,-8.069999516E-2,-3.507099867E0,-1.103399992E0
4.166400000E1,-1.445999891E-1,-5.300299644E0,2.016200066E0
4.169399844E1,-1.380899906E0,-6.997200012E0,3.406099796E0
4.171399844E1,-2.769399881E0,-6.136699677E0,4.067999840E0
4.173400000E1,-2.876999855E0,-4.215699673E0,3.959199905E0
4.176399844E1,-5.235899925E0,-3.067199945E0,-2.829999849E-2
4.178399844E1,-3.975799799E0,-1.484899998E0,1.618600011E0
4.180400000E1,-3.023599863E0,5.261999965E-1,2.870899916E0
4.183399844E1,-1.018599987E0,2.400699854E0,3.865199804E0
4.185399844E1,-2.049999870E-2,3.259199858E0,5.286399841E0
4.187400000E1,5.047000051E-1,3.613199949E0,6.649299622E0
4.190399844E1,-1.110999957E-1,3.161499977E0,7.519699574E0
4.192399844E1,-1.203299999E0,3.487799883E0,7.702899933E0
4.194400000E1,-1.816899896E0,4.037199974E0,6.922199726E0
4.197399844E1,-2.112999916E0,4.906300068E0,6.724499702E0
4.199399844E1,-2.498999834E0,5.516599655E0,7.217499733E0
4.201400000E1,-2.439699888E0,5.742199898E0,5.151599884E0
4.204399844E1,-4.060999751E-1,-2.074499846E0,-7.549499989E0
4.206399844E1,3.215099812E0,-9.902299881E0,-2.772609901E1
4.208400000E1,1.271299958E0,-1.088399982E1,-1.124269962E1
4.211400000E1,1.217399955E0,-2.000799894E0,-5.607299805E0
4.214400000E1,-4.083999991E-1,-5.558999777E-1,-1.735299945E0
4.216400000E1,-3.208799839E0,-3.760999918E0,-6.455999613E-1
4.219399844E1,-4.350599766E0,-3.280499935E0,1.049800014E1
4.221399844E1,-6.369499683E0,1.677799940E0,6.275899887E0
4.223400000E1,-6.149099827E0,5.495199680E0,3.239899874E0
4.226399844E1,-5.700099945E0,1.142099977E0,1.021140003E1
4.228399844E1,-3.833299875E0,-5.357299805E0,2.935699940E0
4.230399844E1,-3.409999907E-1,-6.996500015E0,7.707999945E-1
4.232399844E1,5.864999890E-1,-3.684299946E0,7.123999596E-1
4.234399844E1,3.680000007E-1,-6.771000028E-1,5.891399860E0
4.236400000E1,2.240999937E0,9.351999760E-1,8.314299583E0
4.239399844E1,3.512599945E0,1.714800000E0,-4.359899998E0
4.241400000E1,1.554099917E0,8.260999918E-1,-1.261000037E-1
4.243400000E1,1.338599920E0,9.721999764E-1,1.312699914E0
4.246399844E1,3.537999988E-1,2.338299990E0,-1.516799927E0
4.248399844E1,5.275999904E-1,2.866299868E0,-1.367399931E0
4.250400000E1,5.770999789E-1,3.573099852E0,-7.145999670E-1
4.253399844E1,1.735999882E-1,2.492699862E0,7.707999945E-1
4.255399844E1,1.569999903E-1,-1.412999928E-1,5.575000048E-1
4.257400000E1,6.011999846E-1,-1.562399983E0,-7.815999985E-1
4.259400000E1,4.402999878E-1,-1.950499892E0,-1.854399920E0
4.262400000E1,7.330999970E-1,-1.450799942E0,-8.189899445E0
4.264404375E1,3.480700016E0,-3.543999910E0,-6.533999920E0
4.267399844E1,4.453399658E0,-3.467199802E0,5.048999786E-1
4.269399844E1,4.234600067E0,-2.065599918E0,3.473999798E-1
4.271399844E1,3.931099892E0,-2.927399874E0,-5.810299873E0
4.273400000E1,3.341399908E0,-3.715600014E0,-1.115279961E1
4.276399844E1,2.033799887E0,-3.563099861E0,-1.973199964E0
4.278399844E1,6.839999557E-2,-2.719300032E0,-7.985000014E-1
4.280400000E1,-9.589999914E-1,-3.890899897E0,2.483999878E-1
4.283399844E1,-9.633999467E-1,-6.236399651E0,2.694200039E0
4.285399844E1,-2.131700039E0,-5.493999958E0,3.286199808E0
4.287400000E1,-2.939999819E0,-4.236400127E0,3.389699936E0
4.290399844E1,-5.662999630E0,-3.900499821E0,2.807999849E-1
4.292399844E1,-5.221399784E0,-3.313899994E0,8.895999789E-1
4.294399844E1,-3.689800024E0,-9.102999568E-1,2.382999897E0
4.296399844E1,-2.283699989E0,1.244099975E0,3.273299932E0
4.298399844E1,-7.774999738E-1,2.575700045E0,4.502799988E0
4.300400000E1,2.806999981E-1,3.220399857E0,6.152799606E0
4.303399844E1,7.829999924E-1,3.098599911E0,6.374599934E0
4.305399844E1,-1.550000012E-1,3.316699982E0,7.329299927E0
4.307400000E1,-1.433899999E0,4.299200058E0,7.116799831E0
4.310399844E1,-1.898299932E0,5.206199646E0,6.371599674E0
4.312400156E1,-2.113800049E0,5.359299660E0,6.386699677E0
4.315399844E1,-2.293699980E0,5.988100052E0,5.794099808E0
4.317399844E1,-1.359399915E0,4.378900051E0,5.586999655E-1
4.319399844E1,9.027999640E-1,-2.859099865E0,-9.958199501E0
4.321399844E1,1.042899966E0,-1.096169949E1,-2.777519989E1
4.323399844E1,1.351999938E-1,-1.035799980E1,-8.868700027E0
4.325399844E1,2.925799847E0,-4.767399788E0,-5.832599640E0
4.327399844E1,3.581399918E0,2.104000002E-1,-3.569000006E0
4.329400000E1,1.169600010E0,2.357999980E-1,-1.741099954E0
4.332399844E1,-1.829999872E-2,-5.046799660E0,8.577899933E0
4.334400000E1,-6.222099781E0,-1.835399985E0,1.136049938E1
4.336400000E1,-7.273200035E0,2.966899872E0,4.123699665E0
4.339399844E1,-5.564899921E0,5.634500027E0,1.065769958E1
4.341399844E1,-6.745199680E0,-4.774999917E-1,6.834699631E0
4.343400000E1,-4.979499817E0,-6.346899986E0,3.343199968E0
4.346399844E1,-2.013900042E0,-4.912699699E0,1.366299987E0
4.348399844E1,-2.167399883E0,-2.178799868E0,7.953799725E0
4.350400000E1,2.142999887E0,-1.894899964E0,7.318099976E0
4.353399844E1,2.948400021E0,-4.001999795E-1,3.635999858E-1
4.355399844E1,1.462099910E0,6.772999763E-1,3.578699827E0
4.357400156E1,1.876999974E0,1.592199922E0,2.447399855E0
4.360399844E1,1.088599920E0,2.100399971E0,-3.082299948E0
4.362400000E1,8.271999955E-1,1.997999907E0,-3.066200018E0
4.364400000E1,4.212999940E-1,2.676800013E0,-1.818699956E0
4.366400000E1,5.038999915E-1,3.140799999E0,-3.039000034E-1
4.369399844E1,7.003999949E-1,3.908199787E0,3.506000042E-1
4.371399844E1,2.518999875E-1,1.784999967E0,7.418000102E-1
4.373400000E1,-2.368000001E-1,-9.405999780E-1,-6.782999635E-1
4.376400156E1,5.460000038E-2,-2.622599840E0,-3.397699833E0
4.379400000E1,4.578299999E0,-3.500099897E0,-1.025089931E1
4.381400469E1,5.021800041E0,-4.004399776E0,-3.435599804E0
4.384399844E1,3.352900028E0,-3.775899887E0,-2.171399832E0
4.386400781E1,1.576799989E0,-4.920300007E0,-8.958199501E0
4.389399844E1,1.579299927E0,-5.179800034E0,-5.559999943E0
4.391399844E1,1.727999926E0,-4.384500027E0,-2.601000071E-1
4.393400000E1,3.247999847E-1,-3.958199978E0,4.986999929E-1
4.395400469E1,4.896999896E-1,-5.352399826E0,3.173699856E0
4.398399844E1,-2.227900028E0,-6.769099712E0,2.994999886E0
4.400400000E1,-5.558899879E0,-5.892600060E0,1.499899983E0
4.403399844E1,-5.271899700E0,-2.847899914E0,-6.222000122E-1
4.405399844E1,-3.838799953E0,-7.576000094E-1,1.633099914E0
4.407400000E1,-2.850800037E0,9.807999730E-1,2.986299992E0
4.410399844E1,-1.042899966E0,3.215899944E0,3.740199804E0
4.412399844E1,-1.518999934E-1,3.406899929E0,6.567199707E0
4.414399844E1,2.039999962E-1,3.360800028E0,7.255599976E0
4.416400000E1,2.108999938E-1,2.630800009E0,7.141199589E0
4.419399844E1,-4.360999763E-1,2.240000010E0,7.488999844E0
4.421399844E1,-1.052699924E0,2.432199955E0,7.368399620E0
4.423399844E1,-2.039700031E0,3.582499981E0,6.862499714E0
4.425399844E1,-2.858399868E0,5.266200066E0,6.293499947E0
4.427399844E1,-3.290699959E0,6.583699703E0,4.429599762E0
4.429400000E1,-3.411199808E0,6.681099892E0,2.590999842E0
4.432399844E1,-2.883699894E0,1.424799919E0,-1.537799954E0
4.434399844E1,-1.534999907E-1,-1.080679989E1,-1.808489990E1
4.436400000E1,4.251999855E-1,-1.617070007E1,-2.100949860E1
4.439399844E1,4.280099869E0,-4.396899700E0,-3.923999786E0
4.441399844E1,3.793599844E0,1.160599947E0,-1.877599955E0
4.443400000E1,-3.944999874E-1,1.562999964E0,-3.551100016E0
4.446399844E1,-5.736000061E0,-3.544999838E0,1.021249962E1
4.448399844E1,-7.860499859E0,-3.593699932E0,7.596699715E0
4.450400000E1,-5.492199898E0,2.036399841E0,7.982999802E0
4.453399844E1,-3.655399799E0,4.860499859E0,1.144019985E1
4.455399844E1,-5.151199818E0,-2.623600006E0,5.918299675E0
4.457400000E1,-3.934899807E0,-7.268799782E0,4.183899879E0
4.460399844E1,-3.175999820E-1,-4.974800110E0,1.342800021E0
4.462400000E1,6.541000009E-1,-1.874099970E0,2.188299894E0
4.464400000E1,2.628599882E0,1.292099953E0,7.108799934E0
4.466400000E1,4.286699772E0,1.478799939E0,-2.050600052E0
4.469399844E1,1.688699961E0,6.398999691E-1,7.112999558E-1
4.471399844E1,8.817999959E-1,1.974799991E0,-5.949999765E-2
4.473399844E1,3.419999778E-1,3.117899895E0,-1.716499925E0
4.475399844E1,3.158999979E-1,3.218600035E0,-1.834199905E0
4.477399844E1,1.570999920E-1,3.381099939E0,-1.226400018E0
4.479399844E1,4.429999739E-2,3.441200018E0,-2.373999953E-1
4.481399844E1,1.201999933E-1,2.502599955E0,2.594999969E-1
4.483399844E1,2.177999914E-1,2.270999998E-1,1.597999930E-1
4.485399844E1,6.161999702E-1,-1.506399989E0,-1.180099964E0
4.487400000E1,8.065999746E-1,-1.616799951E0,-3.603799820E0
4.490399844E1,4.019400120E0,-3.768599987E0,-9.422399521E0
4.492399844E1,4.973000050E0,-4.651499748E0,-2.527299881E0
4.494400000E1,4.268199921E0,-2.969499826E0,1.038900018E0
4.497399844E1,2.624799967E0,-4.217499733E0,-6.143199921E0
4.499399844E1,3.317600012E0,-5.464200020E0,-7.993499756E0
4.501400000E1,2.900699854E0,-4.712800026E0,-3.732999802E0
4.504399844E1,-1.043399930E0,-2.914599895E0,-4.741499901E0
4.506399844E1,-6.674000025E-1,-3.994899988E0,1.517399907E0
4.508400000E1,-6.129999831E-2,-5.045300007E0,3.604599953E0
4.511399844E1,-2.740099907E0,-4.850800037E0,4.355000019E0
4.513399844E1,-3.039899826E0,-3.484399796E0,3.984499931E0
4.515399844E1,-3.014699936E0,-2.690500021E0,3.518499851E0
4.517399844E1,-4.859399796E0,-2.389199972E0,4.046999812E-1
4.519399844E1,-3.746299982E0,-4.298000038E-1,2.202999830E0
4.521399844E1,-2.775599957E0,1.540099978E0,2.615000010E0
4.523400000E1,-1.038999915E0,2.824899912E0,3.133599997E0
4.526399844E1,2.795000076E-1,3.262899876E0,5.420499802E0
4.528399844E1,4.709999859E-1,2.798099995E0,6.651899815E0
4.530400000E1,-2.685999870E-1,2.294299841E0,6.880899906E0
4.533399844E1,-1.984299898E0,3.154699802E0,6.953299999E0
4.535399844E1,-2.619799852E0,3.730899811E0,6.331399918E0
4.537400000E1,-2.843899965E0,4.176000118E0,6.665400028E0
4.540399844E1,-2.569599867E0,5.829699993E0,5.079599857E0
4.542399844E1,-1.736299992E0,4.420399666E0,2.172399998E0
4.544400000E1,4.034000039E-1,-2.499300003E0,-6.228299618E0
4.547399844E1,2.582499981E0,-1.096319962E1,-2.562909889E1
4.549399844E1,6.341999769E-1,-7.847499847E0,-5.847799778E0
4.551400000E1,1.026799917E0,-2.266099930E0,-4.767899990E0
4.554399844E1,1.562399983E0,3.170799971E0,-1.852199912E0
4.556399844E1,-1.947600007E0,2.543999851E-1,7.048000097E-1
4.558400000E1,-3.616599798E0,-3.561800003E0,1.186139965E1
4.561399844E1,-8.553199768E0,-2.363199949E0,2.853399992E0
4.563399844E1,-2.454200029E0,4.118000031E0,1.197489929E1
4.565400000E1,-1.540699959E0,3.200999975E0,9.663199425E0
4.568399844E1,-5.284000039E-1,-6.241099834E0,4.389599800E0
4.570399844E1,-3.560999930E-1,-7.412299633E0,3.439999819E0
4.572400000E1,1.415099978E0,-5.787499905E0,3.619199991E0
4.575399844E1,3.140100002E0,-1.109699965E0,4.628699780E0
4.577399844E1,2.791899920E0,1.497099996E0,3.752199888E0
4.579400000E1,1.649999917E-1,4.496200085E0,-2.295500040E0
4.582399844E1,4.673999846E-1,8.963999748E-1,1.189999934E-2
4.584399844E1,5.906000137E-1,1.302899957E0,9.919999540E-2
4.586400156E1,-2.858999968E-1,2.887099981E0,-1.512300014E0
4.589399844E1,3.304999769E-1,2.626199961E0,-1.343799949E0
4.591399844E1,7.930999994E-1,2.531699896E0,3.032999933E-1
4.593400000E1,8.765999675E-1,2.741499901E0,1.092599988E0
4.596399844E1,3.310000002E-1,2.496999949E-1,1.362900019E0
4.598399844E1,-8.569999784E-2,-1.594499946E0,-8.646000028E-1
4.600400000E1,-1.680999994E-1,-1.612299919E0,-3.314299822E0
4.603399844E1,1.903599977E0,-2.583199978E0,-9.566699982E0
4.605399844E1,3.645099878E0,-3.994999886E0,-6.161099911E0
4.607399844E1,3.321499825E0,-3.741899967E0,-1.647799969E0
4.609400000E1,2.357599974E0,-3.244699955E0,-1.693999916E-1
4.612399844E1,1.535499930E0,-5.093199730E0,-8.213600159E0
4.614399844E1,2.749199867E0,-4.498600006E0,-1.014470005E1
4.616400000E1,2.133100033E0,-3.059899807E0,-4.301099777E0
4.619399844E1,3.646999896E-1,-2.485999823E0,-2.360999882E-1
4.621399844E1,1.479099989E0,-4.652199745E0,3.837899923E0
4.623399844E1,1.179499984E0,-6.036200047E0,4.338799953E0
4.625399844E1,-3.999999724E-3,-5.787399769E0,4.569200039E0
4.627399844E1,-7.530999780E-1,-4.167500019E0,4.385799885E0
4.629400000E1,-6.653000116E-1,-3.147099972E0,4.072299957E0
4.632399844E1,-5.651000142E-1,-2.895799875E0,-2.175899982E0
4.634399844E1,-1.451200008E0,-7.150999904E-1,2.207099915E0
4.636400000E1,-1.045799971E0,1.293099999E0,6.761799812E0
4.639399844E1,1.414199948E0,1.786999941E0,4.855099678E0
4.641399844E1,1.197299957E0,1.527300000E0,5.313199997E0
4.643400000E1,-1.764999926E-1,1.795699954E0,7.172199726E0
4.646399844E1,-2.321599960E0,3.640799999E0,7.695399761E0
4.648399844E1,-2.996299982E0,3.708899975E0,7.003399849E0
4.650400156E1,-3.962899923E0,3.954499960E0,7.361399651E0
4.653400000E1,-4.466799736E0,6.185999870E0,4.347399712E0
4.656400000E1,-2.423799992E0,6.523699760E0,5.873999596E-1
4.658400000E1,8.258999586E-1,1.324999928E0,-3.366799831E0
4.661399844E1,1.470899940E0,-1.306729984E1,-2.598819923E1
4.663399844E1,3.503700018E0,-1.058080006E1,-1.049930000E1
4.665400000E1,6.751800060E0,-1.956399918E0,-5.129799843E0
4.668399844E1,3.747599840E0,2.645999789E-1,-5.877299786E0
4.670399844E1,-1.953799963E0,-5.141099930E0,8.667499542E0
4.672400000E1,-6.515500069E0,-6.475499630E0,1.414579964E1
4.674400000E1,-4.941499710E0,-1.180699944E0,9.319799423E0
4.677399844E1,-3.539399862E0,4.370599747E0,6.107299805E0
4.679400000E1,-5.630599976E0,-3.517999947E-1,8.698299408E0
4.682399844E1,-5.566599846E0,-7.269299984E0,5.941199780E0
4.684399844E1,-3.500399828E0,-5.000799656E0,4.995299816E0
4.686400000E1,-8.149999976E-1,-1.890799999E0,2.781100035E0
4.689399844E1,1.806699991E0,2.542099953E0,8.022999763E-1
4.691399844E1,9.210000038E-1,7.749999762E-1,-1.817999929E-1
4.693399844E1,1.016899943E0,-2.468999922E-1,4.104999900E-1
4.695399844E1,9.056999683E-1,1.278399944E0,-7.046999931E-1
4.697399844E1,3.540000021E-1,3.507200003E0,-3.413699865E0
4.699399844E1,6.602999568E-1,2.920699835E0,-3.667099953E0
4.701400000E1,1.055599928E0,2.130800009E0,-1.642099977E0
4.704399844E1,1.098199964E0,3.654599905E0,1.454199910E0
