"Time (s)","Acceleration x (m/s^2)","Acceleration y (m/s^2)","Acceleration z (m/s^2)"
0.000000000E0,-4.152043819E0,4.398502827E0,6.777592182E0
2.000000000E-2,-3.447238445E0,4.319800854E0,7.032690048E0
4.000000000E-2,-2.844369173E0,4.452898979E0,7.190247536E0
6.000781300E-2,-2.679101944E0,4.827476501E0,7.077183723E0
8.200156300E-2,-1.607696891E0,3.969480991E0,6.515092373E0
1.020093750E-1,-5.759299994E-1,3.528066874E0,7.869233608E0
1.240000000E-1,5.721184611E-2,3.044888258E0,8.338698387E0
1.440000000E-1,6.197151542E-2,2.511440992E0,8.285785675E0
1.640000000E-1,-4.699051678E-1,2.253920555E0,9.840168953E0
1.840281250E-1,-9.561101198E-1,2.171263218E0,1.130105400E1
2.060000000E-1,-1.098306537E0,2.274443865E0,1.361804676E1
2.260046880E-1,-2.058486700E0,3.822189808E0,1.315728664E1
2.480015630E-1,-2.245186567E-1,1.449851871E0,1.167150402E1
2.680015630E-1,6.521518230E-1,5.073887706E-1,9.592800140E0
2.880078130E-1,2.316064358E0,2.190981954E-1,8.937947273E0
3.100078130E-1,2.804223061E0,1.045279741E0,8.803402901E0
3.320015630E-1,2.610570669E0,2.110574961E0,9.042008400E0
3.520156250E-1,1.338052273E0,1.887320399E0,9.810471535E0
3.740000000E-1,5.407831669E-1,1.812602162E0,1.077974892E1
3.940078130E-1,-3.564583063E-1,3.008094311E0,8.274083138E0
4.160000000E-1,-3.008046389E0,5.079959393E0,3.970783472E0
4.360015630E-1,-2.158506870E0,4.387077808E0,7.503648281E0
4.580062500E-1,-1.791935444E0,3.298836470E0,8.236207008E0
4.800000000E-1,-1.975168586E0,3.648370743E0,9.336046219E0
5.000046880E-1,-1.603866100E0,3.622072697E0,9.910913467E0
5.220015630E-1,-1.123100877E0,4.031509876E0,1.012674522E1
5.440000000E-1,-3.134105802E-1,4.054618835E0,9.516674042E0
5.640000000E-1,4.134786427E-1,3.961848497E0,9.413637161E0
5.840187500E-1,6.799341440E-1,3.556404829E0,1.024244213E1
6.060000000E-1,6.499108076E-1,3.045912981E0,1.063558006E1
6.260000000E-1,4.697998464E-1,2.519188643E0,1.085898781E1
6.460000000E-1,1.991209686E-1,2.437632561E0,1.029729843E1
6.680000000E-1,-8.149862289E-3,2.465348005E0,9.505095482E0
6.880000000E-1,3.077698350E-1,2.487268925E0,9.155292511E0
7.080000000E-1,6.870592833E-1,2.340274572E0,8.871187210E0
7.280000000E-1,9.118460417E-1,2.220708370E0,8.787246704E0
7.480031250E-1,5.478508472E-1,2.281358242E0,8.714176178E0
7.700000000E-1,-1.684368700E-1,2.107328415E0,8.776320457E0
7.900000000E-1,-1.147646189E0,2.407063246E0,8.605200768E0
8.100000000E-1,-1.675280452E0,2.752805233E0,8.826081276E0
8.300000000E-1,-1.752191782E0,3.062959671E0,8.700787544E0
8.500015630E-1,-2.182056427E0,3.328016996E0,7.911237240E0
8.700015630E-1,-1.193423390E0,3.258738279E0,7.590471745E0
8.900015630E-1,-1.105565667E0,3.964577675E0,7.039680481E0
9.120000000E-1,-9.240661263E-1,4.030111790E0,7.000588417E0
9.320000000E-1,-1.042914271E0,4.048738956E0,7.596141338E0
9.520015630E-1,-1.431780577E0,4.075486660E0,8.104047775E0
9.720015630E-1,-1.620405316E0,4.001898766E0,8.704014778E0
9.920015630E-1,-1.552869678E0,3.832800865E0,8.320023537E0
1.012001563E0,-1.500168443E0,3.829439402E0,8.201710701E0
1.032001563E0,-1.718385577E0,4.002856255E0,8.517564774E0
1.054001563E0,-1.726861119E0,4.348828316E0,8.899812698E0
1.076001563E0,-1.348452806E0,4.455801010E0,9.457048416E0
1.098001563E0,-1.217633486E0,4.481006622E0,9.616712570E0
1.120000000E0,-1.000431538E0,4.326715469E0,9.863162994E0
1.140000000E0,-1.159023404E0,4.260596752E0,1.048317528E1
1.160000000E0,-1.118954062E0,4.160366058E0,1.081221485E1
1.180000000E0,-9.300707579E-1,4.425413609E0,1.082246208E1
1.200000000E0,-9.096912742E-1,4.647394657E0,1.067016220E1
1.220000000E0,-9.143838882E-1,4.461221218E0,1.057952690E1
1.240000000E0,-9.425492883E-1,4.380546570E0,1.100543690E1
1.260000000E0,-9.994738698E-1,3.728308439E0,1.134404373E1
1.280000000E0,-6.015767455E-1,3.023072243E0,1.182016373E1
1.300000000E0,-4.672236741E-1,2.639856339E0,1.128549099E1
1.320000000E0,-9.768438935E-1,2.524589777E0,1.018201256E1
1.340000000E0,-1.577491522E0,2.619668484E0,8.939451218E0
1.362000000E0,-1.489854217E0,2.798074722E0,7.678472996E0
1.382000000E0,-1.195942044E0,2.759748459E0,7.587770939E0
1.402000000E0,-6.423930526E-1,2.361563921E0,7.990533352E0
1.422000000E0,-7.127346992E-1,2.098718882E0,8.233468056E0
1.442000000E0,-1.287113309E0,2.169951200E0,8.256069183E0
1.462000000E0,-1.637001991E0,2.215268612E0,8.012866020E0
1.482000000E0,-1.617551446E0,2.399650812E0,7.526326180E0
1.502000000E0,-1.328485131E0,2.719410896E0,7.233582497E0
1.522000000E0,-1.101428628E0,2.853428602E0,7.299758434E0
1.542000000E0,-1.055239677E0,3.128551245E0,7.106335640E0
1.562000000E0,-8.987067342E-1,3.208996296E0,6.900367260E0
1.582000000E0,-8.101978898E-1,3.407274723E0,7.159429073E0
1.602000000E0,-7.566060424E-1,3.584991455E0,7.906439304E0
1.622000000E0,-7.591055632E-1,3.619726658E0,8.436936378E0
1.642000000E0,-7.684429884E-1,3.976462603E0,8.447826385E0
1.662000000E0,-7.187584639E-1,4.215384960E0,8.497289658E0
1.682000000E0,-9.431334734E-1,4.419562340E0,8.384369850E0
1.702000000E0,-1.061416626E0,4.575415134E0,8.061880112E0
1.722000000E0,-1.235657096E0,4.598667622E0,8.259765625E0
1.742000000E0,-1.339402556E0,4.756943226E0,8.524249077E0
1.762000000E0,-1.044360399E0,4.710017204E0,9.372638702E0
1.782000000E0,-5.228170156E-1,4.784074783E0,1.008565140E1
1.802000000E0,-3.503291607E-1,4.743421078E0,1.077114010E1
1.822000000E0,-4.190619290E-1,4.346960545E0,1.133789539E1
1.842000000E0,-9.483241439E-1,4.299067020E0,1.203084469E1
1.862000000E0,-1.508730054E0,4.400025368E0,1.362983608E1
1.882000000E0,-5.900845528E-1,2.917593241E0,1.259964943E1
1.902000000E0,1.256955862E-1,2.997416019E0,1.172315121E1
1.922000000E0,2.761165857E0,3.717180252E0,1.003887749E1
1.942000000E0,4.127450466E0,2.115870953E0,1.068870354E1
1.962000000E0,2.354563236E0,2.094706297E0,1.033416939E1
1.982000000E0,7.311987877E-1,1.925388336E0,9.087710381E0
2.002000000E0,-2.808685899E-1,2.326876640E0,7.772364140E0
2.022000000E0,-5.044391751E-1,2.930320740E0,1.049312496E1
2.042000000E0,-2.967373729E-1,3.454593658E0,9.328661919E0
2.062000000E0,1.642135084E-1,3.326484680E0,7.807156563E0
2.082000000E0,-7.445871830E-1,3.152847767E0,6.596332073E0
2.102004688E0,-2.125064611E0,2.806837559E0,6.540547371E0
2.124000000E0,-2.510100126E0,2.870868206E0,7.987219810E0
2.144000000E0,-2.090310574E0,2.846686840E0,8.235441208E0
2.164000000E0,-1.767686963E0,3.028655529E0,8.108874321E0
2.184018750E0,-1.114156127E0,3.321274996E0,8.350774765E0
2.206000000E0,-5.210453272E-1,3.579322100E0,7.915077686E0
2.226004688E0,-2.194333822E-1,3.810563564E0,6.709060669E0
2.248001563E0,-1.285207458E-2,3.928961754E0,5.794561863E0
2.268003125E0,-8.360552602E-3,3.757048368E0,6.203797817E0
2.288012500E0,-3.709193170E-1,3.914797544E0,7.242900848E0
2.310000000E0,-3.634493947E-1,3.857001543E0,8.080947876E0
2.330000000E0,-5.949782729E-1,4.029479504E0,8.433374405E0
2.350001563E0,-5.196854472E-1,4.258920670E0,8.236944199E0
2.372001563E0,-1.118034840E0,3.155481100E0,1.072612858E1
2.392004688E0,-1.721277833E0,4.244661331E0,1.166011620E1
2.414000000E0,-1.845383644E0,4.191682339E0,9.912693977E0
2.434000000E0,-3.334404707E0,4.744034290E0,9.520371437E0
2.454000000E0,-3.988136768E0,4.640911102E0,1.084584904E1
2.474001563E0,-3.535163403E0,3.746159315E0,1.311329174E1
2.496000000E0,-3.336884975E0,3.363269329E0,1.338946819E1
2.516001563E0,-3.999370337E0,3.526965618E0,1.240867805E1
2.538001563E0,-3.788604021E0,3.316678047E0,1.065392017E1
2.558007813E0,-3.107175827E0,3.222681522E0,9.229828835E0
2.580000000E0,-2.202751637E0,2.994533539E0,7.848605156E0
2.600007813E0,-1.278905869E0,2.605178595E0,7.750184059E0
2.622000000E0,-1.997051537E-1,2.634933949E0,8.084385872E0
2.642007813E0,3.190992177E-1,2.498991251E0,8.778570175E0
2.664000000E0,-3.902548850E-1,2.370307684E0,8.466596603E0
2.684020313E0,-1.020849347E0,2.393406630E0,8.059342384E0
2.706000000E0,-1.222316504E0,2.901839495E0,7.295831680E0
2.728001563E0,-5.728079677E-1,2.824066162E0,5.737283230E0
2.748001563E0,-6.301442981E-1,3.114530802E0,5.380067825E0
2.770000000E0,-1.166771173E0,3.171675444E0,5.432596684E0
2.790004688E0,-1.450828791E0,3.280238390E0,6.636736870E0
2.812001563E0,-1.147090793E0,3.260117531E0,7.964675903E0
2.832003125E0,-1.072487473E0,3.293013573E0,8.423290253E0
2.852012500E0,-1.171253085E0,3.506921291E0,8.429007530E0
2.874000000E0,-1.090290785E0,3.863513708E0,8.009716034E0
2.894000000E0,-8.917347789E-1,4.016187191E0,7.110003471E0
2.914000000E0,-5.949590802E-1,4.087697029E0,6.841584682E0
2.934000000E0,-6.080601811E-1,4.162243366E0,7.298043728E0
2.954000000E0,-7.786806226E-1,4.420759201E0,8.626739502E0
2.974003125E0,-1.523899794E0,5.189049244E0,1.074186325E1
2.996000000E0,-2.021702290E0,5.581803799E0,1.185847187E1
3.016000000E0,-1.161139846E0,4.929833412E0,1.199186707E1
3.036000000E0,-3.854185939E-1,4.454632282E0,1.293779659E1
3.056003125E0,5.382931232E-1,3.247006893E0,1.442488289E1
3.078000000E0,6.399892569E-1,2.407963514E0,1.470009136E1
3.098004688E0,7.247727513E-1,2.158334494E0,1.397453403E1
3.118012500E0,1.349046469E0,2.106677294E0,1.189506435E1
3.140003125E0,2.375153303E0,2.375498295E0,1.030459690E1
3.162000000E0,2.830300808E0,2.627636433E0,8.679909706E0
3.182000000E0,2.743065596E0,2.866501093E0,7.701485634E0
3.202000000E0,2.190177441E0,2.724209070E0,7.529572964E0
3.222000000E0,9.097008705E-1,2.716183662E0,7.510323048E0
3.242000000E0,3.010948002E-2,2.919738531E0,7.128659248E0
3.262000000E0,-4.773942530E-1,3.070448637E0,6.944161415E0
3.282000000E0,-7.234224081E-1,3.321974039E0,7.029529095E0
3.302000000E0,-6.625139117E-1,3.432969332E0,6.915392876E0
3.322000000E0,-6.461854577E-1,3.544280529E0,6.791191578E0
3.342000000E0,-6.800490618E-1,3.603675842E0,6.578883171E0
3.362000000E0,-7.936491370E-1,3.621651411E0,6.420664787E0
3.382000000E0,-9.428845048E-1,3.524054289E0,6.422646999E0
3.402000000E0,-1.073081136E0,3.572369099E0,6.754081726E0
3.422000000E0,-8.413033485E-1,3.636562586E0,7.237633228E0
3.442000000E0,-7.295803428E-1,3.944313288E0,7.958939552E0
3.462000000E0,-8.120462298E-1,4.237967014E0,8.245764732E0
3.482000000E0,-8.852704763E-1,4.402218819E0,8.389895439E0
3.502000000E0,-9.825995564E-1,4.310377121E0,8.642781258E0
3.522000000E0,-9.697474241E-1,4.226742744E0,9.022338867E0
3.542000000E0,-1.380209327E0,4.086298943E0,1.039333534E1
3.562000000E0,-2.052108526E0,4.233082294E0,1.114309406E1
3.582000000E0,-1.595505595E0,3.727044106E0,1.162369633E1
3.602003125E0,-1.074862599E0,3.124232292E0,1.268375301E1
3.624000000E0,-1.103822708E0,2.237257004E0,1.358953667E1
3.644000000E0,-2.324903727E0,2.194994688E0,1.253990936E1
3.664000000E0,-3.367387295E0,2.338589191E0,1.078282356E1
3.684018750E0,-3.295819759E0,2.324157000E0,9.365073204E0
3.706000000E0,-2.683325529E0,2.162318468E0,8.676759720E0
3.726000000E0,-2.357005358E0,1.452792048E0,9.449549675E0
3.746000000E0,-2.296499014E0,1.581973553E0,1.013567066E1
3.767998438E0,-2.355664492E0,1.617570519E0,1.020791817E1
3.788000000E0,-2.221943617E0,1.519475341E0,9.469115257E0
3.808003125E0,-1.774821758E0,1.668930888E0,8.133179665E0
3.828003125E0,-1.190665245E0,1.905094981E0,7.133016586E0
3.848006250E0,-6.167750955E-1,1.844732404E0,6.027173042E0
3.870000000E0,-1.188050747E0,1.701425076E0,6.283582687E0
3.890000000E0,-1.933997750E0,2.093202591E0,6.642788887E0
3.910000000E0,-1.715215683E0,1.900766373E0,6.337710381E0
3.930001563E0,-1.393118858E0,1.936669827E0,6.692272663E0
3.952000000E0,-1.066540241E0,2.107596636E0,6.658524036E0
3.972000000E0,-7.194384933E-1,2.305692911E0,6.866397858E0
3.992000000E0,-3.754682839E-1,2.057289600E0,6.453178406E0
4.012003125E0,-2.991794348E-1,2.387449980E0,6.820544243E0
4.034000000E0,-4.675301313E-1,2.493810177E0,7.960730553E0
4.054000000E0,-3.610264659E-1,2.354323864E0,9.197900772E0
4.074000000E0,1.117709130E-1,2.136126041E0,1.093595695E1
4.094000000E0,4.858218431E-1,1.840432405E0,1.218850803E1
4.114000000E0,-3.586131036E-1,1.851330757E0,1.224664879E1
4.134000000E0,-1.021050453E0,1.687289715E0,1.197173595E1
4.154000000E0,-9.818429351E-1,1.801244140E0,1.234368992E1
4.174000000E0,-5.494213700E-1,1.229116082E0,1.407685280E1
4.194000000E0,-7.497107387E-1,5.133168101E-1,1.672873878E1
4.214000000E0,-9.627946615E-1,-1.131595448E-1,1.766693878E1
4.234000000E0,-8.675629646E-2,-4.790414572E-1,1.660776329E1
4.254000000E0,1.754911542E0,-4.031643867E-1,1.447836971E1
4.274000000E0,3.554067850E0,-8.968679607E-2,1.212699509E1
4.294000000E0,3.915170908E0,3.661787808E-1,1.050874519E1
4.314000000E0,3.120640755E0,5.660179853E-1,9.448200226E0
4.334000000E0,2.054225206E0,5.571786761E-1,8.472217560E0
4.354000000E0,1.041880012E0,6.950367689E-1,7.544292450E0
4.374003125E0,2.973502874E-1,9.549416900E-1,6.696026802E0
4.396000000E0,-1.451460868E-1,1.237696886E0,5.852606773E0
4.416000000E0,-3.546961844E-1,1.421207786E0,5.207436562E0
4.436000000E0,-2.113601267E-1,1.610014439E0,4.958717346E0
4.456000000E0,-7.623138279E-2,1.701779366E0,5.410732746E0
4.476001563E0,-4.666490853E-1,1.782167077E0,6.199210644E0
4.498000000E0,-1.013513446E0,1.774984479E0,6.741449833E0
4.518000000E0,-1.215287209E0,1.842807531E0,6.842455864E0
4.538001563E0,-8.588192463E-1,1.943976760E0,7.127595901E0
4.558001563E0,-4.430135190E-1,2.069298983E0,7.798039436E0
4.578001563E0,9.739612229E-3,2.103287220E0,8.946193695E0
4.598001563E0,3.049446642E-1,2.192236423E0,1.015750599E1
4.618001563E0,2.497439682E-1,2.287075520E0,1.095550251E1
4.640001563E0,2.769899964E-1,2.268611670E0,1.180299282E1
4.660001563E0,7.765928507E-1,1.973808646E0,1.287483883E1
4.682000000E0,1.225113034E0,1.504746199E0,1.390682602E1
4.702000000E0,9.928658605E-1,1.472185016E0,1.400973797E1
4.722000000E0,8.674001694E-1,1.188558340E0,1.329743481E1
4.742000000E0,6.730100513E-1,7.240545154E-1,1.214897442E1
4.762000000E0,5.972863436E-1,2.772006691E-1,1.160016632E1
4.782001563E0,3.198366165E-1,-3.570616841E-1,1.158424950E1
4.802001563E0,-3.579810560E-1,-7.695251703E-1,1.202595043E1
4.822001563E0,-9.292471409E-1,-1.059530020E0,1.253617382E1
4.844001563E0,-4.971990585E-1,-1.188041091E0,1.285905647E1
4.866001563E0,8.431324959E-1,-1.078348398E0,1.264017868E1
4.888001563E0,2.017679930E0,-5.570253730E-1,1.171747208E1
4.908001563E0,2.512494326E0,-8.403647691E-2,1.023744297E1
4.928014063E0,2.398970842E0,5.485594869E-1,8.583997726E0
4.950000000E0,2.484826803E0,9.797456861E-1,6.831050396E0
4.970001563E0,2.776249170E0,1.159952402E0,5.674574375E0
4.990001563E0,2.916128159E0,1.283838034E0,5.219426632E0
5.010001563E0,2.933854818E0,1.291001439E0,5.225402832E0
5.030001563E0,2.546348333E0,1.235858202E0,5.335727692E0
5.050001563E0,1.861012936E0,1.130293131E0,5.726624012E0
5.070001563E0,1.137983322E0,9.797264934E-1,5.754128456E0
5.092001563E0,3.411066830E-1,1.306755304E0,5.822526455E0
5.114001563E0,4.712746665E-2,1.594931006E0,5.993443489E0
5.134001563E0,-5.220317468E-2,1.717111945E0,6.774498940E0
5.156001563E0,3.413173929E-2,1.716786265E0,8.481775284E0
5.178001563E0,-9.662041068E-2,1.586388469E0,1.029811192E1
5.198001563E0,-6.744083166E-1,1.579435706E0,1.122046471E1
5.218021875E0,-1.240531564E0,1.749548554E0,1.198742294E1
5.240000000E0,-6.687292457E-1,1.530680180E0,1.388183022E1
5.260000000E0,1.195051432E0,1.897931546E-1,1.645130730E1
5.280001563E0,1.625021338E0,-1.061292171E0,1.860362625E1
5.302001563E0,7.459183335E-1,-1.668308496E0,1.821568871E1
5.324000000E0,1.018301845E-1,-1.269750476E0,1.539985943E1
5.344001563E0,1.494431973E0,-5.972479582E-1,1.218192768E1
5.366000000E0,3.660877943E0,-7.862558588E-3,9.548009872E0
5.386000000E0,4.360540390E0,1.277929097E-1,8.661283493E0
5.406000000E0,3.769517422E0,1.511507481E-1,8.154794693E0
5.426000000E0,2.569533825E0,1.158602089E-1,7.702127934E0
5.446000000E0,1.537527561E0,1.204858124E-1,7.702682972E0
5.466000000E0,1.050135136E0,2.173552066E-1,7.800845146E0
5.486000000E0,8.282118440E-1,3.962978423E-1,7.694092751E0
5.506000000E0,6.194948554E-1,6.714969277E-1,7.571030617E0
5.526000000E0,2.964021564E-1,8.805873990E-1,7.233898640E0
5.546000000E0,-1.987283230E-1,1.196315527E0,7.066974640E0
5.566000000E0,-8.042315245E-1,1.443799496E0,6.524266720E0
5.586000000E0,-1.406095505E0,1.883958936E0,5.889784336E0
5.606000000E0,-1.995835304E0,2.006082296E0,5.448609352E0
5.627998438E0,-3.268765450E0,2.263995409E0,6.353827953E0
5.648000000E0,-3.340466738E0,2.176396370E0,8.203090668E0
5.668000000E0,-2.277096510E0,2.122565269E0,1.055409050E1
5.688000000E0,-7.192181945E-1,1.457092047E0,1.182458878E1
5.708000000E0,-5.308424234E-1,1.315498948E0,1.286360550E1
5.728012500E0,4.730463922E-1,9.653804302E-1,1.499142742E1
5.750000000E0,2.233138800E0,-1.174403876E-1,1.766615486E1
5.770000000E0,3.401921034E0,-1.486444950E0,1.899260712E1
5.790000000E0,2.924258709E0,-2.028549671E0,1.882740784E1
5.810000000E0,2.006398439E0,-2.236940861E0,1.752150536E1
5.830000000E0,1.532902002E0,-1.919632554E0,1.576105881E1
5.850000000E0,1.546568155E0,-1.597698689E0,1.366756821E1
5.870000000E0,1.330649376E0,-1.131298542E0,1.164071369E1
5.890000000E0,1.048373103E0,-5.603581071E-1,9.912752151E0
5.910000000E0,9.071438313E-1,-2.251507193E-1,8.365666389E0
5.930000000E0,8.565974832E-1,1.623077244E-1,6.925372124E0
5.950000000E0,6.697731614E-1,6.719853282E-1,5.761445522E0
5.970000000E0,5.705956817E-1,1.007317305E0,5.298761368E0
5.990000000E0,4.795777500E-1,1.256017327E0,5.098662853E0
6.010000000E0,5.334185958E-1,1.447342753E0,5.131549835E0
6.030000000E0,5.925840735E-1,1.436099648E0,5.183245659E0
6.050000000E0,2.454056740E-1,1.691896081E0,5.535633564E0
6.070000000E0,3.607583418E-2,1.726755738E0,5.725829124E0
6.090000000E0,-2.339422256E-1,1.843305469E0,6.102542400E0
6.110000000E0,-5.629917383E-1,2.174959898E0,6.768781662E0
6.130000000E0,-8.288151622E-1,2.450063229E0,7.035160542E0
6.150001563E0,-9.776099920E-1,2.725836992E0,7.208960533E0
6.172001563E0,-7.624766231E-1,2.967746973E0,8.343275070E0
6.194000000E0,-4.587194920E-1,2.883088112E0,9.735283852E0
6.214000000E0,-6.513856649E-1,2.904090166E0,1.079712200E1
6.234000000E0,-9.448764920E-1,3.273256779E0,1.154130650E1
6.254000000E0,-1.129986525E0,3.917211056E0,1.232839584E1
6.274000000E0,-1.985463500E-1,3.534406662E0,1.248057175E1
6.294000000E0,1.464734197E0,2.416898727E0,1.254448700E1
6.314000000E0,1.592259049E0,2.034726620E0,1.315430927E1
6.334000000E0,6.219465733E-1,1.721584201E0,1.438158703E1
6.354000000E0,9.077472091E-1,9.755510092E-1,1.433075333E1
6.374000000E0,2.582041264E0,4.592078924E-1,1.296281147E1
6.394000000E0,3.442565203E0,8.880764842E-1,1.116787815E1
6.414000000E0,3.080351114E0,1.240675330E0,9.966180801E0
6.434000000E0,2.090329647E0,1.443224788E0,8.958729744E0
6.454000000E0,1.214951992E0,1.703484178E0,8.036089897E0
6.474000000E0,6.218125224E-1,1.704432249E0,7.293130875E0
6.494000000E0,-4.325843975E-2,1.909165144E0,7.072672844E0
6.514000000E0,-5.595249534E-1,2.048747063E0,6.789362431E0
6.534000000E0,-8.197268248E-1,2.031939745E0,6.436294079E0
6.554000000E0,-9.531987309E-1,2.138922453E0,6.156009674E0
6.574000000E0,-1.224069118E0,2.333341122E0,6.247401237E0
6.594000000E0,-1.386664152E0,2.305750132E0,6.745807171E0
6.614000000E0,-1.469972730E0,2.389518499E0,7.445354462E0
6.634000000E0,-1.322202682E0,2.537901640E0,7.697444916E0
6.654000000E0,-1.247005582E0,2.938135386E0,7.939383507E0
6.674000000E0,-1.067162752E0,3.172058582E0,8.419267654E0
6.694000000E0,-6.838606000E-1,3.276254416E0,9.466415405E0
6.714000000E0,-4.450055063E-1,3.176138401E0,1.064160442E1
6.734000000E0,-2.182267010E-1,3.048517704E0,1.160091305E1
6.754000000E0,9.277053177E-2,2.782818794E0,1.220112038E1
6.774000000E0,-1.627769768E-1,3.133282185E0,1.220792007E1
6.794000000E0,-4.862336516E-1,3.258336067E0,1.198422432E1
6.814000000E0,-1.464102119E-1,2.321130514E0,1.252930737E1
6.834000000E0,-4.337431788E-1,1.859691381E0,1.291491795E1
6.854000000E0,-1.035166621E0,1.474071622E0,1.282076836E1
6.874000000E0,-1.623623013E0,1.218524218E0,1.175393105E1
6.894000000E0,-1.593599796E0,1.403327703E0,1.073105145E1
6.914000000E0,-7.426622510E-1,1.271033764E0,1.056809235E1
6.934000000E0,-3.205644488E-1,1.394919276E0,1.069591427E1
6.954000000E0,-6.828263402E-2,1.531226039E0,1.020427895E1
6.974000000E0,1.056896374E-1,1.738391638E0,8.882191658E0
6.994000000E0,1.142800376E-1,1.901206732E0,7.668896198E0
7.014000000E0,-1.326387823E-1,2.036948442E0,7.128285408E0
7.034000000E0,-3.607966304E-1,2.111187935E0,7.216277122E0
7.054000000E0,-3.283982873E-1,2.084822893E0,7.301712036E0
7.074000000E0,-1.136383861E-1,2.081768036E0,7.164562702E0
7.094000000E0,1.650083810E-2,2.101754665E0,6.721290588E0
7.114000000E0,-1.761557758E-1,2.208440542E0,6.410973072E0
7.134000000E0,-2.091766149E-1,2.138778448E0,6.366239548E0
7.154000000E0,-7.532158494E-2,2.249161005E0,6.509633064E0
7.174000000E0,-5.845683068E-2,2.601941824E0,6.889104366E0
7.194000000E0,3.000413440E-2,2.855592966E0,7.561655045E0
7.214000000E0,3.996880054E-1,2.947233677E0,8.288208961E0
7.234000000E0,1.009606123E0,3.405091047E0,8.855003357E0
7.254000000E0,1.535123825E0,3.417895317E0,9.657299995E0
7.274000000E0,1.282497168E0,3.602833033E0,1.057701874E1
7.294000000E0,1.225438595E0,3.654126406E0,1.149965763E1
7.314000000E0,1.192896605E0,3.598255396E0,1.224481964E1
7.334000000E0,7.882190347E-1,3.465587854E0,1.255444622E1
7.354000000E0,1.901474893E-1,3.500236511E0,1.293506718E1
7.374000000E0,4.187554717E-1,3.209073067E0,1.329055882E1
7.394000000E0,1.070629478E0,2.752096415E0,1.337651920E1
7.414000000E0,1.672321200E0,2.024019718E0,1.309663773E1
7.434000000E0,1.601663470E0,1.161388874E0,1.262035465E1
7.454000000E0,1.279719949E0,2.893440425E-1,1.191547298E1
7.474000000E0,1.595879078E0,-1.988145113E-1,1.077210712E1
7.494000000E0,2.134440422E0,-3.118687272E-1,9.354835510E0
7.514000000E0,2.229423046E0,-9.435070306E-2,8.167790413E0
7.534000000E0,1.712342620E0,2.547717988E-1,7.449692726E0
7.554000000E0,8.460055590E-1,7.397891879E-1,7.178946972E0
7.574000000E0,4.427932501E-1,9.750913382E-1,6.890436172E0
7.594000000E0,1.766441911E-1,1.387382388E0,6.521518230E0
7.614000000E0,-7.408617437E-2,1.972017646E0,6.344079018E0
7.634000000E0,-5.579447374E-2,2.228446245E0,6.185764790E0
7.654000000E0,-3.888087869E-1,2.580930233E0,5.865784645E0
7.674000000E0,-6.539235115E-1,2.742663383E0,5.581094742E0
7.694000000E0,-8.272925019E-1,2.919709682E0,5.710639954E0
7.714000000E0,-9.964188933E-1,3.081012011E0,6.434435844E0
7.734000000E0,-1.189640522E0,3.206075430E0,7.867614746E0
7.754000000E0,-1.050020218E0,3.178254843E0,8.909714699E0
7.774000000E0,-9.141541123E-1,3.402926683E0,9.547856331E0
7.794000000E0,-8.578137159E-1,3.837196589E0,1.041953754E1
7.814000000E0,-3.832063675E-1,4.241797447E0,1.159222698E1
7.834000000E0,6.922498941E-1,4.303194523E0,1.273383999E1
7.854000000E0,2.018264055E0,4.172710419E0,1.407100105E1
7.874000000E0,2.789005518E0,3.890012741E0,1.478315163E1
7.894000000E0,2.850201368E0,3.278648376E0,1.503131580E1
7.914000000E0,1.990137100E0,2.175218582E0,1.532508373E1
7.934000000E0,6.572945714E-1,1.166972160E0,1.533138561E1
7.954000000E0,-4.324311316E-1,4.671853781E-1,1.464123344E1
7.974000000E0,-7.879988551E-1,7.184520364E-2,1.333023548E1
7.994000000E0,-4.422281981E-1,-1.301679462E-1,1.197043324E1
8.014000000E0,-1.222575158E-1,6.665457040E-2,1.064562607E1
8.034000000E0,-6.741113961E-2,5.669565201E-1,9.364412308E0
8.054000000E0,8.436208963E-2,9.712031484E-1,8.136321068E0
8.074000000E0,3.458184898E-1,1.341988444E0,7.314248085E0
8.094000000E0,4.568615854E-1,1.510913730E0,6.781719685E0
8.114000000E0,2.563232481E-1,1.666469693E0,6.319447041E0
8.134000000E0,-8.082824759E-3,1.583065271E0,6.086290359E0
8.154000000E0,-2.540726773E-2,1.549412489E0,5.936423302E0
8.174000000E0,6.905835867E-2,1.532557249E0,5.906562328E0
8.194000000E0,2.582385838E-1,1.538274527E0,5.802519798E0
8.214000000E0,2.468517721E-1,1.598464847E0,5.672524452E0
8.234000000E0,1.616277546E-1,1.664458632E0,5.642482281E0
8.254000000E0,1.279365569E-1,1.844377995E0,5.410589218E0
8.274000000E0,-1.442075521E-1,2.140626907E0,5.350322723E0
8.294000000E0,-5.271074176E-2,2.398616791E0,6.141883850E0
8.314000000E0,1.876192242E-1,2.569083691E0,7.142277241E0
8.334000000E0,3.516220450E-1,2.410051346E0,8.973937035E0
8.354000000E0,5.491149426E-1,2.060248852E0,1.130859947E1
8.374000000E0,4.935024381E-1,1.505272985E0,1.355229282E1
8.394000000E0,-1.188194454E-1,1.464044809E0,1.489703941E1
8.414000000E0,-3.446309865E-1,1.523200631E0,1.545742607E1
8.434000000E0,7.020756602E-1,1.186077952E0,1.600641632E1
8.454000000E0,1.234067440E0,1.008140922E0,1.631688690E1
8.474000000E0,1.169079065E0,8.069226146E-1,1.561271381E1
8.494000000E0,1.119461656E0,4.487499893E-1,1.393433952E1
8.514000000E0,1.245789289E0,3.219147921E-1,1.256679058E1
8.534000000E0,1.935127974E0,1.275630668E-2,1.204879093E1
8.554001563E0,2.542948723E0,1.532959491E-1,1.163566685E1
8.576001563E0,2.472961426E0,5.389635563E-1,1.048330879E1
8.596001563E0,1.565836668E0,8.136838675E-1,8.767940521E0
8.618001563E0,6.029940844E-1,1.004003763E0,6.805738926E0
8.640001563E0,1.258679777E-1,1.228982091E0,5.707796097E0
8.662001563E0,2.100002170E-1,1.540276170E0,5.481572628E0
8.684018750E0,2.036890984E-1,1.714085579E0,5.843221664E0
8.706000000E0,-4.702212214E-1,1.944465280E0,5.515014648E0
8.726000000E0,-1.221837759E0,2.298653841E0,5.148807049E0
8.748004688E0,-1.559132934E0,2.297102451E0,5.039995670E0
8.770000000E0,-1.559142470E0,2.518068075E0,5.086031437E0
8.790001563E0,-1.685441375E0,2.722552061E0,5.620349884E0
8.812003125E0,-1.989045262E0,2.894743204E0,7.169877529E0
8.834000000E0,-2.495744705E0,2.903869867E0,9.415628433E0
8.854000000E0,-2.781037569E0,2.441951752E0,1.123198509E1
8.874000000E0,-2.195109367E0,1.775894284E0,1.290335846E1
8.894000000E0,-1.088413715E0,1.415088177E0,1.461278057E1
8.914000000E0,1.239047274E-1,1.668720365E0,1.588685894E1
8.934000000E0,5.216103792E-1,1.922821641E0,1.562721252E1
8.954000000E0,-8.973468095E-2,2.085138798E0,1.457815075E1
8.974001563E0,-4.376313388E-1,1.964011550E0,1.408312511E1
8.996000000E0,-6.295027137E-1,1.355529904E0,1.389925957E1
9.016000000E0,-1.137197852E0,1.080895901E0,1.333691025E1
9.036000000E0,-1.364474773E0,7.345793843E-1,1.217687130E1
9.056000000E0,-1.281664014E0,6.080123186E-1,1.025534248E1
9.076001563E0,-6.782007217E-1,6.902675033E-1,9.182538986E0
9.098000000E0,1.859336942E-1,7.702721357E-1,9.391936302E0
9.118000000E0,3.413173854E-1,7.523443699E-1,9.586374283E0
9.138000000E0,6.320692482E-4,7.799734473E-1,8.907828331E0
9.158000000E0,-4.505887330E-1,9.856737256E-1,7.623061657E0
9.178000000E0,-5.283715725E-1,1.252119660E0,6.388754845E0
9.198000000E0,-2.115133554E-1,1.466994405E0,6.005538940E0
9.218000000E0,1.429146826E-1,1.448989987E0,6.336771965E0
9.238000000E0,5.968936086E-1,1.331875205E0,6.641381264E0
9.258001563E0,8.596907854E-1,1.408403516E0,6.856122017E0
9.278006250E0,1.063762903E0,1.437775612E0,7.236810207E0
9.300000000E0,1.463039160E0,1.285427690E0,7.441686630E0
9.320000000E0,1.843171358E0,1.280648947E0,7.388793945E0
9.340000000E0,2.032160044E0,1.424875617E0,7.411108017E0
9.360000000E0,1.736294150E0,1.734129906E0,7.960787773E0
9.380000000E0,1.448367596E0,1.628133774E0,8.248121262E0
9.400000000E0,1.352800488E0,1.570251584E0,8.361884117E0
9.420001563E0,1.326215386E0,1.725185156E0,8.475254059E0
9.442000000E0,1.416246891E0,1.860677719E0,8.604789734E0
9.462000000E0,9.147095084E-1,1.826431155E0,9.496046066E0
9.482000000E0,7.124474049E-1,2.145501614E0,1.080774212E1
9.502000000E0,1.254255295E0,2.804998875E0,1.243251419E1
9.522000000E0,1.990079641E0,2.718692541E0,1.378860950E1
9.542000000E0,1.953113198E0,2.464447498E0,1.487619972E1
9.562000000E0,1.999062657E0,1.766729355E0,1.581149006E1
9.582000000E0,2.032121897E0,1.302081823E0,1.625190735E1
9.602003125E0,2.574743748E0,7.561176419E-1,1.590088940E1
9.624000000E0,3.438063860E0,3.504632711E-1,1.414225292E1
9.644000000E0,3.924575329E0,5.338208079E-1,1.183203030E1
9.664000000E0,3.789446831E0,8.571433425E-1,9.466377258E0
9.684018750E0,3.044620037E0,1.109702826E0,7.722277164E0
9.706000000E0,2.146296501E0,1.106494665E0,6.666146755E0
9.726000000E0,1.312041640E0,1.202463865E0,5.795126915E0
9.746000000E0,7.058202624E-1,1.369579077E0,4.883041382E0
9.766000000E0,4.238120019E-1,1.607725620E0,4.078043938E0
9.786000000E0,2.333676368E-1,1.869181991E0,3.463557720E0
9.806001563E0,2.736093663E-2,2.195952177E0,3.157913923E0
9.828001563E0,5.344815925E-2,2.516411304E0,4.082314968E0
9.848001563E0,4.737454951E-1,2.199486017E0,3.682214975E0
9.868001563E0,-3.961063027E-1,1.997865558E0,2.872228146E0
9.888015625E0,-2.202971935E0,2.648274422E0,6.966351032E0
9.910001563E0,-2.937934637E0,2.175036430E0,1.160448551E1
9.930001563E0,-3.011781216E0,2.526294708E0,1.354430580E1
9.950001563E0,-2.301842928E0,2.399852037E0,1.448745823E1
9.970001563E0,-1.908322334E0,2.657334089E0,1.496442223E1
9.990001563E0,-9.820057750E-1,2.640967369E0,1.429979134E1
1.001200156E1,9.991482645E-2,3.074480772E0,1.274785042E1
1.003200156E1,8.032451272E-1,3.443743229E0,1.193339062E1
1.005400156E1,7.609730959E-1,3.323707581E0,1.259895039E1
1.007600156E1,-4.361277819E-1,2.795230389E0,1.360323143E1
1.009800156E1,-2.123283386E0,2.224778414E0,1.377713680E1
1.011800156E1,-3.189373493E0,2.173925638E0,1.302247429E1
1.014000000E1,-2.564774275E0,2.183349133E0,1.225251865E1
1.016000000E1,-1.287783742E0,2.051907539E0,1.221442223E1
1.018000156E1,-5.447383523E-1,1.930751324E0,1.199651146E1
1.020201563E1,-7.459566593E-1,1.634176731E0,1.081620789E1
1.022400000E1,-1.102453232E0,1.279346466E0,9.092699051E0
1.024400000E1,-1.129593968E0,1.080464959E0,7.495287418E0
1.026400156E1,-1.013341069E0,1.185340524E0,6.501215458E0
1.028402031E1,-6.761417389E-1,1.204867721E0,6.049525261E0
1.030600156E1,-9.568187594E-2,1.202061653E0,5.472369194E0
1.032800156E1,4.853908718E-1,1.266484857E0,4.859281063E0
1.034800156E1,9.906440377E-1,1.400742054E0,4.512840271E0
1.036801719E1,1.307090402E0,1.397447586E0,4.557267189E0
1.039000156E1,1.362042189E0,1.498712778E0,4.934421062E0
1.041000156E1,1.406785011E0,1.480152965E0,5.225019455E0
1.043000156E1,1.361400485E0,1.517512083E0,6.199986458E0
1.045000156E1,1.257578373E0,1.580297589E0,7.724030018E0
1.047000156E1,1.589979768E0,1.318764687E0,9.175845146E0
1.049000156E1,1.808742762E0,9.030545950E-1,1.000619221E1
1.051000156E1,1.696598411E0,9.620572329E-1,1.037313747E1
1.053000156E1,1.794837236E0,1.021864414E0,1.153514862E1
1.055200000E1,1.950651884E0,1.441922307E0,1.336593723E1
1.057200156E1,2.797940731E0,9.762883782E-1,1.431586170E1
1.059200156E1,3.023800135E0,8.996835351E-1,1.450177574E1
1.061200156E1,2.429951906E0,8.376737237E-1,1.516999722E1
1.063200156E1,2.159321070E0,4.635174293E-3,1.599723244E1
1.065399844E1,1.876163483E0,1.876096614E-2,1.562796021E1
1.067400000E1,2.507006884E0,-2.531628907E-1,1.388248158E1
1.069400156E1,3.373928308E0,1.842577606E-1,1.209599495E1
1.071600156E1,4.263738155E0,4.417972267E-1,1.085887337E1
1.073600156E1,3.827389956E0,9.400402308E-1,9.484640121E0
1.075800156E1,2.890452623E0,1.183099627E0,7.766828537E0
1.078000156E1,2.075447321E0,1.278340936E0,6.021944046E0
1.080201406E1,1.577865124E0,1.338157535E0,4.447382927E0
1.082400000E1,1.484998822E0,1.616871476E0,3.253739357E0
1.084400156E1,1.551969528E0,2.075351477E0,3.656089544E0
1.086600156E1,1.287994266E0,2.310653448E0,4.773252964E0
1.088800781E1,4.666969478E-1,2.697834492E0,5.137564182E0
1.091000000E1,-3.419781923E-1,2.616297245E0,5.660572529E0
1.093000156E1,-1.584003866E-1,2.115420818E0,6.300064087E0
1.095200156E1,5.949208140E-1,2.094591379E0,6.997130871E0
1.097200156E1,9.168355465E-1,2.295704365E0,7.568990707E0
1.099200156E1,7.689793110E-1,2.254878521E0,9.311375618E0
1.101200156E1,5.620148778E-1,1.983270526E0,1.166524982E1
1.103200156E1,4.996698797E-1,1.795009613E0,1.296748447E1
1.105400156E1,5.698104501E-1,2.051026344E0,1.324282742E1
1.107600156E1,6.598132253E-1,2.519581318E0,1.303403378E1
1.109600156E1,7.147841454E-1,2.537786961E0,1.278708649E1
1.111800156E1,1.045049906E0,1.971471906E0,1.342435646E1
1.113800156E1,8.167579770E-1,1.234335423E0,1.444894981E1
1.115800156E1,1.912105232E-1,5.577148795E-1,1.557267284E1
1.117800156E1,-1.531331539E-1,-2.056140453E-1,1.607833862E1
1.119800469E1,1.512943804E-1,-1.053525448E0,1.533752441E1
1.122000156E1,9.218251109E-1,-1.466889024E0,1.336339951E1
1.124200156E1,8.848490715E-1,-1.056963325E0,1.155594921E1
1.126400156E1,1.038221568E-1,-5.692741275E-1,1.031817532E1
1.128402031E1,-6.760938168E-1,-1.928481609E-1,9.682975769E0
1.130600156E1,-1.061244249E0,3.332537115E-1,8.752838135E0
1.132800156E1,-4.549749494E-1,7.350294590E-1,7.597519875E0
1.135000156E1,5.284673572E-1,9.332885742E-1,6.743575573E0
1.137000156E1,1.226329207E0,9.577860236E-1,6.222511292E0
1.139000156E1,1.642355323E0,8.647568822E-1,5.817029476E0
1.141000156E1,1.651692748E0,6.371353865E-1,5.728443146E0
1.143000156E1,1.813090682E0,3.120315373E-1,5.784515858E0
1.145000156E1,1.925120115E0,2.561412752E-1,5.913572788E0
1.147000156E1,1.906646490E0,2.893823981E-1,6.138628006E0
1.149000156E1,1.853926182E0,2.777561247E-1,6.354958534E0
1.151000156E1,1.844425917E0,1.942368001E-1,6.720074177E0
1.153000156E1,1.647248983E0,8.676587045E-2,7.545872688E0
1.155200000E1,1.337889552E0,-3.224511072E-2,8.947496414E0
1.157200156E1,1.519762516E0,-2.258594036E-1,9.680561066E0
1.159200156E1,1.457446337E0,3.250463903E-1,9.766179085E0
1.161200156E1,1.033509851E0,1.216235399E0,1.056433868E1
1.163400156E1,1.271187067E0,1.170247436E0,1.159344292E1
1.165600156E1,1.329327822E0,1.101533890E0,1.292259884E1
1.167600156E1,1.077256680E0,9.387186170E-1,1.450985813E1
1.169800156E1,6.371927857E-1,7.151097655E-1,1.591210365E1
1.171800156E1,7.350869775E-1,2.269415855E-1,1.655343437E1
1.173800156E1,1.931096077E0,-3.117537796E-1,1.617784119E1
1.175800156E1,3.679466486E0,-4.822975695E-1,1.478218460E1
1.178000156E1,4.801648140E0,9.998186491E-3,1.293482780E1
1.180000156E1,4.741209030E0,4.667352736E-1,1.149288654E1
1.182200156E1,4.458951473E0,6.813610792E-1,1.002073002E1
1.184400156E1,3.828836203E0,8.821675181E-1,8.390768051E0
1.186600156E1,2.935856104E0,1.173216343E0,6.497806072E0
1.188800156E1,2.051466942E0,1.426053643E0,4.441196442E0
1.190800312E1,1.817074537E0,1.603684187E0,3.131089211E0
1.193000156E1,1.800928116E0,2.053296089E0,2.663070440E0
1.195000156E1,1.789991379E0,2.521151781E0,2.638716698E0
1.197000156E1,1.413488746E0,3.099332571E0,3.834429026E0
1.199000156E1,1.321522713E0,3.015678883E0,5.391493320E0
1.201000156E1,1.235465527E0,3.044428349E0,6.482052326E0
1.203000156E1,5.889927745E-1,3.475030422E0,7.231312275E0
1.205000156E1,-1.524340361E-1,3.393656492E0,7.891250610E0
1.207000156E1,-7.069311738E-1,3.416353464E0,9.303264618E0
1.209000156E1,-8.886989355E-1,3.212520838E0,1.066439629E1
1.211000156E1,-9.173336029E-1,3.105595589E0,1.204916477E1
1.213000156E1,-7.156364918E-1,2.794636726E0,1.319395733E1
1.215000156E1,-5.631067157E-1,2.749644756E0,1.379910660E1
1.217000156E1,-1.713194996E-1,2.790920973E0,1.438575268E1
1.219000156E1,8.618839383E-1,2.406019449E0,1.484579372E1
1.221000156E1,1.518929482E0,1.627358079E0,1.533365536E1
1.223000156E1,1.367797852E0,1.091219783E0,1.526367760E1
1.225000156E1,7.325204015E-1,6.734985113E-1,1.498524094E1
1.227000156E1,2.671737671E-1,1.488523036E-1,1.435079670E1
1.229000156E1,9.761639684E-2,-1.435563341E-2,1.318491745E1
1.231200156E1,2.770282924E-1,6.881893426E-2,1.173337936E1
1.233400156E1,7.631757110E-2,3.877840638E-1,1.016532040E1
1.235600000E1,-4.188416302E-1,4.314351380E-1,8.781903267E0
1.237600156E1,-1.046936512E0,3.906475306E-1,7.957273006E0
1.239800156E1,-1.948487520E0,5.878818631E-1,7.889430523E0
1.241800156E1,-1.892300367E0,5.881404281E-1,7.331074238E0
1.243800156E1,-1.077295065E0,6.034058928E-1,6.626268864E0
1.245800156E1,4.163995758E-2,7.991558313E-1,5.609748363E0
1.247800156E1,8.884116411E-1,1.374003649E0,5.197916985E0
1.249800156E1,9.665200710E-1,2.029066801E0,5.410905361E0
1.252000000E1,8.184626698E-1,2.463030338E0,6.135860443E0
1.254000000E1,9.348112941E-1,2.570817232E0,6.503504276E0
1.256000000E1,9.364584684E-1,2.958572626E0,6.875869751E0
1.258000000E1,1.074613571E0,3.219138145E0,7.170289516E0
1.260000000E1,1.237945914E0,3.366381645E0,7.879355907E0
1.262000000E1,1.373180032E0,3.424541473E0,8.561607361E0
1.264000156E1,1.580441236E0,3.425231218E0,8.862587929E0
1.266200000E1,1.406852007E0,3.342755556E0,9.261240959E0
1.268200000E1,9.415916800E-1,3.382461071E0,9.658842087E0
1.270200000E1,2.414696068E-1,3.730137348E0,1.007299137E1
1.272200000E1,-1.543494016E-1,4.310137749E0,1.087729836E1
1.274200000E1,5.287929773E-1,3.775119781E0,1.157143593E1
1.276200000E1,1.343846321E0,2.816107988E0,1.248405743E1
1.278200000E1,8.743433356E-1,2.431225538E0,1.398346043E1
1.280200000E1,4.858601391E-1,1.539826035E0,1.500614738E1
1.282200000E1,7.723024487E-1,9.009763598E-1,1.476171875E1
1.284200000E1,2.046927452E0,5.795308948E-1,1.316889477E1
1.286200000E1,3.033099174E0,1.146248102E0,1.182514477E1
1.288200000E1,2.938269854E0,1.765130043E0,1.129528809E1
1.290200000E1,2.449124813E0,1.685374379E0,1.028456116E1
1.292200000E1,1.530776024E0,1.770866513E0,8.571156502E0
1.294200000E1,6.517878771E-1,2.125706196E0,7.229397297E0
1.296200000E1,5.268201604E-2,2.307665825E0,6.521326542E0
1.298200000E1,-1.802929640E-1,2.363077164E0,6.037678719E0
1.300200313E1,-3.690422475E-1,2.367779255E0,5.549232960E0
1.302400000E1,-5.591418743E-1,2.441635847E0,5.340841293E0
1.304400000E1,-5.073121786E-1,2.524838924E0,5.551186562E0
1.306400000E1,-3.854760528E-1,2.512159109E0,6.110012054E0
1.308401875E1,-4.487883449E-1,2.576745033E0,6.453963280E0
1.310600000E1,-1.009835958E0,3.009473085E0,6.885685444E0
1.312600000E1,-1.283962488E0,3.295781612E0,7.738203526E0
1.314600000E1,-1.350023270E0,3.466593266E0,8.739985466E0
1.316600000E1,-1.352743149E0,3.425403595E0,9.584698677E0
1.318600000E1,-8.124963045E-1,3.513452530E0,1.046645451E1
1.320600000E1,-5.630491972E-1,3.800603867E0,1.154399776E1
1.322600156E1,-5.250867605E-1,3.949120760E0,1.233531952E1
1.324800469E1,-2.224117517E-1,4.473364830E0,1.274897099E1
1.327000000E1,1.036651015E0,4.097120762E0,1.360157490E1
1.329000156E1,1.184162617E0,3.817047119E0,1.360037804E1
1.331200000E1,5.666596442E-2,3.511661768E0,1.304677105E1
1.333200000E1,-9.039835334E-1,3.013983965E0,1.156825542E1
1.335201406E1,-1.465165257E0,2.767314196E0,9.674815178E0
1.337400000E1,-1.427174091E0,2.669764757E0,8.844554901E0
1.339400000E1,-8.465035558E-1,2.303614855E0,9.104124069E0
1.341400000E1,-1.146822572E-1,2.119874001E0,9.635580063E0
1.343400000E1,1.367759556E-1,2.099532843E0,9.415322304E0
1.345400000E1,-7.995675504E-2,1.995481014E0,8.718571663E0
1.347400000E1,-6.070641875E-1,2.148097038E0,8.204326630E0
1.349400000E1,-1.126270771E0,2.370556593E0,8.000301361E0
1.351400000E1,-1.109195352E0,2.484319448E0,7.557671547E0
1.353400000E1,-9.279159307E-1,2.675252199E0,7.071408749E0
1.355400156E1,-6.957071424E-1,2.909338236E0,6.942801952E0
1.357600156E1,-2.699510157E-1,2.973493099E0,7.208989143E0
1.359800000E1,4.410119727E-2,2.953803301E0,7.466040134E0
1.361800781E1,9.403466433E-2,2.875024319E0,7.560256958E0
1.364000000E1,2.115516663E-1,2.878816843E0,7.454615116E0
1.366000000E1,5.501683950E-1,2.840768337E0,7.256021023E0
1.368000000E1,9.473281503E-1,2.907269478E0,7.354288578E0
1.370000000E1,1.095749497E0,2.897032022E0,7.618311405E0
1.372000000E1,9.446466565E-1,2.948670149E0,7.718465805E0
1.374000000E1,8.283650279E-1,2.912958145E0,7.782505989E0
1.376000000E1,7.414555550E-1,2.949733257E0,8.242058754E0
1.378000000E1,7.100914717E-1,3.051036596E0,9.012177467E0
1.380000000E1,3.524935246E-1,3.471678734E0,9.541248322E0
1.382000000E1,-2.615425922E-2,4.049342155E0,1.016430569E1
1.384000000E1,5.768110603E-2,4.052215099E0,1.034405231E1
1.386000000E1,2.994954884E-1,3.700325012E0,1.058928585E1
1.388000000E1,7.158758640E-1,3.160355806E0,1.169052315E1
1.390000156E1,5.121484995E-1,2.576151371E0,1.420849514E1
1.392200000E1,7.194767594E-1,1.788190961E0,1.704979134E1
1.394200000E1,1.586541772E0,1.019537330E0,1.668035507E1
1.396200000E1,2.749951363E0,6.568253040E-1,1.441859150E1
1.398200000E1,3.145866156E0,1.086852670E0,1.189542866E1
1.400200313E1,2.874028683E0,1.535353661E0,9.799457550E0
1.402400156E1,2.091909885E0,1.799386263E0,8.478595734E0
1.404600000E1,1.170688033E0,1.949991107E0,7.672860622E0
1.406600000E1,5.366459489E-1,2.070974827E0,6.865699291E0
1.408600156E1,5.364927277E-2,2.229183912E0,6.050118923E0
1.410801719E1,-3.040061593E-1,2.507140875E0,5.247572899E0
1.413000156E1,-3.848056495E-1,2.584971666E0,4.741850376E0
1.415200000E1,-3.928310275E-1,2.602334499E0,4.480097294E0
1.417200625E1,-5.911476016E-1,2.812382460E0,4.704807758E0
1.419400000E1,-8.670457602E-1,3.242879152E0,5.628442287E0
1.421400000E1,-6.387442350E-1,3.183943510E0,6.576910019E0
1.423400000E1,-8.142200708E-1,3.416592836E0,7.587541103E0
1.425400000E1,-1.033452392E0,3.818722963E0,8.905060768E0
1.427400000E1,-1.225247025E0,3.729448080E0,1.016054153E1
1.429400000E1,-9.877039790E-1,3.437834263E0,1.111752319E1
1.431400000E1,-5.308615565E-1,3.187142134E0,1.214046097E1
1.433400000E1,-5.712565407E-2,2.951993227E0,1.342409801E1
1.435400000E1,-2.244899273E-1,3.072134256E0,1.388595772E1
1.437400000E1,-4.034708440E-1,3.387278318E0,1.374223900E1
1.439400000E1,-2.533257008E-1,3.018178463E0,1.368167496E1
1.441400156E1,-6.963966489E-1,2.355386972E0,1.422120380E1
1.443600156E1,-1.458432794E0,1.715445518E0,1.513440037E1
1.445800156E1,-2.449785471E0,1.315154195E0,1.477733898E1
1.447800156E1,-3.134316444E0,9.919847846E-1,1.289990139E1
1.449800156E1,-3.224156380E0,1.067488432E0,1.075990582E1
1.451800156E1,-2.531571627E0,1.218677402E0,9.403389931E0
1.453800156E1,-1.396432519E0,1.232228637E0,9.687916756E0
1.455800156E1,-6.288514137E-1,1.210862637E0,1.039251137E1
1.457800156E1,-3.810036778E-1,1.208794236E0,1.022465801E1
1.459800781E1,-7.985045910E-1,1.192915797E0,9.267552376E0
1.462000469E1,-9.811630249E-1,1.272048950E0,8.491256714E0
1.464200000E1,-7.429016232E-1,1.331386805E0,8.220998764E0
1.466200156E1,-4.236970842E-1,1.339527130E0,7.844544411E0
1.468200156E1,1.506623179E-1,1.284316778E0,7.272923946E0
1.470400156E1,5.703563094E-1,1.413680315E0,6.709577560E0
1.472600156E1,6.607421637E-1,1.442113876E0,6.242009163E0
1.474800156E1,4.140245020E-1,1.719898701E0,6.319629192E0
1.476800156E1,2.947741151E-1,1.841313481E0,6.658275127E0
1.478800313E1,1.808292717E-1,2.107328415E0,7.082518101E0
1.481000156E1,-2.248634212E-2,2.479971647E0,7.525062084E0
1.483000156E1,2.365471274E-1,2.828576803E0,7.933656693E0
1.485000156E1,3.960296810E-1,3.253691435E0,8.314209938E0
1.487000156E1,5.891555548E-1,3.433266163E0,8.744792938E0
1.489000156E1,7.796286345E-1,3.419188261E0,9.549359322E0
1.491200000E1,9.234340191E-1,3.426619768E0,1.042927647E1
1.493200000E1,6.195811033E-1,3.828069925E0,1.141636848E1
1.495200156E1,3.238780200E-1,4.429589272E0,1.166921520E1
1.497200156E1,7.205110192E-1,4.313537598E0,1.185219860E1
1.499200156E1,1.002136230E0,3.962231398E0,1.141516113E1
1.501200156E1,7.139796615E-1,3.550581932E0,1.150618839E1
1.503200156E1,3.495917618E-1,2.763329983E0,1.174973679E1
1.505400156E1,7.427867055E-1,1.956579924E0,1.219934845E1
1.507600156E1,1.522970796E0,1.488168716E0,1.241706753E1
1.509600156E1,2.081451893E0,1.618451715E0,1.167577457E1
1.511800156E1,2.361506701E0,2.108870268E0,9.939145088E0
1.513800156E1,1.927734613E0,2.721642256E0,8.470532417E0
1.515801406E1,1.416323543E0,3.035876513E0,7.274255276E0
1.517801406E1,9.701400995E-1,3.053287029E0,6.403723717E0
1.520000000E1,4.860037863E-1,3.175879955E0,5.908631325E0
1.522000156E1,-2.154781483E-3,3.247524023E0,5.608082294E0
1.524200156E1,-4.867507815E-1,3.476687193E0,5.530653954E0
1.526400156E1,-6.746476889E-1,3.335486889E0,5.568664074E0
1.528402031E1,-7.870698571E-1,3.265231371E0,5.852903843E0
1.530600156E1,-7.018745542E-1,3.162003040E0,6.205914497E0
1.532800156E1,-5.414918065E-1,3.110048771E0,7.326764584E0
1.534800313E1,-4.570530951E-1,3.085963249E0,8.011678696E0
1.537000156E1,-4.942302406E-1,3.289393902E0,8.594437599E0
1.539000156E1,-5.025142431E-1,3.464735270E0,9.052141190E0
1.541000156E1,-4.066407979E-1,3.747471333E0,9.465169907E0
1.543000156E1,3.327940404E-2,3.863063574E0,9.836252213E0
1.545000156E1,3.015736341E-1,4.095847130E0,1.073655796E1
1.547000156E1,-1.177947223E-2,4.140800953E0,1.154664993E1
1.549000156E1,-1.090788722E0,4.284136772E0,1.241941452E1
1.551000156E1,-1.650916934E0,4.010920048E0,1.298627472E1
1.553200156E1,-1.703579783E0,3.237765074E0,1.377089214E1
1.555400156E1,-1.905430198E0,2.405617237E0,1.404097748E1
1.557600156E1,-2.837760925E0,2.450197220E0,1.251876354E1
1.559600156E1,-3.053191423E0,2.354898453E0,1.069034100E1
1.561800156E1,-2.791801929E0,2.121741533E0,9.766035080E0
1.563800156E1,-2.072756052E0,1.933940291E0,1.009499836E1
1.565800156E1,-1.230313182E0,1.719400764E0,1.067443371E1
1.567800156E1,-1.022305012E0,1.281625748E0,1.045026016E1
1.569800156E1,-1.346824765E0,1.145836234E0,9.624096870E0
1.571800156E1,-1.635450482E0,1.010286093E0,9.026399612E0
1.574000000E1,-1.677837372E0,1.043814421E0,8.630388260E0
1.576000156E1,-1.417367458E0,1.160747290E0,8.130546570E0
1.578000156E1,-9.192298055E-1,1.349630594E0,7.589848995E0
1.580000156E1,-5.828061700E-1,1.627616525E0,7.342854023E0
1.582200156E1,-2.655265629E-1,1.885500908E0,7.651562214E0
1.584400156E1,3.987399340E-1,1.693619967E0,8.149297714E0
1.586600156E1,8.608782887E-1,1.727837920E0,8.419410706E0
1.588801563E1,1.015898108E0,1.806904078E0,8.593306541E0
1.591000156E1,7.645930648E-1,2.075839758E0,8.650213242E0
1.593000156E1,4.118410051E-1,2.353710890E0,8.505114555E0
1.595200000E1,1.775252670E-1,2.389882565E0,7.888434887E0
1.597200000E1,6.408798695E-2,2.707698584E0,7.731681824E0
1.599200000E1,1.744798422E-1,2.984793663E0,8.324419022E0
1.601200312E1,3.036518395E-1,2.814939499E0,9.044795990E0
1.603400000E1,1.556901485E-1,2.780721664E0,9.620687485E0
1.605400000E1,-4.256315827E-1,3.145962000E0,9.923228264E0
1.607400000E1,-9.586191773E-1,3.625166178E0,1.000276375E1
1.609400000E1,-9.310284257E-1,3.560723782E0,1.032628822E1
1.611400000E1,-5.881308317E-1,3.303902626E0,1.103655148E1
1.613400000E1,-1.970811039E-1,2.903735638E0,1.218656349E1
1.615400000E1,4.122528136E-1,1.722244978E0,1.445439911E1
1.617400000E1,8.256931305E-1,1.141191363E0,1.583963585E1
1.619400000E1,1.614850760E0,3.855526745E-1,1.577161217E1
1.621400000E1,2.343482971E0,2.626534998E-1,1.460161304E1
1.623400000E1,2.897999287E0,7.000166774E-1,1.328226471E1
1.625400000E1,3.109732866E0,1.085023403E0,1.193813133E1
1.627400000E1,3.020697355E0,1.296431541E0,1.069821262E1
1.629400000E1,2.165976763E0,1.607763886E0,9.187854767E0
1.631400000E1,1.104943275E0,2.083692789E0,7.608198166E0
1.633400156E1,3.493044376E-1,2.616872072E0,6.345525265E0
1.635400156E1,-2.267500609E-1,3.338187456E0,5.360780239E0
1.637600156E1,-8.441668153E-1,3.458127499E0,4.168927670E0
1.639800156E1,-2.273811817E0,4.029259682E0,3.866080284E0
1.641801250E1,-3.175429583E0,4.103451252E0,4.625147343E0
1.644000156E1,-3.100270987E0,3.683077097E0,5.836891651E0
1.646000156E1,-2.738008976E0,3.579848528E0,6.821119308E0
1.648200000E1,-1.716498971E0,3.472272396E0,6.996853352E0
1.650200000E1,-9.459586740E-1,3.757383585E0,7.481861115E0
1.652200156E1,-2.916616499E-1,3.835204601E0,8.392453194E0
1.654200156E1,5.803640485E-1,3.452476978E0,9.410113335E0
1.656400156E1,1.401996613E0,3.334366560E0,1.032133675E1
1.658402031E1,1.638438344E0,3.491981506E0,1.080302143E1
1.660600000E1,1.244755030E0,4.107684135E0,1.076087379E1
1.662600156E1,8.890820146E-1,4.519975185E0,1.104877186E1
1.664800625E1,1.340647578E0,3.934841871E0,1.190009212E1
1.667000156E1,1.211188316E0,2.959721565E0,1.312915993E1
1.669000156E1,2.317587147E-3,2.687922478E0,1.309616756E1
1.671000156E1,-1.014950037E0,2.288339615E0,1.148437309E1
1.673200000E1,-1.451815128E0,2.606845140E0,9.997439384E0
1.675200156E1,-6.722056270E-1,2.252311707E0,9.251635551E0
1.677200156E1,-1.835011840E-1,2.011522055E0,9.464776993E0
1.679400000E1,-6.626001000E-1,1.958571911E0,9.966669083E0
1.681400000E1,-1.256735563E0,2.187352180E0,9.709474564E0
1.683400000E1,-1.147914410E0,2.215182304E0,8.753134727E0
1.685400000E1,-8.576030135E-1,2.490764618E0,7.857846737E0
1.687400000E1,-5.642462969E-1,2.599135637E0,7.225853920E0
1.689400000E1,-1.508347038E-2,2.641101360E0,6.881031036E0
1.691400000E1,6.674747467E-1,2.728537560E0,6.573816776E0
1.693400000E1,1.234124780E0,2.786123037E0,6.698391914E0
1.695400000E1,1.642297864E0,2.823012590E0,6.800902367E0
1.697400000E1,1.641675472E0,2.912718773E0,6.710468769E0
1.699400000E1,1.280840397E0,3.085187435E0,6.479150295E0
1.701400000E1,9.920135736E-1,3.144371986E0,6.351252079E0
1.703400000E1,7.153778672E-1,3.047110081E0,6.492193699E0
1.705400000E1,2.577405870E-1,3.127516747E0,7.015815258E0
1.707400000E1,7.553227246E-2,3.138693094E0,7.677879333E0
1.709400000E1,-7.958326489E-3,3.255568266E0,8.846287727E0
1.711400000E1,1.012268476E-2,3.293013573E0,1.021308994E1
1.713400000E1,-1.035156995E-1,3.275066853E0,1.135162926E1
1.715400000E1,-3.887608945E-1,3.428046703E0,1.172772884E1
1.717400000E1,-5.309477448E-1,3.572637558E0,1.160298157E1
1.719400781E1,-1.432977617E-1,3.097033978E0,1.215295792E1
1.721600000E1,7.497969270E-1,1.950230479E0,1.405464363E1
1.723600000E1,1.072056532E0,1.080761790E0,1.583083534E1
1.725600000E1,1.136489272E0,5.660563111E-1,1.713442039E1
1.727600000E1,1.765340686E0,2.764249444E-1,1.650422859E1
1.729600000E1,3.052693367E0,3.950624466E-1,1.426613808E1
1.731600000E1,4.077000141E0,7.201184034E-1,1.168126297E1
1.733600000E1,4.029307365E0,1.414542198E0,9.482015610E0
1.735600000E1,2.478851080E0,2.688650131E0,7.915307522E0
1.737600000E1,1.393645644E0,3.629667282E0,7.243714809E0
1.739600000E1,1.896246076E0,3.343263149E0,6.696036339E0
1.741600000E1,1.372184038E0,3.256526232E0,6.282145977E0
1.743600000E1,-3.698275387E-1,3.251594067E0,6.527062893E0
1.745600000E1,-1.418823123E0,2.612265587E0,5.923322201E0
1.747600000E1,-2.025906563E0,2.105757713E0,4.629504681E0
1.749600000E1,-2.408959389E0,1.740584612E0,3.566670895E0
1.751600000E1,-2.781257868E0,1.681074381E0,3.014280796E0
1.753600000E1,-3.121157885E0,1.931268454E0,3.411267996E0
1.755600000E1,-3.031279564E0,2.299602032E0,4.346500874E0
1.757600000E1,-2.406210899E0,2.809767962E0,5.786699295E0
1.759600000E1,-1.613720655E0,3.134010077E0,7.213289261E0
1.761600000E1,-1.254599929E0,3.710754156E0,8.566683769E0
1.763600000E1,-1.449679613E0,4.285908222E0,9.908269882E0
1.765600000E1,-1.200433612E0,3.921367168E0,1.170019531E1
1.767600000E1,-7.715075463E-2,3.577780008E0,1.329777908E1
1.769600000E1,6.677620411E-1,3.975275040E0,1.498102760E1
1.771600000E1,1.029870629E0,3.923723221E0,1.656249428E1
1.773600000E1,1.367347836E0,3.301843405E0,1.677643967E1
1.775600000E1,7.059064507E-1,3.147906065E0,1.594665718E1
1.777600000E1,-4.203068912E-1,3.060287952E0,1.469898987E1
1.779600000E1,-1.019125462E0,2.674418926E0,1.388115025E1
1.781600000E1,-8.421652317E-1,2.011656046E0,1.317216969E1
1.783600000E1,-2.290867865E-1,1.546606421E0,1.260158443E1
1.785600000E1,5.439434648E-1,1.422749519E0,1.200355053E1
1.787600000E1,1.102903366E0,1.587432384E0,1.097815228E1
1.789600000E1,1.122727394E0,1.587298274E0,9.741806030E0
1.791600000E1,6.193799973E-1,1.527270913E0,8.604119301E0
1.793600000E1,-2.690125071E-2,1.482489705E0,7.878149509E0
1.795600000E1,-3.168007731E-1,1.524867058E0,7.246070862E0
1.797600000E1,-1.434797198E-1,1.555627823E0,6.631421566E0
1.799600000E1,1.308191866E-1,1.634847164E0,5.802519798E0
1.801600000E1,4.363767803E-1,1.777934194E0,5.028139591E0
1.803600000E1,7.072663307E-1,1.991611958E0,4.687875271E0
1.805600000E1,7.816685438E-1,2.322825670E0,5.144565105E0
1.807600000E1,1.104627252E0,2.314608812E0,5.728644371E0
1.809600000E1,1.183521032E0,2.904233694E0,5.951592922E0
1.811600000E1,1.026825190E0,3.560388565E0,6.282347202E0
1.813600000E1,1.198891759E0,3.819508314E0,7.083370209E0
1.815600000E1,1.422328234E0,4.018887997E0,8.177213669E0
1.817600000E1,1.765809894E0,3.841410398E0,9.814751625E0
1.819600000E1,1.875627160E0,3.409199476E0,1.121998501E1
1.821600000E1,1.588294268E0,3.097847939E0,1.151690483E1
1.823600000E1,7.905654311E-1,3.484032631E0,1.115774632E1
1.825600000E1,-2.167135626E-1,4.209763050E0,1.066816044E1
1.827600000E1,-1.374654919E-1,4.304381847E0,1.116095448E1
1.829600156E1,1.651817203E0,3.266792536E0,1.257130146E1
1.831800000E1,2.567292929E0,2.200491667E0,1.424234009E1
1.833800156E1,2.084966660E0,1.648925066E0,1.529065514E1
1.836000000E1,2.328121901E0,9.225816727E-1,1.470177746E1
1.838000000E1,3.959032774E0,3.177776039E-1,1.260082722E1
1.840000000E1,4.753256321E0,8.172559738E-1,1.054202461E1
1.842000000E1,4.043816090E0,1.574331284E0,9.475819588E0
1.844000000E1,2.561748028E0,2.225180626E0,8.686441422E0
1.846000000E1,1.085818410E0,2.792386293E0,7.651629448E0
1.848000000E1,-2.375048026E-2,3.188789368E0,6.618665218E0
1.850000000E1,-6.479284763E-1,3.416583300E0,5.742368221E0
1.852000000E1,-1.070457101E0,3.576908588E0,5.239671707E0
1.854000000E1,-1.334585428E0,3.663109303E0,5.132277966E0
1.856000000E1,-1.390696049E0,3.585221291E0,5.474581718E0
1.858000000E1,-1.260221601E0,3.469236612E0,5.899073601E0
1.860000000E1,-1.255461931E0,3.331301689E0,6.382309437E0
1.862000000E1,-1.254465938E0,3.139008999E0,6.833425522E0
1.864000000E1,-1.357406974E0,3.148030519E0,7.106680393E0
1.866000000E1,-1.510942340E0,3.429310799E0,7.965030193E0
1.868000000E1,-1.584530473E0,3.693324327E0,8.702454567E0
1.870000000E1,-1.819574118E0,4.132765770E0,8.835427284E0
1.872000000E1,-1.940308928E0,4.492824554E0,9.097851753E0
1.874000000E1,-1.646109462E0,4.465262890E0,1.007270336E1
1.876000000E1,-1.005277395E0,3.988424063E0,1.151539135E1
1.878000156E1,-1.388617754E0,3.819603920E0,1.239512730E1
1.880200469E1,-2.145453691E0,3.384395838E0,1.297158432E1
1.882400000E1,-1.371915936E0,1.666757107E0,1.300072575E1
1.884400000E1,-1.641005039E0,1.890557408E0,1.296490860E1
1.886400000E1,-2.297380209E0,2.458701372E0,1.272001076E1
1.888401875E1,-2.445964336E0,2.304792643E0,1.199887657E1
1.890600000E1,-1.389948964E0,1.811175346E0,1.153566647E1
1.892600000E1,-1.595974863E-1,1.456172585E0,1.146022987E1
1.894600000E1,1.033816263E-1,1.417626023E0,1.165276146E1
1.896600000E1,-2.612074018E-1,1.394641638E0,1.066325665E1
1.898600000E1,-7.678492665E-1,1.393952131E0,9.335786819E0
1.900600000E1,-7.051881552E-1,1.420939565E0,8.774106979E0
1.902600000E1,-1.169634581E0,2.038480759E0,8.904974937E0
1.904600000E1,-4.114387929E-1,1.853207827E0,7.110290527E0
1.906600000E1,2.215307057E-1,1.897960305E0,6.842570782E0
1.908600000E1,2.822476625E-1,1.994925380E0,6.852416039E0
1.910600000E1,4.753160775E-1,1.727847576E0,6.906103611E0
1.912600000E1,3.689081669E-1,1.871605039E0,6.932602406E0
1.914600000E1,5.062970519E-1,1.934160590E0,7.186177254E0
1.916600000E1,3.858495504E-2,2.275478125E0,7.063431263E0
1.918600000E1,-4.902654588E-1,2.558635473E0,6.919070244E0
1.920600000E1,-6.989440918E-1,2.920590878E0,6.267512798E0
1.922601875E1,-6.749733090E-1,3.479272842E0,7.060596466E0
1.924800625E1,2.525595427E-1,3.572043657E0,7.482464314E0
1.927000156E1,3.746351004E-1,3.516718149E0,8.682025909E0
1.929000781E1,-3.929268122E-1,3.818483591E0,9.529210091E0
1.931200000E1,-8.280107379E-1,3.827552795E0,1.045204067E1
1.933200000E1,-7.891097665E-1,4.083043098E0,1.126555157E1
1.935201406E1,-1.952902377E-1,3.678202391E0,1.233997440E1
1.937400000E1,1.091631413E0,2.447841406E0,1.241108227E1
1.939400781E1,1.045155287E0,1.980847478E0,1.326921177E1
1.941600000E1,1.669333130E-1,1.848266244E0,1.384531403E1
1.943600000E1,1.450407356E-1,1.540544271E0,1.356831455E1
1.945600313E1,1.251707792E0,1.208229184E0,1.249630547E1
1.947800156E1,2.253479958E0,1.313775182E0,1.108794975E1
1.950000000E1,2.350359201E0,1.623412371E0,1.039107513E1
1.952000000E1,1.608941913E0,2.293223858E0,1.007648659E1
1.954000000E1,8.784230351E-1,2.796532869E0,9.461396217E0
1.956000000E1,6.680780649E-2,3.319206238E0,8.523856163E0
1.958000625E1,-2.349956781E-1,3.574878454E0,7.357238293E0
1.960200156E1,-1.492928416E-1,3.792319775E0,6.526612759E0
1.962200313E1,-2.604029477E-1,3.942407370E0,6.375988960E0
1.964400000E1,-5.059522986E-1,3.824392319E0,6.926904202E0
1.966400000E1,-8.529391289E-1,3.788623095E0,7.359163284E0
1.968402031E1,-1.191699624E0,3.811023235E0,7.347929478E0
1.970600000E1,-1.384231687E0,3.597584963E0,6.870707512E0
1.972600156E1,-1.757411122E0,3.630394936E0,6.403139114E0
1.974800781E1,-2.005210876E0,3.773884296E0,6.220614910E0
1.977000469E1,-1.538073540E0,3.840912342E0,6.772076130E0
1.979200156E1,-1.189650178E0,3.963763714E0,8.184205055E0
1.981400000E1,-1.251899242E0,4.018542767E0,9.919589996E0
1.983400000E1,-1.138481259E0,3.757776022E0,1.042182636E1
1.985400781E1,-9.289598465E-1,3.655447960E0,1.019717312E1
1.987600156E1,-1.119423389E0,4.195589542E0,1.001206303E1
1.989800156E1,-8.720640838E-2,2.834936142E0,1.142944050E1
1.991800313E1,-4.314542711E-1,2.382374287E0,1.271722317E1
1.994000156E1,-1.680930614E0,2.808073044E0,1.343109798E1
1.996200156E1,-2.037187815E0,2.488849401E0,1.183808231E1
1.998402031E1,-1.602573276E0,2.386932850E0,1.039400482E1
2.000600156E1,-4.252293706E-1,2.034362793E0,1.019511414E1
2.002600156E1,-2.892099917E-1,2.059128523E0,1.095028400E1
2.004800156E1,-8.466854692E-1,2.039323568E0,1.098271084E1
2.006800156E1,-1.273150325E0,2.106667757E0,9.984070778E0
2.009000156E1,-1.448252559E0,2.354141951E0,8.640004158E0
2.011000156E1,-1.322777390E0,2.497755527E0,7.903326511E0
2.013000156E1,-1.236528516E0,2.629341125E0,7.405007362E0
2.015000156E1,-1.280179739E0,2.896093607E0,7.164025784E0
2.017000156E1,-9.899832606E-1,2.861741543E0,7.262053967E0
2.019000156E1,-5.603006482E-1,2.593150377E0,7.377205849E0
2.021000156E1,-4.817708433E-1,2.242686987E0,7.648880959E0
2.023200000E1,-6.032334566E-1,2.106801748E0,7.788089275E0
2.025200156E1,-8.379035592E-1,2.248509884E0,7.904380322E0
2.027200469E1,-9.543096423E-1,2.477002621E0,7.900012970E0
2.029400000E1,-5.630587935E-1,2.625443459E0,7.811073303E0
2.031400156E1,7.798393816E-2,2.889504671E0,7.993530750E0
2.033600000E1,6.212953329E-1,3.034468651E0,8.380893707E0
2.035600000E1,6.242737174E-1,3.131855249E0,8.948644638E0
2.037600156E1,2.402437776E-1,3.349344492E0,9.441189766E0
2.039800000E1,-2.255433798E-1,3.697863817E0,9.985477448E0
2.041800000E1,-4.185734987E-1,4.074040890E0,1.039414978E1
2.043800000E1,-2.205730081E-1,3.988538742E0,1.082773972E1
2.045800000E1,7.429782748E-1,3.214368820E0,1.176242542E1
2.047800156E1,2.318487644E0,2.220832825E0,1.249558830E1
2.050000000E1,3.109024286E0,1.833766937E0,1.316628075E1
2.052000000E1,3.646666050E0,1.398204207E0,1.344854641E1
2.054000000E1,3.880397797E0,9.518101215E-1,1.227355003E1
2.056000000E1,3.521650314E0,1.043900609E0,1.032632637E1
2.058000000E1,2.694923162E0,1.481120229E0,8.715745926E0
2.060000000E1,1.861874819E0,1.931354642E0,8.132193565E0
2.062000000E1,1.288846731E0,2.178618193E0,8.400670052E0
2.064000000E1,9.685791135E-1,2.379692793E0,8.732822418E0
2.066000000E1,6.853928566E-1,2.570146799E0,8.554970741E0
2.068000000E1,2.891429365E-1,2.749089241E0,7.815066814E0
2.070000000E1,-1.886343658E-1,2.921165466E0,6.956975460E0
2.072000000E1,-5.043241978E-1,3.031595707E0,6.200034142E0
2.074000000E1,-7.022767663E-1,3.036508560E0,5.717190742E0
2.076000000E1,-9.384121895E-1,3.123533010E0,5.788432598E0
2.078000000E1,-1.112575889E0,2.964356899E0,6.202677727E0
2.080000000E1,-1.439413190E0,2.799089909E0,6.768647671E0
2.082000000E1,-1.782052279E0,2.651760340E0,7.493755341E0
2.084000000E1,-1.877982974E0,2.442765713E0,8.231781960E0
2.086000000E1,-1.912584066E0,2.520711422E0,9.309211731E0
2.088000000E1,-1.716786265E0,2.615904808E0,1.039454174E1
2.090000000E1,-1.354122162E0,2.636504412E0,1.105331039E1
2.092000000E1,-9.223231077E-1,2.441970587E0,1.167871475E1
2.094000000E1,-7.604655027E-1,2.427978992E0,1.211618328E1
2.096000000E1,-8.618934155E-1,2.476217508E0,1.203472233E1
2.098000000E1,-1.050556540E0,2.770991802E0,1.188288307E1
2.100000000E1,-8.649389148E-1,2.757727861E0,1.233036804E1
2.102000000E1,-6.671395302E-1,2.535038233E0,1.301270580E1
2.104000000E1,-1.035501838E0,2.105681181E0,1.326539993E1
2.106000000E1,-2.013485432E0,1.949454784E0,1.244071293E1
2.108000000E1,-2.661614895E0,1.721727848E0,1.139597893E1
2.110000000E1,-2.346212387E0,1.188836098E0,1.080946636E1
2.112000000E1,-1.250884175E0,3.177871704E-1,1.091607475E1
2.114000000E1,-7.132997513E-1,2.163783759E-1,1.141268063E1
2.116000000E1,-8.293227553E-1,3.462686241E-1,1.161776733E1
2.118000000E1,-1.118973255E0,4.797213972E-1,1.124110222E1
2.120000000E1,-1.230983615E0,6.546801329E-1,1.004915428E1
2.122000000E1,-1.038183331E0,9.477494955E-1,8.780437469E0
2.124000000E1,-4.402936995E-1,1.162930727E0,7.829020500E0
2.126000000E1,5.655870438E-1,1.196325064E0,7.088934422E0
2.128000000E1,1.172612906E0,1.520672321E0,6.848997116E0
2.130000000E1,1.345579743E0,1.517100215E0,7.028313160E0
2.132000000E1,1.315163732E0,1.251899242E0,6.991452217E0
2.134000000E1,1.227085829E0,8.577658534E-1,6.677888393E0
2.136000000E1,1.080541492E0,8.176102638E-1,6.276265621E0
2.138000000E1,1.059453368E0,8.703402281E-1,5.868025303E0
2.140000000E1,1.183999777E0,7.817643285E-1,5.336771488E0
2.142000000E1,1.255002141E0,8.570188880E-1,4.948211193E0
2.144000000E1,1.006895900E0,1.041295767E0,5.611118317E0
2.146000000E1,9.236063957E-1,9.502011538E-1,6.938291073E0
2.148000000E1,6.531190872E-1,6.933416724E-1,8.949612617E0
2.150000000E1,-2.728911042E-1,1.240512609E0,1.193506622E1
2.152000000E1,-4.352850318E-1,1.535257936E0,1.420762444E1
2.154000000E1,-2.373132855E-1,1.588409185E0,1.412517643E1
2.156000000E1,-2.668002546E-1,1.932350636E0,1.458657837E1
2.158000000E1,-9.868612289E-1,2.315710306E0,1.684324837E1
2.160000000E1,-1.512828946E0,2.732138395E0,1.935884285E1
2.162000000E1,-6.716980338E-1,2.180016279E0,1.916404343E1
2.164000000E1,1.045691490E0,1.211734295E0,1.672594070E1
2.166000000E1,2.752604008E0,1.012498379E0,1.391155624E1
2.168000000E1,4.035628319E0,1.175083756E0,1.193297005E1
2.170000000E1,4.458606720E0,1.272642732E0,1.046151257E1
2.172000000E1,3.917479038E0,1.490026593E0,8.981915474E0
2.174000000E1,2.842788935E0,1.596760154E0,7.593383312E0
2.176000000E1,1.756884456E0,1.492679477E0,6.269820213E0
2.178000000E1,9.545203447E-1,1.459514856E0,5.139776230E0
2.180000000E1,5.677418113E-1,1.516564012E0,4.396960735E0
2.182000000E1,2.595697641E-1,1.642527699E0,4.064933300E0
2.184000000E1,1.163007468E-1,1.675194263E0,3.754606247E0
2.186000000E1,-9.900502861E-2,1.811788201E0,3.944073677E0
2.188000000E1,-4.281502962E-1,1.912095666E0,4.287967205E0
2.190000000E1,-6.220710278E-1,1.990481853E0,5.179214001E0
2.192000000E1,-4.456758797E-1,2.061254501E0,6.308300495E0
2.194000000E1,-1.961425841E-1,2.266695976E0,6.858813286E0
2.196000000E1,-4.027047381E-2,2.555934906E0,7.441992760E0
2.198000000E1,6.317819655E-2,2.681228161E0,9.010520935E0
2.200000000E1,4.754309952E-1,2.384213209E0,1.082648468E1
2.202000000E1,1.400493026E0,2.128263474E0,1.218393898E1
2.204000000E1,2.144237518E0,2.204216957E0,1.315116787E1
2.206000000E1,2.233119965E0,2.409917355E0,1.412935257E1
2.208000000E1,1.675768852E0,2.581792355E0,1.366707993E1
2.210000000E1,8.339196444E-1,2.732310772E0,1.282284641E1
2.212000000E1,4.319235682E-1,2.382106304E0,1.293238544E1
2.214000000E1,7.037037611E-2,1.948525906E0,1.374232483E1
2.216000000E1,-5.579255819E-1,1.508059859E0,1.404412937E1
2.218000000E1,-1.229269266E0,1.234421611E0,1.347041988E1
2.220000000E1,-1.103669524E0,9.291896820E-1,1.282105541E1
2.222000000E1,-9.596917778E-2,6.285641193E-1,1.241418457E1
2.224000000E1,6.208165288E-1,7.373661995E-1,1.198336220E1
2.226000000E1,8.911793232E-1,8.388707638E-1,1.113777828E1
2.228000000E1,8.406808376E-1,9.858269095E-1,1.019983578E1
2.230000000E1,7.785465121E-1,1.094016075E0,9.505478859E0
2.232000000E1,8.920603991E-1,1.192791224E0,8.854802132E0
2.234000000E1,1.275735974E0,1.227564692E0,8.164303780E0
2.236000000E1,1.584473133E0,1.232726574E0,7.439129353E0
2.238000000E1,1.605896473E0,1.335571885E0,7.179205418E0
2.240000000E1,1.516429901E0,1.165200591E0,6.936337471E0
2.242000000E1,1.148163319E0,9.547980428E-1,6.962118149E0
2.244000000E1,9.891501069E-1,4.882926345E-1,6.437902927E0
2.246000000E1,7.365139127E-1,3.587759137E-1,5.213115692E0
2.248000000E1,5.178945065E-1,6.289088726E-1,3.823645592E0
2.250000000E1,1.561785638E-1,1.436070919E0,3.617083311E0
2.252000000E1,1.357512325E-1,2.222029686E0,4.203384876E0
2.254000000E1,1.098459810E-1,3.006169081E0,4.798296452E0
2.256000000E1,3.160250485E-1,3.551309824E0,7.025468826E0
2.258000000E1,5.573701859E-1,3.392919064E0,1.043256187E1
2.260000000E1,3.417866528E-1,3.354583025E0,1.274958420E1
2.262000000E1,-4.845864177E-1,3.836545467E0,1.385130024E1
2.264000000E1,-2.228522897E-1,3.572522402E0,1.385381794E1
2.266199844E1,5.714288950E-1,3.017699718E0,1.396014977E1
2.268200000E1,4.596771598E-1,2.348635197E0,1.510690498E1
2.270200000E1,3.233608603E-1,1.538906574E0,1.655315590E1
2.272200000E1,1.309302688E0,5.523710251E-1,1.648334122E1
2.274200000E1,2.600821257E0,2.708129585E-1,1.454714108E1
2.276200000E1,3.750861883E0,4.213028848E-1,1.203462696E1
2.278200000E1,3.896687746E0,8.695932031E-1,1.074855804E1
2.280200000E1,3.260941029E0,1.000038862E0,1.015304279E1
2.282200000E1,2.153632402E0,9.681959748E-1,9.067301750E0
2.284200000E1,1.037369251E0,1.184938312E0,7.368280411E0
2.286200000E1,2.273533940E-1,1.613394976E0,5.617218971E0
2.288200000E1,-1.970236450E-1,2.065745831E0,4.524035454E0
2.290200000E1,-2.424177080E-1,2.423554659E0,4.200760841E0
2.292200000E1,-3.346327841E-1,2.714402437E0,4.465875626E0
2.294200000E1,-5.559432507E-1,2.797950268E0,4.782935143E0
2.296200000E1,-1.016472697E0,2.888834238E0,4.991096497E0
2.298200000E1,-1.389307380E0,2.976883411E0,4.980399609E0
2.300200000E1,-1.550322294E0,2.954320431E0,5.322051525E0
2.302200156E1,-1.901379228E0,2.894465446E0,6.032028198E0
2.304400000E1,-2.695162296E0,3.075198889E0,7.107178211E0
2.306400000E1,-3.455963135E0,3.343387604E0,9.021657944E0
2.308401875E1,-3.421247005E0,3.074825525E0,1.138176632E1
2.310600000E1,-3.334950686E0,2.926241159E0,1.372811317E1
2.312600000E1,-3.223333120E0,2.891094208E0,1.435868835E1
2.314600000E1,-2.600103140E0,2.546386719E0,1.398756790E1
2.316600000E1,-1.624734044E0,2.536024570E0,1.374950790E1
2.318600000E1,-3.939611018E-1,2.261601210E0,1.453421211E1
2.320600000E1,4.807556793E-2,1.753877163E0,1.590623379E1
2.322600000E1,-4.533947706E-1,1.357397437E0,1.597892094E1
2.324600000E1,-1.259091496E0,1.250079751E0,1.431060314E1
2.326600000E1,-1.208382368E0,1.017526150E0,1.246616840E1
2.328600000E1,-8.115194440E-1,1.152511239E0,1.140643692E1
2.330600000E1,-1.584099531E-1,9.565889239E-1,1.101846123E1
2.332600000E1,-2.751991153E-1,1.149255157E0,1.035046864E1
2.334600000E1,-4.754309952E-1,1.203325748E0,9.199107170E0
2.336600000E1,-6.034728885E-1,1.266111374E0,7.824260712E0
2.338600000E1,-7.332865000E-1,1.527337909E0,6.965393543E0
2.340600000E1,-6.241875887E-1,1.669907808E0,6.948394299E0
2.342600000E1,-3.313479424E-1,1.650648832E0,6.636219501E0
2.344600000E1,-7.988014072E-2,1.885213614E0,6.126398563E0
2.346600000E1,2.681984901E-1,2.051917076E0,5.956524849E0
2.348600000E1,7.027556896E-1,2.067057848E0,6.020421505E0
2.350600000E1,1.022122979E0,1.991027713E0,5.686803818E0
2.352600000E1,9.771982431E-1,2.009185314E0,5.425558090E0
2.354600000E1,7.462056279E-1,2.092896223E0,5.893097878E0
2.356600000E1,5.402659774E-1,2.045098305E0,6.742301941E0
2.358600000E1,3.943250179E-1,2.047348976E0,7.132633209E0
2.360600000E1,4.039114118E-1,2.002357006E0,7.347929478E0
2.362600000E1,3.768185973E-1,1.946888208E0,8.369784355E0
2.364600000E1,3.684484959E-1,1.690325618E0,9.447959900E0
2.366600156E1,1.081125736E-1,1.639788747E0,1.005187416E1
2.368800156E1,-6.684515476E-1,2.398156881E0,1.045057487E1
2.370800156E1,-1.044523239E0,2.956293106E0,1.075350857E1
2.372800781E1,-4.377079606E-1,2.999302626E0,1.138366318E1
2.375000156E1,6.378248930E-1,2.749003172E0,1.222953415E1
2.377200156E1,1.553501725E0,1.909854770E0,1.382755852E1
2.379400000E1,1.696071625E0,6.994037628E-1,1.547893524E1
2.381400156E1,1.900651336E0,-1.819688976E-1,1.635409355E1
2.383600000E1,2.421581745E0,-3.495917618E-1,1.516765976E1
2.385600000E1,2.416687965E0,4.534330666E-1,1.328686142E1
2.387600156E1,2.157453299E0,1.159808755E0,1.127923775E1
2.389800156E1,1.812171221E0,1.380889416E0,9.629316330E0
2.391800156E1,1.108209014E0,1.766528249E0,8.569833755E0
2.394000156E1,4.644176662E-1,1.982178688E0,7.271449089E0
2.396200156E1,-9.384313226E-2,2.114405870E0,5.570014477E0
2.398200156E1,-7.029854655E-1,2.296681166E0,4.258509159E0
2.400200781E1,-1.040567994E0,2.371016264E0,3.389892817E0
2.402400000E1,-1.367970228E0,2.625069857E0,3.174998760E0
2.404400000E1,-1.568460703E0,2.740422249E0,3.448751688E0
2.406400000E1,-1.852403402E0,2.706156492E0,4.497153282E0
2.408401875E1,-1.977610588E0,2.606146097E0,6.119828701E0
2.410600000E1,-1.778671622E0,2.665857315E0,8.135104179E0
2.412600000E1,-1.631916642E0,2.766116858E0,9.410343170E0
2.414600000E1,-1.588485837E0,2.678460360E0,9.249050140E0
2.416600000E1,-1.179671049E0,2.697757721E0,9.035659790E0
2.418600000E1,-1.590133011E-1,2.495476246E0,1.017913055E1
2.420600000E1,1.940165311E-1,2.337382555E0,1.304092026E1
2.422600000E1,-1.514188945E-1,2.796657562E0,1.611814880E1
2.424600000E1,7.033590078E-1,1.607534051E0,1.867661095E1
2.426600000E1,1.533897996E0,3.204686940E-1,1.938487434E1
2.428600156E1,1.136987209E0,-4.386177752E-3,1.804182243E1
2.430600156E1,-1.613212973E-1,4.617840648E-1,1.568610096E1
2.432800156E1,-3.352169693E-1,7.042496204E-1,1.361820030E1
2.435000156E1,1.454467893E0,1.073943079E-1,1.264117336E1
2.437000156E1,2.112710714E0,3.499556780E-1,1.203990459E1
2.439000156E1,1.218725204E0,7.388793826E-1,1.110764980E1
2.441000156E1,-1.573373526E-1,1.009749770E0,9.641172409E0
2.443000156E1,-7.038857341E-1,1.028692722E0,8.145562172E0
2.445000156E1,-6.223871112E-1,1.195128083E0,7.204066753E0
2.447000156E1,-3.863571286E-1,1.404093981E0,7.286465168E0
2.449200000E1,2.251507156E-2,1.561057806E0,7.464249611E0
2.451200000E1,2.622799873E-1,1.579215407E0,6.586573124E0
2.453200156E1,3.639473915E-1,1.621410847E0,5.548131466E0
2.455400156E1,3.531830311E-1,1.805209041E0,5.525118828E0
2.457400156E1,5.439817309E-1,1.521036386E0,6.088215351E0
2.459600156E1,4.214465320E-1,1.422098398E0,6.676518440E0
2.461800156E1,5.197141767E-1,1.673642755E0,7.234875679E0
2.463800156E1,1.051629186E0,1.777828813E0,7.054180145E0
2.465800156E1,1.111551285E0,2.050355911E0,6.491887569E0
2.468000000E1,1.713319421E0,2.209608555E0,7.602270603E0
2.470000000E1,2.629178286E0,1.972238064E0,9.079904556E0
2.472000156E1,1.866213083E0,1.864182830E0,1.000507259E1
2.474200156E1,-2.753619254E-1,2.230754375E0,1.048951435E1
2.476400000E1,-1.769726753E0,2.881958008E0,1.024093914E1
2.478402188E1,-2.118054390E0,3.435899734E0,1.065405369E1
2.480600156E1,-6.747052073E-1,3.006360769E0,1.221711349E1
2.482600156E1,1.345972300E0,1.979142904E0,1.428135586E1
2.484601094E1,1.827484608E0,1.174652815E0,1.569113827E1
2.486800156E1,1.336271048E0,1.785978675E-1,1.618671799E1
2.488800781E1,1.193816066E0,6.572562456E-2,1.450468636E1
2.491000156E1,1.962986827E0,8.727343678E-1,1.130254745E1
2.493000156E1,2.814566135E0,1.937598705E0,9.232942581E0
2.495000156E1,2.659440994E0,2.594127178E0,8.843280792E0
2.497000156E1,1.574628115E0,3.004608154E0,9.000925064E0
2.499000156E1,3.326216340E-1,3.410866022E0,8.462554932E0
2.501000156E1,-2.242505103E-1,3.525596142E0,7.039728642E0
2.503000156E1,-5.818963647E-1,3.775617599E0,5.634083271E0
2.505000156E1,-6.579936743E-1,3.978492975E0,4.902836323E0
2.507000156E1,-5.077814460E-1,3.853113174E0,5.013487339E0
2.509000156E1,-5.104150772E-1,3.732694626E0,5.386044025E0
2.511200156E1,-7.797819376E-1,3.516766310E0,6.443783283E0
2.513400156E1,-1.286184311E0,3.470376253E0,7.133054733E0
2.515600156E1,-1.405520916E0,3.511614084E0,7.681930065E0
2.517800000E1,-1.049148798E0,3.538505554E0,8.217781067E0
2.519800000E1,-5.119473338E-1,3.595669746E0,8.740426064E0
2.521800000E1,-2.435956597E-1,3.418383837E0,9.307698250E0
2.523800781E1,-1.058620214E-1,3.324540615E0,9.757320404E0
2.526000000E1,2.632185221E-1,3.014663935E0,1.040244198E1
2.528000000E1,8.963891119E-2,3.020170450E0,1.075212955E1
2.530000156E1,-2.575969398E-1,3.380880833E0,1.158018875E1
2.532200156E1,1.822945029E-1,3.044112444E0,1.366532707E1
2.534400156E1,8.523358405E-2,2.646425962E0,1.438234234E1
2.536600156E1,-1.253058076E0,3.325565338E0,1.307965851E1
2.538600156E1,-1.649164438E0,3.346586466E0,1.114138889E1
2.540801719E1,-1.280093551E0,2.879956484E0,9.817692757E0
2.543000156E1,-6.439349651E-1,1.887588620E0,1.014399338E1
2.545000156E1,-1.417597294E0,1.748763204E0,1.054355621E1
2.547000625E1,-1.587805748E0,2.103057146E0,1.022909260E1
2.549200000E1,-1.088451982E0,2.061072588E0,9.684669495E0
2.551200156E1,-1.244927406E0,2.221924543E0,8.918573380E0
2.553200156E1,-1.476245642E0,2.514706612E0,8.087517738E0
2.555400625E1,-1.276703238E0,2.521151781E0,6.764673233E0
2.557600156E1,-1.144303918E0,2.316476345E0,6.071944237E0
2.559600625E1,-8.777526021E-1,2.156457424E0,6.318805695E0
2.561800156E1,-3.544280529E-1,2.134315968E0,6.464938641E0
2.563800312E1,-2.692040429E-2,2.138433933E0,6.317062855E0
2.565800781E1,-1.694424450E-1,2.220152855E0,6.582445621E0
2.567801719E1,-1.726315171E-1,2.288655758E0,6.767106056E0
2.570000000E1,-1.998200715E-1,2.327508688E0,7.453916073E0
2.572000156E1,-2.653062642E-1,2.297389746E0,8.053950310E0
2.574000156E1,-6.933991313E-1,2.382881880E0,8.102045059E0
2.576000156E1,-7.244663239E-1,2.216226339E0,8.096070290E0
2.578200156E1,-7.492032051E-1,2.405435324E0,8.455631256E0
2.580200625E1,-9.656102657E-1,3.285773754E0,1.029907036E1
2.582400000E1,-2.041124105E0,3.446721554E0,1.103253937E1
2.584400312E1,-3.094524860E0,4.794322014E0,1.338416195E1
2.586600156E1,-1.202760696E0,4.226388454E0,1.316519833E1
2.588600938E1,2.686102986E-1,3.354142666E0,1.293397522E1
2.590800156E1,1.605743319E-1,2.662945986E0,1.230518150E1
2.592800312E1,-3.251613081E-1,2.098968029E0,1.214576530E1
2.595000156E1,-3.175286055E-1,1.667063475E0,1.307457256E1
2.597200781E1,5.768398046E-1,1.370249510E0,1.346517181E1
2.599400469E1,1.809566379E0,1.083069801E0,1.277528763E1
2.601600156E1,2.030895948E0,1.458356023E0,1.134133339E1
2.603600156E1,1.257089972E0,1.837511420E0,1.014369583E1
2.605600156E1,4.193396270E-1,1.954482675E0,9.226984978E0
2.607600938E1,-2.332910150E-2,2.014797449E0,8.417745590E0
2.609800156E1,-2.593111992E-1,2.350962400E0,7.453293324E0
2.611800156E1,6.338888407E-2,2.516009092E0,6.659194469E0
2.613800156E1,2.018407732E-1,2.722379684E0,6.090417862E0
2.615800156E1,-1.173158810E-1,2.893134356E0,5.583632946E0
2.618000000E1,-5.023130774E-1,2.951140881E0,5.128897190E0
2.620000000E1,-6.911389828E-1,3.104532719E0,5.543074608E0
2.622000156E1,-4.680951536E-1,2.911511898E0,6.481286049E0
2.624200000E1,-5.471516848E-1,3.038174868E0,7.413827419E0
2.626200000E1,-1.083184719E0,3.459947109E0,8.002800941E0
2.628200000E1,-1.084717035E0,3.670885801E0,8.176303864E0
2.630200000E1,-6.729143262E-1,3.770541906E0,8.736422539E0
2.632200000E1,-2.691082656E-1,3.842530966E0,9.757788658E0
2.634200000E1,3.926107883E-1,3.795212030E0,1.047205639E1
2.636200000E1,8.900396824E-1,3.677560806E0,1.107101822E1
2.638200000E1,5.500534773E-1,4.204984188E0,1.168225765E1
2.640200469E1,1.893526316E-1,4.475538731E0,1.218979073E1
2.642400000E1,6.247333884E-1,3.647566319E0,1.263082123E1
2.644599844E1,-1.866040826E-1,3.503473520E0,1.271084595E1
2.646600469E1,-1.431713462E0,3.234183311E0,1.223543358E1
2.648800156E1,-2.001016378E0,2.899416447E0,1.137174034E1
2.650800156E1,-1.789206028E0,2.269894838E0,1.080237961E1
2.652800469E1,-1.471409321E0,2.059961557E0,1.085138416E1
2.655000000E1,-1.173235416E0,2.217605352E0,1.099434662E1
2.657000156E1,-7.113364935E-1,2.448473454E0,1.040657043E1
2.659200000E1,-3.785807490E-1,2.467378139E0,9.249979019E0
2.661200156E1,-4.615446031E-1,2.761213541E0,7.996557236E0
2.663400000E1,-4.143884182E-1,2.906656742E0,6.997188568E0
2.665400000E1,-1.329452395E-1,2.853495836E0,6.489397526E0
2.667400000E1,1.435563415E-1,2.778394461E0,6.407420158E0
2.669400000E1,3.800076842E-1,2.714622498E0,6.333592415E0
2.671400000E1,4.652795792E-1,2.613156319E0,6.249776363E0
2.673400000E1,2.686581612E-1,2.677215576E0,6.212580204E0
2.675400000E1,1.354735047E-1,2.755017519E0,6.249422073E0
2.677400000E1,-7.318595797E-2,2.855171680E0,6.547213078E0
2.679400000E1,-3.305626512E-1,2.970246553E0,6.925544262E0
2.681400000E1,-5.560772419E-1,3.174462318E0,7.548544407E0
2.683400000E1,-4.225478768E-1,3.273898363E0,8.309000015E0
2.685400000E1,5.565082654E-2,3.130246401E0,8.888378143E0
2.687400000E1,-1.918713152E-1,3.513098478E0,9.206395149E0
2.689400000E1,-9.913431406E-1,4.196097374E0,9.728139877E0
2.691400000E1,-1.626371622E0,4.835789680E0,1.044792271E1
2.693400000E1,-1.158640385E0,4.941507816E0,1.171421623E1
2.695400000E1,5.599462986E-1,4.455542564E0,1.314088249E1
2.697400000E1,1.917353392E0,3.838910818E0,1.420890713E1
2.699400156E1,1.837827563E0,3.343656063E0,1.520541191E1
2.701600000E1,1.821173429E0,1.643466234E0,1.512318516E1
2.703600000E1,1.771192193E0,1.193423390E0,1.385219002E1
2.705800000E1,2.054445267E0,1.021874070E0,1.170122051E1
2.707800000E1,2.655236721E0,1.596310019E0,9.704169273E0
2.709800000E1,2.421074152E0,2.033060312E0,8.606197357E0
2.711800156E1,9.929711819E-1,2.201813221E0,8.425224304E0
2.714000000E1,-6.049668789E-1,2.069413900E0,7.951842785E0
2.716000000E1,-1.364139557E0,2.055163622E0,6.822315693E0
2.718000000E1,-1.923405886E0,2.596396685E0,6.547729969E0
2.720000000E1,-1.644002557E0,2.793181181E0,6.616778851E0
2.722000000E1,-1.246067047E0,2.945203304E0,6.400994301E0
2.724000000E1,-1.354313731E0,3.095166445E0,6.106038094E0
2.726000000E1,-1.468708634E0,3.217165470E0,6.178878784E0
2.728000000E1,-1.201448679E0,3.083549738E0,6.314055443E0
2.730000000E1,-1.170735836E0,3.173313141E0,6.457343578E0
2.732000000E1,-1.629867196E0,3.585834265E0,6.964091301E0
2.734000000E1,-1.480602980E0,3.778088570E0,7.573214531E0
2.736000000E1,-9.714329839E-1,3.930359840E0,8.181859016E0
2.738000000E1,-4.891545773E-1,4.139172554E0,8.997515678E0
2.740000156E1,3.249984980E-1,4.039630890E0,9.867691994E0
2.742000156E1,7.266306281E-1,4.010259151E0,1.045457840E1
2.744000156E1,-1.046649218E-1,4.206104755E0,1.054939842E1
2.746200000E1,-1.616383076E0,4.782752991E0,1.092766285E1
2.748200000E1,-1.510549664E0,4.275469780E0,1.141427994E1
2.750200000E1,-1.473966360E0,3.888566732E0,1.182175350E1
2.752200000E1,-2.369943619E0,3.976002932E0,1.158321476E1
2.754200000E1,-3.114827633E0,3.665063143E0,1.061706829E1
2.756200000E1,-2.604546547E0,3.164598465E0,1.006345177E1
2.758200000E1,-1.311802268E0,2.133588076E0,1.049073124E1
2.760200156E1,-8.793902397E-1,1.570222735E0,1.140210724E1
2.762400000E1,-8.153309822E-1,1.415270090E0,1.217957211E1
2.764400000E1,-5.813121796E-1,1.176616073E0,1.139424515E1
2.766400000E1,-5.774335861E-1,1.512781143E0,9.524555206E0
2.768401875E1,-4.137180448E-1,1.994532824E0,7.948338032E0
2.770600000E1,2.219808102E-1,2.604038954E0,6.938099384E0
2.772600000E1,1.216465235E0,3.015085220E0,6.249948502E0
2.774600156E1,1.760044694E0,3.307053566E0,6.174176693E0
2.776800313E1,1.725683093E0,3.166762590E0,6.770783424E0
2.779000000E1,1.230456948E0,2.325009346E0,7.009849072E0
2.781000000E1,6.406883895E-2,1.652525902E0,6.831088543E0
2.783000000E1,-1.235724092E0,1.390944958E0,6.244518757E0
2.785000000E1,-2.112758636E0,1.303192735E0,5.577044010E0
2.787000000E1,-2.688391685E0,1.528918147E0,5.507085323E0
2.789000000E1,-2.805410624E0,1.785020947E0,6.684439182E0
2.791000000E1,-2.286481619E0,1.832205892E0,8.301041603E0
2.793000156E1,-1.776526332E0,2.368880510E0,1.003092957E1
2.795200000E1,-1.311668158E0,2.882839203E0,1.178098488E1
2.797200156E1,-1.923281431E0,3.893393278E0,1.255776978E1
2.799400000E1,-2.806349039E0,5.183657169E0,1.337044811E1
2.801400000E1,-1.878069162E0,4.953201294E0,1.479060268E1
2.803400000E1,-4.025131837E-2,3.588994741E0,1.687394142E1
2.805400000E1,4.837341011E-1,2.409246922E0,1.881187439E1
2.807400000E1,9.779834747E-2,1.555436254E0,1.879087257E1
2.809400000E1,5.976214409E-1,6.700699925E-1,1.656124878E1
2.811400000E1,2.397697210E0,-5.542098358E-2,1.323133469E1
2.813400000E1,3.838049173E0,2.544078529E-1,1.073100376E1
2.815400000E1,4.140350819E0,7.893396020E-1,9.251578331E0
2.817400000E1,3.312598467E0,1.374961257E0,8.327349663E0
2.819400000E1,2.348740578E0,1.490505457E0,7.156537056E0
2.821400000E1,1.326397300E0,1.481598973E0,5.787226200E0
2.823400000E1,4.834563732E-1,1.765197039E0,4.722868919E0
2.825400000E1,1.384997815E-1,2.111015558E0,3.895164967E0
2.827400000E1,6.984364986E-2,2.440218210E0,3.480374575E0
2.829400000E1,-3.774602711E-1,2.889245987E0,4.091882229E0
2.831400000E1,-8.157715201E-1,3.150070429E0,5.872593880E0
2.833400000E1,-1.182065248E0,3.165709257E0,7.883139133E0
2.835400000E1,-6.326150894E-1,3.292027235E0,8.356204033E0
2.837400000E1,3.783700466E-1,3.498790503E0,7.882286549E0
2.839400000E1,8.943876028E-1,3.970630407E0,8.055818558E0
2.841400156E1,8.483518958E-1,4.269666195E0,8.991817474E0
2.843600000E1,6.218507886E-1,4.489702702E0,1.089470005E1
2.845600000E1,5.973150134E-1,4.448522568E0,1.198737526E1
2.847600000E1,9.240756631E-1,4.329051971E0,1.228239822E1
2.849600000E1,1.086029053E0,4.524974346E0,1.190882587E1
2.851600000E1,4.032889009E-1,5.071857929E0,1.114745140E1
2.853600000E1,-2.262712121E-1,5.539675236E0,1.085897827E1
2.855600000E1,3.760716319E-1,4.297065258E0,1.061483669E1
2.857600000E1,-2.690986991E-1,3.997857094E0,1.034686852E1
2.859600000E1,-2.209905624E0,4.560752869E0,9.758747101E0
2.861600000E1,-3.266332865E0,4.311114788E0,9.774118423E0
2.863600000E1,-2.849262953E0,3.373755932E0,9.670793533E0
2.865600000E1,-1.563337088E0,2.455522060E0,1.001768494E1
2.867600000E1,-8.068076968E-1,2.349679232E0,1.068057251E1
2.869600000E1,-3.609690070E-1,2.307244301E0,1.097445488E1
2.871600000E1,-2.133520991E-1,2.438925266E0,9.603046417E0
2.873600000E1,-4.086614847E-1,2.748639345E0,7.901258469E0
2.875600000E1,-3.666576147E-1,2.975083113E0,6.436428070E0
2.877600156E1,-1.910094172E-1,3.201584101E0,6.241070747E0
2.879800000E1,8.533892781E-2,3.202914953E0,6.668694496E0
2.881800000E1,1.321790963E-1,3.389643908E0,6.904581070E0
2.883800156E1,3.377835453E-1,3.288435936E0,6.725475788E0
2.886000000E1,3.745968044E-1,3.227211475E0,6.568004131E0
2.888000000E1,1.162624359E-1,3.394776821E0,6.592185497E0
2.890000000E1,-5.454949290E-2,3.646723747E0,6.748277664E0
2.892000000E1,-1.921107434E-2,4.072651863E0,7.213604927E0
2.894000000E1,1.849664450E-1,4.175133228E0,7.565265656E0
2.896000000E1,-6.042964756E-3,4.416746616E0,7.973658562E0
2.898000000E1,-2.859538794E-1,4.352534294E0,8.354643822E0
2.900000000E1,-9.003826380E-1,4.896296024E0,8.633596420E0
2.902000000E1,-1.507504225E0,5.704961300E0,9.227886200E0
2.904000000E1,-1.855142474E0,6.505285740E0,9.707951546E0
2.906000000E1,-1.270574093E0,6.261488914E0,1.042270660E1
2.908000000E1,2.725080252E-1,4.924422741E0,1.128545284E1
2.910000000E1,1.046074629E0,4.081798077E0,1.183254719E1
2.912000000E1,8.099871874E-1,3.458462715E0,1.238348103E1
2.914000000E1,5.856217742E-1,2.918340445E0,1.246299839E1
2.916000000E1,1.337602139E0,2.433389902E0,1.140224266E1
2.918000000E1,2.481934786E0,2.755994320E0,9.735456467E0
2.920000000E1,3.017488956E0,2.807239771E0,8.426747322E0
2.922000000E1,2.594012260E0,3.003660202E0,8.013891220E0
2.924000000E1,2.158047199E0,2.792156219E0,7.426009178E0
2.926000000E1,1.723815680E0,2.755965471E0,6.713763237E0
2.928000000E1,1.162001848E0,3.186653852E0,6.134088516E0
2.930000156E1,8.125824332E-1,3.451462030E0,5.603437424E0
2.932200000E1,3.625683188E-1,3.779017687E0,5.261976719E0
2.934200000E1,9.539456666E-2,4.022584438E0,4.979067802E0
2.936200000E1,-1.905592978E-1,4.314198017E0,4.707517624E0
2.938200000E1,-4.473901093E-1,4.638813496E0,4.954895973E0
2.940200156E1,-6.133178473E-1,4.563376904E0,5.905135632E0
2.942400000E1,-9.077567458E-1,4.357006550E0,6.823359966E0
2.944400000E1,-1.170084715E0,4.254716873E0,7.383152962E0
2.946400000E1,-7.437061071E-1,4.103211403E0,8.520800591E0
2.948401875E1,-5.774814487E-1,4.089890480E0,9.903136253E0
2.950600000E1,-9.424918890E-1,4.186577797E0,1.090143299E1
2.952600000E1,-8.012722731E-1,3.897271872E0,1.086194706E1
2.954600000E1,-4.343943894E-1,3.763598919E0,1.113143826E1
2.956600000E1,-1.969757676E-1,3.429866314E0,1.196026325E1
2.958600000E1,6.365703791E-2,3.273352623E0,1.319050980E1
2.960600000E1,3.407715261E-1,3.206918240E0,1.376472569E1
2.962600000E1,5.158259869E-1,3.000662565E0,1.427436447E1
2.964600000E1,4.616978467E-1,2.494374990E0,1.414519215E1
2.966600000E1,-2.353404611E-1,2.436904669E0,1.307786751E1
2.968600000E1,-4.478402138E-1,2.335438490E0,1.186908340E1
2.970600000E1,-3.381570429E-2,2.077305079E0,1.115105152E1
2.972600000E1,3.075782955E-1,1.772935033E0,1.097435093E1
2.974600000E1,3.280056268E-2,1.693141103E0,1.097163105E1
2.976600000E1,-3.554431796E-1,1.507619262E0,1.026308060E1
2.978600000E1,-7.913123965E-1,1.491348267E0,9.284809113E0
2.980600000E1,-1.077160835E0,1.490112782E0,8.337299347E0
2.982600000E1,-1.131269932E0,1.427375078E0,7.563599110E0
2.984600938E1,-8.959390521E-1,1.506335974E0,7.092717171E0
2.986800000E1,-3.515741527E-1,1.399133205E0,6.900271416E0
2.988800000E1,1.954338998E-1,1.387612343E0,6.806801796E0
2.990800312E1,6.163920164E-1,1.443990946E0,6.830379963E0
2.993000000E1,1.035923243E0,1.447744966E0,6.898978710E0
2.995000000E1,1.228455305E0,1.372346759E0,7.035984516E0
2.997000625E1,1.301296473E0,1.231500745E0,7.092257500E0
2.999200000E1,1.203900337E0,1.201190233E0,7.187929630E0
3.001200156E1,1.202320218E0,1.322758198E0,7.314832211E0
3.003200156E1,1.203804612E0,1.500838876E0,7.863765240E0
3.005200156E1,1.199715376E0,1.326100469E0,9.012435913E0
3.007200156E1,1.565127969E0,9.067416191E-1,1.038262749E1
3.009400000E1,1.563212633E0,7.336696386E-1,1.159574127E1
3.011400000E1,7.076206803E-1,5.634610057E-1,1.304580402E1
3.013400156E1,-6.272808462E-2,1.069078088E0,1.319709873E1
3.015600156E1,5.504556894E-1,1.370067477E0,1.231302547E1
3.017600156E1,2.556001902E0,1.021605849E0,1.229483891E1
3.019800156E1,3.834984303E0,1.236049652E0,1.370801163E1
3.021800156E1,3.312253714E0,1.270574093E0,1.491578960E1
3.023800156E1,2.464581490E0,6.565667391E-1,1.480800438E1
3.025800156E1,2.960976362E0,2.053267322E-2,1.428832722E1
3.027800938E1,3.960890532E0,1.447630227E-1,1.347143555E1
3.030000156E1,4.188397408E0,6.374610066E-1,1.190020657E1
3.032200156E1,3.608224869E0,8.244481087E-1,1.031048679E1
3.034400156E1,2.311391115E0,1.334030032E0,8.831261635E0
3.036600000E1,1.042263031E0,2.070601225E0,7.377914429E0
3.038600156E1,5.416929126E-1,2.449277878E0,5.807672501E0
3.040800156E1,7.527849078E-1,2.562523603E0,4.489549637E0
3.042800156E1,7.671022415E-1,2.689272642E0,4.336684704E0
3.044801875E1,-1.168753505E-1,2.820455790E0,4.155960560E0
3.047000000E1,-1.345732927E0,2.868962288E0,4.229969978E0
3.049199844E1,-1.955823421E0,2.501423597E0,4.671106339E0
3.051200000E1,-1.902298570E0,2.230792761E0,5.303108692E0
3.053200000E1,-1.739148021E0,2.334825516E0,6.585941315E0
3.055200000E1,-1.991094708E0,2.530182838E0,8.376956940E0
3.057200000E1,-2.202244043E0,2.712678432E0,9.873017311E0
3.059200000E1,-1.008456945E0,2.262664318E0,1.043828773E1
3.061200156E1,4.936460853E-1,2.069596052E0,1.098491287E1
3.063400000E1,1.275477409E0,2.255558252E0,1.208273125E1
3.065600000E1,1.317998409E0,2.651415586E0,1.292902470E1
3.067600000E1,1.236059308E0,2.432336330E0,1.319491482E1
3.069600000E1,1.170917869E0,1.920609474E0,1.368313122E1
3.071600000E1,7.620648146E-1,1.695200205E0,1.454592514E1
3.073600000E1,-6.253654510E-2,1.445044398E0,1.429519463E1
3.075600000E1,-5.582703948E-1,1.027514815E0,1.280522442E1
3.077600000E1,-9.638097882E-2,6.426420212E-1,1.216401958E1
3.079600000E1,8.129272461E-1,2.815198004E-1,1.259436321E1
3.081600000E1,1.423477411E0,3.043796420E-1,1.290276432E1
3.083600000E1,1.144629478E0,4.506270885E-1,1.201554966E1
3.085600000E1,3.488064706E-1,5.877956748E-1,1.052607918E1
3.087600156E1,-2.290580571E-1,7.555430532E-1,9.140190125E0
3.089800156E1,-3.390285373E-1,9.712606072E-1,7.938847065E0
3.091800156E1,5.176264048E-2,1.124815106E0,7.043779850E0
3.094000156E1,9.742006660E-1,1.135905027E0,6.185103893E0
3.096200156E1,1.220008492E0,1.124422431E0,5.247333527E0
3.098200156E1,1.042923808E0,1.170467734E0,4.710007668E0
3.100200781E1,9.565314054E-1,1.033825874E0,4.603858471E0
3.102400000E1,1.017095208E0,9.713850617E-1,4.710955620E0
3.104400000E1,1.286988735E0,1.005421042E0,5.382232189E0
3.106400156E1,1.531704903E0,9.935554266E-1,6.356864452E0
3.108401875E1,1.283397436E0,1.138567328E0,7.259363174E0
3.110600000E1,1.258813858E0,9.605441093E-1,8.638002396E0
3.112600000E1,1.846312642E0,5.731144547E-1,9.553449631E0
3.114600000E1,2.237362385E0,2.919777036E-1,1.004482555E1
3.116600156E1,1.922429085E0,5.518156290E-1,1.039381313E1
3.118800156E1,8.510429263E-1,1.491262078E0,1.077293110E1
3.120800312E1,2.815868556E-1,1.882340550E0,1.124645615E1
3.123000156E1,1.027926564E0,1.371590257E0,1.183821678E1
3.125000156E1,1.446624517E0,1.356688738E0,1.406033325E1
3.127000156E1,1.415873408E0,1.036133885E0,1.718397141E1
3.129000156E1,1.317146063E0,2.718759775E-1,1.924372292E1
3.131200156E1,2.081566811E0,-9.382780790E-1,1.819584846E1
3.133200156E1,3.003057003E0,-1.246201158E0,1.586912346E1
3.135201406E1,3.555025578E0,-8.104468584E-1,1.398896599E1
3.137399844E1,3.230314493E0,-3.401394486E-1,1.220137882E1
3.139400000E1,2.598800421E0,-2.343444712E-2,1.039059544E1
3.141400000E1,2.009807825E0,1.605168581E-1,8.355496407E0
3.143400000E1,1.640468717E0,3.372280896E-1,6.421239376E0
3.145600000E1,1.279490113E0,8.389090896E-1,5.295160294E0
3.147600000E1,8.103798032E-1,1.482690811E0,5.376850128E0
3.149600000E1,3.227671087E-1,1.772724390E0,5.373316288E0
3.151600000E1,1.842577569E-2,1.789005041E0,5.069157124E0
3.153600000E1,-1.401948631E-1,1.941352725E0,4.725895405E0
3.155600000E1,-3.911167979E-1,2.191393614E0,4.925840378E0
3.157600000E1,-3.891152442E-1,2.110555887E0,5.595268726E0
3.159600000E1,8.001422137E-2,1.923166513E0,6.486974716E0
3.161800156E1,2.947070599E-1,1.895556569E0,7.033111095E0
3.164000000E1,-4.653370380E-2,2.294583797E0,7.453686237E0
3.166000000E1,-3.026749790E-1,2.568020821E0,8.068823814E0
3.168000000E1,-1.812027544E-1,2.593207836E0,9.243515015E0
3.170000000E1,7.315722853E-2,2.559650660E0,1.112243652E1
3.172000000E1,4.360128343E-1,2.724486589E0,1.237027550E1
3.174000000E1,1.494364977E0,2.582376480E0,1.307166100E1
3.176000000E1,2.571478128E0,1.842711687E0,1.393942547E1
3.178000000E1,1.916989326E0,1.539950609E0,1.492397881E1
3.180000000E1,4.627896249E-1,1.084582925E0,1.523306084E1
3.182000000E1,-3.785999119E-1,6.375280023E-1,1.442434692E1
3.184000000E1,-1.632653922E-1,4.205846190E-1,1.392187119E1
3.186000000E1,7.541543841E-1,4.000806808E-1,1.388387966E1
3.188000000E1,1.326177001E0,5.893566608E-1,1.312440014E1
3.190000000E1,9.090400934E-1,7.160865664E-1,1.159757042E1
3.192000000E1,-3.740701079E-2,9.148914814E-1,9.643729210E0
3.194000000E1,-9.128899574E-1,1.200950742E0,8.230901718E0
3.196000000E1,-1.358192205E0,1.346077681E0,7.436285019E0
3.198000000E1,-1.313085556E0,1.284134865E0,6.771884918E0
3.200000000E1,-6.739677787E-1,1.020906687E0,5.604107857E0
3.202000000E1,-1.961713135E-1,1.146085262E0,4.379368305E0
3.204000000E1,1.791820526E-1,1.362913728E0,4.182967186E0
3.206000000E1,5.589407086E-1,1.496701717E0,4.874834061E0
3.208000000E1,1.104799509E0,1.369847298E0,5.434435368E0
3.210000000E1,1.603607535E0,1.271407366E0,5.646715164E0
3.212000000E1,2.047578812E0,1.343444109E0,5.849628448E0
3.214000000E1,2.714823723E0,1.532480597E0,6.784535408E0
3.216000000E1,3.698706627E0,1.583084464E0,8.224591255E0
3.218000000E1,4.329684258E0,1.302378654E0,9.856659889E0
3.220000000E1,4.075889111E0,1.319454074E0,1.109030628E1
3.222000000E1,3.159733295E0,1.740565419E0,1.185318470E1
3.224000156E1,2.634550810E0,1.903964996E0,1.157573509E1
3.226200000E1,3.358720303E0,1.751205325E0,1.153031254E1
3.228200000E1,3.786592722E0,1.538255453E0,1.300101376E1
3.230200000E1,3.293550014E0,1.166799784E0,1.549689198E1
3.232200000E1,3.276350021E0,4.740615189E-1,1.681541824E1
3.234200000E1,4.075774193E0,3.935110196E-2,1.550673771E1
3.236200000E1,4.950328350E0,8.335652947E-2,1.272216511E1
3.238200000E1,4.797137260E0,7.882382274E-1,1.021074295E1
3.240200469E1,4.062826157E0,1.203277826E0,8.489849091E0
3.242400000E1,2.903055668E0,1.555034041E0,7.135544300E0
3.244400625E1,1.864307404E0,1.894167900E0,6.142487526E0
3.246600000E1,1.163601160E0,2.163343191E0,5.156670094E0
3.248600000E1,8.320521116E-1,2.335859776E0,4.523097038E0
3.250600000E1,6.338984370E-1,2.423008680E0,4.330852509E0
3.252600000E1,4.718300998E-1,2.278446674E0,4.364131927E0
3.254600000E1,2.307244241E-1,2.219654799E0,4.423096180E0
3.256600000E1,5.536352098E-2,2.213420391E0,5.292785168E0
3.258600000E1,-3.523786068E-1,2.106179237E0,6.236847878E0
3.260600000E1,-5.334951878E-1,2.029181719E0,7.044182301E0
3.262600000E1,-3.546004295E-1,2.258507729E0,8.439129829E0
3.264600000E1,1.953285486E-1,2.110661030E0,9.867510796E0
3.266600000E1,3.080475628E-1,2.145463467E0,1.096693707E1
3.268600000E1,3.952156603E-1,1.919824123E0,1.237292767E1
3.270600000E1,4.074164927E-1,1.524225473E0,1.408834457E1
3.272600000E1,5.148203969E-1,1.542584062E0,1.509523106E1
3.274600000E1,8.007455468E-1,1.428917050E0,1.522973728E1
3.276600000E1,8.389282823E-1,7.919061184E-1,1.526070881E1
3.278600000E1,-7.742848247E-2,2.347754240E-1,1.510744095E1
3.280600000E1,-9.529497027E-1,-3.489788622E-2,1.486661339E1
3.282600000E1,-9.834327102E-1,-2.169817090E-1,1.422101307E1
3.284600938E1,1.290666163E-1,-4.935886264E-1,1.362632084E1
3.286800000E1,1.810753942E0,-7.284789681E-1,1.377777863E1
3.288800156E1,2.876872778E0,-6.729334593E-1,1.407993698E1
3.291000000E1,2.607276201E0,-5.085188746E-1,1.327517796E1
3.293000000E1,1.574982524E0,-2.172881663E-1,1.138670826E1
3.295000000E1,7.462248206E-1,4.465664923E-2,9.214152336E0
3.297000000E1,3.276608586E-1,3.267606497E-1,7.307294846E0
3.299000000E1,4.839926660E-1,4.515655935E-1,5.804320812E0
3.301000000E1,9.875890613E-1,6.824240685E-1,4.748764992E0
3.303000000E1,1.477078915E0,9.592416883E-1,4.195110798E0
3.305000000E1,1.838076591E0,1.157902956E0,3.891698360E0
3.307000156E1,2.017182112E0,1.372193575E0,3.838537455E0
3.309200000E1,1.904999256E0,1.628612638E0,3.984009027E0
3.311200000E1,1.909270525E0,1.714746475E0,4.227164268E0
3.313200000E1,1.981288075E0,2.017938375E0,4.631688595E0
3.315200000E1,2.556442499E0,2.002290010E0,5.221926212E0
3.317200156E1,3.263603210E0,1.930071235E0,5.817479134E0
3.319404062E1,3.592049599E0,1.882570267E0,7.150810242E0
3.321600000E1,3.597106218E0,1.478247166E0,8.716580391E0
3.323600000E1,3.292017937E0,1.524417043E0,9.863872528E0
3.325600000E1,2.785490990E0,1.819717765E0,1.109504700E1
3.327600000E1,2.076988935E0,2.116771221E0,1.144515514E1
3.329600000E1,1.611604214E0,2.667255640E0,1.135265350E1
3.331600000E1,2.844809532E0,2.113629818E0,1.169668102E1
3.333600000E1,3.925054312E0,1.562139988E0,1.325810242E1
3.335600000E1,3.553062201E0,6.506386995E-1,1.647875404E1
3.337600156E1,2.594749451E0,-2.753810585E-1,1.995904350E1
3.339800000E1,3.123849154E0,-1.813971639E0,1.982677650E1
3.341800156E1,4.193492413E0,-2.098039150E0,1.687035942E1
3.344000000E1,4.476984978E0,-1.379079342E0,1.329874611E1
3.346000000E1,3.704193830E0,-5.613253713E-1,1.067951870E1
3.348000000E1,2.519361019E0,4.236779362E-2,8.189126968E0
3.350000156E1,1.448444128E0,6.067673564E-1,6.081549644E0
3.352200000E1,5.547556877E-1,1.153325319E0,4.267626286E0
3.354200000E1,-8.941864967E-2,1.634349108E0,3.171550989E0
3.356200000E1,-4.564306140E-1,2.043719292E0,2.659450531E0
3.358200000E1,-7.278947830E-1,2.504143476E0,2.639837265E0
3.360200000E1,-8.899630904E-1,2.757210493E0,3.019356489E0
3.362200000E1,-1.054425478E0,2.659325838E0,3.554374218E0
3.364200000E1,-1.258258343E0,2.457935333E0,4.326848984E0
3.366200000E1,-1.341681838E0,2.267682552E0,5.361853123E0
3.368200000E1,-1.261140943E0,2.041411161E0,6.298244476E0
3.370200000E1,-1.041573524E0,1.942961693E0,7.700442314E0
3.372200000E1,-8.964561820E-1,1.771536827E0,1.009045887E1
3.374200000E1,-2.435765117E-1,9.500671625E-1,1.284140587E1
3.376200000E1,1.206897974E0,6.967222691E-1,1.547890663E1
3.378200000E1,2.700889349E0,5.865123868E-1,1.629660416E1
3.380200000E1,3.259331942E0,8.968487978E-1,1.543626118E1
3.382200000E1,3.394997120E0,9.456426501E-1,1.455205345E1
3.384200000E1,3.445533991E0,5.839936808E-2,1.476518536E1
3.386200000E1,2.843535900E0,-6.166793108E-1,1.498133373E1
3.388200000E1,1.888852835E0,-5.151172876E-1,1.438078213E1
3.390200000E1,1.398405313E0,-4.011724293E-1,1.286439037E1
3.392200000E1,1.650131702E0,-6.900568008E-1,1.161567116E1
3.394200000E1,2.123494148E0,-8.070757985E-1,1.127692032E1
3.396200000E1,1.943804502E0,-4.230937362E-1,1.137223816E1
3.398200000E1,1.148422003E0,-2.400043458E-1,1.064255142E1
3.400200000E1,2.049819827E-1,-9.525091946E-2,9.349022865E0
3.402200000E1,-5.686324835E-1,3.000892401E-1,8.129876137E0
3.404200000E1,-7.755585313E-1,5.733442903E-1,7.297134399E0
3.406200000E1,-3.953784704E-1,7.098807693E-1,6.684840679E0
3.408200000E1,2.037753016E-1,7.966849804E-1,6.367963314E0
3.410200000E1,6.555132270E-1,9.559184909E-1,6.041030884E0
3.412200000E1,1.168025613E0,9.054104686E-1,5.675742626E0
3.414200000E1,1.739167213E0,8.402977586E-1,5.525999546E0
3.416200000E1,2.200146914E0,8.893885016E-1,5.635395527E0
3.418200000E1,2.409563065E0,1.028941631E0,5.858218670E0
3.420200000E1,2.615445137E0,1.088423252E0,6.419888973E0
3.422200000E1,2.871548176E0,9.178890586E-1,7.372273922E0
3.424200000E1,2.704499722E0,9.077759385E-1,8.334293365E0
3.426200000E1,2.345034361E0,7.316488624E-1,9.897601128E0
3.428200000E1,2.417147636E0,1.324855536E-1,1.084616470E1
3.430200000E1,2.445303440E0,1.386338472E-1,1.118830585E1
3.432200000E1,1.924660444E0,6.751457453E-1,1.112789536E1
3.434200000E1,1.227181673E0,1.238980174E0,1.121609783E1
3.436200000E1,8.521634340E-1,1.534482121E0,1.143474579E1
3.438200000E1,1.332411528E0,1.361879349E0,1.207616234E1
3.440200000E1,2.409601212E0,9.214324951E-1,1.340926266E1
3.442200000E1,2.991880655E0,6.634811759E-1,1.484809208E1
3.444200000E1,2.986508131E0,1.798811704E-1,1.529032040E1
3.446200000E1,3.018264532E0,-4.027621746E-1,1.470126915E1
3.448200000E1,3.327748775E0,-5.913007855E-1,1.401178837E1
3.450200000E1,3.136997938E0,-2.327547222E-1,1.279786015E1
3.452200000E1,2.494940281E0,4.550515413E-1,1.111541653E1
3.454200000E1,2.001485586E0,8.068364263E-1,9.339417458E0
3.456200000E1,1.399813056E0,1.341681838E0,8.059391022E0
3.458200000E1,5.907740593E-1,1.965448141E0,7.215856075E0
3.460200000E1,1.448683590E-1,2.256975651E0,6.001909256E0
3.462200000E1,1.478850543E-1,2.354735613E0,4.335774899E0
3.464200000E1,2.698744237E-1,2.753274441E0,3.260548353E0
3.466200000E1,3.921510875E-1,3.138616562E0,3.577004433E0
3.468200156E1,5.938003659E-1,3.287229300E0,4.401060104E0
3.470400156E1,7.225796580E-1,3.493542433E0,5.093951702E0
3.472600000E1,3.404650688E-1,3.840040922E0,5.932965755E0
3.474600156E1,3.115526736E-1,3.830837727E0,6.659184456E0
3.476800312E1,6.178668141E-1,3.266802073E0,8.313884735E0
3.479000156E1,1.263717175E0,2.933758974E0,1.044444656E1
3.481000156E1,1.606298685E0,2.940472364E0,1.188066101E1
3.483000156E1,1.845220804E0,2.927467108E0,1.278683758E1
3.485201250E1,2.026346922E0,3.221580267E0,1.335266399E1
3.487400000E1,2.776268244E0,2.856186867E0,1.378545856E1
3.489400000E1,3.023005486E0,2.146622181E0,1.474618530E1
3.491400000E1,2.701234102E0,1.263688326E0,1.580011272E1
3.493400000E1,2.549479961E0,3.656041920E-1,1.613617325E1
3.495400000E1,2.280093908E0,3.549164534E-2,1.484680843E1
3.497400000E1,1.946419001E0,2.369397730E-1,1.300657749E1
3.499400000E1,1.890289307E0,5.892322063E-1,1.150197506E1
3.501400000E1,1.697058082E0,8.691813946E-1,9.971246719E0
3.503400313E1,1.158065796E0,1.159981251E0,8.475761414E0
3.505600000E1,1.197665930E0,1.248327136E0,7.100043297E0
3.507600000E1,1.203354478E0,1.388062358E0,5.737340450E0
3.509600000E1,-3.999657631E-1,1.864652276E0,4.811110020E0
3.511600000E1,-1.598752022E0,1.688419819E0,4.577148438E0
3.513600000E1,-1.992339730E0,1.472759604E0,5.057454109E0
3.515600000E1,-1.409648538E0,1.360538602E0,6.396626949E0
3.517600000E1,-1.297657341E-1,1.144303918E0,7.348935127E0
3.519600000E1,9.088006616E-1,9.672287703E-1,7.353129864E0
3.521600000E1,1.207951427E0,1.056877255E0,7.149268150E0
3.523600000E1,8.787773252E-1,1.365987778E0,6.968017578E0
3.525600000E1,4.158920050E-1,1.512551308E0,7.099947929E0
3.527600000E1,7.869454026E-1,9.243629575E-1,7.135506153E0
3.529600000E1,1.790853262E0,6.197726727E-1,7.678300858E0
3.531600000E1,2.332843065E0,8.010711670E-1,9.577390671E0
3.533600000E1,1.700658917E0,9.303963780E-1,1.142707443E1
3.535600000E1,-2.838565409E-2,1.365461111E0,1.125554371E1
3.537600000E1,-1.174116492E0,1.771910429E0,1.079380894E1
3.539600000E1,-8.335844278E-1,1.290091634E0,1.193024063E1
3.541600000E1,4.355819225E-1,5.102522671E-2,1.479961395E1
3.543600000E1,9.117790461E-1,-3.122805059E-1,1.744372177E1
3.545600000E1,4.692922533E-1,-3.938844800E-1,1.774841881E1
3.547600000E1,7.965700626E-1,-7.667574286E-1,1.593809605E1
3.549600000E1,2.764306784E0,-1.129450321E0,1.421089935E1
3.551600000E1,4.778932095E0,-9.253014922E-1,1.315517044E1
3.553600000E1,5.420855999E0,-2.513049841E-1,1.208389950E1
3.555600000E1,4.675866127E0,3.144544363E-1,1.052590656E1
3.557600000E1,3.566824198E0,8.470972776E-1,8.713227272E0
3.559600000E1,3.450581074E0,1.235072851E0,6.985792160E0
3.561600000E1,2.603253841E0,1.964298844E0,5.206344604E0
3.563600156E1,1.076825738E0,2.683718204E0,3.748084545E0
3.565800000E1,-1.942846775E-1,3.028674841E0,2.709336281E0
3.567800000E1,-9.953654408E-1,3.031614780E0,2.484443903E0
3.569800156E1,-1.468852282E0,3.058697939E0,2.841007471E0
3.571800156E1,-1.586014986E0,2.799731731E0,3.567188263E0
3.573800156E1,-1.737041235E0,2.693677902E0,4.579858780E0
3.575800156E1,-1.625117064E0,2.616488934E0,6.262427330E0
3.577800156E1,-1.645142198E0,2.668883801E0,7.765861511E0
3.580000000E1,-1.859997749E0,2.695574284E0,8.833120346E0
3.582000000E1,-1.631974101E0,2.502237558E0,1.015073490E1
3.584000000E1,-1.046812057E0,2.260068893E0,1.209796810E1
3.586000156E1,-5.844246149E-1,1.627913475E0,1.370813560E1
3.588000156E1,-2.951380312E-1,1.360624909E0,1.487020493E1
3.590200156E1,5.071014762E-1,1.402216911E0,1.554839516E1
3.592400156E1,1.349410415E0,1.400655866E0,1.502623940E1
3.594600156E1,5.850183964E-1,1.847816110E0,1.393626499E1
3.596800312E1,-2.263095230E-1,1.379309177E0,1.280611515E1
3.599000156E1,-4.168400764E-1,1.010898948E0,1.244081879E1
3.601200000E1,5.593908429E-1,3.601837158E-1,1.360338497E1
3.603200156E1,1.726813197E0,1.800439670E-3,1.488451290E1
3.605400000E1,2.160652161E0,2.397649437E-1,1.504286480E1
3.607400156E1,1.382833481E0,4.032123089E-1,1.288685703E1
3.609600156E1,3.187831640E-1,9.058988690E-1,1.031386662E1
3.611800156E1,-1.426082253E-1,1.149580717E0,8.018909454E0
3.613800156E1,-2.919298112E-1,1.392956138E0,6.462017536E0
3.615800156E1,-2.102587819E-1,1.475441217E0,5.426199913E0
3.618000000E1,-1.642039269E-1,1.554718018E0,5.047915459E0
3.620000156E1,-1.145194545E-1,1.539241791E0,5.040043354E0
3.622000156E1,2.028080374E-1,1.447208762E0,5.016714573E0
3.624000156E1,7.135487199E-1,1.338090539E0,4.818771362E0
3.626000156E1,9.572401643E-1,1.271052957E0,4.765524387E0
3.628200156E1,8.748030066E-1,1.170783758E0,4.658283234E0
3.630200156E1,6.876913309E-1,1.388110280E0,4.821951389E0
3.632200156E1,6.277979612E-1,1.805984616E0,6.145101547E0
3.634400156E1,1.306707382E0,1.409389853E0,8.329178810E0
3.636400156E1,1.825588346E0,8.366585970E-1,1.038025284E1
3.638402031E1,2.041938066E0,8.967242837E-1,1.217991734E1
3.640601406E1,1.204733491E0,1.648762226E0,1.199651146E1
3.642800000E1,1.457972974E-1,2.437335730E0,9.770823479E0
3.644800625E1,-5.131253228E-2,3.071463823E0,9.461971283E0
3.647000156E1,1.223848820E0,3.004014492E0,1.217148972E1
3.649000156E1,3.028847218E0,2.262511015E0,1.436747074E1
3.651000156E1,3.394096851E0,1.987924814E0,1.507732201E1
3.653200156E1,2.461746931E0,1.234000206E0,1.681615448E1
3.655400000E1,2.034678936E0,1.407407522E-1,1.776593399E1
3.657400000E1,2.178570271E0,-3.422750905E-2,1.647933769E1
3.659600000E1,2.561517954E0,6.368097663E-1,1.343420124E1
3.661600156E1,2.573709488E0,1.187648535E0,1.053327179E1
3.663800000E1,2.045739889E0,1.643878102E0,7.834345341E0
3.665800000E1,1.611738324E0,1.827015281E0,5.881586552E0
3.667800000E1,1.381933212E0,1.972276330E0,4.382719994E0
3.669800156E1,1.273849368E0,2.121377707E0,3.439491034E0
3.671800625E1,1.053889275E0,2.342276335E0,2.750018358E0
3.674000000E1,7.122462988E-1,2.773740292E0,2.076060057E0
3.676000000E1,3.733805418E-1,3.090023756E0,1.938633084E0
3.678000000E1,5.414726585E-2,3.166418076E0,2.966396809E0
3.680000000E1,-3.094553649E-1,3.300904989E0,4.776624203E0
3.682000000E1,-2.916903794E-1,3.487633467E0,6.843902111E0
3.684000000E1,-1.697967947E-2,3.555638313E0,9.070854187E0
3.686000156E1,-8.920795470E-2,3.438897133E0,1.099005699E1
3.688200000E1,2.850823998E-1,3.130121708E0,1.255605602E1
3.690200000E1,1.273830175E0,3.122431755E0,1.356036663E1
3.692200000E1,2.083242655E0,3.268181086E0,1.418693733E1
3.694200000E1,2.970754147E0,2.850756884E0,1.461843109E1
3.696200000E1,3.693534851E0,2.019087791E0,1.535422611E1
3.698200000E1,3.379913568E0,1.280993700E0,1.560112572E1
3.700200000E1,2.564592361E0,1.046122432E0,1.470549297E1
3.702200000E1,2.006235600E0,7.481976151E-1,1.313751125E1
3.704200000E1,1.956963062E0,6.277309656E-1,1.162876129E1
3.706200000E1,2.173044443E0,6.641898751E-1,1.085182381E1
3.708200000E1,2.416113615E0,6.956592202E-1,1.057991028E1
3.710200000E1,2.071501732E0,6.309391856E-1,1.000662327E1
3.712200000E1,1.141871452E0,4.344326854E-1,9.152583122E0
3.714200000E1,-2.605849132E-2,5.493639708E-1,8.339061737E0
3.716200000E1,-7.456693053E-1,7.690750957E-1,7.882200241E0
3.718200000E1,-7.206068039E-1,7.542501092E-1,7.682715416E0
3.720200000E1,5.718311295E-2,5.724632144E-1,7.188437462E0
3.722200000E1,9.325224161E-1,5.230564475E-1,6.446953297E0
3.724200000E1,1.721928954E0,6.158461571E-1,6.177269936E0
3.726200000E1,2.269779682E0,7.471250296E-1,6.003316879E0
3.728200000E1,2.495313644E0,8.213356733E-1,5.838442802E0
3.730200000E1,2.280649424E0,7.999698520E-1,5.513195515E0
3.732200156E1,1.875722885E0,9.514365792E-1,5.197706699E0
3.734400156E1,1.826584339E0,8.426153660E-1,5.024203777E0
3.736400156E1,2.546453953E0,5.105491281E-1,5.334616661E0
3.738401875E1,3.766385794E0,1.052586809E-1,6.507880688E0
3.740600000E1,4.356623650E0,-2.049436606E-2,8.420742035E0
3.742600000E1,3.734494925E0,-4.577713832E-2,1.028032780E1
3.744600156E1,2.197522640E0,2.371600568E-1,1.129014587E1
3.746800156E1,1.213611245E0,1.042339563E0,1.119082451E1
3.748800156E1,2.400771379E0,1.223628640E0,1.162086105E1
3.751000156E1,4.528096199E0,1.231366754E0,1.379785156E1
3.753000156E1,5.832993507E0,1.162394524E0,1.718341637E1
3.755000156E1,5.935101509E0,1.912871450E-1,1.989243507E1
3.757000156E1,5.174262524E0,-1.190320492E0,1.885896492E1
3.759000156E1,3.960976839E0,-1.391126990E0,1.552160931E1
3.761000156E1,2.741609812E0,-4.220307171E-1,1.304928017E1
3.763000156E1,2.008945942E0,3.841736019E-1,1.147306252E1
3.765200000E1,1.424368024E0,6.521709561E-1,9.454827309E0
3.767200000E1,1.018665791E0,6.423259974E-1,7.529007912E0
3.769200000E1,6.784592867E-1,8.798691630E-1,5.872900486E0
3.771200000E1,4.016225636E-1,1.289335132E0,4.734332561E0
3.773200156E1,3.677685261E-1,1.443263054E0,4.058842182E0
3.775200156E1,3.521966636E-1,1.787558794E0,3.526822090E0
3.777200156E1,2.318640798E-1,2.505512953E0,3.115095854E0
3.779200156E1,3.838575780E-1,2.614248037E0,3.313058138E0
3.781400156E1,4.087285399E-1,2.702546120E0,4.235285282E0
3.783600000E1,5.961083174E-1,2.666872501E0,5.829172134E0
3.785600000E1,9.811822176E-1,2.521870136E0,7.625206947E0
3.787600156E1,1.302254200E0,2.104713917E0,9.314430237E0
3.789800156E1,1.085473657E0,1.415739417E0,1.068208504E1
3.791800156E1,1.200663447E0,8.335269690E-1,1.200756359E1
3.793800156E1,2.387593746E0,2.959808111E-1,1.368918324E1
3.795800156E1,4.029096603E0,6.982450187E-2,1.524458122E1
3.797800156E1,4.301489830E0,1.464676857E-1,1.649376869E1
3.800000000E1,3.953411102E0,-4.246739149E-1,1.631012535E1
3.802000156E1,3.884352684E0,-1.146755576E0,1.455600834E1
3.804200156E1,3.460598469E0,-5.167453885E-1,1.224249172E1
3.806400156E1,3.221676111E0,1.541578472E-1,1.020577335E1
3.808402031E1,3.805899620E0,9.883265197E-2,9.397394180E0
3.810600156E1,4.646925449E0,1.392180324E-1,9.457048416E0
3.812800781E1,4.758245945E0,4.705564082E-1,9.604004860E0
3.815000156E1,3.951706648E0,6.665074229E-1,9.177702904E0
3.817200000E1,2.780865192E0,7.350582480E-1,8.459088326E0
3.819200156E1,1.814316511E0,8.414948583E-1,7.879710674E0
3.821400156E1,1.012182355E0,1.197675467E0,7.352583885E0
3.823600156E1,7.930266261E-1,1.352293015E0,7.074712753E0
3.825800156E1,1.065180302E0,1.283703804E0,6.811369419E0
3.827800156E1,1.562111259E0,1.075312614E0,6.663159370E0
3.829800156E1,2.088787794E0,9.219400883E-1,6.746716976E0
3.831800156E1,2.625730515E0,7.425281405E-1,6.756217003E0
3.833800156E1,3.296509266E0,1.843056530E-1,6.625398159E0
3.835800156E1,3.891937733E0,-5.976310372E-1,6.431093693E0
3.837800156E1,3.901514292E0,-7.700710297E-1,6.328813553E0
3.840000000E1,3.967929602E0,-6.828167439E-1,6.649655819E0
3.842000000E1,4.322233200E0,-3.288866878E-1,7.228813171E0
3.844000156E1,4.631851673E0,-9.115204960E-2,7.735023975E0
3.846200156E1,4.631314754E0,2.845173776E-1,8.986731529E0
3.848402031E1,4.292937279E0,2.673653066E-1,1.060110378E1
3.850600000E1,3.708704472E0,5.521412492E-1,1.176524162E1
3.852600156E1,3.077018499E0,1.360873818E0,1.294472027E1
3.854600156E1,3.858294487E0,7.624478936E-1,1.401360703E1
3.856600156E1,5.056438923E0,-3.808313012E-1,1.449038887E1
3.858800156E1,5.109590530E0,-8.301846385E-1,1.482130527E1
3.860800156E1,4.909157276E0,-1.599173427E0,1.559314823E1
3.862800156E1,5.003986835E0,-2.559880257E0,1.492082787E1
3.864800156E1,5.675838470E0,-2.690086603E0,1.296125031E1
3.867000156E1,5.807653427E0,-1.926116109E0,1.103386021E1
3.869000156E1,5.259189606E0,-6.675417423E-1,9.684239388E0
3.871000156E1,4.633211613E0,7.784985751E-2,8.611981392E0
3.873000156E1,3.812948227E0,5.391167402E-1,7.368567467E0
3.875200156E1,2.906819344E0,9.749859571E-1,5.841880798E0
3.877200156E1,2.168131590E0,1.389412761E0,4.736927986E0
3.879200156E1,1.628564715E0,1.993144155E0,4.501836300E0
3.881200156E1,1.491214156E0,2.031930208E0,4.488400459E0
3.883200156E1,1.245741487E0,1.918387532E0,4.519486904E0
3.885201406E1,9.401072264E-1,2.086173296E0,5.009426594E0
3.887400000E1,9.077184796E-1,2.410329103E0,5.732542515E0
3.889400156E1,1.070907235E0,2.248806715E0,5.947771549E0
3.891600000E1,5.857845545E-1,2.279289484E0,6.508311749E0
3.893600000E1,9.639056027E-2,2.556001902E0,7.661215782E0
3.895600156E1,-1.522712177E-3,2.642432690E0,8.899985313E0
3.897600156E1,-1.099130064E-1,2.769545317E0,9.795646667E0
3.899800156E1,4.868465662E-1,2.750573635E0,1.001490688E1
3.901800156E1,1.169921875E0,2.779294729E0,1.041393471E1
3.903800156E1,1.895556569E0,2.633056879E0,1.097191811E1
3.905800156E1,2.786371708E0,2.755429268E0,1.193991280E1
3.907800156E1,3.883787870E0,2.935252905E0,1.266061497E1
3.909800781E1,4.007864952E0,2.646713495E0,1.336289120E1
3.912000156E1,3.822726011E0,1.506853104E0,1.451035690E1
3.914200000E1,3.100156069E0,6.590375304E-1,1.516663551E1
3.916200000E1,2.047482967E0,3.923713267E-1,1.489095783E1
3.918204219E1,9.007273912E-1,3.901303709E-1,1.387755966E1
3.920400156E1,4.466526806E-1,7.321469486E-2,1.214233780E1
3.922400156E1,5.809291005E-1,-6.081271917E-3,1.072298717E1
3.924600156E1,4.335133135E-1,2.575490773E-1,9.203550339E0
3.926800156E1,-3.217902780E-1,6.800777316E-1,7.970010281E0
3.928800625E1,-9.202162027E-1,8.816983104E-1,7.227185249E0
3.931000156E1,-1.074067593E0,1.064213157E0,6.630846977E0
3.933000156E1,-7.197545171E-1,1.226271868E0,6.318221569E0
3.935000156E1,-9.766427428E-2,1.300980449E0,6.343647957E0
3.937000156E1,6.537702680E-1,1.334288597E0,6.266114235E0
3.939200156E1,1.134880424E0,1.290857792E0,6.179693222E0
3.941200156E1,1.294889688E0,1.160335422E0,6.120221138E0
3.943200156E1,1.502361536E0,9.071151018E-1,6.004034996E0
3.945400000E1,2.065238237E0,6.071887016E-1,5.864491463E0
3.947400000E1,2.711759090E0,4.217050970E-1,5.935628414E0
3.949400000E1,3.207445145E0,2.289431393E-1,6.763888359E0
3.951400000E1,3.461862564E0,-1.819593366E-3,8.294970512E0
3.953400000E1,3.344594479E0,-7.332961261E-2,9.772116661E0
3.955400000E1,2.890672922E0,2.897558510E-1,1.091426563E1
3.957400000E1,2.533199549E0,1.041918159E0,1.134174538E1
3.959400000E1,2.683258533E0,1.592373967E0,1.099338913E1
3.961400000E1,3.456403494E0,1.884342074E0,1.082890701E1
3.963400156E1,4.548274517E0,1.540898681E0,1.160826778E1
3.965600000E1,5.043261051E0,6.610869765E-1,1.347436619E1
3.967600156E1,4.206267357E0,3.344987035E-1,1.485591602E1
3.969800312E1,3.207636356E0,5.398445949E-2,1.469228745E1
3.972000156E1,3.192639112E0,-2.217509598E-1,1.346646500E1
3.974000156E1,3.688009024E0,4.151545838E-2,1.277140903E1
3.976200000E1,3.806732893E0,3.775656223E-1,1.211325264E1
3.978200156E1,3.105183840E0,5.983588696E-1,1.109709549E1
3.980200156E1,1.906579494E0,1.020753503E0,9.588988304E0
3.982200156E1,8.890820146E-1,1.600859046E0,8.027432442E0
3.984400000E1,2.048191726E-1,2.307435751E0,6.761397839E0
3.986400156E1,8.188169450E-3,2.609966993E0,5.900797367E0
3.988401875E1,1.096831635E-1,2.722954273E0,5.108335972E0
3.990600000E1,2.292687595E-1,2.991401911E0,4.888212681E0
3.992600000E1,1.227746718E-2,2.755774021E0,5.033694267E0
3.994600156E1,-2.878213525E-1,2.286644459E0,5.542088509E0
3.996600156E1,-6.367043853E-1,1.840509057E0,6.678089142E0
3.998800156E1,-1.096659303E0,1.337736249E0,7.566338539E0
4.000800156E1,-1.664391637E0,1.429845929E0,8.264851570E0
4.002800156E1,-1.609324932E0,1.165411234E0,9.478366852E0
4.004800625E1,-1.265958071E0,1.223456144E0,1.096023464E1
4.007000312E1,-1.048143148E0,1.522060990E0,1.227806950E1
4.009200000E1,-2.666087449E-1,1.388981819E0,1.298287487E1
4.011200000E1,3.870849609E-1,1.432125211E0,1.271467686E1
4.013200000E1,8.769099116E-1,1.959452987E0,1.228417969E1
4.015399844E1,1.890059471E0,1.939274669E0,1.239080715E1
4.017400000E1,2.401719570E0,1.845632672E0,1.327215099E1
4.019400000E1,1.969872594E0,1.527606130E0,1.403641033E1
4.021400000E1,1.170467734E0,1.052672982E0,1.357633018E1
4.023400000E1,6.886969209E-1,9.238841534E-1,1.290114689E1
4.025400000E1,5.344337225E-1,8.521347046E-1,1.289927864E1
4.027400000E1,3.823635876E-1,9.882977009E-1,1.310209656E1
4.029400000E1,3.386167288E-1,1.206668139E0,1.296658516E1
4.031400000E1,3.389231861E-1,1.293922305E0,1.214769173E1
4.033400000E1,2.681410313E-1,1.155575752E0,1.065827751E1
4.035400000E1,7.539819926E-2,1.168897152E0,8.976715088E0
4.037400000E1,1.086967532E-2,1.244324088E0,7.578825951E0
4.039400000E1,1.808292717E-1,1.213841081E0,6.455351830E0
4.041400000E1,4.810046852E-1,1.119653225E0,5.650747299E0
4.043400000E1,8.565878868E-1,1.017545342E0,5.080064774E0
4.045400000E1,1.345819116E0,8.896182775E-1,4.673788071E0
4.047400000E1,1.826517344E0,7.368586659E-1,4.362523079E0
4.049400000E1,2.062729359E0,9.097774625E-1,4.024940491E0
4.051400000E1,1.950354934E0,1.210776448E0,3.835922956E0
4.053400000E1,1.793707132E0,1.350521207E0,3.754405022E0
4.055400000E1,1.883556724E0,1.289928794E0,3.992475033E0
4.057400000E1,1.977476597E0,1.313497305E0,4.857088566E0
4.059400000E1,2.048613071E0,1.298873544E0,6.711167336E0
4.061400000E1,2.208507299E0,9.075461030E-1,9.109353065E0
4.063400000E1,1.951350927E0,1.071663857E0,1.077224159E1
4.065400000E1,8.838530779E-1,2.455569744E0,1.258707523E1
4.067400000E1,-3.594175726E-2,3.364715338E0,1.426484585E1
4.069400000E1,-1.603827775E-1,3.268535376E0,1.458317852E1
4.071400000E1,7.641238570E-1,2.735250950E0,1.423305988E1
4.073400000E1,1.514648557E0,2.692854404E0,1.474355221E1
4.075400000E1,2.086287975E0,2.057701349E0,1.560281181E1
4.077400000E1,3.743104458E0,7.653592825E-1,1.575787926E1
4.079400000E1,6.423269749E0,-6.730292439E-1,1.539685249E1
4.081400000E1,7.970718861E0,-1.193385005E0,1.427270794E1
4.083400000E1,6.938243389E0,-5.516432524E-1,1.303673458E1
4.085400000E1,4.709117413E0,-2.030857652E-1,1.137699699E1
4.087400000E1,2.663501501E0,4.403415918E-1,9.304087639E0
4.089400000E1,1.340082526E0,1.259896040E0,7.527637959E0
4.091400000E1,8.910069466E-1,1.748495102E0,6.100416660E0
4.093400000E1,7.583298683E-1,2.104321241E0,4.812517643E0
4.095400000E1,6.112300754E-1,2.299314737E0,3.833892584E0
4.097400000E1,3.835415244E-1,2.314972639E0,3.352945328E0
4.099400000E1,6.441360712E-2,2.374387264E0,3.290600300E0
4.101400000E1,-1.375612468E-1,2.359476328E0,3.103048086E0
4.103400000E1,-1.463144571E-1,2.359208107E0,3.058276653E0
4.105400000E1,-6.181828678E-2,2.500762939E0,3.674496412E0
4.107400000E1,-1.707832068E-1,2.775463820E0,4.906811237E0
4.109400000E1,-6.617286205E-1,2.982026100E0,6.606349468E0
4.111400000E1,-1.089256525E0,2.974690199E0,8.503639221E0
4.113400000E1,-1.238826990E0,2.855803728E0,9.988408089E0
4.115400000E1,-1.031297565E0,2.652507305E0,1.137131882E1
4.117400000E1,-4.196269512E-1,2.386406183E0,1.306169128E1
4.119400000E1,9.052668214E-1,2.314819574E0,1.539413261E1
4.121400000E1,2.635757685E0,2.425240278E0,1.729677582E1
4.123400000E1,3.724659681E0,1.989208102E0,1.762259674E1
4.125400000E1,4.208872795E0,4.843278527E-1,1.705517197E1
4.127400000E1,2.630844593E0,-2.133808285E-1,1.610244370E1
4.129400000E1,2.157846093E-1,-9.107543528E-2,1.473990250E1
4.131400000E1,-1.284240246E0,-1.596549600E-1,1.281769466E1
4.133400000E1,-1.056082368E0,-4.237258434E-1,1.206897926E1
4.135400000E1,-3.276608586E-1,-3.961924911E-1,1.249643040E1
4.137400000E1,-3.363374770E-1,2.385582589E-2,1.290282249E1
4.139400000E1,-8.487828374E-1,3.978109658E-1,1.199551582E1
4.141400000E1,-1.031125188E0,7.399423718E-1,1.018883228E1
4.143400000E1,-6.346454024E-1,9.673819542E-1,8.474037170E0
4.145400000E1,-7.417237014E-2,1.321034312E0,7.193800449E0
4.147400000E1,4.671278894E-1,1.579876184E0,6.492711067E0
4.149400000E1,8.907867074E-1,1.581226587E0,6.110117912E0
4.151400000E1,1.234450459E0,1.554497719E0,5.888232231E0
4.153400000E1,1.476159453E0,1.666048288E0,5.976722240E0
4.155400000E1,1.642163873E0,1.765905738E0,6.188819885E0
4.157400000E1,1.494929910E0,1.885903120E0,6.293331623E0
4.159400000E1,1.229068279E0,1.905066252E0,6.105080128E0
4.161400000E1,8.040687442E-1,1.993699551E0,5.948327065E0
4.163400000E1,5.168027878E-1,2.158880472E0,6.246951103E0
4.165400000E1,1.052175045E0,2.211916685E0,7.015911102E0
4.167400000E1,1.705207944E0,2.522732019E0,8.566396713E0
4.169400000E1,2.221570015E0,2.759202719E0,1.061203098E1
4.171400000E1,2.393244028E0,2.397965431E0,1.165739632E1
4.173400000E1,2.281453848E0,2.262309790E0,1.159785748E1
4.175400000E1,2.134210348E0,2.301220417E0,1.137761021E1
4.177400000E1,2.111925364E0,2.443570137E0,1.189002705E1
4.179400000E1,2.774966002E0,2.461833000E0,1.206413364E1
4.181400000E1,2.950106621E0,2.456690311E0,1.174852943E1
4.183400000E1,2.553933382E0,2.338091373E0,1.154053116E1
4.185400000E1,2.070333242E0,1.935568452E0,1.192173576E1
4.187400000E1,1.368008494E0,1.555914998E0,1.225088120E1
4.189400000E1,9.966391325E-1,1.166234732E0,1.232604980E1
4.191400000E1,1.296977401E0,8.746210337E-1,1.201012039E1
4.193400000E1,1.561076999E0,1.517119408E0,1.128971481E1
4.195400000E1,1.855889440E0,1.647325635E0,1.050371647E1
4.197400000E1,1.396154761E0,1.759211540E0,9.367734909E0
4.199400000E1,6.612210870E-1,2.037733793E0,8.135133743E0
4.201400000E1,1.808292717E-1,2.292486429E0,6.693143845E0
4.203400000E1,-4.662946984E-2,2.573039055E0,5.378161907E0
4.205400000E1,5.030696467E-2,2.792051077E0,4.502277374E0
4.207400000E1,-3.779965639E-2,3.088663816E0,4.183417320E0
4.209400000E1,-2.618011832E-1,3.311755657E0,4.726949215E0
4.211400000E1,-4.666586220E-1,3.442431211E0,5.194871426E0
4.213400000E1,-5.913773775E-1,3.198557615E0,5.272683620E0
4.215400000E1,-7.163929939E-1,3.385994911E0,4.975304127E0
4.217400000E1,-8.569710255E-1,4.202570915E0,5.372311115E0
4.219400000E1,-1.070514679E0,4.482184887E0,6.830293655E0
4.221400000E1,-1.079267859E0,4.486351013E0,8.584591866E0
4.223400000E1,-4.357638657E-1,4.433123112E0,1.042305183E1
4.225400000E1,9.475293010E-2,4.442651749E0,1.169636536E1
4.227400000E1,2.187246829E-1,4.535182953E0,1.224147701E1
4.229400000E1,1.928768903E-1,5.066236496E0,1.189226723E1
4.231600000E1,6.611539721E-1,4.690135956E0,1.219569016E1
4.233600000E1,-3.020811975E-1,4.730166912E0,1.240181160E1
4.235600000E1,-1.761529088E0,3.987868547E0,1.240286541E1
4.237600156E1,-2.748361588E0,3.315576553E0,1.222879696E1
4.239600156E1,-2.554364204E0,2.939696550E0,1.235854435E1
4.241800156E1,-8.094987273E-1,2.383274555E0,1.323325062E1
4.244000156E1,7.305762768E-1,1.866347313E0,1.390269852E1
4.246000156E1,1.200356960E0,1.366332650E0,1.289865589E1
4.248000156E1,5.392987132E-1,1.409638882E0,1.080802059E1
4.250200000E1,-3.683623075E-1,1.810160160E0,8.497395515E0
4.252200000E1,-7.088944316E-1,1.875387788E0,7.013967514E0
4.254200156E1,-8.239597082E-1,2.130810738E0,6.037055969E0
4.256400156E1,-6.234213710E-1,2.326550961E0,5.733519554E0
4.258402031E1,-1.741063595E-1,2.493599415E0,6.061620712E0
4.260600156E1,2.704394460E-1,2.609181881E0,6.769701004E0
4.262800156E1,4.398723245E-1,2.370930195E0,6.526986122E0
4.264800469E1,2.599241138E-1,2.164961576E0,5.866129398E0
4.267000156E1,-3.661979437E-1,2.611413240E0,5.499730587E0
4.269200156E1,-5.786689520E-1,2.771585464E0,5.898479939E0
4.271400156E1,-7.820324898E-1,3.122862577E0,6.729296207E0
4.273400156E1,-6.566720605E-1,3.486561060E0,7.508829594E0
