"Time (s)","Gyroscope x (rad/s)","Gyroscope y (rad/s)","Gyroscope z (rad/s)"
1.528572500E-1,-2.788599730E0,-1.986306906E0,-1.466739774E0
1.748510000E-1,-2.741371155E0,-2.200999737E0,-1.492815018E0
1.948525630E-1,-2.072351694E0,-2.339945555E0,-1.258312583E0
2.168525630E-1,-6.152459979E-1,-1.955903172E0,-4.493001103E-1
2.388525630E-1,7.429517508E-1,-1.600798488E0,8.602727652E-1
2.588525630E-1,1.383731961E0,-1.473092794E0,1.483878970E0
2.808525630E-1,1.447872758E0,-7.063521743E-1,1.581268311E0
3.008541250E-1,1.357098222E0,8.004079759E-2,1.399736643E0
3.228525630E-1,1.488451719E0,1.451939344E0,9.167341590E-1
3.428556880E-1,2.003009558E0,2.529540539E0,2.856580317E-1
3.648510000E-1,2.759400368E0,2.889270306E0,-3.216292858E-1
3.848775630E-1,2.520691872E0,1.055191159E0,-7.958526611E-1
4.068525630E-1,1.006182313E0,-2.027548999E-1,-1.179877520E0
4.268541250E-1,1.141445339E-2,7.180633545E-1,-9.625839591E-1
4.488525630E-1,-5.118701458E-1,8.294153810E-1,-5.555906296E-1
4.688525630E-1,-6.246184111E-1,1.006932855E0,-2.755002081E-1
4.888572500E-1,-6.514790654E-1,6.730687618E-1,2.544690110E-2
5.108510000E-1,-4.757592976E-1,1.375668496E-1,1.378984600E-1
5.308525630E-1,-2.319717109E-1,-1.397659630E-1,2.666513920E-1
5.508666250E-1,-1.801354289E-1,-3.199886680E-1,3.295705318E-1
5.728510000E-1,-3.271096051E-1,-5.139122009E-1,1.667662114E-1
5.928510000E-1,-3.228335381E-1,-4.357563555E-1,2.242748067E-2
6.128510000E-1,-1.200611964E-1,-1.722814441E-1,-1.286307629E-2
6.328510000E-1,1.275312006E-1,-1.523672417E-2,-1.237263903E-1
6.528510000E-1,4.103094637E-1,1.523323357E-1,-2.034879327E-1
6.748494380E-1,6.317917109E-1,1.289100200E-1,-1.550899595E-1
6.948510000E-1,6.437646747E-1,4.663519561E-2,-7.864453644E-2
7.148510000E-1,4.707676470E-1,3.855432197E-2,-1.860171854E-1
7.348510000E-1,1.873087287E-1,-2.811725438E-2,-4.559672773E-1
7.548510000E-1,-6.625270098E-2,9.780824929E-2,-7.657632232E-1
7.748510000E-1,-2.239431888E-1,1.200437471E-1,-1.050356627E0
7.948510000E-1,-2.206270695E-1,3.755948693E-2,-1.014333010E0
8.148510000E-1,-1.338667516E-2,-2.426182181E-1,-7.868816853E-1
8.348525630E-1,2.780483961E-1,-4.349360466E-1,-4.953942597E-1
8.568525630E-1,3.565009534E-1,-1.539205909E-1,-5.804964900E-2
8.768525630E-1,3.137578368E-1,2.162462845E-2,1.230631620E-1
8.988525630E-1,5.469861999E-2,1.138652787E-1,2.139773592E-2
9.208525630E-1,-1.956863105E-1,8.410741389E-2,-1.664694995E-1
9.428510000E-1,-3.054675162E-1,-1.708851904E-1,-2.229658067E-1
9.628510000E-1,-2.279050946E-1,-4.448146224E-1,-2.364571989E-1
9.828510000E-1,-2.574360557E-2,-7.118325233E-1,-2.264913768E-1
1.002854125E0,-3.234967887E-1,-1.446877979E-2,-2.317797244E-1
1.024851000E0,-4.758814573E-1,3.433760703E-1,1.125737354E-1
1.044852563E0,-5.387656689E-1,4.684987366E-1,2.008001357E-1
1.066851000E0,-4.583583772E-1,3.746349216E-1,2.035053968E-1
1.086852563E0,-3.053977191E-1,1.201135591E-1,1.104618907E-1
1.108852563E0,-7.538077235E-2,-1.544616371E-1,-1.348441392E-1
1.130851000E0,5.501277745E-2,-5.148721337E-1,-4.902280867E-1
1.150851000E0,6.560692936E-2,-9.485340714E-1,-7.507010102E-1
1.170851000E0,1.340761930E-1,-1.090551496E0,-8.678649664E-1
1.190851000E0,1.539554894E-1,-9.778206944E-1,-7.409271598E-1
1.210851000E0,6.469935179E-2,-8.763821721E-1,-4.682020247E-1
1.230851000E0,2.492330223E-2,-6.437821388E-1,-1.852143407E-1
1.250851000E0,1.122770309E-1,-3.525390625E-1,5.003859103E-2
1.270852563E0,2.589893937E-1,-1.791056842E-1,2.790083289E-1
1.292851000E0,5.922949314E-1,5.398303270E-2,5.062152743E-1
1.312851000E0,9.961815476E-1,7.083069682E-1,6.194522381E-1
1.332851000E0,1.265625477E0,1.294528127E0,7.715751529E-1
1.352863500E0,1.115754128E0,1.357325077E0,9.424952269E-1
1.374851000E0,5.836206675E-1,9.619731307E-1,8.762599826E-1
1.394851000E0,8.653342724E-2,3.304257393E-1,5.411393046E-1
1.414851000E0,-1.747598201E-1,-9.372418374E-2,1.070584953E-1
1.434851000E0,-2.359685153E-1,-1.655619293E-1,-7.307693362E-2
1.454851000E0,-1.750390679E-1,-2.492330223E-2,2.792526782E-2
1.474851000E0,-1.183507740E-1,1.672548950E-1,2.175727487E-1
1.494851000E0,-1.345823407E-1,3.178069890E-1,3.780034184E-1
1.514851000E0,-1.573065221E-1,3.843215108E-1,4.794244766E-1
1.534851000E0,-1.420174390E-1,4.090702832E-1,5.071926713E-1
1.554851000E0,-1.563989520E-1,4.669802785E-1,5.261818767E-1
1.574851000E0,-2.591115832E-1,3.616147637E-1,5.225166678E-1
1.594851000E0,-3.870267570E-1,6.784094870E-2,4.971919358E-1
1.614851000E0,-4.087386429E-1,-2.459867001E-1,4.247956872E-1
1.634851000E0,-3.360282481E-1,-2.881014943E-1,4.185648561E-1
1.654851000E0,-2.082352340E-1,-1.486147791E-1,4.006228745E-1
1.674851000E0,-1.081231460E-1,-1.532399096E-2,3.812671602E-1
1.694851000E0,-8.133234084E-2,1.215796322E-1,3.804468811E-1
1.714851000E0,-1.494176388E-1,2.936516404E-1,3.906745017E-1
1.734851000E0,-2.703514993E-1,2.455503643E-1,3.864682615E-1
1.754851000E0,-3.688927889E-1,1.059414819E-1,3.444232643E-1
1.774851000E0,-4.501378536E-1,-1.839053482E-1,1.559975296E-1
1.794851000E0,-5.153433681E-1,-3.526088595E-1,-1.379682720E-1
1.814851000E0,-4.799306393E-1,-2.808758318E-1,-4.574682415E-1
1.834851000E0,-3.709871769E-1,-3.085044026E-1,-6.002711058E-1
1.854851000E0,-4.073598608E-2,-5.786464810E-1,-4.194549918E-1
1.874851000E0,7.492349148E-1,-6.691592336E-1,-9.402088821E-2
1.894851000E0,1.297983885E0,-6.440613866E-1,2.193878777E-2
1.914851000E0,1.106783032E0,-8.865923285E-1,2.446078956E-1
1.934851000E0,6.323676705E-1,-5.585053563E-1,-1.418254524E-1
1.954851000E0,2.811027169E-1,-3.683517277E-1,-7.780503035E-1
1.974851000E0,1.670280099E-1,2.671051919E-1,-7.339283824E-1
1.994851000E0,8.824384958E-2,1.179126978E0,-3.286454976E-1
2.014851000E0,2.415884733E-1,1.988366365E0,3.612831607E-2
2.034851000E0,1.198168546E-1,5.496739745E-1,-9.372418374E-2
2.054851000E0,1.619490981E-1,1.982519478E-1,-3.481233716E-1
2.074851000E0,-2.631956525E-2,5.263040066E-1,-4.245688021E-1
2.094854125E0,-4.474500716E-1,1.039011955E0,-2.515019476E-1
2.116851000E0,-7.290414572E-1,9.211498499E-1,-2.136806548E-1
2.136855688E0,-7.462678552E-1,2.550100684E-1,-1.640609503E-1
2.158851000E0,-3.083298504E-1,-3.431666493E-1,4.063126445E-2
2.178851000E0,2.159844935E-1,-8.429591060E-1,1.149473861E-1
2.198851000E0,5.575628877E-1,-1.270390272E0,-9.424777701E-3
2.218851000E0,5.867273211E-1,-1.468746901E0,-1.232726052E-1
2.238851000E0,3.407755494E-1,-1.254490256E0,-1.220159680E-1
2.258854125E0,-4.991641734E-3,-6.954962611E-1,-8.977973461E-2
2.280851000E0,-3.016278148E-1,-9.855873883E-2,-6.078981608E-2
2.300851000E0,-4.102919996E-1,3.095864952E-1,2.588323317E-2
2.320851000E0,-4.294906259E-1,6.590014100E-1,7.103490084E-2
2.340851000E0,-4.302236736E-1,1.135127187E0,1.621585339E-1
2.360851000E0,-4.236088693E-1,2.079524994E0,3.454006612E-1
2.380851000E0,1.781981252E-2,1.878183722E0,2.060361207E-1
2.400863500E0,1.377239376E-1,1.072208166E0,5.605997518E-2
2.422851000E0,1.745329238E-3,1.596731901E0,2.067517042E-1
2.442852563E0,-4.823915362E-1,1.950003982E0,6.971543431E-1
2.462852563E0,-9.126675725E-1,1.077287078E0,8.574104309E-1
2.484876000E0,-7.190407515E-1,-2.651155181E-2,5.070181489E-1
2.506852563E0,2.190213650E-1,-2.234021388E-2,3.659606278E-1
2.526858813E0,1.086100936E0,-2.258456051E-1,4.263490140E-1
2.548852563E0,1.382964015E0,-1.108615637E0,3.226415515E-1
2.570852563E0,8.690692186E-1,-2.276101351E0,5.520476401E-2
2.592860375E0,5.323254317E-2,-2.725733042E0,-1.528035700E-1
2.614852563E0,-4.516737461E-1,-2.322055817E0,-2.187944800E-1
2.634855688E0,-5.445078015E-1,-1.378705382E0,-1.907994002E-1
2.656852563E0,-3.236014843E-1,-2.734930813E-1,-4.996877536E-2
2.676852563E0,6.892304868E-2,4.998797476E-1,1.539729387E-1
2.698851000E0,4.598419070E-1,8.172504306E-1,3.560297191E-1
2.718851000E0,5.200208426E-1,1.374673724E0,6.334672570E-1
2.740849438E0,2.407507151E-1,1.994282961E0,7.259348035E-1
2.760851000E0,-2.672971785E-1,2.107223272E0,6.782349348E-1
2.780851000E0,-6.904522777E-1,1.754806399E0,5.666560531E-1
2.800857250E0,-7.904945016E-1,8.150163889E-1,2.731265724E-1
2.822851000E0,-3.838502467E-1,-1.961226463E-1,-4.680972919E-2
2.842851000E0,2.457772642E-1,-7.671943903E-1,-2.208016068E-1
2.862851000E0,7.311009765E-1,-1.225709796E0,-2.957460284E-1
2.882854125E0,7.996225953E-1,-1.645077586E0,-3.326946497E-1
2.904851000E0,3.859795630E-1,-1.720597982E0,-3.693465889E-1
2.924855688E0,-1.729795784E-1,-1.276952744E0,-3.099355698E-1
2.946851000E0,-6.868219376E-1,-4.367511868E-1,-5.061454698E-2
2.966855688E0,-9.023526907E-1,1.816364080E-1,1.535540670E-1
2.988857250E0,-7.061078548E-1,4.328241944E-1,2.721841037E-1
3.008871313E0,-4.362624884E-1,2.179567218E-1,2.817485034E-1
3.030851000E0,-5.124810338E-1,-5.574406981E-1,1.109331250E-1
3.050851000E0,-6.403961778E-1,-1.359593987E0,-2.325651199E-1
3.070851000E0,-3.762231767E-1,-1.692812324E0,-5.978625417E-1
3.090851000E0,3.441265821E-1,-1.288541675E0,-6.466096044E-1
3.110851000E0,9.615542293E-1,-7.778932452E-1,-1.712342501E-1
3.130852563E0,1.117481947E0,-4.483576417E-1,1.571319848E-1
3.152851000E0,8.337263465E-1,-4.339586496E-1,3.096214123E-2
3.172851000E0,4.658109248E-1,-2.568950057E-1,-2.327396572E-1
3.192851000E0,1.004960611E-1,7.916813344E-2,-5.342278481E-1
3.212851000E0,-2.238733768E-1,1.995085925E-1,-7.967602611E-1
3.232851000E0,-4.041309953E-1,2.293188125E-1,-7.866373658E-1
3.252851000E0,-3.979874253E-1,3.161489367E-1,-6.335894465E-1
3.272851000E0,-3.111398518E-1,3.086091280E-1,-4.734903574E-1
3.292851000E0,-1.799608916E-1,2.780483961E-1,-3.258005977E-1
3.312851000E0,-3.417354822E-2,2.683967352E-1,-2.056695968E-1
3.332851000E0,8.054694533E-2,2.354274690E-1,-1.407608092E-1
3.352863500E0,1.089958102E-1,2.117084414E-1,-1.002866179E-1
3.374851000E0,-2.515019476E-2,1.710248142E-1,-1.025729999E-1
3.394851000E0,-1.833293885E-1,1.940631568E-1,-5.558873713E-2
3.414851000E0,-2.721142769E-1,2.345722467E-1,8.037241548E-2
3.434851000E0,-2.608568966E-1,3.034603894E-1,1.448972374E-1
3.454851000E0,-1.740616858E-1,4.448669851E-1,1.095019579E-1
3.474851000E0,-1.130100712E-1,5.830272436E-1,8.941321820E-2
3.494851000E0,-1.040041670E-1,7.168416381E-1,5.941100791E-2
3.514851000E0,-1.662949771E-1,1.062102675E0,1.040216237E-1
3.534851000E0,-3.137403727E-1,1.297111273E0,3.230080903E-1
3.554851000E0,-3.839724362E-1,1.202130437E0,4.656713009E-1
3.574851000E0,-4.532620013E-1,9.234188199E-1,3.969576955E-1
3.594851000E0,-7.320434451E-1,3.438298702E-1,1.224522963E-1
3.614851000E0,-8.466941118E-1,-1.567654759E-1,-4.693190381E-2
3.634851000E0,-4.504694641E-1,-1.609019041E-1,-2.569124661E-2
3.654851000E0,2.517288327E-1,3.624525368E-1,2.113070190E-1
3.674851000E0,6.531196833E-1,5.764299035E-1,4.329638183E-1
3.694851000E0,2.790606916E-1,7.853982039E-3,4.755149484E-1
3.714851000E0,-2.994984984E-1,-5.465149283E-1,3.458020687E-1
3.734851000E0,-5.557128191E-1,-6.788108945E-1,2.612408698E-1
3.754851000E0,-4.242546260E-1,-4.583060145E-1,2.740865052E-1
3.776851000E0,-1.582490057E-1,-2.096838504E-1,3.413864076E-1
3.796851000E0,5.506513640E-2,-2.381327152E-1,4.426504076E-1
3.816851000E0,1.188569218E-1,-3.619987369E-1,4.485845268E-1
3.836851000E0,4.640830308E-2,-3.070383072E-1,3.226241171E-1
3.856851000E0,-9.793042392E-2,3.131644130E-1,1.624203324E-1
3.876851000E0,-1.413542181E-1,5.014854670E-1,1.552644968E-1
3.896851000E0,-2.177647352E-1,-1.082104165E-2,3.739018738E-1
3.916851000E0,-2.569473684E-1,-4.176572859E-1,5.402143002E-1
3.936851000E0,-2.568426430E-1,-7.408049703E-1,6.301162243E-1
3.956851000E0,-2.377836555E-1,-8.818799853E-1,6.705904007E-1
3.976851000E0,-2.065597177E-1,-8.591383100E-1,6.827029586E-1
3.996851000E0,-4.325274825E-1,-1.911135465E-1,6.870488524E-1
4.016851000E0,-6.116855145E-1,3.854734302E-1,7.552737594E-1
4.036851000E0,-9.654986858E-1,7.801970840E-1,7.871783972E-1
4.056851000E0,-1.152405977E0,8.029561639E-1,7.176793814E-1
4.076851000E0,-1.209443331E0,4.435056150E-1,4.859520197E-1
4.096851000E0,-1.081248879E0,8.190830052E-2,1.533795297E-1
4.116851000E0,-8.601331711E-1,3.164631128E-1,1.232900545E-1
4.136851000E0,-8.296771646E-1,8.359254599E-1,3.234444261E-1
4.156851000E0,-1.154936671E0,8.793666959E-1,3.590665758E-1
4.176851000E0,-1.456808925E0,3.893480599E-1,3.197443113E-2
4.196851000E0,-1.067932010E0,-1.959132105E-1,-2.322160602E-1
4.216851000E0,-1.141096279E-1,-6.165026426E-1,-1.090656221E-1
4.236851000E0,8.316842914E-1,-7.716274858E-1,2.287952155E-1
4.256851000E0,1.282624960E0,-8.171631694E-1,4.584805369E-1
4.276851000E0,1.191222072E0,-6.395409703E-1,2.646966279E-1
4.296851000E0,8.914617896E-1,-2.426531315E-1,-1.869945824E-1
4.316851000E0,6.317917109E-1,1.093797833E-1,-5.762379169E-1
4.336851000E0,4.678180516E-1,2.841745019E-1,-8.129045367E-1
4.356851000E0,3.628714085E-1,3.080680668E-1,-8.795412183E-1
4.376851000E0,3.092548847E-1,2.843141258E-1,-8.189084530E-1
4.396851000E0,2.740341425E-1,2.092475295E-1,-7.478212118E-1
4.416851000E0,1.786170006E-1,7.953465730E-2,-6.998770237E-1
4.436851000E0,-7.539822254E-3,-7.379251719E-2,-7.118849158E-1
4.456851000E0,-1.931730360E-1,-2.507514656E-1,-8.359777927E-1
4.476852563E0,-2.766521275E-1,-4.486892521E-1,-9.720960259E-1
4.498851000E0,-2.243795246E-1,-5.781926513E-1,-9.543809295E-1
4.518851000E0,-1.431693584E-1,-6.092420816E-1,-7.912450433E-1
4.538852563E0,-1.697681695E-1,-6.527531147E-1,-6.535036564E-1
4.558852563E0,-2.438923120E-1,-6.569244862E-1,-6.270095110E-1
4.578852563E0,-2.536137998E-1,-5.677905083E-1,-6.589316130E-1
4.598852563E0,-1.109854877E-1,-3.526088595E-1,-6.395061016E-1
4.618852563E0,1.034282148E-1,-1.322610527E-1,-6.148271561E-1
4.640852563E0,1.557357311E-1,-1.236216724E-1,-5.593605638E-1
4.660852563E0,8.623671532E-2,-2.997777462E-1,-5.951572657E-1
4.682851000E0,1.577777565E-1,-3.163758218E-1,-5.937958956E-1
4.702851000E0,4.380601943E-1,-2.153736353E-2,-5.147324800E-1
4.722851000E0,6.644992232E-1,1.102349982E-1,-4.090179205E-1
4.742851000E0,5.570392609E-1,-5.466371030E-2,-4.443433583E-1
4.762851000E0,1.839576960E-1,-4.414984882E-1,-6.230999827E-1
4.782852563E0,-2.002067119E-1,-5.579468608E-1,-8.426100612E-1
4.802852563E0,-4.835434556E-1,-4.385488927E-1,-8.707098365E-1
4.822852563E0,-5.797110796E-1,-2.490933836E-1,-6.239028573E-1
4.844852563E0,-5.002637506E-1,-1.376192123E-1,-1.579173952E-1
4.866852563E0,-3.112096488E-1,-4.740314186E-2,2.412219495E-1
4.888852563E0,-1.047197497E-3,2.668433785E-1,3.802374303E-1
4.908852563E0,3.016278148E-1,6.425080299E-1,3.094643354E-1
4.928865063E0,5.367236733E-1,8.755269647E-1,2.147802114E-1
4.950851000E0,6.236584783E-1,9.217607379E-1,6.127851084E-2
4.970852563E0,5.309640765E-1,8.374438882E-1,-1.614953130E-1
4.990852563E0,3.354173601E-1,6.550395489E-1,-4.710818231E-1
5.010852563E0,1.515643895E-1,4.005530477E-1,-8.520522714E-1
5.030852563E0,4.735078290E-2,2.206619829E-1,-1.218135118E0
5.050852563E0,5.647885427E-2,1.532224566E-1,-1.410243511E0
5.070852563E0,1.608669907E-1,2.590592206E-1,-1.422687650E0
5.092852563E0,1.619490981E-1,2.874208093E-1,-1.316414595E0
5.114852563E0,1.891936921E-2,1.885479242E-1,-1.248137355E0
5.134852563E0,-2.542944849E-1,-1.211956665E-1,-1.279605627E0
5.156852563E0,-5.680348277E-1,-4.675911665E-1,-1.357133150E0
5.178852563E0,-7.404035926E-1,-4.636990726E-1,-1.447541118E0
5.198852563E0,-8.033052683E-1,-1.723163575E-1,-1.434416294E0
5.218872875E0,-8.957378864E-1,7.613126189E-2,-1.301212788E0
5.240851000E0,-1.126714706E0,-2.517113984E-1,-1.258574367E0
5.260851000E0,-1.412407637E0,-1.099260688E0,-1.667208314E0
5.280852563E0,-1.179999709E0,-1.429424644E0,-2.156179667E0
5.302852563E0,-8.674286306E-2,-6.333101988E-1,-2.059837580E0
5.324851000E0,1.061212540E0,1.764353365E-1,-1.358459592E0
5.344852563E0,1.426195741E0,1.722814441E-1,-7.757115960E-1
5.366851000E0,1.167014360E0,8.330456167E-2,-7.427423000E-1
5.386851000E0,8.543561101E-1,6.291911751E-2,-1.171552300E0
5.406851000E0,6.205692887E-1,-4.621632025E-2,-1.739255548E0
5.426851000E0,4.135383070E-1,-1.618618369E-1,-2.133054256E0
5.446851000E0,2.152165473E-1,-1.718102098E-1,-2.232782364E0
5.466851000E0,1.389631182E-1,-7.033676654E-2,-2.159862280E0
5.486851000E0,1.199215725E-1,-2.015855350E-2,-2.065754175E0
5.506851000E0,8.456119895E-2,-2.499311417E-2,-1.987930059E0
5.526851000E0,8.573057503E-2,3.038618155E-2,-1.903107047E0
5.546851000E0,1.671676338E-1,1.312313080E-1,-1.763567924E0
5.566851000E0,2.794795632E-1,2.372949570E-1,-1.591461062E0
5.586851000E0,2.135759443E-1,2.559525371E-1,-1.413542151E0
5.606851000E0,-2.513274178E-2,3.075968325E-1,-1.325717211E0
5.628849438E0,-3.304257393E-1,1.161865667E-1,-1.259778619E0
5.648851000E0,-4.617094100E-1,-4.882558584E-1,-1.086519837E0
5.668851000E0,-3.175452054E-1,-1.187207818E0,-9.226857424E-1
5.688851000E0,-5.016076192E-2,-1.365318656E0,-8.110370636E-1
5.708851000E0,1.804670505E-2,-7.873180509E-1,-4.180063605E-1
5.728863500E0,-2.228785455E-1,-5.215741992E-1,-4.862487316E-2
5.750851000E0,-4.497189820E-1,-6.703809500E-1,-6.072000414E-2
5.770851000E0,-2.282017916E-1,-4.853411615E-1,-3.973765671E-1
5.790851000E0,2.202256471E-1,-2.043606043E-1,-6.618637443E-1
5.810851000E0,6.870139241E-1,-2.130872458E-1,-6.556154490E-1
5.830851000E0,9.863553643E-1,-3.841993213E-1,-6.231872439E-1
5.850851000E0,1.128861547E0,-2.517288327E-1,-6.281090975E-1
5.870851000E0,1.116975784E0,3.331833705E-2,-6.321058869E-1
5.890851000E0,1.046185255E0,2.298424095E-1,-6.099402308E-1
5.910851000E0,1.016968489E0,2.964441776E-1,-6.040933728E-1
5.930851000E0,9.777334332E-1,3.234094977E-1,-6.325771213E-1
5.950851000E0,8.327489495E-1,3.734132051E-1,-6.954438686E-1
5.970851000E0,6.644119620E-1,3.665016890E-1,-7.411889434E-1
5.990851000E0,5.227609873E-1,2.969677746E-1,-8.009315729E-1
6.010851000E0,3.800279796E-1,1.732239276E-1,-8.762425184E-1
6.030851000E0,2.881189585E-1,7.525859773E-2,-9.627585411E-1
6.050851000E0,2.707529366E-1,-3.403391922E-3,-1.026236176E0
6.070851000E0,2.943672240E-1,8.534659632E-3,-1.081301332E0
6.090851000E0,3.385415077E-1,1.907644793E-2,-1.081388593E0
6.110851000E0,3.999771178E-1,-2.246238664E-2,-1.001330256E0
6.130851000E0,4.856029451E-1,-2.190388180E-2,-9.027017355E-1
6.150852563E0,4.359134436E-1,-1.140223593E-1,-8.161508441E-1
6.172852563E0,1.562244147E-1,-4.842590392E-1,-7.920827866E-1
6.194851000E0,-9.791296721E-2,-8.136550188E-1,-8.945510387E-1
6.214851000E0,-2.893057764E-1,-8.997521400E-1,-9.417796731E-1
6.234851000E0,-3.614751399E-1,-6.481803656E-1,-7.591134906E-1
6.254851000E0,-2.972644866E-1,-2.986258268E-1,-4.703487754E-1
6.274851000E0,-1.747423708E-1,-9.304349869E-2,-3.345097899E-1
6.294851000E0,-2.900213599E-1,-2.571393549E-1,-5.558175445E-1
6.314851000E0,-4.363497794E-1,-2.595653534E-1,-8.691565394E-1
6.334851000E0,-1.658411920E-1,-1.604481190E-1,-9.107127786E-1
6.354851000E0,4.720068276E-1,-3.549825251E-1,-6.582509279E-1
6.374851000E0,7.877718210E-1,-7.104537487E-1,-5.535486341E-1
6.394851000E0,6.317393780E-1,-6.864728928E-1,-7.033851147E-1
6.414851000E0,3.233571351E-1,-4.019842446E-1,-9.251990318E-1
6.434851000E0,1.166578084E-1,-1.242325380E-1,-1.088020802E0
6.454851000E0,-3.185226023E-2,5.593780056E-2,-1.163925171E0
6.474851000E0,-1.782504767E-1,1.377762854E-1,-1.217751145E0
6.494851000E0,-2.742610276E-1,1.281944364E-1,-1.204416752E0
6.514851000E0,-2.397035211E-1,1.292241812E-1,-1.128250599E0
6.534851000E0,-1.841147840E-1,6.461209059E-2,-1.037860036E0
6.554851000E0,-2.136457562E-1,-9.478883445E-2,-9.442929626E-1
6.574851000E0,-2.809456587E-1,-2.576455176E-1,-8.560839891E-1
6.594851000E0,-2.732836604E-1,-3.170914054E-1,-7.175048590E-1
6.614851000E0,-1.483529806E-1,-3.462035060E-1,-5.282937288E-1
6.634851000E0,3.607595712E-2,-2.878397107E-1,-3.210009634E-1
6.654851000E0,1.291892678E-1,-1.797863692E-1,-1.923876405E-1
6.674851000E0,1.355248094E-1,-9.522516280E-2,-1.370258033E-1
6.694851000E0,1.181064323E-1,-5.373868719E-2,-1.706932038E-1
6.714851000E0,1.498365104E-1,-5.064945295E-2,-2.515717447E-1
6.734851000E0,2.128428966E-1,-1.040216256E-2,-2.672448158E-1
6.754851000E0,2.788512409E-1,1.337271333E-1,-2.872462869E-1
6.774851000E0,3.036000133E-1,4.076740146E-1,-3.053104579E-1
6.794851000E0,2.394591719E-1,6.289119124E-1,-2.227214724E-1
6.814851000E0,3.696607426E-2,2.184977680E-1,-2.207841426E-1
6.834851000E0,-1.560324337E-2,-2.039940804E-1,-2.644872069E-1
6.854851000E0,2.149896622E-1,-2.448522449E-1,-2.041162550E-1
6.874851000E0,4.417952001E-1,-1.786868125E-1,-7.353071868E-2
6.894851000E0,2.885203660E-1,-3.141418099E-1,1.317723542E-1
6.914851000E0,-5.323254038E-3,-3.994884193E-1,2.875081003E-1
6.934851000E0,-8.723155409E-2,-2.945941091E-1,3.118379712E-1
6.954851000E0,1.031489577E-2,-1.123119369E-1,3.451039493E-1
6.974851000E0,9.194394201E-2,8.669050038E-2,3.116808832E-1
6.994851000E0,1.919862116E-4,1.599943340E-1,2.311863154E-1
7.014851000E0,-1.531351954E-1,1.109854877E-1,1.349663138E-1
7.034851000E0,-2.066644430E-1,-6.159266829E-2,7.648032904E-2
7.054851000E0,-9.417796880E-2,-1.714436859E-1,1.022239327E-1
7.074851000E0,6.581636518E-2,-2.053030729E-1,1.239183769E-1
7.094851000E0,1.790533215E-1,-1.847081929E-1,9.246754646E-2
7.114851000E0,2.027548999E-1,-1.739918739E-1,5.855579674E-2
7.134851000E0,1.858775616E-1,-2.619390190E-1,4.951499030E-2
7.154851000E0,1.416509151E-1,-3.469016552E-1,1.130973361E-2
7.174851000E0,7.642796636E-2,-3.826634288E-1,-1.626646891E-2
7.194851000E0,2.300344035E-2,-4.031884968E-1,5.515240598E-3
7.214851000E0,3.036872949E-3,-5.002637506E-1,1.897172816E-2
7.234851000E0,-4.173082113E-2,-5.094965100E-1,5.969026126E-3
7.254851000E0,-1.324181259E-1,-4.696331918E-1,-1.120326817E-1
7.274851000E0,-3.146305084E-1,-5.636017323E-1,-2.743308544E-1
7.294851000E0,-5.582610369E-1,-7.144156098E-1,-3.650006950E-1
7.314851000E0,-7.160911560E-1,-6.093817353E-1,-4.205196202E-1
7.334851000E0,-6.438868642E-1,-1.862091720E-1,-3.027622700E-1
7.354851000E0,-4.040437341E-1,1.274788529E-1,-1.837831736E-2
7.374851000E0,-1.975538135E-1,-3.576179594E-2,1.153837144E-1
7.394851000E0,-2.502802201E-2,-2.772106528E-1,-2.174680308E-2
7.414851000E0,1.479864717E-1,-1.373399645E-1,-2.900911868E-1
7.434851000E0,3.275808394E-1,1.074948311E-1,-5.448569059E-1
7.454851000E0,4.740139842E-1,1.456302702E-1,-5.719444156E-1
7.474851000E0,5.214520097E-1,9.049531817E-2,-4.680449367E-1
7.494851000E0,4.397880733E-1,1.393121779E-1,-4.742757678E-1
7.514851000E0,1.633977294E-1,2.370680720E-1,-6.391221285E-1
7.534851000E0,-1.435533315E-1,2.851344347E-1,-8.407949209E-1
7.554851000E0,-3.344225287E-1,2.370157093E-1,-9.336289763E-1
7.574851000E0,-3.701319695E-1,1.512327790E-1,-8.573406339E-1
7.594851000E0,-3.408977091E-1,8.012806624E-2,-7.201054096E-1
7.614851000E0,-2.870194018E-1,-7.435102481E-3,-5.992587805E-1
7.634851000E0,-1.569749117E-1,1.274090377E-3,-5.137725472E-1
7.654851000E0,-6.674139202E-2,1.378810150E-3,-4.748517275E-1
7.674851000E0,-1.024857312E-1,-5.564109609E-2,-4.232423306E-1
7.694851000E0,-2.102772743E-1,-1.106887832E-1,-3.820351064E-1
7.714851000E0,-3.066717982E-1,-2.226167470E-1,-3.478441238E-1
7.734851000E0,-2.767219543E-1,-4.704186022E-1,-2.921681106E-1
7.754851000E0,-2.136981189E-1,-7.568620443E-1,-2.237861156E-1
7.774851000E0,-2.303660065E-1,-8.449313641E-1,-1.350710243E-1
7.794851000E0,-3.399726748E-1,-7.065790892E-1,4.974188283E-3
7.814851000E0,-4.059112370E-1,-4.355992675E-1,2.825513482E-1
7.834851000E0,-3.885102868E-1,-3.356268257E-2,4.661599994E-1
7.854851000E0,-2.725680768E-1,2.247111350E-1,3.333404362E-1
7.874851000E0,-1.089958102E-1,2.816786766E-1,-8.726646006E-2
7.894851000E0,-3.003711626E-2,2.872986495E-1,-5.051157475E-1
7.914851000E0,-4.379031062E-2,2.169618756E-1,-7.665137053E-1
7.934851000E0,1.905899495E-1,3.627143204E-1,-7.185695171E-1
7.954851000E0,5.807408690E-1,4.662996233E-1,-4.224918485E-1
7.974851000E0,8.267973661E-1,3.677757680E-1,-2.363175713E-2
7.994851000E0,8.901179433E-1,2.153910846E-1,3.188018501E-1
8.014851000E0,8.587543368E-1,1.561546028E-1,5.730788708E-1
8.034851000E0,7.258300781E-1,1.151393726E-1,7.182378769E-1
8.054851000E0,4.510628879E-1,1.171115935E-1,7.547152638E-1
8.074851000E0,1.272694021E-1,2.013411820E-1,7.085338831E-1
8.094851000E0,-9.400343150E-2,3.232873380E-1,6.126280427E-1
8.114851000E0,-1.986010075E-1,4.443084598E-1,5.387308002E-1
8.134851000E0,-2.055299729E-1,4.487765133E-1,5.320636034E-1
8.154851000E0,-1.537286043E-1,2.864434421E-1,5.597620010E-1
8.174851000E0,-4.450589418E-2,7.874925435E-2,5.768313408E-1
8.194851000E0,9.428268671E-2,-3.892084211E-2,5.750336051E-1
8.214851000E0,2.586927116E-1,-8.412487060E-2,5.566378832E-1
8.234851000E0,4.125434756E-1,-1.357167959E-1,5.364444256E-1
8.254851000E0,4.956036806E-1,-1.889144331E-1,5.252917409E-1
8.274851000E0,4.163308442E-1,-2.568426430E-1,4.685161710E-1
8.294851000E0,2.136457562E-1,-3.502875865E-1,3.667111397E-1
8.314851000E0,-1.324181259E-1,-4.425805807E-1,1.614604145E-1
8.334851000E0,-7.275579572E-1,-5.642474890E-1,-4.237659276E-2
8.354851000E0,-1.379857302E0,-5.463054776E-1,-1.879196018E-1
8.374851000E0,-1.689059854E0,-9.121090919E-2,-2.212204784E-1
8.394851000E0,-1.552278399E0,6.158743501E-1,-1.830326766E-1
8.414851000E0,-1.302818418E0,1.155006528E0,-1.012290921E-2
8.434851000E0,-1.081231475E0,1.283323169E0,5.106833205E-2
8.454851000E0,-7.255508304E-1,1.087409973E0,-1.551074088E-1
8.474851000E0,-3.000046313E-1,9.449735880E-1,-4.091924429E-1
8.494851000E0,-2.040289901E-2,9.442580342E-1,-5.003335476E-1
8.514851000E0,-3.921754658E-2,7.758861184E-1,-3.459067941E-1
8.534851000E0,-1.134987622E-1,4.144284427E-1,-1.459444314E-1
8.554852563E0,-3.892084211E-2,1.542870998E-1,-1.044405028E-1
8.576852563E0,2.483952641E-1,2.874557301E-2,-2.702467740E-1
8.596852563E0,4.925842583E-1,-1.565560326E-2,-4.284085035E-1
8.618852563E0,5.508084297E-1,-1.174082980E-1,-3.981096148E-1
8.640852563E0,4.524067938E-1,-6.515314430E-2,-3.065670729E-1
8.662852563E0,4.138175547E-1,1.910960972E-1,-3.041934371E-1
8.684869750E0,5.359905958E-1,3.999945521E-1,-3.186098635E-1
8.706851000E0,6.908536553E-1,3.146130443E-1,-2.687108815E-1
8.726851000E0,6.393315792E-1,8.065166324E-2,-1.464505792E-1
8.748855688E0,4.868072271E-1,-2.534741759E-1,-1.500983164E-2
8.770851000E0,2.905449569E-1,-4.150916636E-1,4.038691893E-2
8.790852563E0,1.452113967E-2,-5.294281840E-1,1.715658605E-2
8.812854125E0,-2.734232843E-1,-7.133334875E-1,-2.108357660E-2
8.834851000E0,-4.413414001E-1,-1.080690384E0,8.709193207E-3
8.854851000E0,-4.807683825E-1,-1.324687481E0,1.929461509E-1
8.874851000E0,-4.428947568E-1,-1.214923739E0,5.070704818E-1
8.894851000E0,-3.533593714E-1,-8.501149416E-1,7.893077135E-1
8.914851000E0,-1.711993515E-1,-3.990869820E-1,7.865675092E-1
8.934851000E0,5.859070271E-2,1.247037724E-1,6.187192202E-1
8.954851000E0,9.288642555E-2,4.609588981E-1,5.160589218E-1
8.974852563E0,-4.954989627E-2,3.576877713E-1,4.908738434E-1
8.996851000E0,-2.148500271E-2,8.403760195E-2,4.870166779E-1
9.016851000E0,3.670078218E-1,1.147204936E-1,6.078981757E-1
9.036851000E0,8.185594082E-1,1.185253114E-1,7.545232773E-1
9.056851000E0,9.129293561E-1,7.496189326E-2,9.032951593E-1
9.076852563E0,6.037442684E-1,-5.122541264E-2,1.011959314E0
9.098851000E0,2.375218570E-1,-2.087762803E-1,9.296496511E-1
9.118851000E0,1.624028832E-1,-2.506467402E-1,7.715402246E-1
9.138851000E0,2.760587335E-1,-1.486147791E-1,7.377157807E-1
9.158851000E0,3.715806007E-1,2.216568217E-3,8.164475560E-1
9.178851000E0,3.336545825E-1,1.456302702E-1,9.490053058E-1
9.198851000E0,2.208365053E-1,2.284286916E-1,1.021785498E0
9.218851000E0,1.673247218E-1,1.336398572E-1,1.003878474E0
9.238851000E0,1.863662601E-1,-8.498007804E-2,9.347285032E-1
9.258852563E0,1.956688613E-1,-3.218910694E-1,8.347560763E-1
9.278857250E0,2.063502818E-1,-5.084318519E-1,7.468787432E-1
9.300851000E0,2.728298604E-1,-5.158669949E-1,6.924768090E-1
9.320851000E0,3.161838353E-1,-3.615449667E-1,6.265382767E-1
9.340851000E0,2.330363542E-1,-2.109928578E-1,4.826882482E-1
9.360851000E0,1.073377505E-1,-1.796118319E-1,3.097959459E-1
9.380851000E0,7.443828881E-2,-2.335599661E-1,2.101550996E-1
9.400851000E0,5.949827284E-2,-3.315427303E-1,2.310641408E-1
9.420852563E0,-4.775220901E-2,-4.785692692E-1,2.891312540E-1
9.442851000E0,-3.158696890E-1,-3.545636237E-1,3.999596536E-1
9.462851000E0,-6.715503335E-1,8.560840040E-2,6.900683045E-1
9.482851000E0,-9.760928154E-1,4.329987466E-1,9.710488319E-1
9.502851000E0,-1.080655456E0,5.080304146E-1,9.031729698E-1
9.522851000E0,-9.977523685E-1,3.540574908E-1,5.652074218E-1
9.542851000E0,-8.362745047E-1,1.026428118E-1,3.162361979E-1
9.562851000E0,-4.618839324E-1,-1.199739352E-1,2.451664060E-1
9.582851000E0,8.761552721E-2,-3.261845708E-1,2.893057764E-1
9.602854125E0,6.203074455E-1,-5.612629652E-1,4.239404798E-1
9.624851000E0,1.057704449E0,-5.851914287E-1,5.295677781E-1
9.644851000E0,1.157153249E0,-3.556108475E-1,4.488637745E-1
9.664851000E0,9.309062362E-1,-3.787364578E-3,1.850572526E-1
9.684869750E0,5.345419645E-1,3.789458871E-1,-5.401793867E-2
9.706851000E0,2.909812927E-1,7.460409999E-1,-1.982519478E-1
9.726851000E0,2.987480164E-1,8.986525536E-1,-2.270149738E-1
9.746851000E0,3.598170877E-1,8.375311494E-1,-1.588249654E-1
9.766851000E0,3.741287887E-1,6.412863135E-1,-4.284783453E-2
9.786851000E0,2.961300015E-1,3.631157577E-1,1.499237865E-2
9.806852563E0,1.324181259E-1,1.835911870E-1,1.157153305E-2
9.828852563E0,-4.066617042E-2,2.358114272E-1,-1.633453667E-1
9.848852563E0,-3.745650947E-1,7.435975075E-1,-3.946363926E-1
9.868852563E0,-1.261768341E0,2.096245050E0,-5.018345118E-1
9.888866625E0,-2.024058342E0,2.849459410E0,-2.646617293E-1
9.910852563E0,-1.642686486E0,2.530640125E0,8.332201838E-2
9.930852563E0,-8.111766577E-1,1.306954861E0,4.670501053E-1
9.950852563E0,-9.948376566E-2,-1.226966456E-1,7.746469378E-1
9.970852563E0,5.036671162E-1,-1.223807454E0,1.010772467E0
9.990852563E0,9.780650735E-1,-1.638096213E0,1.142091155E0
1.001285256E1,1.012290955E0,-1.301561832E0,1.109767556E0
1.003285256E1,6.227684021E-1,-6.009343266E-1,9.084089398E-1
1.005485256E1,1.097288504E-1,5.864306167E-2,4.749738872E-1
1.007685256E1,-1.021192148E-1,2.734058201E-1,1.372352391E-1
1.009885256E1,1.425759494E-1,3.147526681E-1,1.935046464E-1
1.011885256E1,4.381998181E-1,1.301492006E-1,5.644918084E-1
1.014085100E1,4.430867434E-1,-3.082076907E-1,1.043619633E0
1.016085100E1,3.223623037E-1,-5.993286371E-1,1.180156708E0
1.018085256E1,2.961474657E-1,-5.815960765E-1,1.084355593E0
1.020286662E1,3.162536621E-1,-3.040887117E-1,9.649750590E-1
1.022485100E1,3.137927353E-1,9.459684789E-2,1.039797306E0
1.024485100E1,2.938959897E-1,4.320562482E-1,1.221346498E0
1.026485256E1,2.978404462E-1,5.611582398E-1,1.411011457E0
1.028487131E1,4.275532961E-1,4.357738197E-1,1.521246433E0
1.030685256E1,5.939180851E-1,5.970771238E-2,1.554215670E0
1.032885256E1,6.204121709E-1,-4.132939577E-1,1.478154302E0
1.034885256E1,5.073148608E-1,-6.584778428E-1,1.270529866E0
1.036886819E1,3.819129467E-1,-6.399075389E-1,9.630552530E-1
1.039085256E1,2.246413231E-1,-4.926191866E-1,6.125756502E-1
1.041085256E1,3.052580915E-2,-3.435855210E-1,3.254166245E-1
1.043085256E1,-2.090031803E-1,-3.346319795E-1,1.059589386E-1
1.045085256E1,-3.393269181E-1,-4.599989653E-1,-5.358160660E-2
1.047085256E1,-3.268478215E-1,-5.357986093E-1,-1.731366664E-1
1.049085256E1,-4.010417461E-1,-4.222126007E-1,-2.433512509E-1
1.051085256E1,-8.017519116E-1,-1.959830225E-1,-2.340137511E-1
1.053085256E1,-1.276673436E0,1.578301191E-1,-1.597325355E-1
1.055285100E1,-1.406927347E0,5.417676568E-1,-1.056273282E-1
1.057285256E1,-1.248364210E0,7.817679048E-1,-2.464753985E-1
1.059285256E1,-1.247509003E0,8.035845160E-1,-5.871985555E-1
1.061285256E1,-1.307024717E0,5.478065014E-1,-7.615395188E-1
1.063285256E1,-9.788504839E-1,2.754129469E-1,-6.273934841E-1
1.065484944E1,-2.320415229E-1,2.876302600E-2,-2.788338065E-1
1.067485100E1,2.222502232E-1,-1.624377966E-1,1.093274206E-1
1.069485256E1,2.693741024E-1,-1.960353851E-1,3.538480401E-1
1.071685256E1,2.435781509E-1,-6.410594285E-2,2.776295245E-1
1.073685256E1,3.598694503E-1,1.259778589E-1,5.386086181E-2
1.075885256E1,5.454851985E-1,2.414837480E-1,-9.464920312E-2
1.078085256E1,6.727895141E-1,2.538581491E-1,-1.514771283E-1
1.080286506E1,6.452831030E-1,2.176600099E-1,-1.693318486E-1
1.082485100E1,3.832219541E-1,3.284535110E-1,-2.572091818E-1
1.084485256E1,1.060811132E-1,3.123266697E-1,-4.144284427E-1
1.086685256E1,8.445648104E-2,-2.020044029E-1,-7.071550488E-1
1.088885881E1,1.844813079E-1,-8.939227462E-1,-9.334893227E-1
1.091085100E1,1.370432526E-1,-1.452463031E0,-8.621053696E-1
1.093085256E1,3.867649660E-2,-1.562540889E0,-6.598217487E-1
1.095285256E1,-2.186199427E-1,-1.313150764E0,-5.902005434E-1
1.097285256E1,-6.678502560E-1,-7.976852655E-1,-6.278298497E-1
1.099285256E1,-1.094129443E0,-1.911484599E-1,-6.027320027E-1
1.101285256E1,-1.144517064E0,1.426283121E-1,-4.957782328E-1
1.103285256E1,-8.802044392E-1,2.846283019E-1,-2.668433785E-1
1.105485256E1,-5.721014738E-1,4.397880733E-1,-3.544763848E-2
1.107685256E1,-3.471634388E-1,6.985680461E-1,1.034805700E-1
1.109685256E1,-2.709449232E-1,8.062199354E-1,1.505870074E-1
1.111885256E1,-4.417602718E-1,3.473379612E-1,4.321435094E-2
1.113885256E1,-5.922600031E-1,-3.199363053E-1,-1.149124801E-1
1.115885256E1,-5.152211785E-1,-7.089527249E-1,-1.566781998E-1
1.117885256E1,-1.592263877E-1,-5.785417557E-1,-4.091051593E-2
1.119885569E1,1.426457614E-1,-1.530304700E-1,2.132617831E-1
1.122085256E1,1.558404416E-1,5.411742330E-1,4.009719491E-1
1.124285256E1,-9.775589406E-2,1.055924177E0,3.012961745E-1
1.126485256E1,-2.705958486E-1,1.316414595E0,2.713463306E-1
1.128487131E1,-7.243116200E-2,1.266061783E0,3.422067165E-1
1.130685256E1,3.363423944E-1,9.004153609E-1,5.998696685E-1
1.132885256E1,6.782523990E-1,4.684289098E-1,8.955458999E-1
1.135085256E1,8.887565732E-1,1.778490543E-1,1.071038723E0
1.137085256E1,9.430537224E-1,-3.768165782E-2,1.043567300E0
1.139085256E1,8.737641573E-1,-1.580221057E-1,8.838172555E-1
1.141085256E1,7.359355092E-1,-1.759640872E-1,7.299839854E-1
1.143085256E1,5.941100717E-1,-1.894729435E-1,6.083170772E-1
1.145085256E1,4.244640768E-1,-2.225294858E-1,4.707152843E-1
1.147085256E1,2.776818871E-1,-2.214648277E-1,3.062180281E-1
1.149085256E1,1.173035800E-1,-2.923251987E-1,1.533795297E-1
1.151085256E1,-1.129053459E-1,-4.166275561E-1,1.295034308E-2
1.153085256E1,-3.693291247E-1,-4.894950390E-1,-5.030038953E-2
1.155285100E1,-5.214345455E-1,-5.308069587E-1,2.513274085E-3
1.157285256E1,-5.491504073E-1,-3.734132051E-1,1.087514684E-1
1.159285256E1,-6.461034417E-1,-6.365215778E-2,1.891936958E-1
1.161285256E1,-7.556402683E-1,9.801769257E-2,2.489363104E-1
1.163485256E1,-6.867172718E-1,-4.223696887E-2,2.443111837E-1
1.165685256E1,-6.836105585E-1,-4.293859005E-1,1.276010275E-1
1.167685256E1,-6.507285833E-1,-7.364416718E-1,1.107760444E-1
1.169885256E1,-4.227536619E-1,-7.083767653E-1,2.731789351E-1
1.171885256E1,1.361356815E-3,-3.753156066E-1,6.886196733E-1
1.173885256E1,5.333551764E-1,-7.346090674E-2,1.149212003E0
1.175885256E1,9.504888654E-1,1.683544517E-1,1.376925111E0
1.178085256E1,1.085472584E0,2.949606478E-1,1.298699498E0
1.180085256E1,1.064947605E0,2.619215548E-1,1.066099405E0
1.182285256E1,1.128215790E0,2.583261728E-1,7.745945454E-1
1.184485256E1,1.293603182E0,4.183379710E-1,4.987278283E-1
1.186685256E1,1.421343803E0,6.203249097E-1,2.617993951E-1
1.188885256E1,1.309974313E0,7.977899909E-1,1.532748193E-1
1.190885413E1,9.164723754E-1,8.579340577E-1,1.210909411E-1
1.193085256E1,4.176747501E-1,7.799876332E-1,5.635667965E-2
1.195085256E1,-1.596976258E-2,7.396356463E-1,-1.479690075E-1
1.197085256E1,-4.164879322E-1,5.541943908E-1,-3.988077343E-1
1.199085256E1,-5.379977226E-1,2.966012657E-1,-6.381447315E-1
1.201085256E1,-4.854982495E-1,8.459610492E-2,-9.151633978E-1
1.203085256E1,-5.144357681E-1,5.061454605E-3,-1.193351388E0
1.205085256E1,-6.148620248E-1,4.468042776E-2,-1.348860264E0
1.207085256E1,-6.666284800E-1,5.867796764E-2,-1.312033772E0
1.209085256E1,-5.356938839E-1,4.094542563E-2,-1.176421762E0
1.211085256E1,-4.073074758E-1,-1.036376506E-1,-1.031192899E0
1.213085256E1,-2.688330710E-1,-3.695036471E-1,-8.767486811E-1
1.215085256E1,-1.350186765E-1,-5.293059945E-1,-6.625095010E-1
1.217085256E1,-7.878416032E-2,-5.999220014E-1,-3.527484834E-1
1.219085256E1,-1.283689588E-1,-7.294603586E-1,-2.150071114E-1
1.221085256E1,-1.230457127E-1,-7.621852756E-1,-3.072826564E-1
1.223085256E1,-5.127777159E-2,-6.336592436E-1,-4.418999255E-1
1.225085256E1,1.204102635E-1,-3.335324228E-1,-3.840596974E-1
1.227085256E1,3.492752910E-1,-4.804891348E-2,-1.270076036E-1
1.229085256E1,5.385562181E-1,1.952848881E-1,2.665117681E-1
1.231285256E1,6.652845740E-1,5.151339173E-1,6.104289293E-1
1.233485256E1,6.978000998E-1,8.621751666E-1,7.235785723E-1
1.235685100E1,6.620731950E-1,1.167712569E0,7.843858600E-1
1.237685256E1,6.489832401E-1,1.214016080E0,8.546877503E-1
1.239885256E1,7.091796398E-1,8.659625649E-1,1.022291660E0
1.241885256E1,8.498182893E-1,5.935865045E-1,1.247613668E0
1.243885256E1,9.589711428E-1,5.909160972E-1,1.491279125E0
1.245885256E1,9.356361032E-1,7.776489258E-1,1.602212191E0
1.247885256E1,7.628310323E-1,8.083143234E-1,1.505206823E0
1.249885256E1,5.541943908E-1,5.336518884E-1,1.262588620E0
1.252085100E1,4.762130976E-1,6.471680850E-2,9.886766672E-1
1.254085100E1,5.485744476E-1,-2.843141258E-1,7.441909313E-1
1.256085100E1,4.849746227E-1,-4.975759089E-1,4.759163857E-1
1.258085100E1,2.546609938E-1,-5.199859142E-1,1.940457076E-1
1.260085100E1,1.644100063E-2,-4.535412490E-1,-9.459684603E-3
1.262085100E1,-1.258382350E-1,-3.592934906E-1,-1.440594792E-1
1.264085256E1,-2.387959510E-1,-1.766273230E-1,-3.017150760E-1
1.266285100E1,-4.282165170E-1,-5.146975815E-2,-4.818330407E-1
1.268285100E1,-6.584952474E-1,-3.012438305E-2,-5.764299035E-1
1.270285100E1,-7.789753675E-1,1.481784582E-1,-4.715530574E-1
1.272285100E1,-7.335095406E-1,4.250923991E-1,-2.480112910E-1
1.274285100E1,-7.320783734E-1,4.665090442E-1,-1.919862181E-1
1.276285100E1,-8.684409261E-1,2.059663087E-1,-4.163482785E-1
1.278285100E1,-8.064817190E-1,-4.014257342E-3,-5.739864111E-1
1.280285100E1,-4.253891110E-1,-3.209834993E-1,-4.722861052E-1
1.282285100E1,-2.424262278E-2,-7.005751729E-1,-1.758419275E-1
1.284285100E1,1.605877429E-1,-7.970395088E-1,1.418778151E-1
1.286285100E1,1.241801754E-1,-4.308345318E-1,1.998751014E-1
1.288285100E1,9.998991340E-2,-6.646213681E-2,4.251622036E-2
1.290285100E1,2.560048997E-1,2.092824280E-1,-1.671152711E-1
1.292285100E1,3.545112908E-1,3.765896857E-1,-2.568252087E-1
1.294285100E1,2.891486883E-1,4.694586694E-1,-2.531076372E-1
1.296285100E1,2.347642332E-1,5.939006209E-1,-1.818458587E-1
1.298285100E1,2.820452154E-1,6.584778428E-1,-1.266585439E-1
1.300285412E1,3.252595663E-1,5.983512402E-1,-1.330289990E-1
1.302485100E1,2.157576084E-1,3.304781020E-1,-1.347045153E-1
1.304485100E1,7.698646933E-2,9.770353138E-2,-1.099382862E-1
1.306485100E1,1.689478755E-2,1.151917316E-2,-1.077566296E-1
1.308486975E1,5.605997518E-2,4.956734926E-2,-9.197884798E-2
1.310685100E1,4.146902263E-2,5.806710571E-2,-2.994984947E-2
1.312685100E1,2.443460980E-3,-1.623156108E-2,5.174901336E-2
1.314685100E1,4.303981736E-2,-1.259255111E-1,1.149822921E-1
1.316685100E1,5.677555874E-2,-2.329665422E-1,2.185850292E-1
1.318685100E1,-2.619739249E-2,-1.647590846E-1,3.664493263E-1
1.320685100E1,-7.431612164E-2,2.029817849E-1,4.925668240E-1
1.322685256E1,-2.186897583E-2,5.017821789E-1,6.150365472E-1
1.324885569E1,1.494001877E-2,5.578246713E-1,7.475594282E-1
1.327085100E1,9.250245057E-4,2.789210677E-1,6.587570906E-1
1.329085256E1,8.820894361E-2,6.136577576E-2,3.178419173E-1
1.331285100E1,3.857177496E-1,7.429866493E-2,1.709724516E-1
1.333285100E1,7.484495640E-1,2.014459074E-1,2.592861056E-1
1.335286506E1,8.359952569E-1,3.401821256E-1,3.944793046E-1
1.337485100E1,4.784471095E-1,1.976410896E-1,5.386260748E-1
1.339485100E1,1.632231921E-1,-6.384414434E-2,6.020687819E-1
1.341485100E1,6.546729803E-2,-2.539279461E-1,5.400223136E-1
1.343485100E1,7.400196046E-2,-1.971523911E-1,3.714584112E-1
1.345485100E1,2.373647876E-3,1.110029407E-2,2.483952641E-1
1.347485100E1,-1.468520015E-1,2.323905826E-1,2.545562685E-1
1.349485100E1,-1.540602148E-1,4.246211648E-1,3.800629079E-1
1.351485100E1,-5.738642439E-2,5.732533932E-1,5.135456920E-1
1.353485100E1,-8.761553094E-3,6.295925975E-1,5.953841805E-1
1.355485256E1,-4.986405745E-2,5.900608897E-1,6.161710620E-1
1.357685256E1,-4.656538367E-2,3.823667169E-1,5.745449066E-1
1.359885100E1,4.328416660E-3,9.096655995E-2,4.376238585E-1
1.361885881E1,9.499827027E-2,-6.951646507E-2,3.245265186E-1
1.364085100E1,1.951278150E-1,-6.377433240E-2,3.070557714E-1
1.366085100E1,2.117957026E-1,-1.349139493E-2,2.783800066E-1
1.368085100E1,1.298001409E-1,-4.965461791E-2,1.789311469E-1
1.370085100E1,3.349286690E-2,-1.179144457E-1,1.867502369E-2
1.372085100E1,-3.689625859E-2,-1.100604609E-1,-7.911577821E-2
1.374085100E1,-1.638689637E-1,-7.244861871E-2,-1.167450696E-1
1.376085100E1,-3.642153144E-1,-5.333726108E-2,-9.840166569E-2
1.378085100E1,-5.655564666E-1,-1.118232459E-1,-9.615018964E-2
1.380085100E1,-6.608165503E-1,-1.311614960E-1,-7.117452472E-2
1.382085100E1,-6.080378294E-1,-7.405432314E-2,3.893829510E-2
1.384085100E1,-4.702091515E-1,3.649483621E-2,1.145110503E-1
1.386085100E1,-6.028716564E-1,-6.967354566E-2,2.398082428E-2
1.388085100E1,-1.058158159E0,-4.725827873E-1,-2.711194456E-1
1.390085256E1,-1.271629453E0,-9.389522076E-1,-5.435130000E-1
1.392285100E1,-7.345218062E-1,-1.326345563E0,-5.459215641E-1
1.394285100E1,1.243372560E-1,-1.277179599E0,-3.304781020E-1
1.396285100E1,6.490705013E-1,-7.751356363E-1,-1.397310644E-1
1.398285100E1,6.298020482E-1,-9.290387481E-2,-1.679355800E-1
1.400285412E1,2.829178572E-1,3.710221052E-1,-3.507762849E-1
1.402485256E1,-3.666936606E-2,7.036818266E-1,-5.104215145E-1
1.404685100E1,-8.752825856E-2,7.944738865E-1,-5.520825386E-1
1.406685100E1,2.188642882E-2,6.337465048E-1,-5.673542023E-1
1.408685256E1,1.470090896E-1,3.031636775E-1,-5.653994083E-1
1.410886819E1,2.143438905E-1,-6.199409440E-2,-5.044350624E-1
1.413085256E1,1.838704348E-1,-2.949082851E-1,-4.087037444E-1
1.415285100E1,1.623156108E-2,-3.302337527E-1,-3.682819307E-1
1.417285725E1,-2.301740199E-1,-2.546435297E-1,-3.306351602E-1
1.419485100E1,-4.290542901E-1,-1.706582904E-1,-2.748195529E-1
1.421485100E1,-4.539601505E-1,-1.506393701E-1,-2.652900517E-1
1.423485100E1,-4.284608662E-1,-2.705260217E-1,-3.325724900E-1
1.425485100E1,-4.901931584E-1,-4.694586694E-1,-4.641005099E-1
1.427485100E1,-4.824264646E-1,-5.706528425E-1,-5.250822902E-1
1.429485100E1,-3.976034522E-1,-5.617691278E-1,-4.595277309E-1
1.431485100E1,-3.647912741E-1,-5.244365335E-1,-3.168645203E-1
1.433485100E1,-2.406809032E-1,-3.254864514E-1,-8.758062124E-2
1.435485100E1,-3.494149074E-2,9.663888067E-2,1.222777665E-1
1.437485100E1,2.675589733E-2,5.336169600E-1,2.596351802E-1
1.439485100E1,-1.138652787E-1,7.664962411E-1,2.874208093E-1
1.441485256E1,-2.524793148E-1,7.334746122E-1,2.992366850E-1
1.443685256E1,-1.167450696E-1,3.895924091E-1,3.621907234E-1
1.445885256E1,4.937885404E-1,3.577052355E-1,5.523443222E-1
1.447885256E1,1.114357829E0,5.819451213E-1,8.733801842E-1
1.449885256E1,1.241487622E0,6.765943170E-1,1.241923928E0
1.451885256E1,8.283507228E-1,5.780355930E-1,1.538525224E0
1.453885256E1,3.863984346E-1,4.519704580E-1,1.615406990E0
1.455885256E1,2.127556354E-1,3.139149249E-1,1.482447743E0
1.457885256E1,1.799608916E-1,2.969852388E-1,1.267458081E0
1.459885881E1,8.557349443E-2,5.154655576E-1,1.125196338E0
1.462085569E1,-5.216789246E-2,7.541044354E-1,1.129664302E0
1.464285100E1,-1.949532703E-2,6.716201305E-1,1.150922418E0
1.466285256E1,1.399928629E-1,4.056145251E-1,1.124166608E0
1.468285256E1,2.815914154E-1,1.429773718E-1,1.069014192E0
1.470485256E1,3.292563558E-1,6.998769939E-2,9.376432300E-1
1.472685256E1,2.942101657E-1,1.732588410E-1,7.807206511E-1
1.474885256E1,2.112546563E-1,2.379232794E-1,6.853384376E-1
1.476885256E1,1.565560400E-1,1.740093231E-1,6.081250906E-1
1.478885412E1,1.515818387E-1,7.621853054E-2,5.425530672E-1
1.481085256E1,2.000147253E-1,1.518436475E-3,5.368283987E-1
1.483085256E1,2.525666058E-1,-2.069960535E-2,5.108404160E-1
1.485085256E1,2.348165959E-1,-5.251695588E-2,4.188790321E-1
1.487085256E1,1.295557916E-1,-1.449844986E-1,2.962696254E-1
1.489085256E1,-5.707226694E-3,-3.130073547E-1,1.589994878E-1
1.491285100E1,-1.478468478E-1,-4.472929835E-1,2.597049996E-2
1.493285100E1,-2.064026296E-1,-4.121420383E-1,1.815142483E-2
1.495285256E1,-6.274458766E-2,-3.316125600E-3,1.692794859E-1
1.497285256E1,9.093165398E-2,2.836334705E-1,2.386912256E-1
1.499285256E1,7.295475900E-2,2.915921509E-1,1.426108479E-1
1.501285256E1,-6.091198884E-3,2.755002081E-1,-1.305506285E-2
1.503285256E1,-1.209513191E-2,1.162389293E-1,-3.719296679E-2
1.505485256E1,1.773254573E-2,-2.193529755E-1,8.286823332E-2
1.507685256E1,8.578293025E-2,-5.754175782E-1,1.582140923E-1
1.509685256E1,1.489987522E-1,-5.624323487E-1,1.950929016E-1
1.511885256E1,1.835388243E-1,-2.148500271E-2,2.166302651E-1
1.513885256E1,9.805259854E-2,4.095589519E-1,1.249481216E-1
1.515886506E1,-3.515093029E-2,4.948357344E-1,-2.565634064E-2
1.517886506E1,-1.594183743E-1,2.855533063E-1,-2.152514607E-1
1.520085100E1,-2.018124163E-1,2.200860158E-2,-3.304431736E-1
1.522085256E1,-1.747598201E-1,-1.015781611E-2,-3.729070425E-1
1.524285256E1,-1.614080518E-1,3.413863853E-2,-3.409151733E-1
1.526485256E1,-1.743060350E-1,7.531096041E-2,-2.601936758E-1
1.528487131E1,-2.038020939E-1,6.352998316E-3,-1.589645892E-1
1.530685256E1,-2.728822231E-1,-1.278977245E-1,-6.042329967E-2
1.532885256E1,-3.052406311E-1,-2.308197916E-1,-6.241297349E-2
1.534885412E1,-2.369982600E-1,-1.859997362E-1,-7.751007378E-2
1.537085256E1,-1.788962483E-1,-4.836307466E-2,-2.380629070E-2
1.539085256E1,-1.573588848E-1,1.532573551E-1,4.248131439E-2
1.541085256E1,-1.364149302E-1,4.558450878E-1,1.474628747E-1
1.543085256E1,-2.131046951E-1,8.311606646E-1,1.682671905E-1
1.545085256E1,-4.230154455E-1,1.040128946E0,2.263692021E-2
1.547085256E1,-6.008644700E-1,1.131811142E0,-1.496096253E-1
1.549085256E1,-6.864030957E-1,9.724625349E-1,-1.833642870E-1
1.551085256E1,-7.413111329E-1,6.183875799E-1,-4.794419557E-2
1.553285256E1,-7.061253190E-1,2.296504229E-1,1.183158681E-1
1.555485256E1,-3.419449031E-1,9.669124149E-3,2.860071063E-1
1.557685256E1,1.768716723E-1,2.398256958E-1,5.898340344E-1
1.559685256E1,4.137826562E-1,4.903851449E-1,8.871682882E-1
1.561885256E1,2.627243996E-1,2.151816487E-1,1.102000833E0
1.563885256E1,-5.916666240E-3,-4.593183100E-1,1.121984959E0
1.565885256E1,-8.173377067E-2,-9.665458798E-1,9.266825914E-1
1.567885256E1,-4.614650458E-2,-9.368752837E-1,7.366860509E-1
1.569885256E1,-9.339256585E-2,-5.655041337E-1,6.775019169E-1
1.571885256E1,-1.541823894E-1,-1.213178337E-1,7.905468941E-1
1.574085100E1,-9.464920312E-2,1.645496339E-1,1.001679301E0
1.576085256E1,5.862560868E-2,2.040638924E-1,1.103693843E0
1.578085256E1,1.940631568E-1,9.976302087E-2,1.103885889E0
1.580085256E1,2.410648763E-1,-1.189267337E-1,1.021768093E0
1.582285256E1,2.525666058E-1,-4.406432807E-1,8.687725663E-1
1.584485256E1,3.226415515E-1,-6.461209059E-1,7.179237604E-1
1.586685256E1,4.197866023E-1,-6.383017898E-1,5.359033346E-1
1.588886662E1,4.943296015E-1,-5.047317743E-1,3.221703172E-1
1.591085256E1,4.944692254E-1,-3.535513580E-1,1.148252115E-1
1.593085256E1,4.929507971E-1,-8.223991096E-2,2.197369561E-2
1.595285100E1,4.586550593E-1,2.623578906E-1,1.403244678E-2
1.597285100E1,2.134537697E-1,2.369808108E-1,-4.909611121E-2
1.599285100E1,-1.884781122E-1,-8.494517207E-2,-1.929985136E-1
1.601285412E1,-4.928111732E-1,-2.422516942E-1,-3.261671364E-1
1.603485100E1,-5.839347839E-1,-7.178539038E-2,-3.770783842E-1
1.605485100E1,-5.505117774E-1,2.397907823E-1,-2.993065119E-1
1.607485100E1,-5.224468708E-1,4.520053566E-1,-1.817934960E-1
1.609485100E1,-5.978101492E-1,4.222649634E-1,-1.025380939E-1
1.611485100E1,-6.987251043E-1,3.685786426E-1,-1.889493465E-1
1.613485100E1,-6.879389882E-1,3.131295145E-1,-2.957634926E-1
1.615485100E1,-6.749711633E-1,-3.481931984E-1,-4.660552740E-1
1.617485100E1,-4.809778333E-1,-1.006252170E0,-4.936314821E-1
1.619485100E1,-6.400122494E-2,-1.006077647E0,-3.285582364E-1
1.621485100E1,2.979277074E-1,-4.969126880E-1,-3.693116829E-2
1.623485100E1,3.888418972E-1,1.296430528E-1,2.385516018E-1
1.625485100E1,3.216292858E-1,5.482253432E-1,2.974739075E-1
1.627485100E1,3.827681541E-1,8.149640560E-1,2.304009199E-1
1.629485100E1,6.198536754E-1,9.883275628E-1,1.535540670E-1
1.631485100E1,8.994030952E-1,1.065122128E0,2.003637999E-1
1.633485256E1,1.008573413E0,9.542413354E-1,1.982519478E-1
1.635485256E1,9.846972823E-1,8.661370873E-1,1.379857361E-1
1.637685256E1,8.493295908E-1,1.005047798E0,-4.331907257E-2
1.639885256E1,4.501029551E-1,8.727518916E-1,-2.221105993E-1
1.641886350E1,7.862707973E-2,4.007450342E-1,-2.713812590E-1
1.644085256E1,-1.410226058E-2,-6.208136305E-2,-1.567131132E-1
1.646085256E1,1.232027933E-1,-2.808060348E-1,3.246312216E-2
1.648285100E1,3.364645839E-1,-1.309695095E-1,2.546958923E-1
1.650285100E1,2.639112473E-1,1.000073645E-2,2.794621289E-1
1.652285256E1,9.124581516E-2,1.281071641E-2,2.621833682E-1
1.654285256E1,-1.466076588E-3,3.195697814E-2,2.119178772E-1
1.656485256E1,-1.134464052E-2,5.792747810E-2,1.583013684E-1
1.658487131E1,2.731440216E-2,1.414414793E-1,9.393361956E-2
1.660685100E1,6.684610993E-2,3.785444498E-1,-1.277581044E-2
1.662685256E1,-1.088387296E-1,2.001892626E-1,-9.213592857E-2
1.664885725E1,-5.101248026E-1,-3.236713111E-1,-1.857204884E-1
1.667085256E1,-5.408251882E-1,-6.427000165E-1,-2.608918250E-1
1.669085256E1,8.044222742E-2,-2.896024883E-1,-2.096315026E-1
1.671085256E1,7.012907267E-1,2.937389165E-2,-4.565781355E-2
1.673285100E1,6.015800834E-1,-3.585429788E-1,1.887573600E-1
1.675285256E1,-7.784168236E-3,-8.953887820E-1,2.400525808E-1
1.677285256E1,-4.937012792E-1,-7.387455106E-1,1.681450158E-1
1.679485100E1,-6.062052250E-1,-2.018996924E-1,1.571145356E-1
1.681485100E1,-4.563337862E-1,1.280897111E-1,2.951177359E-1
1.683485100E1,-2.565459311E-1,3.104591668E-1,4.889016151E-1
1.685485100E1,-1.188569218E-1,3.661351800E-1,6.243042946E-1
1.687485100E1,-1.987930015E-2,4.118976891E-1,7.592706084E-1
1.689485100E1,6.009168550E-2,4.614126980E-1,8.381943703E-1
1.691485100E1,9.688322991E-2,4.253891110E-1,8.124158382E-1
1.693485100E1,9.808750451E-2,2.807885706E-1,6.835058331E-1
1.695485100E1,1.193979755E-1,7.897614688E-2,4.931078851E-1
1.697485100E1,1.391027421E-1,-6.548475474E-2,2.395987958E-1
1.699485100E1,9.091419727E-2,-1.384046078E-1,2.583087236E-2
1.701485100E1,-2.303834539E-3,-9.946631640E-2,-1.295383424E-1
1.703485100E1,-1.503775716E-1,-2.879793290E-3,-1.982693970E-1
1.705485100E1,-3.320837915E-1,3.368485486E-3,-2.390403003E-1
1.707485100E1,-5.299517512E-1,-1.196772233E-1,-3.093421459E-1
1.709485100E1,-7.575427294E-1,-3.617020249E-1,-3.818256855E-1
1.711485100E1,-9.046216011E-1,-5.502673984E-1,-4.516213834E-1
1.713485100E1,-9.017592669E-1,-5.600587130E-1,-4.501902163E-1
1.715485100E1,-7.346788645E-1,-2.459343374E-1,-3.344050944E-1
1.717485100E1,-5.530424714E-1,1.453161091E-1,-1.549852341E-1
1.719485881E1,-6.316346526E-1,2.429498360E-2,-1.262745708E-1
1.721685100E1,-8.111766577E-1,-5.355193615E-1,-2.714161575E-1
1.723685100E1,-6.624920964E-1,-7.184647918E-1,-3.000569940E-1
1.725685100E1,-4.918337986E-2,-7.694982290E-1,-1.204277202E-1
1.727685100E1,7.199134231E-1,-6.847624779E-1,1.825614423E-1
1.729685100E1,1.131357312E0,-4.714832306E-1,3.637266159E-1
1.731685100E1,1.037894964E0,-1.751088798E-1,2.502453029E-1
1.733685100E1,6.877295375E-1,2.416059226E-1,-6.417575479E-2
1.735685100E1,3.352079391E-1,6.797184944E-1,-3.883357644E-1
1.737685100E1,9.323548526E-2,8.392939568E-1,-6.174975038E-1
1.739685100E1,2.110103145E-2,8.864527345E-1,-9.540667534E-1
1.741685100E1,1.459793448E-1,1.022169471E0,-1.420628190E0
1.743685100E1,4.154058099E-1,7.510849833E-1,-1.744456530E0
1.745685100E1,7.618013024E-1,3.173532188E-1,-1.728905678E0
1.747685100E1,9.077631831E-1,1.115963534E-1,-1.494176388E0
1.749685100E1,7.659028172E-1,1.145285070E-1,-1.090970397E0
1.751685100E1,4.327369332E-1,1.633279175E-1,-6.108826995E-1
1.753685100E1,5.515240505E-2,5.473352596E-2,-9.293878078E-2
1.755685100E1,-2.902831733E-1,-2.678905725E-1,3.766944110E-1
1.757685100E1,-4.880813360E-1,-6.551442146E-1,7.158817053E-1
1.759685100E1,-4.613428712E-1,-8.594699502E-1,8.270068169E-1
1.761685100E1,-3.674790859E-1,-9.851859808E-1,6.990218163E-1
1.763685100E1,-4.122991264E-1,-1.075716257E0,5.694311261E-1
1.765685100E1,-5.430766344E-1,-1.176840663E0,5.945115089E-1
1.767685100E1,-7.646985650E-1,-1.037510991E0,6.565405130E-1
1.769685100E1,-8.858243823E-1,-3.531499207E-1,6.221400499E-1
1.771685100E1,-7.871086001E-1,3.269176185E-1,5.036845803E-1
1.773685100E1,-5.273337960E-1,7.397229075E-1,3.819129467E-1
1.775685100E1,-1.999798268E-1,1.102472067E0,3.120474219E-1
1.777685100E1,7.398450375E-2,1.282921672E0,3.823318183E-1
1.779685100E1,3.316649199E-1,1.156647086E0,5.440191031E-1
1.781685100E1,5.303706527E-1,7.116230726E-1,7.041705251E-1
1.783685100E1,5.844060183E-1,1.221206859E-1,7.774045467E-1
1.785685100E1,5.455549955E-1,-3.038269281E-1,7.660424709E-1
1.787685100E1,4.771730304E-1,-2.846457362E-1,6.616717577E-1
1.789685100E1,3.541971147E-1,3.316125658E-4,4.854807854E-1
1.791685100E1,1.830326766E-1,3.793298602E-1,3.668332994E-1
1.793685100E1,7.890633494E-2,5.850518346E-1,3.639011383E-1
1.795685100E1,1.041437984E-1,6.433981657E-1,4.815363288E-1
1.797685100E1,2.611012459E-1,6.747617126E-1,6.755296588E-1
1.799685100E1,4.316897392E-1,6.591061354E-1,8.006348610E-1
1.801685100E1,4.623726308E-1,5.200033784E-1,8.263784647E-1
1.803685100E1,3.062703907E-1,2.668783069E-1,7.588691711E-1
1.805685100E1,1.645496339E-1,-2.869321220E-2,6.726149917E-1
1.807685100E1,1.920385808E-1,-2.185152173E-1,5.823290944E-1
1.809685100E1,2.371204346E-1,-2.646617293E-1,5.250822902E-1
1.811685100E1,1.599070728E-1,-2.514146864E-1,4.384616017E-1
1.813685100E1,4.579744115E-2,-3.703588545E-1,2.932502329E-1
1.815685100E1,-9.480628371E-2,-5.917189717E-1,1.720371097E-1
1.817685100E1,-1.644798219E-1,-8.352796435E-1,7.958701812E-3
1.819685100E1,-1.083325893E-1,-1.101232886E0,-1.488067657E-1
1.821685100E1,3.138101846E-2,-9.706823230E-1,-1.977109015E-1
1.823685100E1,1.370781660E-1,-4.540299475E-1,-1.036725566E-1
1.825685100E1,1.369210780E-1,1.515818387E-1,4.796164855E-2
1.827685100E1,-1.097637564E-1,2.568950057E-1,2.085842937E-1
1.829685256E1,-4.520577192E-1,-2.050936371E-1,5.419247225E-2
1.831885100E1,-4.605923891E-1,-3.895924091E-1,-3.180164397E-1
1.833885256E1,2.272418700E-2,-3.341432810E-1,-4.196993113E-1
1.836085100E1,6.718993783E-1,-4.010417461E-1,-2.941578031E-1
1.838085100E1,7.718718648E-1,-4.000294507E-1,-2.319018990E-1
1.840085100E1,3.508111835E-1,-6.194173545E-2,-3.957359493E-1
1.842085100E1,-7.180284709E-2,5.312083960E-1,-6.989170909E-1
1.844085100E1,-1.611637026E-1,1.024717689E0,-9.132435322E-1
1.846085100E1,-2.900737152E-2,1.228205681E0,-1.003477097E0
1.848085100E1,6.253514439E-2,1.064581037E0,-1.009096980E0
1.850085100E1,6.796312332E-2,7.328288555E-1,-9.853954315E-1
1.852085100E1,2.268928074E-4,3.910584748E-1,-9.446420074E-1
1.854085100E1,-1.073377505E-1,9.347983450E-2,-8.347211480E-1
1.856085100E1,-2.171538621E-1,-1.034805700E-1,-7.284306288E-1
1.858085100E1,-2.900213599E-1,-1.686337143E-1,-6.439391971E-1
1.860085100E1,-3.225019276E-1,-1.485624313E-1,-5.823290944E-1
1.862085100E1,-3.310714960E-1,-1.437627673E-1,-5.026199222E-1
1.864085100E1,-3.588047922E-1,-1.408480704E-1,-3.962770104E-1
1.866085100E1,-3.578972220E-1,-1.759815514E-1,-2.110975683E-1
1.868085100E1,-1.820727438E-1,-3.996803984E-2,1.000073645E-2
1.870085100E1,2.160717547E-2,1.616524011E-1,2.188119292E-1
1.872085100E1,-2.155481651E-2,2.545911670E-1,3.335847855E-1
1.874085100E1,-2.181836069E-1,1.151044667E-1,3.382797241E-1
1.876085100E1,-3.305304646E-1,4.619886354E-2,1.979901493E-1
1.878085256E1,-2.217789888E-1,2.395813465E-1,-1.698205434E-2
1.880285569E1,1.204277202E-2,3.876201808E-1,-8.518952131E-2
1.882485100E1,7.122688740E-2,-1.608320922E-1,-1.145634130E-1
1.884485100E1,1.002168059E-1,-5.484522581E-1,-9.363691509E-2
1.886485100E1,3.434284329E-1,-4.741361439E-1,5.763076991E-2
1.888486975E1,5.112593174E-1,-3.257133365E-1,2.362128645E-1
1.890685100E1,1.820378453E-1,-5.985257626E-1,3.477917612E-1
1.892685100E1,-2.695311904E-1,-9.838246703E-1,2.388483137E-1
1.894685100E1,-3.868173063E-1,-1.009166837E0,4.605923966E-2
1.896685100E1,-1.870294809E-1,-5.757492185E-1,-6.405358203E-3
1.898685100E1,-6.248278543E-2,-3.024655581E-2,1.150171980E-1
1.900685100E1,1.466076523E-1,5.338438749E-1,2.923077345E-1
1.902685100E1,2.859722078E-1,1.510233432E-1,5.049935579E-1
1.904685100E1,2.622880936E-1,2.359685116E-2,7.358307838E-1
1.906685100E1,1.787042618E-1,1.932079494E-1,7.204893827E-1
1.908685100E1,1.033933014E-1,4.455476403E-1,6.607990861E-1
1.910685100E1,9.292133152E-2,6.171483994E-1,5.690122247E-1
1.912685100E1,5.614724010E-2,5.463753343E-1,5.148197412E-1
1.914685100E1,1.041263416E-1,5.475272536E-1,4.610112607E-1
1.916685100E1,2.047620267E-1,6.648133397E-1,3.717551231E-1
1.918685100E1,2.208016068E-1,7.834433913E-1,3.895225823E-1
1.920685100E1,9.506808221E-2,9.269094467E-1,5.145754218E-1
1.922686975E1,-6.065019220E-2,9.479057789E-1,5.671272874E-1
1.924885725E1,-2.975611687E-1,7.279593945E-1,4.780631363E-1
1.927085256E1,-4.423885942E-1,3.782128394E-1,1.795245707E-1
1.929085881E1,-5.621181726E-1,1.155931577E-1,5.925392732E-2
1.931285100E1,-5.607568622E-1,4.906120524E-2,9.267698228E-2
1.933285100E1,-3.890862465E-1,1.914277077E-1,1.671327353E-1
1.935286506E1,-2.903006077E-1,-5.684537441E-2,1.090481728E-1
1.937485100E1,-3.580542803E-1,-3.960151970E-1,-1.189616397E-1
1.939485881E1,-4.626693428E-1,-7.311009765E-1,-4.352676570E-1
1.941685100E1,-1.670803726E-1,-5.923472643E-1,-3.613355160E-1
1.943685100E1,3.410896957E-1,-3.919136822E-1,-6.091199070E-2
1.945685412E1,6.348634958E-1,-3.710919023E-1,1.388933063E-1
1.947885256E1,4.845732152E-1,-4.233645201E-1,9.253735840E-2
1.950085100E1,2.103121728E-1,-3.021514118E-1,-1.167799830E-1
1.952085100E1,1.292067170E-1,-9.861110151E-2,-2.545737326E-1
1.954085100E1,2.195798755E-1,1.462411433E-1,-2.892534137E-1
1.956085100E1,3.759788275E-1,4.475896955E-1,-2.551671267E-1
1.958085725E1,4.164704680E-1,7.214493155E-1,-1.923701912E-1
1.960285256E1,2.904925942E-1,7.918209434E-1,-1.251052022E-1
1.962285412E1,2.184105068E-1,7.242592573E-1,-1.221730486E-1
1.964485100E1,2.276258469E-1,2.800729871E-1,-2.301914692E-1
1.966485100E1,3.192207217E-1,-2.179392576E-1,-3.909362853E-1
1.968487131E1,4.611159861E-1,-5.015203357E-1,-4.812221825E-1
1.970685100E1,5.589765906E-1,-4.153360128E-1,-4.227536619E-1
1.972685256E1,4.882209599E-1,-2.453758419E-1,-3.007725775E-1
1.974885881E1,2.369109988E-1,-5.314527452E-2,-1.024333760E-1
1.977085569E1,-9.330530465E-2,1.780235791E-3,2.429498360E-2
1.979285256E1,-3.145606816E-1,-2.532472648E-2,2.619739249E-2
1.981485100E1,-2.272244096E-1,-1.383522451E-1,3.474950418E-2
1.983485100E1,4.228932783E-2,-7.260569930E-2,1.166578084E-1
1.985485881E1,1.009323895E-1,1.178271770E-1,1.692445725E-1
1.987685256E1,-1.976934373E-1,2.966012657E-1,1.705710292E-1
1.989885256E1,-7.033851147E-1,-9.210102260E-2,7.770206034E-2
1.991885413E1,-8.484917879E-1,-4.743804932E-1,5.105087906E-2
1.994085256E1,-3.569721878E-1,-2.912954390E-1,1.988802701E-1
1.996285256E1,2.446253449E-1,1.316676438E-1,4.750088155E-1
1.998487131E1,5.173156038E-2,-9.529497474E-2,6.380225420E-1
2.000685256E1,-5.274210572E-1,-4.556356668E-1,5.394288898E-1
2.002685256E1,-6.816557646E-1,-4.186695814E-1,3.333753347E-1
2.004885256E1,-4.518831968E-1,-1.363276690E-1,2.946290374E-1
2.006885256E1,-2.015855312E-1,1.354026496E-1,3.927514255E-1
2.009085256E1,-6.592108309E-2,3.475125134E-1,5.437747836E-1
2.011085256E1,-2.967059612E-3,4.368035495E-1,6.527705789E-1
2.013085256E1,4.680972919E-2,4.227885604E-1,6.641501188E-1
2.015085256E1,6.970845163E-2,3.510206044E-1,6.154205203E-1
2.017085256E1,5.960299447E-2,1.385093331E-1,5.126206279E-1
2.019085256E1,5.759586394E-2,-8.396779001E-2,3.194301724E-1
2.021085256E1,1.118930578E-1,-2.352529317E-1,1.646369100E-1
2.023285100E1,1.665393114E-1,-4.014955461E-1,6.775368005E-2
2.025285256E1,2.198416740E-1,-3.780034184E-1,8.843583614E-2
2.027285569E1,3.310016990E-1,-1.912880838E-1,2.591464818E-1
2.029485100E1,3.557155430E-1,-9.808750823E-3,4.606796503E-1
2.031485256E1,2.226516455E-1,4.118977115E-3,4.839797914E-1
2.033685100E1,1.286307629E-2,-2.303834539E-3,3.297101557E-1
2.035685100E1,-1.692794859E-1,-1.049990058E-1,1.462760419E-1
2.037685256E1,-3.088709116E-1,-1.312313080E-1,7.948229462E-2
2.039885100E1,-3.873932660E-1,-7.871435024E-3,1.745852828E-1
2.041885100E1,-3.850196302E-1,9.974556416E-2,3.175277412E-1
2.043885100E1,-3.550872207E-1,1.783202887E-1,4.483750761E-1
2.045885100E1,-3.430095613E-1,-1.123817489E-1,5.055345893E-1
2.047885256E1,-2.920983136E-1,-5.687329769E-1,3.477917612E-1
2.050085100E1,-1.469741762E-1,-8.268322945E-1,9.569640458E-2
2.052085100E1,1.539554894E-1,-8.741655946E-1,-9.642943740E-2
2.054085100E1,4.720941186E-1,-6.168168187E-1,-1.998227388E-1
2.056085100E1,4.743979275E-1,-1.194328815E-1,-2.738246918E-1
2.058085100E1,9.358455241E-2,3.227288425E-1,-3.437949419E-1
2.060085100E1,-3.752283454E-1,5.912302732E-1,-3.857352138E-1
2.062085100E1,-6.167120934E-1,6.032730341E-1,-3.975510895E-1
2.064085100E1,-5.729392171E-1,4.259999692E-1,-4.383743405E-1
2.066085100E1,-3.761359155E-1,1.881464869E-1,-4.970174134E-1
2.068085100E1,-1.582315564E-1,5.618214980E-2,-5.042605400E-1
2.070085100E1,1.937315450E-3,5.592034757E-2,-4.453382194E-1
2.072085100E1,2.700024284E-2,7.766715437E-2,-3.723834455E-1
2.074085100E1,-9.862855822E-2,6.448991597E-2,-3.290120065E-1
2.076085100E1,-3.005980551E-1,-2.562143281E-2,-3.218736053E-1
2.078085100E1,-4.628089666E-1,-9.107127786E-2,-3.451388478E-1
2.080085100E1,-5.924869180E-1,7.731808722E-2,-3.577401340E-1
2.082085100E1,-7.022157907E-1,3.307398856E-1,-2.509957850E-1
2.084085100E1,-7.219554186E-1,5.139296651E-1,-7.408922911E-2
2.086085100E1,-6.711488962E-1,5.745972991E-1,9.349729121E-2
2.088085100E1,-5.204920769E-1,4.990769029E-1,1.679704934E-1
2.090085100E1,-2.994984984E-1,3.774972558E-1,1.803623289E-1
2.092085100E1,-1.320690662E-1,1.942551434E-1,1.432217211E-1
2.094085100E1,-4.625122529E-3,1.073377486E-2,4.434881732E-2
2.096085100E1,3.490658477E-2,1.256637042E-3,-3.394665569E-2
2.098085100E1,-7.476990670E-2,2.323207706E-1,6.391395628E-2
2.100085100E1,-2.486570626E-1,4.002563655E-1,2.165430039E-1
2.102085100E1,-3.082600534E-1,3.915297091E-1,2.305929065E-1
2.104085100E1,-1.577428579E-1,2.786069214E-1,1.688082516E-1
2.106085100E1,1.502902955E-1,3.197792172E-1,2.313608378E-1
2.108085100E1,3.295007050E-1,2.075196505E-1,3.999072909E-1
2.110085100E1,2.093173414E-1,-1.839926094E-1,5.172806978E-1
2.112085100E1,-9.485864639E-2,-6.857922077E-1,4.702091515E-1
2.114085100E1,-2.940879762E-1,-8.022580147E-1,3.231128156E-1
2.116085100E1,-2.994810343E-1,-5.388529301E-1,2.283414304E-1
2.118085100E1,-1.172512174E-1,-1.377239376E-1,3.338291347E-1
2.120085100E1,1.275661141E-1,2.673844397E-1,5.358335376E-1
2.122085100E1,2.845759392E-1,4.723733664E-1,7.358482480E-1
2.124085100E1,3.822794557E-1,4.479736686E-1,8.676206470E-1
2.126085100E1,4.297175109E-1,2.328094691E-1,8.377580643E-1
2.128085100E1,4.426329434E-1,-7.194247097E-2,6.360328794E-1
2.130085100E1,4.919908643E-1,-5.017821789E-1,3.177371919E-1
2.132085100E1,6.188064814E-1,-9.573829174E-1,3.776892647E-2
2.134085100E1,7.532142997E-1,-1.182547808E0,-8.590510488E-2
2.136085100E1,8.307068944E-1,-1.205725789E0,-1.141619831E-1
2.138085100E1,8.119795322E-1,-1.101878762E0,-1.194154248E-1
2.140085100E1,6.358932853E-1,-9.278170466E-1,-1.599768847E-1
2.142085100E1,2.238733768E-1,-6.188064814E-1,-2.029468864E-1
2.144085100E1,-3.585080802E-1,-3.357140720E-1,-2.224771231E-1
2.146085100E1,-8.260468841E-1,-1.240056455E-1,-2.402794808E-1
2.148085100E1,-1.195114255E0,-2.549227774E-1,-2.943323255E-1
2.150085100E1,-1.314320207E0,-7.109249830E-1,-3.178244531E-1
2.152085100E1,-9.964084625E-1,-1.062085152E0,-2.895152271E-1
2.154085100E1,-8.853182793E-1,-8.177739978E-1,-1.562069654E-1
2.156085100E1,-1.313081026E0,-3.969751298E-1,5.576327071E-2
2.158085100E1,-1.483093500E0,4.014257342E-3,2.469291836E-1
2.160085100E1,-7.990117073E-1,2.303311080E-1,5.778436065E-1
2.162085100E1,3.534640670E-1,3.750014305E-1,9.226682782E-1
2.164085100E1,1.191222072E0,4.582710862E-1,1.161638737E0
2.166085100E1,1.380799770E0,5.985432267E-1,1.296657443E0
2.168085100E1,1.151376247E0,8.106356263E-1,1.179231763E0
2.170085100E1,8.865923285E-1,1.078630924E0,7.460235357E-1
2.172085100E1,6.950598955E-1,1.312051296E0,2.744006515E-1
2.174085100E1,5.901481509E-1,1.439285755E0,-1.248434037E-1
2.176085100E1,5.308244228E-1,1.371305227E0,-3.586651683E-1
2.178085100E1,4.578347802E-1,1.138582945E0,-4.232772589E-1
2.180085100E1,3.526786864E-1,7.986451983E-1,-3.637964427E-1
2.182085100E1,2.313084900E-1,3.715631366E-1,-2.973866463E-1
2.184085100E1,7.517132908E-2,-4.921828583E-2,-2.645046413E-1
2.186085100E1,-1.358738840E-1,-4.615523219E-1,-2.659532726E-1
2.188085100E1,-3.404264748E-1,-7.167194486E-1,-2.084621191E-1
2.190085100E1,-4.723210037E-1,-9.364215136E-1,-8.108799905E-2
2.192085100E1,-4.712389112E-1,-1.169370651E0,8.346164227E-2
2.194085100E1,-4.103443623E-1,-1.173786283E0,2.217091769E-1
2.196085100E1,-4.739965200E-1,-1.030163169E0,3.011391163E-1
2.198085100E1,-5.335646272E-1,-9.514836669E-1,3.553839326E-1
2.200085100E1,-4.579569399E-1,-9.005898833E-1,4.491953850E-1
2.202085100E1,-3.355220854E-1,-7.839844227E-1,4.840321541E-1
2.204085100E1,-2.999348342E-1,-4.929856956E-1,4.353549182E-1
2.206085100E1,-1.418952644E-1,1.328195538E-2,3.481408358E-1
2.208085100E1,1.029569730E-1,6.494195461E-1,2.456027269E-1
2.210085100E1,9.262461960E-2,9.838770032E-1,2.361081392E-1
2.212085100E1,-1.359262466E-1,6.542017460E-1,2.306278050E-1
2.214085100E1,-2.061582953E-1,1.175479218E-1,1.706233919E-1
2.216085100E1,4.370304570E-2,2.438225038E-2,2.166651785E-1
2.218085100E1,3.079982400E-1,1.366418302E-1,4.027870893E-1
2.220085100E1,2.797064781E-1,6.291911751E-2,6.717248559E-1
2.222085100E1,8.431685716E-2,-4.834562074E-3,8.603426218E-1
2.224085100E1,-3.160791099E-2,2.010270208E-1,8.713905215E-1
2.226085100E1,-7.124433666E-2,5.047841072E-1,8.020486236E-1
2.228085100E1,-5.592034757E-2,7.480131984E-1,7.490603924E-1
2.230085100E1,7.543312758E-2,7.858344913E-1,7.649603486E-1
2.232085100E1,3.118903339E-1,5.971120596E-1,8.088902831E-1
2.234085100E1,5.809503198E-1,2.624975145E-1,8.358207345E-1
2.236085100E1,8.135677576E-1,3.839724232E-3,7.863929868E-1
2.238085100E1,1.041298389E0,-1.898045540E-1,7.116056681E-1
2.240085100E1,1.316117883E0,-2.866703272E-1,6.151238680E-1
2.242085100E1,1.622248650E0,-4.759338200E-1,5.070006847E-1
2.244085100E1,1.898254991E0,-6.189635396E-1,3.908839524E-1
2.246085100E1,1.935954094E0,-4.855505824E-1,3.094294071E-1
2.248085100E1,1.603433967E0,4.225442186E-2,2.882062197E-1
2.250085100E1,1.008241773E0,5.876872540E-1,3.928212523E-1
2.252085100E1,3.450864851E-1,1.058804035E0,4.476245940E-1
2.254085100E1,-5.995380282E-1,1.471958280E0,2.326349318E-1
2.256085100E1,-1.702987552E0,1.824654460E0,-1.918116771E-2
2.258085100E1,-2.244406223E0,1.874378920E0,-2.461088747E-1
2.260085100E1,-2.090171337E0,1.595579982E0,-4.697379172E-1
2.262085100E1,-1.621515632E0,1.045085669E0,-4.315501153E-1
2.264085100E1,-1.194346309E0,4.461934268E-1,-2.797239125E-1
2.266284944E1,-1.127988815E0,-1.609542668E-1,-3.904825151E-1
2.268285100E1,-1.176404238E0,-6.186494231E-1,-5.675461888E-1
2.270285100E1,-7.476117611E-1,-9.493194818E-1,-3.654893935E-1
2.272285100E1,1.479690075E-1,-9.709091783E-1,-2.865830623E-2
2.274285100E1,8.397477269E-1,-6.831218600E-1,1.594183743E-1
2.276285100E1,8.577769399E-1,-4.402767420E-1,1.347568780E-1
2.278285100E1,5.512797236E-1,-2.282541543E-1,-1.267632693E-1
2.280285100E1,5.290442109E-1,4.852015153E-2,-4.320562482E-1
2.282285100E1,7.716798782E-1,2.363699377E-1,-6.356838346E-1
2.284285100E1,9.860761166E-1,2.735454440E-1,-6.829298735E-1
2.286285100E1,9.793915153E-1,2.328269184E-1,-6.463477612E-1
2.288285100E1,7.439640164E-1,9.562659264E-2,-6.274284124E-1
2.290285100E1,4.053178132E-1,-1.627519578E-1,-6.841515899E-1
2.292285100E1,1.297826767E-1,-3.924896419E-1,-8.498531580E-1
2.294285100E1,-5.672319978E-2,-4.809254706E-1,-9.836326838E-1
2.296285100E1,-1.687558889E-1,-4.302236736E-1,-1.034543872E0
2.298285100E1,-3.221528828E-1,-2.338217646E-1,-1.013774514E0
2.300285100E1,-5.779483318E-1,1.041263416E-1,-9.793217182E-1
2.302285256E1,-9.207135439E-1,4.767192304E-1,-9.903696179E-1
2.304485100E1,-1.265922189E0,1.006950259E0,-9.088802338E-1
2.306485100E1,-1.376453876E0,1.218204856E0,-6.315648556E-1
2.308486975E1,-1.122107029E0,9.492496848E-1,-2.885901928E-1
2.310685100E1,-5.039463639E-1,3.726277873E-2,8.412486874E-3
2.312685100E1,1.533271670E-1,-8.667654395E-1,2.417455465E-1
2.314685100E1,5.479635596E-1,-1.307722807E0,4.021587670E-1
2.316685100E1,4.966858029E-1,-1.360152483E0,5.483824611E-1
2.318685100E1,1.993515044E-1,-1.268993974E0,5.868145823E-1
2.320685100E1,1.518261880E-1,-1.144918561E0,4.581663907E-1
2.322685100E1,5.851914287E-1,-7.630230188E-1,3.662049770E-1
2.324685100E1,1.043637037E0,-2.136632055E-1,4.871737659E-1
2.326685100E1,1.006164908E0,-2.132792398E-2,6.520724893E-1
2.328685100E1,5.362175107E-1,-9.388125688E-2,7.042403221E-1
2.330685100E1,1.737998873E-1,1.221730490E-4,6.404660344E-1
2.332685100E1,6.541494280E-2,3.779859543E-1,5.517334938E-1
2.334685100E1,8.515461534E-2,7.737742662E-1,5.421167016E-1
2.336685100E1,8.937831223E-2,1.060165286E0,5.422214270E-1
2.338685100E1,5.469861999E-2,1.160102844E0,5.922949314E-1
2.340685100E1,1.141968891E-1,8.862432837E-1,6.130643487E-1
2.342685100E1,2.839999795E-1,4.547804296E-1,6.189810038E-1
2.344685100E1,4.075692892E-1,9.473647177E-2,6.484770775E-1
2.346685100E1,4.832118452E-1,-1.280373484E-1,6.421415210E-1
2.348685100E1,5.603030324E-1,-2.864958048E-1,5.296550393E-1
2.350685100E1,5.651550889E-1,-3.210183978E-1,3.103719056E-1
2.352685100E1,3.959104717E-1,-2.923949957E-1,6.391395628E-2
2.354685100E1,1.814618856E-1,-2.638588846E-1,-1.298175901E-1
2.356685100E1,1.377937496E-1,-2.708227336E-1,-2.687807083E-1
2.358685100E1,1.595405489E-1,-2.704213262E-1,-3.804294169E-1
2.360685100E1,6.522295624E-2,-2.489013970E-1,-4.670501053E-1
2.362685100E1,-2.210284919E-1,-3.461337090E-1,-5.536708236E-1
2.364685100E1,-5.261644125E-1,-5.105262399E-1,-6.202376485E-1
2.366685256E1,-7.530048490E-1,-3.443534672E-1,-6.246184111E-1
2.368885256E1,-8.365712166E-1,4.226314723E-1,-3.241949081E-1
2.370885256E1,-7.976503968E-1,1.079154491E0,-2.806489356E-2
2.372885881E1,-8.411090970E-1,1.030232906E0,5.237733200E-2
2.375085256E1,-9.279915690E-1,5.071228743E-1,-2.176425606E-1
2.377285256E1,-1.006880403E0,-2.782752812E-1,-6.245136857E-1
2.379485100E1,-1.040076613E0,-1.102908492E0,-8.969421387E-1
2.381485256E1,-7.885572314E-1,-1.429843545E0,-8.464846611E-1
2.383685100E1,-2.780309618E-1,-8.218929768E-1,-4.990594387E-1
2.385685100E1,1.745329238E-2,1.077217236E-1,-2.698802650E-1
2.387685256E1,1.054876968E-1,7.684335709E-1,-2.532123625E-1
2.389885256E1,1.483355314E-1,1.115020990E0,-2.972121239E-1
2.391885256E1,3.183131516E-1,1.058070898E0,-3.515442312E-1
2.394085256E1,6.116157174E-1,7.252715826E-1,-4.248305857E-1
2.396285256E1,8.270417452E-1,4.195596874E-1,-4.537681639E-1
2.398285256E1,8.070228100E-1,2.156354338E-1,-4.401371181E-1
2.400285881E1,5.871985555E-1,2.183406800E-2,-4.134685099E-1
2.402485100E1,2.213775665E-1,-1.386140436E-1,-4.039390087E-1
2.404485100E1,-1.171814054E-1,-2.642602921E-1,-4.143237174E-1
2.406485100E1,-3.573561609E-1,-4.224569499E-1,-3.836408257E-1
2.408486975E1,-3.770609200E-1,-7.034724355E-1,-2.744879425E-1
2.410685100E1,-1.462585926E-1,-1.122421265E0,-1.413367689E-1
2.412685100E1,2.132443339E-1,-1.619403720E0,-1.053829789E-1
2.414685100E1,3.307398856E-1,-1.851043820E0,-6.211626902E-2
2.416685100E1,-3.654719517E-2,-1.494595289E0,7.356562465E-2
2.418685100E1,-7.255682945E-1,-6.478661895E-1,1.661204398E-1
2.420685100E1,-1.216389775E0,1.662949771E-1,1.901536286E-1
2.422685100E1,-1.162459135E0,7.060555220E-1,2.406983525E-1
2.424685100E1,-8.546178937E-1,1.485624313E-1,2.021963894E-1
2.426685100E1,-3.217165470E-1,-5.384689569E-1,8.599237353E-2
2.428685256E1,2.855707705E-1,-4.266980886E-1,-3.839724232E-4
2.430685256E1,6.593679190E-1,2.853264213E-1,1.300619394E-1
2.432885256E1,5.439667702E-1,6.149667501E-1,4.355643690E-1
2.435085256E1,1.459967941E-1,4.878893495E-1,5.293409228E-1
2.437085256E1,-7.937757671E-2,5.570916533E-1,2.564237714E-1
2.439085256E1,-2.515019476E-2,7.537378669E-1,-3.021164984E-2
2.441085256E1,1.313360184E-1,8.532041907E-1,-4.569271952E-2
2.443085256E1,2.383945286E-1,7.542789578E-1,1.527512223E-1
2.445085256E1,2.676636875E-1,4.459839761E-1,3.803246915E-1
2.447085256E1,3.527834117E-1,-1.759291813E-2,5.348386765E-1
2.449285100E1,6.317743063E-1,-4.404163957E-1,6.116855145E-1
2.451285100E1,8.753000498E-1,-6.245136857E-1,5.557302833E-1
2.453285256E1,7.567573190E-1,-8.296771646E-1,4.139397442E-1
2.455485256E1,3.696432710E-1,-1.038540721E0,3.341083825E-1
2.457485256E1,2.097536623E-1,-9.500524998E-1,3.046821356E-1
2.459685256E1,3.313158453E-1,-7.001388073E-1,2.522873282E-1
2.461885256E1,5.923996568E-1,-5.438271165E-1,1.752310544E-1
2.463885256E1,7.832164764E-1,-3.156253397E-1,4.366813600E-2
2.465885256E1,6.138322949E-1,-4.206243530E-2,-1.314756572E-1
2.468085100E1,1.566781998E-1,2.272418700E-2,-2.994286716E-1
2.470085100E1,-7.808603346E-2,1.001818944E-2,-6.119822264E-1
2.472085256E1,-1.190314516E-1,1.676563323E-1,-9.223192334E-1
2.474285256E1,-2.490584925E-2,5.822418332E-1,-8.280714750E-1
2.476485100E1,-2.422516979E-2,1.362875223E0,-3.000046313E-1
2.478487288E1,-2.096489519E-1,1.873663306E0,2.476098537E-1
2.480685256E1,-4.242371917E-1,1.540287971E0,4.006054103E-1
2.482685256E1,-4.739441574E-1,6.521771550E-1,2.350958437E-2
2.484686194E1,-2.364921123E-1,-1.318596303E-1,-4.115486443E-1
2.486885256E1,2.683792710E-1,-8.014028072E-1,-4.861614704E-1
2.488885881E1,6.690719724E-1,-9.176068306E-1,-1.443736404E-1
2.491085256E1,5.322555900E-1,-3.097959459E-1,3.362900317E-1
2.493085256E1,-3.412118554E-2,4.575031698E-1,3.566580415E-1
2.495085256E1,-4.580790997E-1,9.151633978E-1,4.141666368E-2
2.497085256E1,-3.946014941E-1,8.706051111E-1,-2.697406411E-1
2.499085256E1,-1.045452245E-2,4.908389449E-1,-3.613704145E-1
2.501085256E1,3.582113683E-1,9.679596126E-2,-3.074746430E-1
2.503085256E1,4.495444596E-1,-1.416858286E-1,-2.318669856E-1
2.505085256E1,3.058864176E-1,-1.729795784E-1,-1.994911283E-1
2.507085256E1,1.024857312E-1,-1.291543692E-1,-2.360383272E-1
2.509085256E1,-3.659955412E-2,-1.049117446E-1,-3.172833920E-1
2.511285256E1,-8.290313929E-2,-1.803623289E-1,-3.930830657E-1
2.513485256E1,8.651597053E-2,-2.831796706E-1,-3.014532626E-1
2.515685256E1,3.137403727E-1,-3.742334843E-1,-1.218414381E-1
2.517885100E1,4.283910692E-1,-4.422315359E-1,-2.300344035E-2
2.519885100E1,4.604702294E-1,-3.525564969E-1,-2.124065720E-2
2.521885100E1,4.717625082E-1,-9.119345248E-2,-6.859143823E-2
2.523885881E1,4.021413028E-1,2.288301140E-1,-6.663667411E-2
2.526085100E1,1.842544079E-1,4.252320230E-1,-1.019097716E-1
2.528085100E1,-1.081231460E-1,6.197140813E-1,-1.967509687E-1
2.530085256E1,-4.375889599E-1,7.102093697E-1,-1.771858186E-1
2.532285256E1,-5.922425985E-1,2.136981189E-1,-1.221730486E-1
2.534485256E1,-1.732588410E-1,-4.436627030E-2,-9.210102260E-2
2.536685256E1,4.968952239E-1,3.677408695E-1,1.189790964E-1
2.538685256E1,6.651799083E-1,5.800252557E-1,3.185225725E-1
2.540886819E1,1.499237865E-1,3.279473782E-1,3.747396469E-1
2.543085256E1,-4.198738635E-1,1.672025472E-1,2.709972858E-1
2.545085256E1,-6.104463339E-1,3.703588545E-1,2.778215110E-1
2.547085725E1,-5.441412926E-1,4.518831968E-1,3.749141693E-1
2.549285100E1,-2.509957850E-1,5.896245837E-1,3.722787201E-1
2.551285256E1,1.551597659E-2,6.717248559E-1,3.145606816E-1
2.553285256E1,2.053728998E-1,4.291240871E-1,2.570695579E-1
2.555485725E1,2.175203860E-1,1.016479731E-1,1.926494390E-1
2.557685256E1,2.595304511E-2,-1.279326379E-1,1.879370511E-1
2.559685725E1,-5.408775434E-2,-3.252246380E-1,2.192308009E-1
2.561885256E1,-1.261873078E-2,-5.189038515E-1,1.871342063E-1
2.563885412E1,-6.719517522E-3,-6.000616550E-1,5.581562966E-2
2.565885881E1,-2.693043090E-2,-5.591336489E-1,-7.749261707E-2
2.567886819E1,-2.548180753E-3,-4.658283889E-1,-1.559800804E-1
2.570085100E1,6.754424423E-2,-4.351803958E-1,-1.432566196E-1
2.572085256E1,2.212204784E-1,-4.812745452E-1,-1.339365691E-1
2.574085256E1,2.972819209E-1,-4.513595998E-1,-1.639911383E-1
2.576085256E1,-3.836233541E-2,-5.807932019E-1,-1.751263440E-1
2.578285256E1,-7.626914382E-1,-2.918190360E-1,-8.091346174E-2
2.580285725E1,-1.201571941E0,5.547878146E-1,1.230980754E-1
2.582485100E1,-9.569814801E-1,1.624534965E0,2.889916301E-1
2.584485412E1,-5.116083622E-1,1.137326360E0,3.438647687E-1
2.586685256E1,-3.797836602E-2,6.795963049E-1,3.991044462E-1
2.588686038E1,3.129549921E-1,5.252742767E-1,1.514422148E-1
2.590885256E1,2.851867974E-1,-1.762433499E-1,-3.029891551E-1
2.592885412E1,-5.485569686E-2,-6.018418670E-1,-3.272317946E-1
2.595085256E1,-2.886425555E-1,-5.310862064E-1,3.612831468E-3
2.597285881E1,-1.470963508E-1,-4.351978600E-1,3.135134876E-1
2.599485569E1,9.089674801E-2,-4.273962379E-1,3.029193580E-1
2.601685256E1,2.133664936E-1,-2.474004179E-1,2.713987045E-2
2.603685256E1,2.110277563E-1,-1.447052509E-1,-2.112022936E-1
2.605685256E1,1.485275179E-1,-1.810255498E-1,-3.044028878E-1
2.607686038E1,1.807113886E-1,-1.578650326E-1,-2.296504229E-1
2.609885256E1,3.114016354E-1,-1.487369537E-1,-7.473500073E-2
2.611885256E1,3.939208090E-1,-2.074323744E-1,-3.200933710E-2
2.613885256E1,3.832568526E-1,-2.444159091E-1,-9.505063295E-2
2.615885256E1,3.715457022E-1,-1.886177361E-1,-1.703441292E-1
2.618085100E1,2.455678284E-1,-1.208291426E-1,-2.096664011E-1
2.620085100E1,3.370230645E-2,-1.853539646E-1,-1.693318486E-1
2.622085256E1,-8.234463632E-2,-3.776368797E-1,-1.357517093E-1
2.624285100E1,-5.323254038E-3,-4.324576855E-1,-1.232376993E-1
2.626285100E1,1.699776202E-1,-2.964790761E-1,-2.087413706E-2
2.628285100E1,2.253394574E-1,-1.332035214E-1,1.671850830E-1
2.630285100E1,1.701521426E-1,2.368411794E-2,2.980847955E-1
2.632285100E1,1.839402467E-1,6.155776232E-2,3.394141793E-1
2.634285100E1,2.534218132E-1,4.626867920E-2,2.708750963E-1
2.636285100E1,2.222851366E-1,3.740240633E-2,1.096939445E-1
2.638285100E1,1.852143407E-1,2.140122652E-1,-3.246312495E-3
2.640285569E1,1.062556431E-1,4.339586496E-1,7.278022822E-3
2.642485100E1,-5.759586394E-2,3.295705318E-1,-7.361798733E-2
2.644684944E1,-3.406882659E-2,3.073001206E-1,-2.319367975E-1
2.646685569E1,1.741664112E-1,3.977081776E-1,-2.065422684E-1
2.648885256E1,1.699427068E-1,1.574636102E-1,-6.222098693E-2
2.650885256E1,-5.237733200E-2,-5.061454698E-2,8.148942143E-2
2.652885569E1,-2.957634926E-1,-1.204277202E-2,2.598620653E-1
2.655085100E1,-2.555685639E-1,1.769589335E-1,4.477991164E-1
2.657085256E1,-1.637118869E-2,2.686236203E-1,5.161985755E-1
2.659285100E1,1.918640435E-1,2.141344398E-1,4.655316770E-1
2.661285256E1,2.583785355E-1,1.810081005E-1,4.373271465E-1
2.663485100E1,2.502627671E-1,1.706582904E-1,4.365766644E-1
2.665485100E1,2.235941291E-1,1.478293836E-1,3.976034522E-1
2.667485100E1,2.017077059E-1,2.808234841E-2,3.102148175E-1
2.669485100E1,2.043955028E-1,-7.099999487E-2,2.204699963E-1
2.671485100E1,2.388134003E-1,-7.792895287E-2,1.303935498E-1
2.673485100E1,2.420946211E-1,-1.306727976E-1,4.408701509E-2
2.675485100E1,2.234894037E-1,-1.938362718E-1,-2.687807009E-2
2.677485100E1,2.191609889E-1,-2.611710727E-1,-7.225663215E-2
2.679485100E1,1.813571602E-1,-3.639883995E-1,-1.219461560E-1
2.681485100E1,8.981464058E-2,-5.378581285E-1,-1.562244147E-1
2.683485100E1,1.396263397E-4,-5.910382867E-1,-1.837657094E-1
2.685485100E1,-1.224173903E-1,-4.254938066E-1,-2.811725438E-1
2.687485100E1,-3.730641305E-1,-1.615825742E-1,-3.798010945E-1
2.689485100E1,-7.095112205E-1,2.032784969E-1,-3.113667369E-1
2.691485100E1,-9.256353378E-1,6.446548104E-1,-5.743878707E-2
2.693485100E1,-9.042026997E-1,7.680844665E-1,2.371378839E-1
2.695485100E1,-7.778234482E-1,4.076914489E-1,2.730393112E-1
2.697485100E1,-5.094615817E-1,9.592329711E-2,3.422590718E-2
2.699485256E1,-7.668976486E-2,-1.573588848E-1,-3.003711700E-1
2.701685100E1,2.257757932E-1,-7.842113376E-1,-4.431391060E-1
2.703685100E1,3.589618802E-1,-8.456294537E-1,-2.530203760E-1
2.705885100E1,4.437499642E-1,-2.439446747E-1,5.229006335E-2
2.707885100E1,2.914350629E-1,4.176398218E-1,2.687806962E-3
2.709885100E1,2.808234841E-2,7.978423834E-1,-3.756995797E-1
2.711885256E1,-1.351757497E-1,6.339384913E-1,-8.092219234E-1
2.714085100E1,-4.190535471E-2,3.002839088E-1,-9.706125259E-1
2.716085100E1,5.372123420E-2,2.450442314E-1,-8.443554044E-1
2.718085100E1,8.011061698E-3,3.005631566E-1,-5.960299373E-1
2.720085100E1,7.415904105E-2,3.826459944E-1,-3.495021760E-1
2.722085100E1,2.555860281E-1,3.944444060E-1,-2.627069652E-1
2.724085100E1,3.387509584E-1,1.858950108E-1,-2.128778100E-1
2.726085100E1,3.232000768E-1,-1.365022063E-1,-1.537286043E-1
2.728085100E1,2.472782433E-1,-2.649758756E-1,-1.084547564E-1
2.730085100E1,1.388758421E-1,-1.396263391E-1,-8.791223168E-2
2.732085100E1,6.471680850E-2,6.731735170E-2,-1.525417715E-2
2.734085100E1,2.630211227E-2,1.620189101E-1,1.415636539E-1
2.736085100E1,2.408554405E-2,1.796292812E-1,2.516590357E-1
2.738085100E1,1.303760987E-2,4.373795167E-2,2.661627233E-1
2.740085256E1,1.520181727E-2,-9.351474047E-2,1.392947286E-1
2.742085256E1,3.438298590E-3,-1.374097764E-1,-1.074075624E-1
2.744085256E1,-2.860594541E-2,5.358160660E-2,-2.573488057E-1
2.746285100E1,-1.250353903E-1,2.344326228E-1,-9.405579418E-2
2.748285100E1,-2.232625186E-1,1.804670393E-1,1.005309671E-1
2.750285100E1,-1.415985674E-1,1.111251116E-1,1.595056355E-1
2.752285100E1,1.537984163E-1,1.825614423E-1,2.039766312E-1
2.754285100E1,3.206344247E-1,3.714060783E-2,3.037047386E-1
2.756285100E1,8.185594529E-2,-4.777489603E-1,4.194724262E-1
2.758285100E1,-4.549898803E-1,-1.012273550E0,3.339687586E-1
2.760285256E1,-7.739487886E-1,-1.086554766E0,2.179567218E-1
2.762485100E1,-7.376110554E-1,-8.254883885E-1,1.875007153E-1
2.764485100E1,-4.407130778E-1,-3.614751399E-1,2.606649101E-1
2.766485100E1,-2.968630493E-1,1.867851317E-1,3.971147537E-1
2.768486975E1,-2.884854674E-1,6.534861922E-1,5.385388136E-1
2.770685100E1,-2.628291249E-1,9.075188637E-1,7.069281340E-1
2.772685100E1,-2.723760903E-1,9.550266862E-1,6.651799083E-1
2.774685256E1,-2.757445574E-1,7.746644020E-1,3.982143104E-1
2.776885412E1,-1.551248580E-1,2.393020988E-1,-7.581710070E-2
2.779085100E1,7.483971864E-2,-4.110599458E-1,-5.506339073E-1
2.781085100E1,2.819928527E-1,-7.403686643E-1,-7.751705050E-1
2.783085100E1,4.017922580E-1,-7.968998551E-1,-7.413983941E-1
2.785085100E1,3.555759192E-1,-5.742133260E-1,-5.185547471E-1
2.787085100E1,4.562290758E-2,-2.802475095E-1,-2.667910159E-1
2.789085100E1,-3.288374841E-1,-1.921607554E-1,5.462880712E-3
2.791085100E1,-5.088332891E-1,-2.815390527E-1,1.700823307E-1
2.793085256E1,-5.831319690E-1,-4.569446445E-1,2.363524884E-1
2.795285100E1,-5.855056047E-1,-5.912826657E-1,1.068665087E-1
2.797285256E1,-5.563411713E-1,-4.555833042E-1,-5.916666240E-3
2.799485100E1,-6.580240130E-1,-1.366941929E-1,1.179493517E-1
2.801485100E1,-8.068831563E-1,5.555383116E-2,2.360732406E-1
2.803485100E1,-8.080176115E-1,8.119271696E-2,6.777113676E-2
2.805485100E1,-3.709697425E-1,5.206317082E-2,-9.487609565E-2
2.807485100E1,6.074618697E-1,1.868025959E-1,7.176794112E-2
2.809485100E1,1.530426860E0,2.105216086E-1,5.118003488E-1
2.811485100E1,1.735799789E0,2.693043090E-2,8.319810033E-1
2.813485100E1,1.351443291E0,-6.538003683E-2,8.213344812E-1
2.815485100E1,8.904145956E-1,1.253320873E-1,5.160065889E-1
2.817485100E1,6.121916771E-1,3.093247116E-1,1.635373533E-1
2.819485100E1,4.919559658E-1,3.549825251E-1,-9.190903604E-2
2.821485100E1,4.523544312E-1,3.572514355E-1,-2.115513533E-1
2.823485100E1,4.046720266E-1,2.302961946E-1,-2.152689099E-1
2.825485100E1,2.974390090E-1,2.551671304E-2,-1.492780149E-1
2.827485100E1,1.225919276E-1,-1.678483188E-1,-1.468694508E-1
2.829485100E1,-9.587093443E-2,-3.947062194E-1,-1.826836169E-1
2.831485100E1,-1.467647403E-1,-7.792894840E-1,-1.664694995E-1
2.833485100E1,1.655095667E-1,-1.342245460E0,-1.193979755E-1
2.835485100E1,5.645442009E-1,-1.629160166E0,-9.341002256E-2
2.837485100E1,6.051405668E-1,-1.182984114E0,-1.903456002E-1
2.839485100E1,3.514220417E-1,-3.804817796E-1,-2.454456538E-1
2.841485256E1,1.150171980E-1,3.729070425E-1,-2.292664498E-1
2.843685100E1,-4.050909355E-2,6.577971578E-1,-2.076418251E-1
2.845685100E1,-4.118977115E-3,5.480682850E-1,-1.568352878E-1
2.847685100E1,1.483006328E-1,4.566653967E-1,-1.320167035E-1
2.849685100E1,3.341607451E-1,6.422637105E-1,-1.183333248E-1
2.851685100E1,4.537158012E-1,9.837373495E-1,-6.518805027E-2
2.853685100E1,4.113042951E-1,1.048541427E0,3.176499158E-3
2.855685100E1,2.173982114E-1,6.783571243E-1,-1.034980267E-1
2.857685100E1,2.356194519E-2,5.536533594E-1,-2.796541154E-1
2.859685100E1,7.086036727E-3,9.589886069E-1,-1.625076085E-1
2.861685100E1,7.168067247E-2,1.077112436E0,1.048593819E-1
2.863685100E1,2.769837528E-2,4.221777022E-1,2.521651685E-1
2.865685100E1,-2.623578906E-1,-7.158293128E-1,1.851619780E-1
2.867685100E1,-4.065046310E-1,-1.303150058E0,1.640435010E-1
2.869685100E1,-2.090031803E-1,-1.215639234E0,1.895427555E-1
2.871685100E1,1.474279612E-1,-5.620309114E-1,2.736676335E-1
2.873685100E1,3.005107939E-1,1.617920250E-1,3.735353649E-1
2.875685100E1,1.856506765E-1,5.339834690E-1,4.941027164E-1
2.877685256E1,4.518657550E-2,5.282064676E-1,5.340358615E-1
2.879885100E1,1.193107069E-1,2.194402516E-1,4.805240333E-1
2.881885100E1,3.910584748E-1,-7.066838443E-2,3.830997646E-1
2.883885256E1,6.497511864E-1,-3.131295145E-1,2.305405438E-1
2.886085100E1,7.884699106E-1,-5.146976113E-1,6.972590089E-2
2.888085100E1,7.744898796E-1,-6.596820951E-1,-8.220500313E-3
2.890085100E1,5.875301957E-1,-7.637037039E-1,-3.481931984E-2
2.892085100E1,3.466922045E-1,-6.900683045E-1,-6.117378920E-2
2.894085100E1,2.411870509E-1,-2.585705221E-1,-1.461015046E-1
2.896085100E1,1.581093818E-1,1.244245246E-1,-1.929636002E-1
2.898085100E1,8.395033889E-3,2.018822283E-1,-2.183057815E-1
2.900085100E1,-1.422966868E-1,2.063328177E-1,-1.808335632E-1
2.902085100E1,-1.613731384E-1,2.618866563E-1,-4.518657550E-2
2.904085100E1,-1.203229949E-1,3.704112172E-1,1.252622753E-1
2.906085100E1,-2.051110864E-1,2.779436707E-1,1.857379377E-1
2.908085100E1,-4.014780819E-1,-1.256113499E-1,2.694788389E-2
2.910085100E1,-5.248205066E-1,-1.438151300E-1,-1.083325893E-1
2.912085100E1,-3.479837477E-1,1.962622702E-1,-6.457718462E-2
2.914085100E1,2.038544603E-2,1.365371048E-1,1.513200402E-1
2.916085100E1,2.139075547E-1,-2.563539743E-1,3.591887653E-1
2.918085100E1,6.630505621E-2,-4.173605740E-1,3.835884631E-1
2.920085100E1,-2.331236303E-1,-1.561895162E-1,2.330363542E-1
2.922085100E1,-4.420046210E-1,1.296954155E-1,8.829620481E-2
2.924085100E1,-4.224918485E-1,3.137753010E-1,6.597344577E-2
2.926085100E1,-3.430269957E-1,3.787887990E-1,5.490805954E-2
2.928085100E1,-3.005805910E-1,3.558726311E-1,9.630727023E-2
2.930085256E1,-2.489537597E-1,4.039739072E-1,1.340936422E-1
2.932285100E1,-1.995609403E-1,3.656813800E-1,1.142143458E-1
2.934285100E1,-2.172236741E-1,2.002939880E-1,4.630358517E-2
2.936285100E1,-3.502701223E-1,6.106907129E-2,-9.602801502E-2
2.938285100E1,-5.751732588E-1,-4.694935866E-3,-2.352354825E-1
2.940285256E1,-7.714180946E-1,-1.773778051E-1,-3.822270930E-1
2.942485100E1,-7.991513610E-1,-4.490732253E-1,-4.733158350E-1
2.944485100E1,-8.132012486E-1,-6.078458428E-1,-4.463505149E-1
2.946485100E1,-8.231496215E-1,-5.961869955E-1,-3.222575784E-1
2.948486975E1,-6.949900985E-1,-5.607917309E-1,-2.468244582E-1
2.950685100E1,-3.939033449E-1,-5.680872202E-1,-1.691922098E-1
2.952685100E1,-2.997253835E-1,-5.135282278E-1,-1.297826767E-1
2.954685100E1,-4.354072809E-1,-2.797064781E-1,-6.202900037E-2
2.956685100E1,-5.346118212E-1,9.477137588E-3,1.340412907E-2
2.958685100E1,-5.128999352E-1,5.640904233E-2,6.532767415E-2
2.960685100E1,-4.414112270E-1,-1.295906901E-1,1.841322333E-2
2.962685100E1,-2.856580317E-1,-2.769837379E-1,-5.071926862E-2
2.964685100E1,8.569566533E-3,-3.140894473E-1,-1.165007278E-1
2.966685100E1,2.125287354E-1,-2.594082952E-1,-5.778785050E-2
2.968685100E1,1.231329814E-1,-2.622357309E-1,5.710717291E-2
2.970685100E1,-2.158972323E-1,-2.481160015E-1,8.311257511E-2
2.972685100E1,-5.444380045E-1,-7.442083955E-2,1.322959550E-2
2.974685100E1,-6.644992232E-1,1.751437932E-1,-2.665117756E-2
2.976685100E1,-5.741260648E-1,4.446749985E-1,2.527236752E-2
2.978685100E1,-4.268551767E-1,6.217037439E-1,1.759990007E-1
2.980685100E1,-2.531949282E-1,6.251943707E-1,3.972369432E-1
2.982685100E1,-1.048942879E-1,3.805166781E-1,6.053500175E-1
2.984686038E1,4.886921961E-4,1.692969352E-2,8.136899471E-1
2.986885100E1,1.528908461E-1,-2.847330272E-1,9.862506390E-1
2.988885100E1,2.763728797E-1,-4.914672673E-1,1.011505604E0
2.990885412E1,3.034778535E-1,-6.964561939E-1,9.471727014E-1
2.993085100E1,2.447126210E-1,-7.827627063E-1,7.695156932E-1
2.995085100E1,1.898045540E-1,-6.875724792E-1,5.854881406E-1
2.997085725E1,1.159247681E-1,-4.738743305E-1,4.165577292E-1
2.999285100E1,-2.050761878E-2,-1.859124750E-1,3.103719056E-1
3.001285256E1,-2.017077059E-1,2.574360557E-2,2.051285505E-1
3.003285256E1,-4.662821591E-1,1.125388294E-1,7.279768586E-2
3.005285256E1,-7.328288555E-1,1.177748144E-1,-4.736823589E-2
3.007285256E1,-9.182700515E-1,3.296926990E-2,-1.825090796E-1
3.009485100E1,-1.059327602E0,8.115780540E-3,-3.829601407E-1
3.011485100E1,-8.742877841E-1,7.173303515E-2,-3.330088258E-1
3.013485256E1,-4.044626057E-1,9.505063295E-2,-3.680899367E-2
3.015685256E1,-2.912605405E-1,-4.656538367E-2,3.063052893E-1
3.017685256E1,-5.822592974E-1,4.548327997E-2,3.582462668E-1
3.019885256E1,-7.103838921E-1,5.953841805E-1,2.111848444E-3
3.021885256E1,-4.342204630E-1,8.252265453E-1,-3.716853261E-1
3.023885256E1,-9.868091345E-2,4.288448393E-1,-3.939906359E-1
3.025885256E1,1.243896186E-1,-2.132792398E-2,-1.509709805E-1
3.027886038E1,3.096213937E-1,-9.407324716E-3,-5.880014226E-2
3.030085256E1,4.482180178E-1,2.924124599E-1,-2.809805572E-1
3.032285256E1,5.095837712E-1,5.548576117E-1,-5.218359828E-1
3.034485256E1,6.482850909E-1,7.057413459E-1,-6.015975475E-1
3.036685100E1,9.328959584E-1,7.302457690E-1,-4.808033109E-1
3.038685256E1,1.120239615E0,5.993809700E-1,-3.395712674E-1
3.040885256E1,1.023443580E0,3.660653532E-1,-3.611609936E-1
3.042885256E1,8.049632907E-1,1.675690562E-1,-5.482777357E-1
3.044886975E1,5.635493398E-1,1.322959512E-1,-7.558846474E-1
3.047085100E1,2.710670829E-1,2.005732358E-1,-7.796036601E-1
3.049284944E1,2.460914198E-3,2.655518353E-1,-5.830970407E-1
3.051285100E1,-2.814343274E-1,1.250877529E-1,-3.515965641E-1
3.053285100E1,-5.366014838E-1,-3.193952516E-2,-1.194677874E-1
3.055285100E1,-5.253440738E-1,-1.198343039E-1,9.869837016E-2
3.057285100E1,-2.630909383E-1,-2.948384583E-1,3.882135749E-1
3.059285100E1,-6.592108309E-2,-4.961971045E-1,6.003758311E-1
3.061285256E1,-1.203579083E-1,-5.915095210E-1,6.031509042E-1
3.063485100E1,-2.985560298E-1,-5.688202381E-1,4.739790559E-1
3.065685100E1,-2.719746530E-1,-1.646543592E-1,3.682993650E-1
3.067685100E1,-2.848551869E-1,1.029395163E-1,2.823942602E-1
3.069685100E1,-4.479213059E-1,-8.831365965E-3,2.161764801E-1
3.071685100E1,-3.649657965E-1,-1.869073063E-1,1.918116808E-1
3.073685100E1,7.164576650E-2,-2.020742148E-1,2.298773080E-1
3.075685100E1,2.273989469E-1,-3.403392136E-1,3.484898806E-1
3.077685100E1,-9.131562710E-2,-6.399249434E-1,4.919559658E-1
3.079685100E1,-4.185299575E-1,-8.049982190E-1,5.216789246E-1
3.081685100E1,-5.014505386E-1,-6.343747973E-1,4.472231567E-1
3.083685100E1,-3.874456286E-1,-1.059589386E-1,3.093247116E-1
3.085685100E1,-2.258456051E-1,4.214271903E-1,3.129375279E-1
3.087685256E1,-7.112216949E-2,6.446373463E-1,4.550771415E-1
3.089885256E1,1.349139512E-1,5.573359728E-1,6.680073142E-1
3.091885256E1,3.728721440E-1,2.996555865E-1,7.723081708E-1
3.094085256E1,6.051928997E-1,4.607669264E-2,6.993359923E-1
3.096285256E1,6.906791329E-1,-1.198343039E-1,4.853411615E-1
3.098285256E1,6.072174907E-1,-2.733709216E-1,3.373546898E-1
3.100285881E1,4.867723286E-1,-4.215842783E-1,2.609441876E-1
3.102485100E1,3.053453565E-1,-5.228483081E-1,2.201383710E-1
3.104485100E1,1.089434549E-1,-5.275083184E-1,1.863313466E-1
3.106485256E1,3.319616243E-2,-4.309392571E-1,9.470156580E-2
3.108486975E1,1.155408006E-2,-3.706032038E-1,1.281071641E-2
3.110685100E1,-1.012989059E-1,-5.599365234E-1,-3.162536770E-2
3.112685100E1,-3.025702834E-1,-6.954264641E-1,-1.032885835E-1
3.114685100E1,-5.687329769E-1,-4.915370643E-1,-2.281319797E-1
3.116685256E1,-8.823860884E-1,-2.731440216E-2,-3.628190458E-1
3.118885256E1,-1.114287972E0,6.041980982E-1,-4.323354959E-1
3.120885413E1,-1.263129711E0,8.525060415E-1,-4.120722413E-1
3.123085256E1,-1.597272992E0,8.614945412E-1,-4.466471970E-1
3.125085256E1,-1.867973566E0,8.578293324E-1,-5.168443322E-1
3.127085256E1,-1.529798508E0,5.939355493E-1,-6.065891981E-1
3.129085256E1,-7.065790892E-1,-1.760164499E-1,-5.090602040E-1
3.131285256E1,1.962622702E-1,-6.890036464E-1,-2.117084414E-1
3.133285256E1,4.820250273E-1,-5.287300348E-1,1.155408006E-2
3.135286506E1,4.588819742E-1,-4.064871743E-2,6.531021744E-2
3.137484944E1,5.268625617E-1,4.908564091E-1,-2.321287990E-2
3.139485100E1,7.506312132E-1,7.158293128E-1,-6.623524427E-2
3.141485100E1,9.670345783E-1,6.668553948E-1,-8.779006451E-2
3.143485100E1,8.965058327E-1,3.949331045E-1,-1.234820411E-1
3.145685100E1,5.699546933E-1,2.598097026E-1,-2.228087336E-1
3.147685100E1,3.582113683E-1,3.837629855E-1,-2.807013094E-1
3.149685100E1,4.032408595E-1,5.548052788E-1,-2.684141994E-1
3.151685100E1,5.229879022E-1,4.971046746E-1,-2.003986984E-1
3.153685100E1,5.259724259E-1,2.174854726E-1,-1.043532342E-1
3.155685100E1,4.736823440E-1,-1.747423708E-1,-4.265584797E-2
3.157685100E1,4.691095948E-1,-6.119648218E-1,-3.237585723E-2
3.159685100E1,5.291838050E-1,-9.362295270E-1,-5.330235511E-2
3.161885256E1,6.124883890E-1,-9.145699739E-1,-1.018748656E-1
3.164085100E1,4.535412490E-1,-6.932447553E-1,-1.222079545E-1
3.166085100E1,9.187413007E-2,-4.309566915E-1,-1.130275205E-1
3.168085100E1,-2.490410358E-1,-1.243547052E-1,-2.382374369E-2
3.170085100E1,-3.905697763E-1,6.136577576E-2,9.553932399E-2
3.172085100E1,-3.344574571E-1,8.810421824E-2,2.176774591E-1
3.174085100E1,-3.899763525E-1,-2.670353651E-1,2.189341038E-1
3.176085100E1,-5.973040462E-1,-7.483099103E-1,-1.131846011E-1
3.178085100E1,-5.956285000E-1,-6.728593111E-1,-4.389677644E-1
3.180085100E1,-3.107384145E-1,-2.447300702E-1,-4.844859540E-1
3.182085100E1,-1.505870074E-1,7.995353639E-2,-2.721841037E-1
3.184085100E1,-2.674717009E-1,2.146929502E-1,5.681046844E-2
3.186085100E1,-2.414314002E-1,4.249876738E-1,2.082875967E-1
3.188085100E1,6.387905218E-3,6.710965633E-1,1.335874945E-1
3.190085100E1,2.662499845E-1,8.078256249E-1,-2.827433404E-3
3.192085100E1,3.852988780E-1,8.064119220E-1,3.534291685E-2
3.194085100E1,5.116432905E-1,8.005650640E-1,2.886949182E-1
3.196085100E1,7.768983841E-1,6.125407815E-1,6.140766144E-1
3.198085100E1,1.118110299E0,2.040638924E-1,9.256179333E-1
3.200085100E1,1.384255528E0,-3.010343909E-1,1.135633349E0
3.202085100E1,1.350832462E0,-7.303155661E-1,1.188499451E0
3.204085100E1,1.139787316E0,-1.014350414E0,1.144534588E0
3.206085100E1,1.016095757E0,-1.151969671E0,1.013338208E0
3.208085100E1,1.007002592E0,-1.067233920E0,8.436048627E-1
3.210085100E1,9.626538157E-1,-8.093091846E-1,6.931924224E-1
3.212085100E1,7.025473714E-1,-5.499358177E-1,5.886471868E-1
3.214085100E1,2.470862567E-1,-5.123413801E-1,5.091649294E-1
3.216085100E1,-3.069685102E-1,-6.219655275E-1,3.229382634E-1
3.218085100E1,-7.783295512E-1,-5.492551327E-1,1.132893190E-1
3.220085100E1,-1.061788559E0,-1.492605507E-1,-5.510004610E-2
3.222085100E1,-9.620429277E-1,4.808207452E-1,-1.308124214E-1
3.224085256E1,-7.852410674E-1,8.865399957E-1,-7.796385884E-2
3.226285100E1,-1.134935260E0,7.372270823E-1,-1.269901544E-1
3.228285100E1,-1.544947982E0,5.903750658E-1,-4.085466564E-1
3.230285100E1,-1.450996876E0,3.611260653E-1,-5.915269852E-1
3.232285100E1,-7.525859475E-1,-9.597565234E-2,-4.497713447E-1
3.234285100E1,3.532546386E-2,-3.148050308E-1,-1.859299242E-1
3.236285100E1,3.359933197E-1,-1.312662065E-1,-7.735299319E-2
3.238285100E1,1.967160553E-1,1.927367151E-1,-1.761909872E-1
3.240285569E1,-2.298598550E-2,5.142263770E-1,-3.295181692E-1
3.242485100E1,-1.067443341E-1,7.212224007E-1,-4.277976453E-1
3.244485725E1,-7.789404690E-2,6.566801071E-1,-4.153709114E-1
3.246685100E1,-1.134464052E-2,3.623478115E-1,-4.100476503E-1
3.248685100E1,-1.926843449E-2,-1.837831736E-2,-4.536285102E-1
3.250685100E1,-1.019446775E-1,-3.562391400E-1,-5.123065114E-1
3.252685100E1,-2.299122214E-1,-5.471956134E-1,-5.796587467E-1
3.254685100E1,-3.534989953E-1,-5.284158587E-1,-6.255958080E-1
3.256685100E1,-4.533667266E-1,-4.661425352E-1,-6.553362012E-1
3.258685100E1,-4.521799088E-1,-3.981968760E-1,-5.925043821E-1
3.260685100E1,-4.685859978E-1,-3.828379810E-1,-4.354247451E-1
3.262685100E1,-5.171061754E-1,-3.618242145E-1,-2.657438219E-1
3.264685100E1,-5.386958718E-1,-2.340486497E-1,-2.164731920E-1
3.266685100E1,-6.163979173E-1,1.595230959E-2,-2.433861643E-1
3.268685100E1,-6.504492760E-1,2.576978505E-1,-2.097536623E-1
3.270685100E1,-5.329188108E-1,2.935818434E-1,-5.761331692E-2
3.272685100E1,-2.966361642E-1,1.782155633E-1,1.791929603E-1
3.274685100E1,-2.588323317E-2,2.776644230E-1,3.104417026E-1
3.276685100E1,1.329940856E-1,2.354798168E-1,1.321388781E-1
3.278685100E1,2.555336654E-1,-4.572762642E-3,5.735151842E-2
3.280685100E1,4.559672773E-1,-1.761909872E-1,3.100751936E-1
3.282685100E1,6.069033146E-1,-2.712067068E-1,7.198435664E-1
3.284686038E1,4.576078653E-1,-3.117681742E-1,1.058611989E0
3.286885100E1,1.226442829E-1,-3.991393447E-1,1.166682839E0
3.288885256E1,1.502728462E-2,-2.305929065E-1,1.041682363E0
3.291085100E1,2.501580417E-1,2.049889266E-1,8.050505519E-1
3.293085100E1,5.565156937E-1,6.235363483E-1,7.561638951E-1
3.295085100E1,8.193273544E-1,9.621651173E-1,8.614770770E-1
3.297085100E1,1.007299304E0,1.105456591E0,1.101075888E0
3.299085100E1,1.095543146E0,1.048244715E0,1.305802941E0
3.301085100E1,1.123538256E0,8.613374233E-1,1.416072845E0
3.303085100E1,1.127116203E0,5.543340445E-1,1.393261433E0
3.305085100E1,1.109104395E0,2.374520451E-1,1.248084903E0
3.307085256E1,1.056430340E0,-9.157742560E-2,1.032868385E0
3.309285100E1,9.284628034E-1,-3.311413229E-1,8.392939568E-1
3.311285100E1,8.054694533E-1,-4.566304982E-1,7.408748269E-1
3.313285100E1,6.720739603E-1,-4.693539441E-1,6.506412625E-1
3.315285100E1,4.493699074E-1,-5.279272199E-1,4.809778333E-1
3.317285256E1,8.056439459E-2,-5.512098670E-1,1.694191098E-1
3.319489163E1,-3.759962916E-1,-5.245237947E-1,-2.017600536E-1
3.321685100E1,-8.013330102E-1,-4.132939577E-1,-4.604527652E-1
3.323685100E1,-1.146122813E0,-2.116735280E-1,-6.074618697E-1
3.325685100E1,-1.253286004E0,2.156005204E-1,-6.358234286E-1
3.327685100E1,-1.078246951E0,7.573332787E-1,-5.792747736E-1
3.329685100E1,-1.031489611E0,9.158789515E-1,-4.314628541E-1
3.331685100E1,-1.404798031E0,6.575877070E-1,-5.642998815E-1
3.333685100E1,-1.963914275E0,5.686631799E-1,-9.991660714E-1
3.335685100E1,-2.102126837E0,5.897641778E-1,-1.365021944E0
3.337685256E1,-1.362386584E0,2.808234841E-2,-1.312644720E0
3.339885100E1,-1.386838555E-1,-6.773622632E-1,-8.937482238E-1
3.341885256E1,6.148445606E-1,-7.592531443E-1,-5.575279593E-1
3.344085100E1,8.636237979E-1,-3.258355260E-1,-5.264611244E-1
3.346085100E1,8.751953244E-1,7.316420227E-2,-6.699271798E-1
3.348085100E1,8.648281097E-1,4.606098533E-1,-7.821169496E-1
3.350085256E1,8.214042783E-1,7.620282173E-1,-7.945436835E-1
3.352285100E1,6.603627801E-1,8.865399957E-1,-7.759908438E-1
3.354285100E1,4.100825489E-1,8.245109916E-1,-7.404209971E-1
3.356285100E1,1.656317413E-1,7.062823772E-1,-6.946235895E-1
3.358285100E1,-6.440264732E-2,5.886995792E-1,-6.790203452E-1
3.360285100E1,-2.918713987E-1,3.519107401E-1,-7.284306288E-1
3.362285100E1,-4.628089666E-1,3.970624134E-2,-7.974234819E-1
3.364285100E1,-5.618563890E-1,-2.209935933E-1,-7.931474447E-1
3.366285100E1,-5.867447853E-1,-4.715181589E-1,-7.459711432E-1
3.368285100E1,-5.975134969E-1,-6.389650106E-1,-6.269746423E-1
3.370285100E1,-7.544185519E-1,-8.762599826E-1,-5.044001341E-1
3.372285100E1,-9.396154284E-1,-1.238311052E0,-2.884854674E-1
3.374285100E1,-9.307317138E-1,-1.492884874E0,1.029744223E-1
3.376285100E1,-5.946511030E-1,-1.490755558E0,4.285481572E-1
3.378285100E1,2.644173801E-2,-9.101892114E-1,5.337216854E-1
3.380285100E1,3.340909183E-1,-1.295034289E-1,4.710294604E-1
3.382285100E1,6.496115774E-2,1.722290963E-1,3.514220417E-1
3.384285100E1,-2.325127572E-1,5.817182362E-2,1.950754523E-1
3.386285100E1,-1.031140536E-1,-1.630661041E-1,1.160294861E-1
3.388285100E1,2.960253060E-1,-2.509608865E-1,1.060985625E-1
3.390285100E1,4.244989753E-1,-3.199188411E-1,1.408480704E-1
3.392285100E1,1.175479218E-1,-3.327819407E-1,1.869945824E-1
3.394285100E1,-3.070383072E-1,-1.608844548E-1,1.592089385E-1
3.396285100E1,-4.387059510E-1,1.801005304E-1,-2.216568217E-3
3.398285100E1,-3.030764163E-1,5.511575341E-1,-1.438325793E-1
3.400285100E1,-1.253670007E-1,7.813664675E-1,-9.958848357E-2
3.402285100E1,1.562069636E-2,7.449065447E-1,1.021366641E-1
3.404285100E1,1.387187690E-1,4.721813798E-1,3.732212186E-1
3.406285100E1,2.783974707E-1,1.444958150E-1,5.883504748E-1
3.408285100E1,4.524940550E-1,-1.264141947E-1,7.201228738E-1
3.410285100E1,6.537654400E-1,-2.707878351E-1,7.405431867E-1
3.412285100E1,7.765493393E-1,-4.335572422E-1,6.616194248E-1
3.414285100E1,7.573158145E-1,-6.262939572E-1,5.001415610E-1
3.416285100E1,6.540446877E-1,-6.961070895E-1,2.873335481E-1
3.418285100E1,5.171061754E-1,-6.275854707E-1,5.885250121E-2
3.420285100E1,4.056843221E-1,-5.017123222E-1,-1.526813954E-1
3.422285100E1,3.193254471E-1,-4.809254706E-1,-3.733608425E-1
3.424285100E1,1.358564347E-1,-6.474124193E-1,-5.828875899E-1
3.426285100E1,-3.754203022E-2,-8.932245970E-1,-6.553536654E-1
3.428285100E1,-1.379159242E-1,-8.564854264E-1,-6.039013863E-1
3.430285100E1,-2.680476606E-1,-4.407305419E-1,-5.386784077E-1
3.432285100E1,-4.239928424E-1,2.072054893E-1,-5.249077678E-1
3.434285100E1,-5.220803618E-1,8.060454130E-1,-4.887969196E-1
3.436285100E1,-6.332578063E-1,9.650099874E-1,-4.694237411E-1
3.438285100E1,-7.606319189E-1,8.155050874E-1,-4.481481910E-1
3.440285100E1,-7.648905516E-1,5.010665655E-1,-5.184674859E-1
3.442285100E1,-4.737347066E-1,2.297376841E-1,-6.690370440E-1
3.444285100E1,-7.993607968E-2,-1.907644793E-2,-8.138644695E-1
3.446285100E1,4.567526653E-2,-2.611187100E-1,-7.279593945E-1
3.448285100E1,9.887290001E-2,-1.120501384E-1,-5.326919556E-1
3.450285100E1,2.734756470E-1,3.884404898E-1,-3.419100046E-1
3.452285100E1,4.527384043E-1,7.420616150E-1,-2.316401005E-1
3.454285100E1,5.324825048E-1,8.582133055E-1,-1.156280637E-1
3.456285100E1,6.455274820E-1,8.559617996E-1,3.548254445E-2
3.458285100E1,9.117251039E-1,6.657732725E-1,1.940806061E-1
3.460285100E1,1.182687402E0,3.870092928E-1,3.756646812E-1
3.462285100E1,1.122962236E0,1.400975734E-1,5.317494869E-1
3.464285100E1,7.666882277E-1,1.005484164E-1,6.405532956E-1
3.466285100E1,4.073947668E-1,1.090307161E-1,6.652497053E-1
3.468285256E1,2.559525371E-1,-2.947861142E-2,5.653819442E-1
3.470485256E1,2.289697379E-1,-1.466076523E-1,4.136081338E-1
3.472685100E1,1.410575062E-1,-3.602883220E-1,2.676287889E-1
3.474685256E1,-3.077015467E-2,-5.494645238E-1,1.677610427E-1
3.476885413E1,-2.468070090E-1,-4.155454338E-1,2.176949233E-1
3.479085256E1,-2.626022398E-1,-1.798387319E-1,3.837629855E-1
3.481085256E1,-1.549677849E-1,7.426375896E-2,5.104389787E-1
3.483085256E1,6.660176069E-2,4.905945957E-1,6.660001874E-1
3.485286350E1,3.782477677E-1,8.259421587E-1,7.523590922E-1
3.487485100E1,3.623303473E-1,4.328940213E-1,6.414085031E-1
3.489485100E1,1.090830788E-1,-3.947585821E-1,3.804119527E-1
3.491485100E1,-3.291691095E-2,-9.219177961E-1,2.751860619E-1
3.493485100E1,1.077217236E-1,-8.928755522E-1,2.423215061E-1
3.495485100E1,1.945343912E-1,-5.053426027E-1,2.325127572E-1
3.497485100E1,-1.675516134E-3,2.234021388E-2,2.771408260E-1
3.499485100E1,-3.273539543E-1,4.553738534E-1,2.610139847E-1
3.501485100E1,-5.557826161E-1,8.255058527E-1,1.121897623E-1
3.503485412E1,-6.481454968E-1,1.199425220E0,-1.046673954E-1
3.505685100E1,-6.184399724E-1,1.546431541E0,-3.704984784E-1
3.507685100E1,-5.442285538E-1,1.843800664E0,-7.084291577E-1
3.509685100E1,-5.352575779E-1,1.762119293E0,-9.179908037E-1
3.511685100E1,-5.834984779E-1,1.154255986E0,-7.381172180E-1
3.513685100E1,-5.788733363E-1,3.403915763E-1,-2.850297093E-1
3.515685100E1,-3.454704583E-1,-4.889365435E-1,2.383770645E-1
3.517685100E1,1.308996975E-1,-1.180785060E0,5.462880731E-1
3.519685100E1,5.937086344E-1,-1.442025900E0,5.414709449E-1
3.521685100E1,8.282809258E-1,-1.349732876E0,3.746698201E-1
3.523685100E1,8.791223168E-1,-9.600358009E-1,1.985486597E-1
3.525685100E1,8.499928117E-1,-6.545159221E-1,1.580046564E-1
3.527685100E1,5.666560531E-1,-6.530323625E-1,1.528384835E-1
3.529685100E1,-1.258033365E-1,-7.814013362E-1,4.328416660E-2
3.531685100E1,-7.360751629E-1,-6.559994221E-1,-3.025353849E-1
3.533685100E1,-8.640601635E-1,-1.356120855E-1,-7.131240964E-1
3.535685100E1,-8.209330440E-1,5.185547471E-1,-8.747590184E-1
3.537685100E1,-1.090656281E0,9.261415005E-1,-7.679448724E-1
3.539685100E1,-1.542975783E0,9.687799215E-1,-6.271317005E-1
3.541685100E1,-1.648882389E0,8.703957200E-1,-5.016599894E-1
3.543685100E1,-1.013774514E0,8.329584002E-1,-4.287226796E-1
3.545685100E1,1.661553420E-2,7.542614937E-1,-1.338318437E-1
3.547685100E1,7.405606508E-1,3.070383072E-1,4.324576855E-1
3.549685100E1,9.338209629E-1,-2.940356135E-1,8.541117907E-1
3.551685100E1,8.807803988E-1,-6.921626925E-1,8.315970302E-1
3.553685100E1,8.338136077E-1,-7.538251281E-1,4.553563893E-1
3.555685100E1,8.548273444E-1,-5.282413363E-1,2.595304511E-2
3.557685100E1,8.580213189E-1,-2.467895597E-1,-2.498787940E-1
3.559685100E1,8.284903169E-1,3.654719517E-2,-5.048364997E-1
3.561685100E1,7.641051412E-1,3.389778435E-1,-8.683012724E-1
3.563685256E1,5.867971182E-1,4.935791194E-1,-1.120902777E0
3.565885100E1,3.187843859E-1,4.274660349E-1,-1.198657274E0
3.567885100E1,9.283406287E-2,1.865058839E-1,-1.156245708E0
3.569885256E1,-1.456477195E-1,-1.572192609E-1,-9.968448281E-1
3.571885256E1,-3.516663909E-1,-4.976282716E-1,-8.630304337E-1
3.573885256E1,-5.640031695E-1,-6.879215240E-1,-7.357609868E-1
3.575885256E1,-6.931574941E-1,-7.066140175E-1,-6.025050879E-1
3.577885256E1,-6.309016347E-1,-5.006825924E-1,-5.298644900E-1
3.580085100E1,-6.156474352E-1,-1.005833223E-1,-3.825063705E-1
3.582085100E1,-6.599788070E-1,2.621135414E-1,-2.181137949E-1
3.584085100E1,-6.009691954E-1,3.486469686E-1,-7.609635592E-2
3.586085256E1,-4.323180616E-1,1.407782584E-1,4.975933582E-2
3.588085256E1,-2.306103557E-1,-2.516764775E-2,2.967932522E-1
3.590285256E1,1.054004356E-1,2.030516118E-1,5.713160634E-1
3.592485256E1,4.488637745E-1,7.498108745E-1,6.423160434E-1
3.594685256E1,7.420965433E-1,1.047808409E0,5.596922040E-1
3.596885412E1,8.261341453E-1,5.723632574E-1,5.142089128E-1
3.599085256E1,5.378406644E-1,-3.406009972E-1,6.020513177E-1
3.601285100E1,5.496041849E-2,-1.013146162E0,6.630331278E-1
3.603285256E1,-1.206895187E-1,-9.811368585E-1,6.076363921E-1
3.605485100E1,1.422617882E-1,-2.075720131E-1,3.491182029E-1
3.607485256E1,4.096811414E-1,4.965112507E-1,1.399055868E-1
3.609685256E1,4.952022731E-1,9.147270322E-1,1.637817025E-1
3.611885256E1,5.467767715E-1,9.831090569E-1,2.508910894E-1
3.613885256E1,5.222374201E-1,8.672540784E-1,3.199886680E-1
3.615885256E1,4.657760262E-1,6.407452822E-1,3.767118752E-1
3.618085100E1,4.083895981E-1,2.910161912E-1,4.415159523E-1
3.620085256E1,4.202054739E-1,-5.677555874E-2,5.258677006E-1
3.622085256E1,4.680449367E-1,-3.566929400E-1,5.890660882E-1
3.624085256E1,4.682892859E-1,-5.391321778E-1,5.988922715E-1
3.626085256E1,4.323180616E-1,-5.216091275E-1,5.578246713E-1
3.628285256E1,4.035201073E-1,-3.164107502E-1,5.253440738E-1
3.630285256E1,2.804569602E-1,-1.407957077E-1,4.786216319E-1
3.632285256E1,-2.607521974E-2,-5.079955459E-1,4.178143740E-1
3.634485256E1,-5.011538267E-1,-1.360519052E0,3.160965741E-1
3.636485256E1,-8.053472638E-1,-1.547112226E0,3.174230158E-1
3.638487131E1,-5.883330107E-1,-8.052425385E-1,3.089407384E-1
3.640686506E1,1.418952644E-2,1.319992542E-1,1.885828227E-1
3.642885100E1,1.314407438E-1,6.137450337E-1,2.112721056E-1
3.644885725E1,-3.416307569E-1,3.660478890E-1,2.980324328E-1
3.647085256E1,-7.523765564E-1,-3.787713647E-1,2.261772156E-1
3.649085256E1,-8.484569192E-1,-9.512393475E-1,-1.245990545E-1
3.651085256E1,-1.109139323E0,-8.480031490E-1,-6.039013863E-1
3.653285256E1,-1.332157493E0,-2.821848392E-1,-7.845778465E-1
3.655485100E1,-1.044719219E0,3.526786864E-1,-4.595102966E-1
3.657485100E1,-4.479213059E-1,7.295301557E-1,-6.246533245E-2
3.659685100E1,4.618141055E-2,9.965655208E-1,2.176600099E-1
3.661685256E1,3.959104717E-1,1.318334460E0,2.346595228E-1
3.663885100E1,7.760955691E-1,1.596627235E0,2.151641846E-1
3.665885100E1,1.044841409E0,1.507336140E0,2.229832709E-1
3.667885100E1,1.161499143E0,1.218466759E0,2.555336654E-1
3.669885256E1,1.104583979E0,7.593054771E-1,2.661103606E-1
3.671885725E1,9.676105380E-1,2.680651248E-1,2.313259393E-1
3.674085100E1,6.789156199E-1,-1.329417229E-1,1.738173366E-1
3.676085100E1,2.486221492E-1,-2.777866125E-1,7.901105285E-2
3.678085100E1,-1.748121828E-1,-3.094294071E-1,1.214749180E-2
3.680085100E1,-3.991044462E-1,-4.429820180E-1,6.597344764E-3
3.682085100E1,-5.207015276E-1,-8.659974933E-1,2.865830623E-2
3.684085100E1,-5.601110458E-1,-1.217436910E0,3.054326214E-2
3.686085256E1,-5.207538605E-1,-1.332157493E0,1.074599251E-1
3.688285100E1,-4.336794019E-1,-1.176037788E0,3.351206779E-1
3.690285100E1,-3.045774102E-1,-8.358207345E-1,4.568573833E-1
3.692285100E1,-2.168048024E-1,-4.750786126E-1,4.333652556E-1
3.694285100E1,-2.551845908E-1,-4.221078753E-1,3.034254909E-1
3.696285100E1,-3.644945621E-1,-6.720041037E-1,6.504841894E-2
3.698285100E1,-2.724284530E-1,-7.889237404E-1,-1.738696992E-1
3.700285100E1,4.731587693E-2,-5.287125707E-1,-2.485523373E-1
3.702285100E1,1.415462047E-1,-2.956587672E-1,-2.116909772E-1
3.704285100E1,-2.211157680E-1,-3.423114121E-1,-1.050688177E-1
3.706285100E1,-6.567499638E-1,-3.240378201E-1,-1.263618376E-2
3.708285100E1,-8.001810908E-1,-2.422516979E-2,-1.187347472E-1
3.710285100E1,-7.470009327E-1,3.811275363E-1,-3.672347367E-1
3.712285100E1,-6.163106561E-1,7.012558579E-1,-4.883954823E-1
3.714285100E1,-4.274485707E-1,7.512769699E-1,-3.494847417E-1
3.716285100E1,-1.393470913E-1,5.281540751E-1,2.504547499E-2
3.718285100E1,2.761110961E-1,1.121374071E-1,4.475373328E-1
3.720285100E1,6.730164289E-1,-2.452711165E-1,7.664439082E-1
3.722285100E1,8.720537424E-1,-4.164879322E-1,9.562135339E-1
3.724285100E1,9.218305349E-1,-4.692841172E-1,9.762673378E-1
3.726285100E1,9.126850367E-1,-4.117231667E-1,8.048934937E-1
3.728285100E1,8.769057989E-1,-2.897944748E-1,5.566378832E-1
3.730285100E1,8.089950085E-1,-1.123817489E-1,3.281219006E-1
3.732285256E1,6.504492760E-1,-5.850343779E-2,1.779712290E-1
3.734485256E1,3.526961207E-1,-1.275486648E-1,1.287180334E-1
3.736485256E1,-8.590510488E-2,-2.959729433E-1,6.707300246E-2
3.738486975E1,-6.962816715E-1,-6.911678314E-1,-1.633628160E-1
3.740685100E1,-1.367046595E0,-9.638755322E-1,-5.948780179E-1
3.742685100E1,-1.540078521E0,-5.349434018E-1,-9.146049023E-1
3.744685256E1,-1.178830266E0,2.980498672E-1,-8.892103434E-1
3.746885256E1,-8.425228000E-1,8.416850567E-1,-4.886223674E-1
3.748885256E1,-1.058454871E0,7.034025788E-1,-1.295208782E-1
3.751085256E1,-1.642407179E0,1.823869050E-1,-1.822123677E-1
3.753085256E1,-1.847239017E0,-2.453409284E-1,-6.044598818E-1
3.755085256E1,-1.195114255E0,-2.787116170E-1,-1.087881207E0
3.757085256E1,-2.569997311E-1,-1.766447723E-1,-1.252483130E0
3.759085256E1,1.531177312E-1,1.857030392E-1,-1.044178128E0
3.761085256E1,2.455329150E-1,6.571513414E-1,-7.191978097E-1
3.763085256E1,4.466646612E-1,8.206537962E-1,-5.161462426E-1
3.765285100E1,8.545480967E-1,6.654765606E-1,-3.813195229E-1
3.767285100E1,1.153697491E0,3.189240098E-1,-2.783102095E-1
3.769285100E1,1.224627733E0,-1.633279175E-1,-1.664520502E-1
3.771285100E1,1.099941373E0,-5.953841805E-1,-9.911724925E-2
3.773285256E1,9.485515356E-1,-8.350353241E-1,-6.646213681E-2
3.775285256E1,6.673964262E-1,-1.051787734E0,-9.744173288E-2
3.777285256E1,2.726553380E-1,-1.007299304E0,-1.541823894E-1
3.779285256E1,-1.000073627E-1,-7.058460712E-1,-2.449220568E-1
3.781485256E1,-4.602607787E-1,-4.751658738E-1,-3.400948644E-1
3.783685100E1,-7.195817828E-1,-3.580368459E-1,-3.800454438E-1
3.785685100E1,-8.139517307E-1,-4.140793681E-1,-4.540997744E-1
3.787685256E1,-7.478386760E-1,-4.309741557E-1,-5.133187771E-1
3.789885256E1,-6.165375710E-1,-1.818633080E-1,-3.495021760E-1
3.791885256E1,-5.574581623E-1,6.143558770E-3,3.214896470E-2
3.793885256E1,-6.259099841E-1,-1.869247556E-1,4.111472070E-1
3.795885256E1,-5.480857491E-1,-2.397035211E-1,6.217910051E-1
3.797885256E1,-1.698903441E-1,-1.563989520E-1,6.130643487E-1
3.800085100E1,4.777315259E-1,-2.149547487E-1,7.163878679E-1
3.802085256E1,9.586395621E-1,-1.367116421E-1,1.039064288E0
3.804285256E1,1.256445050E0,2.806314826E-1,1.336398602E0
3.806485256E1,1.137343764E0,3.754726946E-1,1.385058403E0
3.808487131E1,6.567150354E-1,-2.155481651E-2,1.292154551E0
3.810685256E1,4.811872914E-2,-5.544387698E-1,1.019918084E0
3.812885881E1,-2.985385656E-1,-6.697002649E-1,5.595002174E-1
3.815085256E1,-4.563163221E-1,-3.476870358E-1,9.763371944E-2
3.817285100E1,-5.270894170E-1,1.940107942E-1,-7.103490084E-2
3.819285256E1,-4.865105152E-1,6.106383204E-1,-1.864011586E-2
3.821485256E1,-3.485771716E-1,7.894822359E-1,1.820552945E-1
3.823685256E1,-1.437104046E-1,6.011611819E-1,4.340284765E-1
3.825885256E1,6.059783325E-2,1.771334708E-1,6.028367281E-1
3.827885256E1,2.004336119E-1,-2.256536186E-1,6.842563152E-1
3.829885256E1,3.059038520E-1,-5.876523852E-1,6.958104372E-1
3.831885256E1,3.711617291E-1,-7.984008789E-1,6.115633845E-1
3.833885256E1,4.035724699E-1,-8.478634953E-1,4.387059510E-1
3.835885256E1,3.521027267E-1,-7.579267025E-1,2.088460922E-1
3.837885256E1,2.129476219E-1,-4.630358517E-1,9.410814941E-2
3.840085100E1,6.743951887E-2,-4.307472706E-2,1.266585439E-1
3.842085100E1,-7.367035002E-2,1.407084465E-1,8.724901080E-2
3.844085256E1,-3.628365099E-1,9.475392103E-2,-5.972516537E-2
3.846285256E1,-7.936884761E-1,-2.292490005E-1,-2.678556740E-1
3.848487131E1,-1.027265906E0,-3.571990728E-1,-3.454181254E-1
3.850685100E1,-9.746616483E-1,-5.897467583E-2,-2.702642381E-1
3.852685256E1,-7.788706422E-1,1.012465507E-1,-1.631533802E-1
3.854685256E1,-5.972691178E-1,-1.801179796E-1,-1.143888757E-1
3.856685256E1,-5.965011716E-1,-6.154903769E-1,-2.576804161E-1
3.858885256E1,-5.987177491E-1,-4.484100044E-1,-4.699299037E-1
3.860885256E1,-2.220582366E-1,8.119271696E-2,-5.117828846E-1
3.862885256E1,4.161213934E-1,4.718148410E-1,-3.838153481E-1
3.864885256E1,7.916813493E-1,6.581462026E-1,-1.915149838E-1
3.867085256E1,8.240222931E-1,6.847275496E-1,-2.166302651E-1
3.869085256E1,7.369652987E-1,7.067012787E-1,-3.619114757E-1
3.871085256E1,7.427074313E-1,8.509876132E-1,-5.568124056E-1
3.873085256E1,8.151036501E-1,1.018277407E0,-7.696552873E-1
3.875285256E1,8.663814664E-1,1.230753779E0,-9.046913981E-1
3.877285256E1,7.995004058E-1,1.312470198E0,-9.448165298E-1
3.879285256E1,6.459463835E-1,1.155861735E0,-9.745220542E-1
3.881285256E1,4.977329969E-1,8.406552672E-1,-1.075454473E0
3.883285256E1,2.959729433E-1,4.620060921E-1,-1.164919972E0
3.885286506E1,3.216641769E-2,8.004079759E-2,-1.186666846E0
3.887485100E1,-1.000597253E-1,-1.142841578E-1,-1.250755310E0
3.889485256E1,-1.623679847E-1,-1.937315427E-2,-1.334618330E0
3.891685100E1,-2.457074523E-1,1.268679798E-1,-1.281316042E0
3.893685100E1,-2.619913816E-1,-1.846558414E-2,-1.096206427E0
3.895685256E1,-8.454374969E-2,-2.438573986E-1,-7.966904640E-1
3.897685256E1,2.052507252E-1,-4.673642516E-1,-4.014780819E-1
3.899885256E1,4.501727819E-1,-3.896971047E-1,2.260201424E-2
3.901885256E1,5.029340982E-1,-1.339889318E-1,3.100751936E-1
3.903885256E1,4.447447956E-1,1.404990107E-1,5.745623708E-1
3.905885256E1,2.642428577E-1,2.050936371E-1,7.531968355E-1
3.907885256E1,-2.872812003E-2,1.807463020E-1,5.713684559E-1
3.909885881E1,-4.606098533E-1,3.699225485E-1,1.543045640E-1
3.912085256E1,-7.458140850E-1,6.246010065E-1,-1.577428579E-1
3.914285100E1,-5.116956234E-1,8.275478482E-1,-2.975262702E-1
3.916285100E1,-7.033676840E-3,8.905891776E-1,-3.064972758E-1
3.918289319E1,3.820700347E-1,5.087285638E-1,-2.642602921E-1
3.920485256E1,3.984062970E-1,-5.689773243E-3,-8.916886896E-2
3.922485256E1,2.036450207E-1,-1.785471849E-2,9.902998060E-2
3.924685256E1,-1.797689125E-2,4.622679055E-1,1.780235767E-1
3.926885256E1,-1.372352391E-1,9.510298967E-1,2.823942602E-1
3.928885725E1,-1.138303727E-1,1.131095529E0,5.095663071E-1
3.931085256E1,2.378883772E-2,8.897513747E-1,8.400095105E-1
3.933085256E1,1.738522500E-1,3.934670389E-1,1.130275249E0
3.935085256E1,3.149795830E-1,-2.212553918E-1,1.280321121E0
3.937085256E1,4.527384043E-1,-6.855129600E-1,1.243896127E0
3.939285256E1,5.580690503E-1,-9.209404588E-1,1.053637862E0
3.941285256E1,5.789082646E-1,-9.585173726E-1,8.624718785E-1
3.943285256E1,5.202477574E-1,-8.595746756E-1,7.160736918E-1
3.945485100E1,3.157824278E-1,-6.286501288E-1,5.877221823E-1
3.947485100E1,1.963495463E-2,-2.381327152E-1,4.201182127E-1
3.949485100E1,-2.908765674E-1,8.450884372E-2,1.795245707E-1
3.951485100E1,-5.765171647E-1,2.977531776E-2,-5.263913050E-2
3.953485100E1,-7.519576550E-1,-1.620538235E-1,-1.183158681E-1
3.955485100E1,-7.585375309E-1,-2.169967890E-1,-9.560913593E-2
3.957485100E1,-5.918760300E-1,-1.210036799E-1,-1.424188633E-2
3.959485100E1,-5.354495645E-1,-1.213003788E-2,1.172861271E-2
3.961485100E1,-8.538848758E-1,6.143558770E-3,-9.197884798E-2
3.963485256E1,-1.400714040E0,2.429498360E-2,-3.988251984E-1
3.965685100E1,-1.645723343E0,3.504621089E-1,-8.652818799E-1
3.967685256E1,-1.258818746E0,6.821968555E-1,-1.059257746E0
3.969885413E1,-6.203947067E-1,4.546233714E-1,-9.487085938E-1
3.972085256E1,-3.178593516E-1,-6.422811747E-2,-6.583207250E-1
3.974085256E1,-3.014358282E-1,-3.552617729E-1,-5.490282178E-1
3.976285100E1,-2.540850341E-1,-4.060159326E-1,-6.515313983E-1
3.978285256E1,-8.313003182E-2,-2.388308495E-1,-8.013155460E-1
3.980285256E1,1.770112962E-1,-3.600614145E-2,-8.328711390E-1
3.982285256E1,4.530351162E-1,8.651597053E-2,-7.298443317E-1
3.984485100E1,7.224266529E-1,1.204626262E-1,-6.431538463E-1
3.986485256E1,9.113062024E-1,5.914920941E-2,-6.092420816E-1
3.988486975E1,9.611702561E-1,4.134684801E-2,-6.700144410E-1
3.990685100E1,8.604996800E-1,1.926843449E-2,-8.851611614E-1
3.992685100E1,6.118251681E-1,-1.331162602E-1,-1.153418303E0
3.994685256E1,2.468942702E-1,-2.454805523E-1,-1.311929107E0
3.996685256E1,-9.477137588E-3,-1.897521913E-1,-1.360937953E0
3.998885256E1,-1.985311955E-1,1.041612476E-1,-1.290548801E0
4.000885256E1,-3.286629617E-1,5.436700583E-1,-9.967575073E-1
4.002885256E1,-3.802374303E-1,9.260019064E-1,-5.753128529E-1
4.004885725E1,-2.926742733E-1,1.033496737E0,-2.520779073E-1
4.007085413E1,-9.615018964E-2,7.435800433E-1,2.555162087E-2
4.009285100E1,2.022138536E-1,3.939906359E-1,2.878571451E-1
4.011285100E1,4.385139644E-1,3.632030189E-1,5.005778670E-1
4.013285100E1,4.308694303E-1,4.592659473E-1,6.501351595E-1
4.015484944E1,1.701870561E-1,3.542145789E-1,6.193999052E-1
4.017485100E1,-6.981316983E-5,1.332558841E-1,4.169417024E-1
4.019485100E1,7.476990670E-2,-8.103563637E-2,2.737548947E-1
4.021485100E1,2.614852190E-1,-1.804146916E-1,2.737723589E-1
4.023485100E1,2.211506665E-1,-2.880316973E-1,3.700447083E-1
4.025485100E1,7.091272622E-2,-3.615798652E-1,4.696680903E-1
4.027485100E1,1.324704941E-2,-3.747570813E-1,5.484522581E-1
4.029485100E1,7.414158434E-2,-3.311762214E-1,6.068859100E-1
4.031485100E1,2.155656219E-1,-1.847605556E-1,6.309539676E-1
4.033485100E1,3.627317846E-1,2.314306609E-2,6.531720161E-1
4.035485100E1,4.843812287E-1,2.357241660E-1,7.220078111E-1
4.037485100E1,5.980195999E-1,3.371976018E-1,8.268322945E-1
4.039485100E1,7.161958814E-1,2.778738737E-1,9.283930063E-1
4.041485100E1,7.889586091E-1,8.255407214E-2,1.002918601E0
4.043485100E1,8.308290839E-1,-1.524894089E-1,1.035311818E0
4.045485100E1,8.665734529E-1,-3.317347169E-1,1.016183019E0
4.047485100E1,8.733278513E-1,-4.552691281E-1,8.913396597E-1
4.049485100E1,8.253312707E-1,-4.777140617E-1,6.656685472E-1
4.051485100E1,6.687229276E-1,-5.030213594E-1,3.629412055E-1
4.053485100E1,4.213573933E-1,-4.774871767E-1,1.053306237E-1
4.055485100E1,8.253662288E-2,-4.259650409E-1,-1.228188202E-1
4.057485100E1,-4.119500518E-1,-5.169315934E-1,-3.350683153E-1
4.059485100E1,-8.270766139E-1,-6.619161367E-1,-4.648335278E-1
4.061485100E1,-1.115771532E0,-9.288817048E-1,-5.211552978E-1
4.063485100E1,-1.379944563E0,-8.716697693E-1,-4.400847554E-1
4.065485100E1,-1.568352818E0,-3.798883557E-1,-3.667285740E-1
4.067485100E1,-1.324251056E0,2.697755396E-1,-2.829178572E-1
4.069485100E1,-9.325992465E-1,6.093468070E-1,-9.320057929E-2
4.071485100E1,-8.657531142E-1,5.581213832E-1,4.518657550E-2
4.073485100E1,-7.837401032E-1,6.211626530E-1,9.634217247E-3
