"Time (s)","Linear Acceleration x (m/s^2)","Linear Acceleration y (m/s^2)","Linear Acceleration z (m/s^2)"
1.600000000E-2,9.871999621E-1,-3.716999888E-1,-2.964999974E-1
3.600468800E-2,1.575399995E0,-3.652999997E-1,-1.521999985E-1
6.600000000E-2,2.013000011E0,6.899999827E-2,-7.674999833E-1
8.600156300E-2,2.956300020E0,-9.946999550E-1,-6.169999838E-1
1.160000000E-1,3.836299896E0,-1.453599930E0,5.694000125E-1
1.360031250E-1,3.842199802E0,-1.860299945E0,4.983999729E-1
1.660000000E-1,2.381899834E0,-1.309899926E0,1.266199946E0
1.860000000E-1,1.211899996E0,-7.428999543E-1,2.574100018E0
2.060000000E-1,-2.752999961E-1,2.437999994E-1,4.040299892E0
2.260046880E-1,-1.694999933E0,1.991999984E0,3.511299849E0
2.560000000E-1,-4.930000007E-2,-1.148899913E0,1.164399981E0
2.760093750E-1,-1.865999997E-1,-2.207099915E0,-6.139999628E-1
3.060000000E-1,1.878099918E0,-1.580699921E0,-4.903999865E-1
3.260093750E-1,1.516799927E0,-6.983000040E-1,-5.558999777E-1
3.560015630E-1,7.749999762E-1,-1.133399963E0,4.217999876E-1
3.860000000E-1,-2.897000015E-1,-1.511799932E0,2.360499859E0
4.060015630E-1,-2.175699949E0,4.773999751E-1,-5.087500095E0
4.260031250E-1,-2.376699924E0,1.000399947E0,-3.001699924E0
4.560000000E-1,-1.067899942E0,-6.757999659E-1,-7.501999736E-1
4.760062500E-1,-1.093199968E0,-2.358999997E-1,8.399999887E-2
5.060015630E-1,-3.556999862E-1,6.119999662E-2,1.035899997E0
5.260031250E-1,2.075999975E-1,4.526999891E-1,9.534999728E-1
5.560000000E-1,1.209999919E0,5.167999864E-1,3.771999776E-1
5.760000000E-1,1.615999937E0,1.928000003E-1,5.755999684E-1
5.960000000E-1,1.598599911E0,-1.454000026E-1,1.305099964E0
6.160000000E-1,1.421599984E0,-7.063999772E-1,1.624300003E0
6.360000000E-1,1.127900004E0,-9.620999694E-1,1.520299911E0
6.560000000E-1,9.072999954E-1,-9.964999557E-1,7.979999781E-1
6.760000000E-1,8.829999566E-1,-1.037999988E0,1.442999989E-1
6.960000000E-1,1.288599968E0,-1.140399933E0,-9.969999641E-2
7.160000000E-1,1.661799908E0,-1.416199923E0,-2.018999904E-1
7.360000000E-1,1.760399938E0,-1.435799956E0,-2.707999945E-1
7.560000000E-1,1.053599954E0,-1.704100013E0,-4.147999883E-1
7.760000000E-1,4.571999907E-1,-1.411999941E0,-3.990999758E-1
7.960000000E-1,-4.336999953E-1,-1.069899917E0,-3.237999976E-1
8.160000000E-1,-7.299000025E-1,-6.638999581E-1,-2.304999977E-1
8.360000000E-1,-6.654999852E-1,-6.182999611E-1,-6.609999537E-1
8.560015630E-1,-9.603999853E-1,-1.506000012E-1,-1.782299995E0
8.760015630E-1,-2.419999987E-1,-1.237999946E-1,-1.524599910E0
9.060000000E-1,-8.419999480E-2,3.722999990E-1,-2.184000015E0
9.260015630E-1,-1.305000037E-1,5.442999601E-1,-1.700399995E0
9.460015630E-1,-4.095000029E-1,5.372999907E-1,-1.269099951E0
9.760015630E-1,-7.688999772E-1,5.038999915E-1,-3.100000024E-1
1.006001563E0,-6.872000098E-1,3.599999845E-2,-6.724999547E-1
1.036000000E0,-9.279999733E-1,6.340000033E-1,-5.475999713E-1
1.056000000E0,-8.156999946E-1,1.091899991E0,-2.377000004E-1
1.076001563E0,-3.989999890E-1,1.246099949E0,2.231999934E-1
1.106000000E0,-1.623999923E-1,1.318300009E0,4.608999789E-1
1.126000000E0,-1.620000042E-2,1.141399980E0,7.824999690E-1
1.146000000E0,-3.173999786E-1,1.117900014E0,1.458199978E0
1.166000000E0,-2.453999966E-1,9.097999930E-1,1.616999984E0
1.186000000E0,-3.316999972E-1,1.416999936E0,1.448499918E0
1.206000000E0,-4.046999812E-1,1.336899996E0,1.411299944E0
1.226000000E0,-5.203999877E-1,1.182199955E0,1.264400005E0
1.246000000E0,-6.663999557E-1,9.611999989E-1,1.893899918E0
1.266000000E0,-7.463999987E-1,2.335999906E-1,2.226999998E0
1.286001563E0,-3.267999887E-1,-4.957999885E-1,2.558799982E0
1.316000000E0,-6.617000103E-1,-9.946999550E-1,1.267199993E0
1.336000000E0,-1.191900015E0,-1.143800020E0,1.077999994E-1
1.356000000E0,-1.070599914E0,-1.196200013E0,-1.022099972E0
1.376000000E0,-6.216999888E-1,-1.323499918E0,-1.412999988E0
1.396000000E0,-5.599999800E-2,-1.684099913E0,-9.692999721E-1
1.416000000E0,1.647000015E-1,-2.123399973E0,-6.168000102E-1
1.436000000E0,-4.070999920E-1,-1.996599913E0,-6.218000054E-1
1.456000000E0,-8.677999973E-1,-1.921499968E0,-7.908999920E-1
1.476000000E0,-9.276999831E-1,-1.747599959E0,-1.248299956E0
1.496000000E0,-6.876999736E-1,-1.418799996E0,-1.640100002E0
1.516000000E0,-3.563999832E-1,-1.194700003E0,-1.669199944E0
1.536000000E0,-2.395999879E-1,-9.417999983E-1,-1.736899972E0
1.556000000E0,-8.859999478E-2,-7.716000080E-1,-2.007900000E0
1.576001563E0,7.889999449E-2,-6.128000021E-1,-1.918799996E0
1.606000000E0,1.450999975E-1,-2.638999820E-1,-9.453999996E-1
1.626000000E0,5.810000002E-2,-8.630000055E-2,-6.381999850E-1
1.646000000E0,3.749999776E-2,2.859999835E-1,-5.027999878E-1
1.666000000E0,-3.079999983E-2,5.740000010E-1,-6.083999872E-1
1.686000000E0,-2.991999984E-1,7.885999680E-1,-7.556999922E-1
1.706000000E0,-4.201999903E-1,9.144999981E-1,-1.033900023E0
1.726000000E0,-5.500999689E-1,9.914999604E-1,-7.644999623E-1
1.746000000E0,-5.667999983E-1,1.161299944E0,-4.618999958E-1
1.766000000E0,-2.109999955E-1,1.153900027E0,4.065999985E-1
1.786000000E0,2.565000057E-1,1.311699986E0,1.171599984E0
1.806000000E0,2.938999832E-1,1.282499909E0,1.752699971E0
1.826000000E0,1.335999966E-1,9.888999462E-1,2.189599991E0
1.846009375E0,-5.000000000E-1,1.082000017E0,3.035300016E0
1.876000000E0,-4.059999883E-1,3.064999878E-1,3.709100008E0
1.896000000E0,1.978999972E-1,-8.912999630E-1,2.777599812E0
1.916000000E0,2.096199989E0,3.246999979E-1,1.363299966E0
1.936000000E0,4.228600025E0,-1.370199919E0,1.314999938E0
1.966000000E0,1.956399918E0,-1.853599906E0,1.097599983E0
1.986000000E0,4.721999764E-1,-1.964599967E0,-2.255999893E-1
2.006000000E0,-2.730000019E-2,-1.702199936E0,-2.019799948E0
2.026000000E0,8.299999870E-3,-7.443999648E-1,1.800099969E0
2.046000000E0,6.857999563E-1,-6.355999708E-1,6.499999762E-2
2.066000000E0,8.790999651E-1,-6.129999757E-1,-1.324800014E0
2.086007813E0,-7.729999721E-2,-9.847999811E-1,-2.505300045E0
2.116000000E0,-1.328499913E0,-1.107100010E0,-1.246199965E0
2.136004688E0,-9.059000015E-1,-8.693000078E-1,-7.896999717E-1
2.166000000E0,-3.439999819E-1,-5.052999854E-1,-8.939999938E-1
2.186000000E0,1.706999987E-1,-2.314999998E-1,-7.421000004E-1
2.206000000E0,4.983999729E-1,-9.459999949E-2,-1.136099935E0
2.226004688E0,5.611000061E-1,3.099999949E-2,-2.324899912E0
2.256040625E0,4.793999791E-1,7.100000046E-3,-3.219699860E0
2.286000000E0,-4.800000042E-2,6.859999895E-2,-1.885999918E0
2.306000000E0,-5.519999936E-2,9.659999609E-2,-1.071699977E0
2.326004688E0,-1.176999956E-1,2.193000019E-1,-6.707999706E-1
2.356000000E0,1.811999977E-1,3.529999852E-1,-7.958999872E-1
2.376000000E0,-3.378999829E-1,-1.174999997E-1,2.792899847E0
2.396000000E0,-2.273999900E-1,4.407999814E-1,2.406399965E0
2.416000000E0,-4.223999977E-1,7.145999670E-1,7.955999970E-1
2.436000000E0,-1.637799978E0,1.175400019E0,5.590000153E-1
2.456001563E0,-1.889499903E0,1.019600034E0,2.221499920E0
2.476001563E0,-1.215799928E0,2.151999921E-1,4.341099739E0
2.506001563E0,-1.490599990E0,2.536000013E-1,4.093999863E0
2.526007813E0,-1.834800005E0,2.979999967E-2,2.713899851E0
2.556000000E0,-1.220399976E0,-5.406000018E-1,5.460999608E-1
2.576001563E0,-7.490999699E-1,-8.651999831E-1,-7.563999891E-1
2.606000000E0,-1.759999990E-2,-1.438399911E0,-1.080099940E0
2.626003125E0,5.155000091E-1,-1.292699933E0,-7.651000023E-1
2.656001563E0,2.252999991E-1,-1.408999920E0,-4.838999808E-1
2.676001563E0,-6.822999716E-1,-1.296000004E0,-5.906999707E-1
2.706000000E0,-8.220999837E-1,-9.170999527E-1,-1.741299987E0
2.735998438E0,1.407999992E-1,-9.290999770E-1,-3.415299892E0
2.756000000E0,1.546999961E-1,-8.529999852E-1,-3.620399952E0
2.776000000E0,5.969999731E-2,-7.434999943E-1,-3.176699877E0
2.796000000E0,1.724999994E-1,-5.580999851E-1,-1.749099970E0
2.816004688E0,5.934000015E-1,-5.261999965E-1,-8.694999814E-1
2.846009375E0,4.287000000E-1,-2.125999928E-1,-4.843999743E-1
2.876000000E0,3.041999936E-1,7.490000129E-2,-1.018000007E0
2.896000000E0,2.113999873E-1,1.041999981E-1,-1.856699944E0
2.916000000E0,2.640999854E-1,6.409999728E-2,-2.068199873E0
2.936000000E0,-1.469999924E-2,1.659999937E-1,-1.562399983E0
2.956006250E0,-3.042999804E-1,5.746999979E-1,-1.928000003E-1
2.986000000E0,-1.456399918E0,1.958199978E0,2.344099998E0
3.006007813E0,-1.114799976E0,1.776699901E0,2.822999954E0
3.036000000E0,1.727999896E-1,1.029399991E0,3.751999855E0
3.056003125E0,9.079999924E-1,-6.700000167E-2,5.193399906E0
3.086000000E0,7.357999682E-1,-1.058499932E0,5.347300053E0
3.106000000E0,5.713999867E-1,-9.860999584E-1,3.871799946E0
3.126000000E0,1.396899939E0,-1.394299984E0,2.063299894E0
3.146000000E0,2.105700016E0,-1.157799959E0,7.422999740E-1
3.166000000E0,2.299200058E0,-1.105700016E0,-6.176999807E-1
3.186000000E0,2.140799999E0,-9.915999770E-1,-1.434199929E0
3.206007813E0,1.363600016E0,-1.190599918E0,-1.436999917E0
3.236000000E0,-1.641999930E-1,-9.697999954E-1,-1.784699917E0
3.256006250E0,-6.132000089E-1,-7.622999549E-1,-2.067499876E0
3.286001563E0,-8.416999578E-1,-2.964999974E-1,-2.122599840E0
3.316000000E0,-6.645999551E-1,-9.290000051E-2,-2.294899940E0
3.336000000E0,-6.462000012E-1,-2.559999935E-2,-2.490599871E0
3.356006250E0,-6.850000024E-1,4.999999888E-3,-2.639999866E0
3.386000000E0,-8.391000032E-1,-1.125999987E-1,-2.674599886E0
3.406000000E0,-8.449999690E-1,-4.149999842E-2,-2.294299841E0
3.426000000E0,-5.751000047E-1,1.181999967E-1,-1.760899901E0
3.446000000E0,-4.966999888E-1,5.324000120E-1,-1.132300019E0
3.466000000E0,-4.644999802E-1,7.796999812E-1,-8.673999906E-1
3.486000000E0,-4.431999922E-1,9.556999803E-1,-6.743999720E-1
3.506000000E0,-4.562999904E-1,8.427000046E-1,-5.855000019E-1
3.526000000E0,-1.699000001E-1,6.058999896E-1,2.513999939E-1
3.546000000E0,-5.703999996E-1,7.396999598E-1,1.421700001E0
3.566000000E0,-8.965999484E-1,8.950999975E-1,2.021299839E0
3.586000000E0,-1.296000034E-1,3.267999887E-1,2.683399916E0
3.606000000E0,3.391000032E-1,-1.482999921E-1,3.670399904E0
3.626000000E0,1.842999905E-1,-7.777000070E-1,4.312999725E0
3.646000000E0,-1.120299935E0,-6.545999646E-1,3.072899818E0
3.666000000E0,-2.041399956E0,-5.769999623E-1,1.352299929E0
3.686000000E0,-1.792699933E0,-7.224999666E-1,2.719999850E-2
3.706000000E0,-1.232800007E0,-9.560999870E-1,-5.205999613E-1
3.726000000E0,-1.028399944E0,-1.625000000E0,2.138999999E-1
3.746000000E0,-1.096599936E0,-1.393299937E0,8.606999516E-1
3.776000000E0,-1.258000016E0,-1.317299962E0,6.298999786E-1
3.796000000E0,-1.088199973E0,-1.319199920E0,-2.981999815E-1
3.816000000E0,-5.898999572E-1,-1.135599971E0,-1.741199970E0
3.836000000E0,-1.788000017E-1,-9.894999862E-1,-2.497400045E0
3.856000000E0,-1.318999976E-1,-1.279299974E0,-3.078799963E0
3.876000000E0,-4.745999873E-1,-9.244999886E-1,-2.804699898E0
3.896000000E0,-1.044299960E0,-8.183999658E-1,-2.885099888E0
3.916000000E0,-6.516000032E-1,-9.668999910E-1,-2.968999863E0
3.936000000E0,-5.640000105E-1,-7.601000071E-1,-2.677599907E0
3.956000000E0,-4.111000001E-1,-5.979999900E-1,-2.724499941E0
3.976000000E0,-2.470999956E-1,-3.869999945E-1,-2.547399998E0
3.996000000E0,-8.499999531E-3,-4.299999774E-1,-2.487099886E0
4.016000000E0,-9.649999440E-2,-1.297999918E-1,-2.249300003E0
4.036000000E0,-2.372999936E-1,6.759999692E-2,-1.435999990E0
4.056000000E0,1.979999989E-2,7.880000025E-2,-1.938000023E-1
4.076000000E0,6.431999803E-1,7.299999893E-2,1.507499933E0
4.096000000E0,9.617999792E-1,2.559999935E-2,2.598899841E0
4.116000000E0,1.037999988E-1,2.507999837E-1,2.549199820E0
4.136000000E0,-4.248999953E-1,2.339999974E-1,2.312999964E0
4.156000000E0,-1.578999907E-1,4.985999763E-1,2.703199863E0
4.176000000E0,4.032999873E-1,9.579999745E-2,4.688699722E0
4.196000000E0,1.808999926E-1,-3.630999923E-1,7.217899799E0
4.216000000E0,8.999999613E-3,-7.450999618E-1,7.818099976E0
4.236000000E0,8.569999933E-1,-1.104099989E0,6.650699615E0
4.256000000E0,2.587999821E0,-1.179999948E0,4.525000095E0
4.276000000E0,4.024799824E0,-1.253799915E0,2.209599972E0
4.296000000E0,4.200999737E0,-8.968999982E-1,6.793000102E-1
4.316000000E0,3.323400021E0,-8.904999495E-1,-3.382999897E-1
4.336000000E0,2.313699961E0,-1.011699915E0,-1.280300021E0
4.356000000E0,1.387199998E0,-9.330999851E-1,-2.215100050E0
4.376000000E0,7.886999846E-1,-7.427999973E-1,-3.022599936E0
4.396000000E0,4.766999781E-1,-5.217999816E-1,-3.785300016E0
4.416000000E0,3.231999874E-1,-3.759999871E-1,-4.420899868E0
4.436000000E0,5.037999749E-1,-1.979999989E-1,-4.670099735E0
4.456000000E0,6.570999622E-1,-9.979999810E-2,-4.222199917E0
4.476001563E0,2.403999865E-1,4.259999841E-2,-3.439599991E0
4.506000000E0,-5.345999599E-1,1.173999980E-1,-2.913499832E0
4.526000000E0,-6.112999916E-1,3.003000021E-1,-2.769599915E0
4.546001563E0,-2.219000012E-1,4.106999934E-1,-2.318199873E0
4.576001563E0,2.056999952E-1,6.014999747E-1,-9.326999784E-1
4.606000000E0,4.479999840E-1,7.561999559E-1,8.396999836E-1
4.626000000E0,2.427999973E-1,9.370999932E-1,1.487499952E0
4.646001563E0,5.058999658E-1,7.378000021E-1,2.404399872E0
4.666001563E0,1.062299967E0,3.454000056E-1,3.574100018E0
4.696000000E0,1.121099949E0,-8.240000159E-2,4.354000092E0
4.716000000E0,8.704999685E-1,-2.786999941E-1,4.003799915E0
4.736000000E0,7.962999940E-1,-9.024999738E-1,2.720799923E0
4.756000000E0,6.491000056E-1,-1.385699987E0,2.074300051E0
4.776001563E0,4.456999898E-1,-2.040999889E0,1.896899939E0
4.796001563E0,-2.316999882E-1,-2.500599861E0,2.214900017E0
4.816001563E0,-9.576999545E-1,-2.745199919E0,2.759599924E0
4.836001563E0,-9.758999944E-1,-2.753999949E0,3.074100018E0
4.856001563E0,-6.300000008E-3,-2.762099981E0,3.126600027E0
4.876001563E0,1.198300004E0,-2.316299915E0,2.595700026E0
4.906001563E0,2.346499920E0,-1.607999921E0,6.807000041E-1
4.936001563E0,2.445999861E0,-8.488000035E-1,-1.781499982E0
4.966000000E0,3.051299810E0,-6.327999830E-1,-3.794899940E0
4.986000000E0,3.412899971E0,-6.211999655E-1,-4.377500057E0
5.006001563E0,3.582199812E0,-6.270999908E-1,-4.397599697E0
5.036000000E0,3.127699852E0,-7.080000043E-1,-4.188399792E0
5.056000000E0,2.495899916E0,-8.887999654E-1,-3.840999842E0
5.076001563E0,1.893000007E0,-9.032999873E-1,-3.782999992E0
5.106000000E0,1.236999989E0,-4.282999933E-1,-3.657899857E0
5.126000000E0,1.204599977E0,-2.371999919E-1,-3.248999834E0
5.146001563E0,1.197199941E0,-6.430000067E-2,-1.925799966E0
5.176000000E0,1.119799972E0,-3.139999881E-2,6.083999872E-1
5.196000000E0,5.771999955E-1,1.296000034E-1,1.480999947E0
5.216001563E0,-6.999999750E-3,4.759999812E-1,2.198799849E0
5.246000000E0,1.158999920E0,2.757000029E-1,4.932399750E0
5.266000000E0,2.562999964E0,-7.782999873E-1,7.444499969E0
5.286001563E0,2.298699856E0,-1.574899912E0,9.168099403E0
5.306001563E0,1.198799968E0,-1.820299983E0,8.014299393E0
5.336000000E0,1.356199980E0,-1.141700029E0,3.623799801E0
5.356000000E0,3.485499859E0,-7.434999943E-1,6.589999795E-1
5.376000000E0,4.902999878E0,-7.587999701E-1,-8.048999906E-1
5.396000000E0,4.906300068E0,-8.165999651E-1,-1.356299996E0
5.416000000E0,3.976300001E0,-9.472000003E-1,-1.763899922E0
5.436000000E0,2.827899933E0,-1.076499939E0,-2.108599901E0
5.456000000E0,2.021999836E0,-9.559999704E-1,-1.977599978E0
5.476000000E0,1.749399900E0,-8.510999680E-1,-1.897300005E0
5.506000000E0,1.508099914E0,-4.581999779E-1,-2.139199972E0
5.526000000E0,1.229699969E0,-2.392999977E-1,-2.470999956E0
5.546000000E0,8.104999661E-1,1.002999991E-1,-2.644199848E0
5.566000000E0,2.725999951E-1,3.401999772E-1,-3.165699959E0
5.586000000E0,-2.448999882E-1,7.619999647E-1,-3.791699886E0
5.606000000E0,-7.595999837E-1,8.926999569E-1,-4.232899666E0
5.636000000E0,-2.156100035E0,1.289299965E0,-2.728499889E0
5.656000000E0,-1.677699924E0,1.224900007E0,-4.271999896E-1
5.676000000E0,-2.972999811E-1,9.911999702E-1,1.611499906E0
5.696000000E0,4.071999788E-1,5.771999955E-1,2.375000000E0
5.716000000E0,4.102999866E-1,5.532000065E-1,3.898399830E0
5.736000000E0,1.673299909E0,-1.357000023E-1,6.173399925E0
5.756000000E0,3.173599958E0,-1.123999953E0,8.486700058E0
5.776000000E0,3.739199877E0,-2.365599871E0,9.288800240E0
5.796000000E0,2.880300045E0,-2.625299931E0,8.670100212E0
5.816000000E0,2.062000036E0,-2.840199947E0,7.203899860E0
5.836000000E0,1.715899944E0,-2.601899862E0,5.439899921E0
5.856000000E0,1.678499937E0,-2.514499903E0,3.251799822E0
5.876000000E0,1.378600001E0,-2.174700022E0,1.355099916E0
5.896000000E0,1.177899957E0,-1.862899899E0,-2.527999878E-1
5.916000000E0,1.166999936E0,-1.774399996E0,-1.746099949E0
5.936000000E0,1.151099920E0,-1.513799906E0,-3.134699821E0
5.956000000E0,1.059199929E0,-1.192399979E0,-4.038399696E0
5.976000000E0,1.082700014E0,-1.092700005E0,-4.347000122E0
5.996000000E0,1.121399999E0,-9.318999648E-1,-4.454299927E0
6.016000000E0,1.301299930E0,-8.750000000E-1,-4.369599819E0
6.036000000E0,1.300400019E0,-8.880999684E-1,-4.207299709E0
6.056000000E0,9.765999913E-1,-7.106999755E-1,-3.888599873E0
6.076001563E0,8.852999806E-1,-6.937999725E-1,-3.601499796E0
6.106000000E0,4.945999980E-1,-4.278999865E-1,-2.770699978E0
6.126000000E0,2.266999930E-1,-1.908999979E-1,-2.407199860E0
6.146000000E0,1.210999936E-1,4.120000079E-2,-2.264999866E0
6.166000000E0,1.855999976E-1,2.167999893E-1,-1.393100023E0
6.186000000E0,5.504999757E-1,1.845999956E-1,-9.049999714E-2
6.206000000E0,4.139999747E-1,2.052000016E-1,9.985999465E-1
6.226000000E0,2.349999920E-2,4.519999921E-1,1.814899921E0
6.246000000E0,-3.880999982E-1,1.088899970E0,2.596699953E0
6.266000000E0,-5.350000039E-2,1.487399936E0,2.978699923E0
6.286001563E0,1.574800014E0,3.395999968E-1,2.994899988E0
6.316000000E0,2.175699949E0,-3.137999773E-1,3.734899998E0
6.336000000E0,1.196900010E0,-5.428999662E-1,4.918699741E0
6.356000000E0,1.684899926E0,-1.369499922E0,4.732899666E0
6.376000000E0,3.308399916E0,-1.860599995E0,3.283799887E0
6.396000000E0,3.933099985E0,-1.557799935E0,1.547399998E0
6.416000000E0,3.406199932E0,-1.318799973E0,4.117999971E-1
6.436000000E0,2.388299942E0,-1.152599931E0,-5.877000093E-1
6.456000000E0,1.581299901E0,-9.307999611E-1,-1.516099930E0
6.476001563E0,1.088699937E0,-8.915999532E-1,-2.215999842E0
6.506000000E0,2.594999969E-1,-4.843999743E-1,-2.554399967E0
6.526000000E0,5.200000014E-3,-3.955999911E-1,-2.899199963E0
6.546000000E0,-7.750000060E-2,-3.238999844E-1,-3.240599871E0
6.566000000E0,-2.629999816E-1,-8.219999820E-2,-3.359599829E0
6.586000000E0,-4.734999835E-1,8.540000021E-2,-3.070400000E0
6.606000000E0,-6.297000051E-1,1.074000001E-1,-2.344300032E0
6.626000000E0,-6.075999737E-1,2.920999825E-1,-1.904799938E0
6.646000000E0,-5.066999793E-1,6.085000038E-1,-1.722700000E0
6.666000000E0,-4.729999900E-1,9.530999660E-1,-1.406700015E0
6.686000000E0,-1.252000034E-1,1.054000020E0,-5.485000014E-1
6.706000000E0,2.237999886E-1,9.940999746E-1,6.229000092E-1
6.726000000E0,3.132999837E-1,8.806999922E-1,1.678200006E0
6.746000000E0,6.850000024E-1,5.701000094E-1,2.481799841E0
6.766000000E0,7.576999664E-1,5.514000058E-1,2.809799910E0
6.786000000E0,3.725999892E-1,9.983999729E-1,2.485899925E0
6.806000000E0,6.658999920E-1,2.491999865E-1,2.802599907E0
6.826000000E0,7.172999978E-1,-4.048999846E-1,3.340199947E0
6.846009375E0,1.975999922E-1,-8.283999562E-1,3.522399902E0
6.876000000E0,-7.224000096E-1,-1.263499975E0,2.190399885E0
6.896000000E0,-6.480999589E-1,-1.194000006E0,1.248700023E0
6.916000000E0,1.336999983E-1,-1.352499962E0,1.152799964E0
6.936000000E0,4.193999767E-1,-1.201300025E0,1.242599964E0
6.956000000E0,6.330999732E-1,-1.057099938E0,6.575999856E-1
6.976000000E0,7.339000106E-1,-8.542000055E-1,-6.938999891E-1
6.996000000E0,7.507999539E-1,-7.353000045E-1,-1.845499992E0
7.016003125E0,5.144999623E-1,-5.820999742E-1,-2.306799889E0
7.046000000E0,2.660000026E-1,-4.684000015E-1,-2.165199995E0
7.066000000E0,4.461999834E-1,-4.976999760E-1,-2.172899961E0
7.086000000E0,5.778999925E-1,-4.596999884E-1,-2.565099955E0
7.106000000E0,4.591999948E-1,-4.144999981E-1,-2.940899849E0
7.126000000E0,2.851999998E-1,-4.627999961E-1,-3.049899817E0
7.146000000E0,3.682000041E-1,-4.952999949E-1,-2.993999958E0
7.166000000E0,3.267000020E-1,-2.518000007E-1,-2.723599911E0
7.186000000E0,3.021000028E-1,8.599999547E-2,-2.201900005E0
7.206000000E0,4.442999959E-1,1.579999924E-1,-1.417899966E0
7.226000000E0,8.998000026E-1,4.605999887E-1,-7.917000055E-1
7.246043750E0,1.449299932E0,7.418999672E-1,-6.909999996E-2
7.276000000E0,1.124699950E0,9.847999811E-1,1.207099915E0
7.296000000E0,1.062600017E0,1.026600003E0,2.130499840E0
7.316000000E0,8.675999641E-1,1.085999966E0,2.795399904E0
7.336000000E0,3.104999959E-1,1.106500030E0,3.061499834E0
7.356000000E0,-1.999999881E-1,1.194899917E0,3.437399864E0
7.376001563E0,1.513999999E-1,9.650999904E-1,3.755199909E0
7.406000000E0,1.102100015E0,1.604000032E-1,3.642999887E0
7.426000000E0,1.309099913E0,-6.574000120E-1,3.315799952E0
7.446000000E0,9.677999616E-1,-1.696499944E0,2.653300047E0
7.466000000E0,1.047099948E0,-2.376099825E0,1.729599953E0
7.486000000E0,1.641799927E0,-2.753499985E0,4.325999916E-1
7.506000000E0,2.028199911E0,-2.744899988E0,-8.910999894E-1
7.526000000E0,1.785799980E0,-2.466500044E0,-1.792599916E0
7.546000000E0,1.125599980E0,-2.025599957E0,-2.240200043E0
7.566000000E0,5.812000036E-1,-1.602999926E0,-2.452399969E0
7.586000000E0,3.692999780E-1,-1.237800002E0,-2.891899824E0
7.606000000E0,1.667999923E-1,-6.018999815E-1,-3.074800014E0
7.626000000E0,1.365000010E-1,-1.520999968E-1,-3.264899969E0
7.646000000E0,-6.699999794E-3,1.473999918E-1,-3.547299862E0
7.666000000E0,-3.474999964E-1,4.479999840E-1,-3.874300003E0
7.686000000E0,-5.342000127E-1,6.152999997E-1,-3.957199812E0
7.706000000E0,-6.843999624E-1,8.464999795E-1,-3.425999880E0
7.726000000E0,-8.572999835E-1,9.977999926E-1,-2.205199957E0
7.746001563E0,-9.380999804E-1,1.058599949E0,-1.021199942E0
7.776000000E0,-9.806999564E-1,1.417099953E0,1.150000002E-2
7.796000000E0,-1.027099967E0,1.905499935E0,9.077000022E-1
7.816000000E0,-6.236000061E-1,2.329799891E0,2.063899994E0
7.836000000E0,4.104000032E-1,2.479099989E0,3.218099833E0
7.856000000E0,1.691399932E0,2.384699821E0,4.509200096E0
7.876000000E0,2.472199917E0,2.147799969E0,5.146199703E0
7.896000000E0,2.480599880E0,1.462000012E0,5.397299767E0
7.916000000E0,1.590399981E0,3.585999906E-1,5.688699722E0
7.936000000E0,3.202999830E-1,-6.254000068E-1,5.619199753E0
7.956000000E0,-5.590999722E-1,-1.343400002E0,4.854099751E0
7.976000000E0,-7.260000110E-1,-1.836699963E0,3.574199915E0
7.996000000E0,-3.085999787E-1,-2.158799887E0,2.245199919E0
8.016000000E0,1.630000025E-2,-2.130399942E0,9.730999470E-1
8.036000000E0,6.260000169E-2,-1.772799969E0,-2.868999839E-1
8.056000000E0,1.948999912E-1,-1.505999923E0,-1.461199999E0
8.076000000E0,4.382999837E-1,-1.207399964E0,-2.218799829E0
8.096000000E0,5.263000131E-1,-1.051800013E0,-2.745299816E0
8.116000000E0,3.504999876E-1,-8.896999955E-1,-3.192799807E0
8.136000000E0,1.940999925E-1,-9.402999878E-1,-3.417599916E0
8.156000000E0,2.389999926E-1,-9.422999620E-1,-3.563399792E0
8.176000000E0,3.388999999E-1,-9.140999913E-1,-3.607100010E0
8.196000000E0,5.130999684E-1,-9.259999990E-1,-3.724799871E0
8.216000000E0,4.345999956E-1,-8.774999976E-1,-3.806199789E0
8.236000000E0,2.908999920E-1,-8.794999719E-1,-3.820299864E0
8.256000000E0,1.941999942E-1,-7.788999677E-1,-4.072099686E0
8.276000000E0,-1.675999910E-1,-5.999000072E-1,-4.031099796E0
8.296000000E0,-5.130000040E-2,-4.143999815E-1,-3.168799877E0
8.316000000E0,4.429999739E-2,-2.648999989E-1,-2.142999887E0
8.336000000E0,1.156999990E-1,-3.847999871E-1,-2.456999868E-1
8.356000000E0,2.162999958E-1,-5.841000080E-1,2.058899879E0
8.376001563E0,4.429999739E-2,-8.291999698E-1,4.185299873E0
8.406000000E0,-6.972000003E-1,-3.260999918E-1,5.595200062E0
8.426000000E0,1.556999981E-1,-1.779999882E-1,6.046799660E0
8.446000000E0,1.293999910E0,-3.149999976E-1,6.574999809E0
8.466000000E0,1.620999932E0,-2.836000025E-1,6.326799870E0
8.486000000E0,1.727699995E0,-5.566999912E-1,4.906399727E0
8.506001563E0,1.922099948E0,-7.376999855E-1,3.280699968E0
8.536000000E0,3.022599936E0,-1.079299927E0,2.287299871E0
8.556000000E0,3.614799976E0,-8.902999759E-1,1.889400005E0
8.576001563E0,3.541499853E0,-5.314999819E-1,7.843999863E-1
8.596001563E0,2.648399830E0,-3.073000014E-1,-9.249999523E-1
8.626001563E0,1.477999926E0,-1.714999974E-1,-3.467999935E0
8.646001563E0,1.173200011E0,-1.429999992E-2,-4.073800087E0
8.676000000E0,1.402999997E0,1.955999881E-1,-3.847899914E0
8.696000000E0,1.121500015E0,2.434999943E-1,-3.873199940E0
8.716000000E0,3.628999889E-1,5.223000050E-1,-4.320399761E0
8.736000000E0,-1.040999964E-1,4.904999733E-1,-4.482399940E0
8.756000000E0,-2.658999860E-1,4.855999947E-1,-4.475699902E0
8.776000000E0,-3.483999968E-1,5.586999655E-1,-4.351099968E0
8.796000000E0,-6.287999749E-1,8.435999751E-1,-3.609699965E0
8.816000000E0,-1.017799973E0,8.874999881E-1,-1.980199933E0
8.836000000E0,-1.679899931E0,9.656999707E-1,-9.499999695E-3
8.856000000E0,-2.146999836E0,5.618999600E-1,1.776600003E0
8.876000000E0,-1.728500009E0,-3.570000082E-2,3.397499800E0
8.896000000E0,-8.062999845E-1,-2.518000007E-1,5.093800068E0
8.916000000E0,1.694999933E-1,8.949999511E-2,6.260099888E0
8.936000000E0,4.026999772E-1,3.443999887E-1,5.845499992E0
8.956000000E0,-2.083999962E-1,4.845999777E-1,4.798599720E0
8.976000000E0,-4.201999903E-1,3.172000051E-1,4.388199806E0
8.996000000E0,-5.669999719E-1,-2.462999970E-1,4.209399700E0
9.016000000E0,-1.077999949E0,-5.304999948E-1,3.651999950E0
9.036000000E0,-1.301599979E0,-9.646999836E-1,2.510299921E0
9.056000000E0,-1.219499946E0,-1.259500027E0,6.090999842E-1
9.076001563E0,-6.473000050E-1,-1.337899923E0,-4.260999858E-1
9.106000000E0,2.450999916E-1,-1.393800020E0,-5.549999699E-2
9.126000000E0,3.639999777E-2,-1.407199979E0,-1.644999981E-1
9.146000000E0,-4.355999827E-1,-1.408499956E0,-1.114699960E0
9.166000000E0,-8.027999997E-1,-1.186599970E0,-2.442299843E0
9.186000000E0,-7.154999971E-1,-1.007900000E0,-3.408499956E0
9.206000000E0,-3.315999806E-1,-9.467999935E-1,-3.406399965E0
9.226000000E0,-4.030000046E-2,-1.000900030E0,-3.066399813E0
9.246000000E0,3.862999976E-1,-1.128700018E0,-2.762599945E0
9.266000000E0,4.813999832E-1,-1.050799966E0,-2.505499840E0
9.286000000E0,5.767999887E-1,-1.151399970E0,-2.126999855E0
9.306000000E0,8.553999662E-1,-1.273499966E0,-2.030799866E0
9.326000000E0,1.123099923E0,-1.320799947E0,-2.086899996E0
9.346000000E0,1.035799980E0,-1.069100022E0,-1.891399980E0
9.366004688E0,6.780999899E-1,-9.333999753E-1,-1.301499963E0
9.396000000E0,3.177999854E-1,-1.105099916E0,-1.024399996E0
9.416000000E0,1.463000029E-1,-1.012499928E0,-9.641000032E-1
9.436000000E0,2.377999872E-1,-8.184999824E-1,-8.296999931E-1
9.456000000E0,-2.944999933E-1,-7.839999795E-1,-1.683999896E-1
9.476000000E0,-6.588999629E-1,-4.768999815E-1,9.441999793E-1
9.496000000E0,-3.226999938E-1,4.230999947E-1,2.467799902E0
9.516000000E0,6.069999933E-1,7.286999822E-1,3.909600019E0
9.536000000E0,7.817999721E-1,7.896999717E-1,4.950299740E0
9.556000000E0,7.734000087E-1,3.279999793E-1,5.935599804E0
9.576000000E0,7.675999999E-1,-9.189999849E-2,6.541800022E0
9.596000000E0,1.053499937E0,-6.000999808E-1,6.491399765E0
9.616000000E0,1.722599983E0,-1.207000017E0,5.317299843E0
9.636000000E0,2.248299837E0,-1.401199937E0,3.250499964E0
9.656000000E0,2.319099903E0,-1.310699940E0,8.948999643E-1
9.676000000E0,1.720099926E0,-1.143800020E0,-1.131500006E0
9.696000000E0,9.520999789E-1,-1.180999994E0,-2.328799963E0
9.716000000E0,2.705999911E-1,-1.249699950E0,-3.167500019E0
9.736000000E0,-3.096999824E-1,-1.162299991E0,-4.109299660E0
9.756000000E0,-5.889999866E-1,-1.024999976E0,-4.976200104E0
9.776001563E0,-6.209999919E-1,-8.927999735E-1,-5.675899982E0
9.796001563E0,-7.447999716E-1,-6.197999716E-1,-6.189399719E0
9.826000000E0,-7.944999933E-1,-1.783999950E-1,-5.428599834E0
9.846010938E0,-3.260999918E-1,-3.823999763E-1,-5.496299744E0
9.876001563E0,-1.613899946E0,-1.560999900E-1,-5.400199890E0
9.906001563E0,-2.328699827E0,2.494999915E-1,1.247900009E0
9.936001563E0,-1.694099903E0,8.938999772E-1,4.237499714E0
9.956001563E0,-1.085399985E0,1.017400026E0,5.099199772E0
9.976001563E0,-7.687000036E-1,1.133999944E0,5.305399895E0
1.000600156E1,2.426999956E-1,1.056399941E0,3.475799799E0
1.002600156E1,7.920999527E-1,1.367200017E0,2.483700037E0
1.004600156E1,8.646000028E-1,1.272400022E0,2.648799896E0
1.007600156E1,-4.458999932E-1,6.234999895E-1,4.026499748E0
1.010600000E1,-2.654399872E0,-1.950000040E-2,3.917799950E0
1.012600000E1,-3.135999918E0,-5.359999835E-2,3.091499805E0
1.014600000E1,-2.174900055E0,-2.017999887E-1,2.622200012E0
1.016600000E1,-1.118499994E0,-3.488000035E-1,2.708699942E0
1.018600000E1,-7.813000083E-1,-6.256999969E-1,2.294399977E0
1.020600000E1,-1.258099914E0,-9.222999811E-1,1.077399969E0
1.022600156E1,-1.616899967E0,-1.306399941E0,-5.331000090E-1
1.024600156E1,-1.646699905E0,-1.510499954E0,-2.088799953E0
1.026600156E1,-1.485799909E0,-1.439499974E0,-3.001799822E0
1.028600156E1,-1.087800026E0,-1.483299971E0,-3.429799795E0
1.030600156E1,-5.684999824E-1,-1.546100020E0,-3.940199852E0
1.033600000E1,6.599999964E-2,-1.605799913E0,-4.679699898E0
1.035600000E1,2.874000072E-1,-1.570599914E0,-4.814899921E0
1.037600156E1,2.646999955E-1,-1.581599951E0,-4.580100060E0
1.040600156E1,1.322999895E-1,-1.620299935E0,-4.065899849E0
1.043600156E1,-9.279999882E-2,-1.541099906E0,-2.684399843E0
1.046600000E1,-3.000000026E-3,-1.539199948E0,-3.014999926E-1
1.048600000E1,2.142999917E-1,-1.993699908E0,6.855999827E-1
1.050600156E1,5.570000038E-2,-1.920899987E0,1.026499987E0
1.052600156E1,9.719999880E-2,-1.700799942E0,1.896299958E0
1.055600000E1,4.619999826E-1,-9.297999740E-1,4.232599735E0
1.057600156E1,1.477899909E0,-1.203899980E0,4.861000061E0
1.060600000E1,1.440799952E0,-8.389999866E-1,5.317499638E0
1.062600156E1,1.165899992E0,-1.296700001E0,6.160599709E0
1.064600156E1,8.927999735E-1,-1.347700000E0,6.280200005E0
1.067600000E1,1.576699972E0,-1.515799999E0,4.018799782E0
1.069600156E1,2.460099936E0,-1.135499954E0,2.302399874E0
1.071600156E1,3.202199936E0,-9.516999722E-1,1.194899917E0
1.073600156E1,2.749300003E0,-4.971999824E-1,-1.700000018E-1
1.076600000E1,1.552399993E0,-3.795999885E-1,-2.528199911E0
1.078600000E1,9.386999607E-1,-4.021999836E-1,-4.042999744E0
1.080600156E1,6.060999632E-1,-4.662999809E-1,-5.396499634E0
1.083600156E1,7.027999759E-1,-8.329999447E-2,-6.279599667E0
1.086600156E1,5.559999943E-1,3.026999831E-1,-4.807099819E0
1.089600000E1,-7.560999990E-1,6.579999924E-1,-4.208799839E0
1.091600000E1,-1.379699945E0,3.450999856E-1,-3.737599850E0
1.093600156E1,-1.226599932E0,-9.179999679E-2,-2.953299999E0
1.096600000E1,-8.233000040E-1,1.088999957E-1,-2.073699951E0
1.098600000E1,-9.564999938E-1,2.624000013E-1,-8.188999891E-1
1.100600156E1,-1.187899947E0,2.395000011E-1,1.549099922E0
1.103600000E1,-1.250699997E0,2.232999951E-1,3.538499832E0
1.105600000E1,-1.081599951E0,6.372999549E-1,3.660899878E0
1.107600156E1,-9.178999662E-1,1.176199913E0,3.444399834E0
1.109600156E1,-7.041999698E-1,1.256199956E0,3.155999899E0
1.112600156E1,-1.897999942E-1,5.191000104E-1,4.089999676E0
1.114600156E1,-6.480999589E-1,-1.607999951E-1,5.287499905E0
1.116600156E1,-1.394299984E0,-6.820999980E-1,6.214799881E0
1.119600156E1,-1.487599969E0,-1.857299924E0,5.852099895E0
1.121600156E1,-7.892999649E-1,-2.337899923E0,4.072000027E0
1.123600156E1,-4.111000001E-1,-2.197099924E0,2.378799915E0
1.126600156E1,-1.115000010E0,-1.408599973E0,5.468999743E-1
1.128600156E1,-1.592199922E0,-9.545999765E-1,-1.242999956E-1
1.130600156E1,-1.710999966E0,-5.019999743E-1,-1.011600018E0
1.133600156E1,-5.780000091E-1,-1.256999969E-1,-2.452100039E0
1.136600156E1,6.146000028E-1,-2.189999968E-1,-3.377399921E0
1.139600000E1,1.155699968E0,-6.232999563E-1,-3.950299978E0
1.141600000E1,1.058399916E0,-1.054299951E0,-3.943799973E0
1.143600156E1,1.247900009E0,-1.427999973E0,-3.822099924E0
1.145600156E1,1.237800002E0,-1.538100004E0,-3.674099922E0
1.147600156E1,1.161599994E0,-1.568099976E0,-3.423300028E0
1.150600156E1,1.023699999E0,-1.686800003E0,-2.937500000E0
1.152600156E1,7.488999963E-1,-1.768399954E0,-2.248100042E0
1.155600000E1,2.800999880E-1,-1.821699977E0,-4.609999955E-1
1.157600156E1,4.010999799E-1,-1.835399985E0,7.079999894E-2
1.159600156E1,1.331000030E-1,-1.005299926E0,2.346999943E-1
1.162600156E1,-8.669999987E-2,-2.850000001E-2,1.592499971E0
1.164600156E1,1.968999952E-1,-7.449999452E-2,2.448600054E0
1.166600156E1,-7.809999585E-2,-2.119999938E-2,4.011399746E0
1.169600000E1,-7.972999811E-1,-1.143999994E-1,6.120899677E0
1.171600000E1,-9.405999780E-1,-4.644999802E-1,6.870899677E0
1.173600156E1,4.999999702E-2,-9.985999465E-1,6.667399883E0
1.176600156E1,2.528199911E0,-1.259699941E0,4.477999687E0
1.178600156E1,3.145299911E0,-8.788999915E-1,2.851099968E0
1.180600156E1,2.989300013E0,-6.887999773E-1,1.494499922E0
1.183600000E1,2.418400049E0,-6.916999817E-1,-5.737999678E-1
1.185600000E1,1.817600012E0,-6.897999644E-1,-2.173599958E0
1.187600156E1,9.809999466E-1,-6.811999679E-1,-3.953599930E0
1.190600156E1,5.763999820E-1,-7.856999636E-1,-6.220999718E0
1.193600156E1,8.407999873E-1,-3.849999905E-1,-6.853699684E0
1.196600000E1,6.669999957E-1,4.390999973E-1,-5.908599854E0
1.198600000E1,5.910999775E-1,5.350999832E-1,-4.444699764E0
1.200600156E1,7.256999612E-1,5.582000017E-1,-3.163399935E0
1.203600000E1,-1.541000009E-1,1.174299955E0,-2.167099953E0
1.205600000E1,-8.073999882E-1,1.219399929E0,-1.280399919E0
1.207600156E1,-1.154899955E0,1.296899915E0,2.963999808E-1
1.210600000E1,-1.213199973E0,1.174700022E0,2.195799828E0
1.212600000E1,-1.050599933E0,1.007399917E0,3.337299824E0
1.214600156E1,-9.170999527E-1,8.941999674E-1,4.046299934E0
1.216600156E1,-7.324999571E-1,1.081499934E0,4.614299774E0
1.219600000E1,5.601999760E-1,4.470999837E-1,5.334099770E0
1.221600000E1,8.233000040E-1,-3.226999938E-1,5.770999908E0
1.223604219E1,3.761999905E-1,-8.011999726E-1,5.572099686E0
1.226600156E1,-5.824999809E-1,-1.521499991E0,4.959300041E0
1.228600156E1,-8.710999489E-1,-1.832099915E0,3.837199926E0
1.230600156E1,-6.583999991E-1,-1.912099957E0,2.585199833E0
1.233600156E1,-7.570999861E-1,-1.686800003E0,4.926999807E-1
1.236600156E1,-1.229300022E0,-1.887499928E0,-1.217299938E0
1.239600000E1,-2.158699989E0,-1.864599943E0,-1.618899941E0
1.241600000E1,-2.083099842E0,-1.997399926E0,-2.095999956E0
1.243600156E1,-1.274500012E0,-2.146999836E0,-2.718699932E0
1.246600000E1,3.522000015E-1,-2.056499958E0,-3.907499790E0
1.248600000E1,1.007599950E0,-1.560899973E0,-4.122099876E0
1.250600000E1,8.752999902E-1,-1.029399991E0,-3.630599976E0
1.252600000E1,8.473999500E-1,-9.023000002E-1,-2.892599821E0
1.254600000E1,8.683999777E-1,-7.915999889E-1,-2.576099873E0
1.256600000E1,7.391999960E-1,-5.534999967E-1,-2.200399876E0
1.258600000E1,8.186999559E-1,-3.463000059E-1,-1.782499909E0
1.260600000E1,8.335999846E-1,-2.796999812E-1,-1.004899979E0
1.262600000E1,9.486999512E-1,-2.089999914E-1,-4.475999773E-1
1.264600000E1,1.061100006E0,-1.749999970E-1,-1.257999986E-1
1.266600000E1,8.555999994E-1,-2.320999950E-1,2.066999972E-1
1.268600000E1,3.391999900E-1,-1.219999976E-2,5.679000020E-1
1.270600000E1,-3.235999942E-1,5.385000110E-1,9.890999794E-1
1.272600000E1,-4.704999924E-1,1.109699965E0,1.721399903E0
1.274600000E1,4.843999743E-1,5.352999568E-1,2.409600019E0
1.276600000E1,1.162899971E0,-1.784999967E-1,3.311699867E0
1.278600781E1,6.358999610E-1,-3.975999951E-1,4.860499859E0
1.281600000E1,4.870999753E-1,-1.548200011E0,5.516499996E0
1.283600000E1,1.329899907E0,-2.000599861E0,4.212299824E0
1.285600000E1,2.479599953E0,-1.742999911E0,2.606899977E0
1.287600156E1,2.501299858E0,-9.707999825E-1,2.009599924E0
1.290600000E1,1.730299950E0,-9.985999465E-1,5.102999806E-1
1.292600000E1,9.014999866E-1,-9.379999638E-1,-1.160899997E0
1.294600000E1,1.121999994E-1,-6.125999689E-1,-2.373399973E0
1.296600000E1,-2.360000014E-1,-5.191000104E-1,-2.978899956E0
1.298600000E1,-3.052999973E-1,-5.360999703E-1,-3.457199812E0
1.300600000E1,-3.632999957E-1,-5.848999619E-1,-3.900299788E0
1.302600000E1,-4.294999838E-1,-5.503999591E-1,-4.000100136E0
1.304600000E1,-3.006999791E-1,-5.202000141E-1,-3.744799852E0
1.306600000E1,-1.755999923E-1,-5.282999873E-1,-3.182799816E0
1.308600000E1,-2.642999887E-1,-4.650999904E-1,-2.857300043E0
1.310600000E1,-7.802000046E-1,-5.249999836E-2,-2.442100048E0
1.312600000E1,-1.044899940E0,2.256999910E-1,-1.576900005E0
1.314600000E1,-1.114199996E0,3.912999928E-1,-5.862999558E-1
1.316600000E1,-1.165499926E0,3.409999907E-1,2.597999871E-1
1.318600000E1,-6.805999875E-1,4.227999747E-1,1.143599987E0
1.320600000E1,-4.700999856E-1,7.159999609E-1,2.218999863E0
1.322600156E1,-4.090999961E-1,8.825999498E-1,3.010299921E0
1.325600000E1,3.050999939E-1,1.449499965E0,3.718400002E0
1.327600000E1,1.524399996E0,8.442999721E-1,4.339699745E0
1.329600000E1,1.119799972E0,6.739000082E-1,4.242799759E0
1.331600000E1,6.689999998E-2,2.628000081E-1,3.510099888E0
1.333600000E1,-8.054999709E-1,-2.809000015E-1,1.910999894E0
1.335600000E1,-1.220399976E0,-6.055999994E-1,1.567000002E-1
1.337600156E1,-1.064199924E0,-8.593999743E-1,-3.210999966E-1
1.340600000E1,-1.085999981E-1,-1.477100015E0,3.683999777E-1
1.342600000E1,2.779999971E-1,-1.500800014E0,4.800999761E-1
1.344600000E1,1.349000037E-1,-1.604499936E0,-1.228000000E-1
1.346600000E1,-2.963999808E-1,-1.577799916E0,-7.691999674E-1
1.348600000E1,-8.649999499E-1,-1.298299909E0,-1.033599973E0
1.350600000E1,-1.008299947E0,-1.125699997E0,-1.366699934E0
1.352600000E1,-7.882999778E-1,-9.953999519E-1,-1.889999986E0
1.354600000E1,-5.291999578E-1,-7.410999537E-1,-2.230999947E0
1.356600000E1,-1.308999956E-1,-5.895999670E-1,-2.044100046E0
1.358600000E1,2.678999901E-1,-5.845000148E-1,-1.828899980E0
1.360600000E1,4.315999746E-1,-6.351000071E-1,-1.612699986E0
1.362600000E1,4.301999807E-1,-6.685999632E-1,-1.598699927E0
1.364600000E1,6.110000014E-1,-7.493999600E-1,-1.754199982E0
1.366600000E1,9.274999499E-1,-7.605999708E-1,-1.846899986E0
1.368600000E1,1.288399935E0,-7.914999723E-1,-1.678200006E0
1.370600000E1,1.297099948E0,-7.447999716E-1,-1.418999910E0
1.372600000E1,1.149699926E0,-7.621999979E-1,-1.381199956E0
1.374600000E1,9.960999489E-1,-7.154999971E-1,-1.221599936E0
1.376600000E1,9.246000051E-1,-6.525999904E-1,-6.642000079E-1
1.378600000E1,8.804000020E-1,-4.013999999E-1,7.129999995E-2
1.380600000E1,4.091999829E-1,2.565000057E-1,5.322999954E-1
1.382600000E1,1.162999943E-1,8.657000065E-1,9.790999889E-1
1.384600938E1,2.964999974E-1,7.163999677E-1,1.102399945E0
1.387600000E1,8.199999928E-1,2.782999873E-1,2.022699833E0
1.389600000E1,6.189000010E-1,-1.577000022E-1,4.306299686E0
1.391600000E1,5.236999989E-1,-5.742999911E-1,7.059999943E0
1.393600000E1,9.542999864E-1,-1.259199977E0,7.583299637E0
1.395600000E1,1.932799935E0,-1.769599915E0,5.741999626E0
1.397600000E1,2.470099926E0,-1.659799933E0,3.085199833E0
1.399600000E1,2.297099829E0,-1.270499945E0,8.646999598E-1
1.401600156E1,1.827399969E0,-1.079999924E0,-5.339999795E-1
1.404600000E1,8.297999501E-1,-8.217999935E-1,-1.734299898E0
1.406600000E1,3.497999907E-1,-6.958000064E-1,-2.554999828E0
1.408600156E1,7.599999662E-3,-5.516999960E-1,-3.366899967E0
1.411600000E1,-3.080999851E-1,-2.655999959E-1,-4.362800121E0
1.413600000E1,-3.210999966E-1,-2.949000001E-1,-4.763000011E0
1.415600000E1,-4.089999795E-1,-2.488999963E-1,-4.922800064E0
1.417600000E1,-7.044000030E-1,1.469999924E-2,-4.516499996E0
1.419600000E1,-9.124999642E-1,4.517000020E-1,-3.689499855E0
1.421600000E1,-6.916999817E-1,4.663999975E-1,-2.742899895E0
1.423600000E1,-9.061999917E-1,7.949000001E-1,-1.717099905E0
1.425600000E1,-1.234699965E0,1.290300012E0,-4.057999849E-1
1.427600000E1,-1.483399987E0,1.271899939E0,7.641999722E-1
1.429600000E1,-1.232599974E0,1.020300031E0,1.668999910E0
1.431600000E1,-8.667999506E-1,8.722999692E-1,2.732199907E0
1.433600000E1,-4.988999963E-1,6.740999818E-1,3.957700014E0
1.435600000E1,-7.592999935E-1,9.111999869E-1,4.344500065E0
1.437600156E1,-8.495999575E-1,1.158299923E0,4.175399780E0
1.440600000E1,-7.300999761E-1,4.726999998E-1,4.300699711E0
1.442600156E1,-1.241099954E0,-1.616999954E-1,5.298500061E0
1.444600156E1,-1.965599895E0,-5.949999690E-1,5.612799644E0
1.447600156E1,-3.107699871E0,-1.224699974E0,3.519099951E0
1.450600156E1,-2.946300030E0,-1.477800012E0,5.703999996E-1
1.453600000E1,-1.354300022E0,-1.586199999E0,2.067999989E-1
1.455600000E1,-5.509999990E-1,-1.666199923E0,9.634999633E-1
1.457600156E1,-2.549000084E-1,-1.718599916E0,9.272999763E-1
1.459600156E1,-6.599000096E-1,-1.765199900E0,3.659999743E-2
1.462600000E1,-7.994999886E-1,-1.689199924E0,-9.588999748E-1
1.464600000E1,-4.472999871E-1,-1.643000007E0,-1.185099959E0
1.466600156E1,-4.039999843E-2,-1.668799996E0,-1.610599995E0
1.469600156E1,7.012999654E-1,-1.729599953E0,-2.471199989E0
1.472600156E1,8.126999736E-1,-1.723799944E0,-3.056299925E0
1.475600000E1,5.069000125E-1,-1.500000000E0,-2.836199999E0
1.477600156E1,3.738999963E-1,-1.338099957E0,-2.408900023E0
1.479600156E1,1.952999979E-1,-1.093899965E0,-2.009500027E0
1.481600156E1,1.264999956E-1,-7.148999572E-1,-1.605899930E0
1.483600156E1,3.437999785E-1,-4.043999910E-1,-1.159299970E0
1.485600156E1,4.921000004E-1,-8.810000122E-2,-7.500999570E-1
1.487600156E1,6.309999824E-1,-2.559999935E-2,-1.974999905E-1
1.490600156E1,7.773999572E-1,-7.959999889E-2,9.718999863E-1
1.493600156E1,2.911999822E-1,5.333999991E-1,2.301100016E0
1.495600156E1,5.849999934E-2,1.084100008E0,2.487299919E0
1.497600156E1,5.345999599E-1,8.381999731E-1,2.585199833E0
1.500600156E1,6.121000051E-1,2.865999937E-1,2.248399973E0
1.503600000E1,2.264999896E-1,-8.000999689E-1,2.628999949E0
1.505600000E1,6.495999694E-1,-1.504999995E0,3.040400028E0
1.507600156E1,1.317299962E0,-1.922199965E0,3.210299969E0
1.509600156E1,1.745199919E0,-1.811599970E0,2.484599829E0
1.512600000E1,1.810999990E0,-1.122200012E0,1.533000022E-1
1.514600000E1,1.290399909E0,-5.733999610E-1,-1.213699937E0
1.516600156E1,9.165999889E-1,-4.681999981E-1,-2.265799999E0
1.519600000E1,3.568999767E-1,-3.155999780E-1,-3.193799973E0
1.521600000E1,-1.049999967E-1,-1.714999974E-1,-3.521799803E0
1.523600156E1,-5.622000098E-1,1.659999974E-2,-3.641699791E0
1.526600000E1,-8.130999804E-1,-2.779999934E-2,-3.658299923E0
1.528600000E1,-8.555999994E-1,-6.740000099E-2,-3.349099874E0
1.530600156E1,-7.782999873E-1,-1.074999943E-1,-3.048799992E0
1.533600156E1,-6.631000042E-1,-6.949999928E-2,-1.663100004E0
1.536600156E1,-6.830999851E-1,1.309999973E-1,-8.241999745E-1
1.539600000E1,-6.996999979E-1,4.510999918E-1,-9.399999678E-2
1.541600000E1,-3.563999832E-1,7.042999864E-1,2.097999901E-1
1.543600156E1,1.438999921E-1,8.955999613E-1,7.863000035E-1
1.545600156E1,4.167999923E-1,1.155499935E0,1.545199990E0
1.547600156E1,1.089999974E-1,1.284999967E0,2.451900005E0
1.550600156E1,-9.084999561E-1,1.421299934E0,3.478699923E0
1.552600156E1,-9.113999605E-1,9.933999777E-1,4.047500134E0
1.555600000E1,-1.121799946E0,3.099999949E-2,4.468999863E0
1.557600156E1,-2.002199888E0,1.298999935E-1,3.019399881E0
1.559600156E1,-2.181200027E0,-2.349999920E-2,1.201599956E0
1.562600156E1,-1.666799903E0,-3.861999810E-1,3.387999833E-1
1.565600156E1,-5.523999929E-1,-8.017999530E-1,1.214699984E0
1.567600156E1,-5.062999725E-1,-1.239699960E0,1.042199969E0
1.569600156E1,-1.018100023E0,-1.382300019E0,2.184999883E-1
1.572600156E1,-1.603899956E0,-1.496599913E0,-5.978999734E-1
1.575600000E1,-1.403899908E0,-1.343199968E0,-1.242499948E0
1.577600156E1,-9.445999861E-1,-1.233600020E0,-1.757699966E0
1.579600156E1,-5.983999968E-1,-9.463999867E-1,-2.152899981E0
1.582600000E1,-2.390999943E-1,-6.995999813E-1,-1.742100000E0
1.584601094E1,2.096999884E-1,-9.703999758E-1,-1.262899995E0
1.587600156E1,4.716999829E-1,-9.937999845E-1,-9.338999987E-1
1.590600000E1,1.686999947E-1,-8.481999636E-1,-7.045999765E-1
1.592600000E1,-2.601000071E-1,-6.635999680E-1,-7.696999907E-1
1.594600000E1,-5.063999891E-1,-6.758999825E-1,-1.249499917E0
1.596600000E1,-6.473999619E-1,-5.828999877E-1,-1.578199983E0
1.598600000E1,-5.625000000E-1,-2.298000008E-1,-1.195599914E0
1.600600000E1,-4.342999756E-1,-2.899000049E-1,-4.696999788E-1
1.602600000E1,-3.959999979E-1,-2.906000018E-1,2.018999904E-1
1.604600000E1,-8.227999806E-1,-2.019999921E-2,5.178999901E-1
1.607600156E1,-1.543999910E0,8.240000010E-1,6.554999948E-1
1.610600000E1,-1.132799983E0,7.073999643E-1,1.239599943E0
1.612600000E1,-7.696999907E-1,6.434000134E-1,2.138599873E0
1.614600000E1,-2.459999919E-2,-3.176999986E-1,4.008399963E0
1.616600000E1,2.601999938E-1,-7.967999578E-1,5.956299782E0
1.618600000E1,6.112999916E-1,-1.468599916E0,6.196199894E0
1.620600000E1,1.414299965E0,-1.981399894E0,5.467199802E0
1.622600000E1,1.889999986E0,-1.630399942E0,4.358599663E0
1.624600000E1,2.363800049E0,-1.366500020E0,3.001799822E0
1.626600000E1,2.447299957E0,-1.100999951E0,1.675899982E0
1.628600000E1,2.072799921E0,-9.690999985E-1,3.217000067E-1
1.630600000E1,1.069999933E0,-5.780000091E-1,-1.262099981E0
1.632600000E1,4.066999853E-1,-3.450999856E-1,-2.739599943E0
1.634600000E1,-2.029999904E-2,2.318999916E-1,-3.627599955E0
1.636600313E1,-3.461000025E-1,3.807999790E-1,-4.705999851E0
1.639600000E1,-1.674099922E0,7.172999978E-1,-5.440099716E0
1.641600000E1,-2.520799875E0,7.870000005E-1,-4.716000080E0
1.643600156E1,-2.472499847E0,4.289999902E-1,-3.572000027E0
1.646600000E1,-1.912400007E0,2.474000007E-1,-2.307100058E0
1.648600000E1,-9.562000036E-1,8.959999681E-2,-2.155099869E0
1.650600156E1,-2.662000060E-1,3.307999969E-1,-1.535200000E0
1.652600156E1,4.034000039E-1,2.770999968E-1,-5.819000006E-1
1.655600000E1,1.671999931E0,-1.437999904E-1,8.524000049E-1
1.657600156E1,2.131399870E0,-1.040999964E-1,1.548399925E0
1.659600156E1,2.019999981E0,2.540000081E-1,1.590299964E0
1.662600156E1,1.509599924E0,9.947999716E-1,1.896199942E0
1.665600156E1,2.133800030E0,3.189999983E-2,3.279799938E0
1.667600156E1,1.484399915E0,-4.728999734E-1,4.036600113E0
1.670600000E1,-4.384999871E-1,-9.509999752E-1,2.549299955E0
1.672600156E1,-1.013499975E0,-9.053999782E-1,1.139599919E0
1.675600000E1,-1.636999995E-1,-1.375399947E0,4.989999905E-2
1.677600156E1,-8.839999884E-2,-1.526899934E0,4.320999980E-1
1.680600000E1,-1.075899959E0,-1.248499990E0,6.735999584E-1
1.682600000E1,-1.261999965E0,-1.062500000E0,-7.360000163E-2
1.684600938E1,-9.344999790E-1,-8.722999692E-1,-1.092299938E0
1.687600156E1,-4.438000023E-1,-5.702999830E-1,-2.141000032E0
1.690600000E1,4.684999883E-1,-4.729999900E-1,-2.578299999E0
1.692600000E1,1.134299994E0,-4.435999990E-1,-2.688799858E0
1.694600000E1,1.615499973E0,-3.734000027E-1,-2.505899906E0
1.696600000E1,1.854699969E0,-4.084999859E-1,-2.477699995E0
1.698600000E1,1.536899924E0,-2.356999964E-1,-2.675699949E0
1.700600000E1,1.134099960E0,-1.379999965E-1,-2.894500017E0
1.702600000E1,8.874999881E-1,-2.175000012E-1,-2.864799976E0
1.704600000E1,4.858999848E-1,-1.805000007E-1,-2.491899967E0
1.706600000E1,2.178999931E-1,-7.220000029E-2,-1.884799957E0
1.708600000E1,8.969999850E-2,6.260000169E-2,-1.024899960E0
1.710600000E1,4.069999978E-2,3.476999998E-1,2.732999921E-1
1.713600000E1,-1.828999966E-1,5.345999599E-1,2.016000032E0
1.715600000E1,-5.281999707E-1,8.829999566E-1,2.255499840E0
1.717600000E1,-6.324999928E-1,1.097700000E0,2.094699860E0
1.719600000E1,-1.451999992E-1,6.841999888E-1,2.753999949E0
1.721600000E1,6.317999959E-1,-2.624999881E-1,4.487999916E0
1.723600000E1,8.431999683E-1,-9.825999737E-1,6.240699768E0
1.725600000E1,7.680000067E-1,-1.378399968E0,7.525499821E0
1.727600000E1,1.180999994E0,-1.744099975E0,6.913300037E0
1.729600000E1,2.414299965E0,-1.686100006E0,4.695399761E0
1.731600000E1,3.351500034E0,-1.574000001E0,2.161399841E0
1.733600000E1,3.274799824E0,-1.069299936E0,1.249999925E-2
1.735600000E1,1.786000013E0,8.829999715E-2,-1.530399919E0
1.737600000E1,8.683999777E-1,9.820999503E-1,-2.191499949E0
1.739600000E1,1.592299938E0,6.688999534E-1,-2.744499922E0
1.741600000E1,1.270399928E0,5.798000097E-1,-3.167500019E0
1.743600000E1,-1.871999949E-1,5.353999734E-1,-2.901499987E0
1.745600000E1,-1.016099930E0,-1.929000020E-1,-3.479099989E0
1.747600000E1,-1.478799939E0,-8.377999663E-1,-4.725100040E0
1.749600000E1,-1.745899916E0,-1.364099979E0,-5.723999977E0
1.751600000E1,-2.042700052E0,-1.525200009E0,-6.242599964E0
1.753600000E1,-2.309799910E0,-1.332299948E0,-5.813399792E0
1.755600000E1,-2.227299929E0,-9.527999759E-1,-4.884699821E0
1.757600000E1,-1.703400016E0,-3.862999976E-1,-3.470399857E0
1.759600000E1,-1.089900017E0,1.929999888E-2,-2.078399897E0
1.761600000E1,-9.418999553E-1,6.628999710E-1,-7.592999935E-1
1.763600000E1,-1.365700006E0,1.307999969E0,5.482999682E-1
1.765600000E1,-1.358899951E0,1.027500033E0,2.318300009E0
1.767600000E1,-5.116999745E-1,8.107999563E-1,3.887799978E0
1.769600000E1,2.840000018E-2,1.355999947E0,5.544199944E0
1.771600000E1,3.240999877E-1,1.470699906E0,7.081399918E0
1.773600000E1,7.127999663E-1,9.909999967E-1,7.246500015E0
1.775600000E1,1.958999932E-1,9.358999729E-1,6.392699718E0
1.777600000E1,-6.313999891E-1,8.813999891E-1,5.129199982E0
1.779600000E1,-1.082800031E0,4.778999984E-1,4.317500114E0
1.781600000E1,-7.001999617E-1,-2.597000003E-1,3.620999813E0
1.783600000E1,-2.389999852E-2,-8.380999565E-1,3.079599857E0
1.785600000E1,6.881999969E-1,-1.066299915E0,2.506500006E0
1.787600000E1,1.157799959E0,-1.002200007E0,1.512899995E0
1.789600000E1,1.099900007E0,-1.088500023E0,3.010999858E-1
1.791600000E1,5.843999982E-1,-1.205500007E0,-8.295999765E-1
1.793600000E1,2.799999900E-2,-1.283900023E0,-1.546700001E0
1.795600000E1,-1.741999984E-1,-1.251500010E0,-2.168499947E0
1.797600000E1,9.609999508E-2,-1.246500015E0,-2.777400017E0
1.799600000E1,4.280999899E-1,-1.228199959E0,-3.590399981E0
1.801600000E1,8.050999641E-1,-1.180699944E0,-4.324800014E0
1.803600000E1,1.119300008E0,-1.053599954E0,-4.637899876E0
1.805600000E1,1.189999938E0,-7.762999535E-1,-4.158800125E0
1.807600000E1,1.450699925E0,-8.252999783E-1,-3.569799900E0
1.809600000E1,1.449299932E0,-2.793000042E-1,-3.332499981E0
1.811600000E1,1.220199943E0,3.382999897E-1,-2.997200012E0
1.813600000E1,1.320400000E0,5.662999749E-1,-2.184999943E0
1.815600000E1,1.439999938E0,7.701999545E-1,-1.086699963E0
1.817600000E1,1.656599998E0,6.146999598E-1,5.440999866E-1
1.819600000E1,1.597599983E0,2.032999992E-1,1.939399958E0
1.821600000E1,1.120499969E0,-8.699999750E-2,2.236399889E0
1.823600000E1,1.622999907E-1,2.816999853E-1,1.897599936E0
1.825600000E1,-8.755999804E-1,9.824999571E-1,1.409399986E0
1.827600000E1,-7.321000099E-1,1.059899926E0,1.912299991E0
1.829600156E1,1.034699917E0,5.029999837E-2,3.317299843E0
1.832600000E1,1.731299996E0,-1.113899946E0,5.491499901E0
1.834600000E1,1.233699918E0,-1.640699983E0,6.065499783E0
1.836600000E1,1.958899975E0,-2.462100029E0,4.846199989E0
1.838600000E1,3.530900002E0,-2.909999847E0,2.651999950E0
1.840600000E1,3.819199800E0,-2.350600004E0,9.415999651E-1
1.842600000E1,2.842499971E0,-1.626799941E0,1.185999960E-1
1.844600000E1,1.533100009E0,-9.899999499E-1,-7.774999738E-1
1.846600000E1,4.048999846E-1,-4.720000029E-1,-1.890100002E0
1.848600000E1,-2.061000019E-1,-1.378999949E-1,-2.891299963E0
1.850600000E1,-5.180000067E-1,2.869999968E-2,-3.639199972E0
1.852600000E1,-7.443000078E-1,2.154999971E-1,-4.025499821E0
1.854600000E1,-8.431999683E-1,2.457999885E-1,-4.018300056E0
1.856600000E1,-7.967000008E-1,2.080999911E-1,-3.638299942E0
1.858600000E1,-6.434000134E-1,8.879999816E-2,-3.187199831E0
1.860600000E1,-6.331999898E-1,4.609999806E-2,-2.709399939E0
1.862600000E1,-6.748999953E-1,-4.999999702E-2,-2.347499847E0
1.864600000E1,-8.003999591E-1,9.470000118E-2,-1.980799913E0
1.866600000E1,-9.375000000E-1,4.742999971E-1,-1.189100027E0
1.868600000E1,-1.072199941E0,8.355000019E-1,-4.730999768E-1
1.870600000E1,-1.292899966E0,1.284199953E0,-5.731999874E-1
1.872600000E1,-1.270900011E0,1.521600008E0,0.000000000E0
1.874600000E1,-8.082999587E-1,1.441900015E0,1.210899949E0
1.876600000E1,-3.535999954E-1,9.702999592E-1,2.614300013E0
1.878600000E1,-1.079900026E0,1.011399984E0,3.030799866E0
1.880600000E1,-1.337599993E0,2.586999834E-1,3.667699814E0
1.882600000E1,-5.837000012E-1,-1.231999993E0,3.634500027E0
1.884600938E1,-9.976999760E-1,-8.700000048E-1,3.593799829E0
1.887600156E1,-1.918299913E0,-5.304999948E-1,2.937099934E0
1.890600000E1,-9.526999593E-1,-1.230999947E0,2.207700014E0
1.892600000E1,1.128999963E-1,-1.595600009E0,2.126699924E0
1.894600000E1,1.677999943E-1,-1.581699967E0,2.302299976E0
1.896600000E1,-3.655000031E-1,-1.541399956E0,1.290099978E0
1.898600000E1,-9.465000033E-1,-1.517899990E0,-3.989999741E-2
1.900600000E1,-8.676999807E-1,-1.477299929E0,-6.024999619E-1
1.902600000E1,-1.275399923E0,-8.932999969E-1,-4.654999971E-1
1.904600000E1,-5.324999690E-1,-1.136399984E0,-2.241899967E0
1.906600000E1,5.609999970E-2,-1.125299931E0,-2.493999958E0
1.908600000E1,1.177999973E-1,-1.056800008E0,-2.474699974E0
1.910600000E1,3.599999845E-1,-1.347599983E0,-2.411299944E0
1.912600000E1,3.400000036E-1,-1.213799953E0,-2.387799978E0
1.914600000E1,5.381000042E-1,-1.167199969E0,-2.128700018E0
1.916600000E1,1.572999954E-1,-8.497999907E-1,-2.246799946E0
1.918600000E1,-2.554000020E-1,-6.031000018E-1,-2.369499922E0
1.920600000E1,-3.242999911E-1,-2.933999896E-1,-3.007400036E0
1.922601875E1,-1.686999947E-1,2.575999796E-1,-2.200599909E0
1.925600469E1,1.188399911E0,1.792999953E-1,-1.143599987E0
1.928600000E1,5.370999575E-1,7.310999632E-1,6.129999831E-2
1.930600000E1,5.079999939E-2,8.046000004E-1,8.984999657E-1
1.932600000E1,8.499999531E-3,1.240999937E0,1.530699968E0
1.934600000E1,4.047999978E-1,1.046800017E0,2.805999994E0
1.936600000E1,1.499599934E0,1.981000006E-1,2.896999836E0
1.938600000E1,2.043599844E0,-6.274999976E-1,3.539199829E0
1.940600312E1,1.168299913E0,-6.340000033E-1,4.074100018E0
1.943600000E1,6.640999913E-1,-1.001199961E0,4.092999935E0
1.945600313E1,1.691999912E0,-1.404199958E0,3.041999817E0
1.948600000E1,2.766199827E0,-1.434199929E0,1.341699958E0
1.950600000E1,2.389999866E0,-1.046800017E0,8.949999809E-1
1.952600000E1,1.618999958E0,-4.083999991E-1,5.695999861E-1
1.954600313E1,8.517000079E-1,3.629999980E-2,-2.162999958E-1
1.957600000E1,1.685999930E-1,5.331000090E-1,-1.820699930E0
1.959600313E1,4.008999765E-1,6.649000049E-1,-2.603499889E0
1.962600156E1,4.733999968E-1,7.759000063E-1,-2.787999868E0
1.964600312E1,3.468999863E-1,6.381999850E-1,-2.272699833E0
1.967600156E1,-1.981000006E-1,5.651999712E-1,-1.816999912E0
1.969600625E1,-3.897999823E-1,3.669999838E-1,-2.071599960E0
1.972600156E1,-9.670999646E-1,1.709999889E-1,-2.749899864E0
1.975600000E1,-1.131799936E0,2.760999799E-1,-2.765499830E0
1.977600156E1,-6.135999560E-1,3.265999854E-1,-2.056299925E0
1.979600156E1,-4.185999930E-1,4.350000024E-1,-5.577999949E-1
1.982600000E1,-4.867999852E-1,4.615999758E-1,1.215299964E0
1.984600938E1,-2.495999932E-1,1.475999951E-1,1.105299950E0
1.987600156E1,-3.827999830E-1,7.197999954E-1,8.582999706E-1
1.990600000E1,7.221999764E-1,-8.981999755E-1,2.791399956E0
1.992600000E1,-2.229999900E-1,-7.075999975E-1,4.008999825E0
1.994600156E1,-1.297199965E0,-2.374999970E-1,3.927799940E0
1.997600000E1,-1.208500028E0,-7.699999809E-1,1.602800012E0
1.999600000E1,-4.280999899E-1,-9.083999991E-1,7.967000008E-1
2.001600156E1,2.480999976E-1,-1.118099928E0,1.289399981E0
2.004600000E1,-5.327999592E-1,-8.588999510E-1,1.674099922E0
2.006600000E1,-1.006699920E0,-7.400000095E-1,7.008000016E-1
2.008600156E1,-1.202199936E0,-4.903999865E-1,-5.543999672E-1
2.010600156E1,-1.091899991E0,-3.158999979E-1,-1.389400005E0
2.012600156E1,-9.246000051E-1,-1.824999899E-1,-1.906499982E0
2.015600156E1,-8.689999580E-1,1.303000003E-1,-2.241600037E0
2.017600156E1,-4.511999786E-1,-4.339999706E-2,-2.088799953E0
2.019600156E1,-1.332999915E-1,-3.614999950E-1,-1.938499928E0
2.022600156E1,-2.822999954E-1,-7.426999807E-1,-1.608799934E0
2.025600000E1,-7.040999532E-1,-6.051999927E-1,-1.420099974E0
2.027600156E1,-8.466999531E-1,-5.106999874E-1,-1.464100003E0
2.029600156E1,-4.402999878E-1,-3.910000026E-1,-1.523999929E0
2.032600000E1,4.157999754E-1,-1.412999928E-1,-1.241699934E0
2.034600000E1,6.486999989E-1,-5.599999800E-3,-6.789000034E-1
2.036600156E1,4.550999999E-1,1.177999973E-1,-5.959999934E-2
2.039600000E1,-2.402999997E-1,6.401000023E-1,5.710999966E-1
2.041600000E1,-4.969999790E-1,1.105700016E0,9.891999960E-1
2.043600000E1,-3.562999964E-1,1.138499975E0,1.368899941E0
2.045600000E1,4.698999822E-1,5.392999649E-1,2.231099844E0
2.047600000E1,1.987299919E0,-4.290999770E-1,3.015399933E0
2.049600000E1,2.712999821E0,-7.723999619E-1,3.582700014E0
2.051600000E1,3.101599932E0,-1.188599944E0,4.052400112E0
2.053600000E1,3.257900000E0,-1.661000013E0,3.206899881E0
2.055600000E1,2.938699961E0,-1.799299955E0,1.317799926E0
2.057600000E1,2.135499954E0,-1.458099961E0,-4.194999933E-1
2.059600000E1,1.361299992E0,-1.018999934E0,-1.222599983E0
2.061600000E1,8.779999614E-1,-6.717000008E-1,-1.057099938E0
2.063600000E1,6.450999975E-1,-3.849000037E-1,-7.193999887E-1
2.065600000E1,4.837999940E-1,-5.460000038E-2,-8.503999710E-1
2.067600000E1,1.902000010E-1,1.686999947E-1,-1.477899909E0
2.069600000E1,-2.439000010E-1,3.637999892E-1,-2.349200010E0
2.071600000E1,-5.735999942E-1,4.901999831E-1,-3.124099970E0
2.073600000E1,-7.466999888E-1,4.854999781E-1,-3.701900005E0
2.075600000E1,-9.723999500E-1,6.359999776E-1,-3.776899815E0
2.077600000E1,-1.128700018E0,5.511999726E-1,-3.373899937E0
2.079600000E1,-1.401700020E0,4.492999911E-1,-2.909699917E0
2.081600000E1,-1.761999965E0,4.542999864E-1,-2.260400057E0
2.083600000E1,-1.825599909E0,3.525999784E-1,-1.515999913E0
2.085600000E1,-1.774199963E0,4.912000000E-1,-5.146999955E-1
2.087600156E1,-1.500999928E0,7.570999861E-1,5.798999667E-1
2.090600000E1,-8.078999519E-1,8.575999737E-1,1.588299990E0
2.092600000E1,-4.062999785E-1,7.561999559E-1,2.182399988E0
2.094600000E1,-3.165999949E-1,7.452999949E-1,2.485399961E0
2.096600000E1,-4.954999983E-1,9.056999683E-1,2.250999928E0
2.098600000E1,-5.533999801E-1,1.134099960E0,2.339699984E0
2.100600000E1,-2.610999942E-1,1.111599922E0,2.866600037E0
2.102600000E1,-8.879999816E-2,7.884999514E-1,3.489799976E0
2.104600000E1,-6.341999769E-1,5.155000091E-1,3.446499825E0
2.106600000E1,-1.589399934E0,3.529999852E-1,2.450299978E0
2.108600000E1,-1.922699928E0,3.350000083E-2,1.473999977E0
2.110600000E1,-1.292199969E0,-7.836999893E-1,1.130100012E0
2.112600000E1,-3.674999774E-1,-1.452799916E0,1.398699999E0
2.114600000E1,-2.494999915E-1,-1.382399917E0,1.862899899E0
2.116600000E1,-5.921999812E-1,-1.186299920E0,1.926199913E0
2.118600000E1,-9.390999675E-1,-1.038499951E0,1.240999937E0
2.120600000E1,-9.214999676E-1,-8.220999837E-1,-5.169999972E-2
2.122600000E1,-6.337000132E-1,-5.020999908E-1,-1.239699960E0
2.124600000E1,2.331999987E-1,-5.033000112E-1,-2.067199945E0
2.126600000E1,1.235299945E0,-4.634999931E-1,-2.679800034E0
2.128600000E1,1.675399899E0,-2.866999805E-1,-2.787299871E0
2.130600000E1,1.680999994E0,-4.591999948E-1,-2.539799929E0
2.132600000E1,1.465199947E0,-9.391999841E-1,-2.677199841E0
2.134600000E1,1.177699924E0,-1.364199996E0,-3.015199900E0
2.136600000E1,7.914999723E-1,-1.503899932E0,-3.393699884E0
2.138600000E1,6.085000038E-1,-1.633599997E0,-3.757099867E0
2.140600000E1,5.522999763E-1,-1.840599895E0,-4.228499889E0
2.142600312E1,3.905999959E-1,-1.801899910E0,-4.372499943E0
2.145600000E1,8.599999361E-3,-1.617900014E0,-2.726300001E0
2.147600000E1,-1.108999997E-1,-1.863399982E0,-9.483000040E-1
2.149600000E1,-9.800999761E-1,-1.153699994E0,1.823899984E0
2.151600000E1,-1.464999914E0,-5.202000141E-1,4.537300110E0
2.153600000E1,-1.495100021E0,-3.349999785E-1,4.629699707E0
2.155600000E1,-1.602199912E0,1.895999908E-1,4.764999866E0
2.157600000E1,-2.239799976E0,7.540000081E-1,6.589299679E0
2.159600000E1,-2.930999994E0,1.567199945E0,9.392399788E0
2.161600000E1,-2.392099857E0,1.412500024E0,9.793499947E0
2.163600000E1,-7.488999963E-1,3.215000033E-1,7.682499886E0
2.165600000E1,1.099300027E0,-2.063999921E-1,4.783599854E0
2.167600000E1,2.553099871E0,-3.285000026E-1,2.676699877E0
2.169600000E1,3.339999914E0,-4.230999947E-1,1.172999978E0
2.171600000E1,3.148799896E0,-3.429999948E-1,-2.894999981E-1
2.173600000E1,2.396100044E0,-3.673000038E-1,-1.774699926E0
2.175600000E1,1.510299921E0,-5.392999649E-1,-3.110899925E0
2.177600156E1,1.003799915E0,-7.312999964E-1,-4.237699986E0
2.180600000E1,6.582999825E-1,-6.861000061E-1,-5.270699978E0
2.182600000E1,5.322999954E-1,-6.933000088E-1,-5.570199966E0
2.184600938E1,4.153999984E-1,-6.631999612E-1,-5.767699718E0
2.187600000E1,-9.099999815E-2,-4.343999922E-1,-5.376800060E0
2.189600000E1,-4.118999839E-1,-2.867999971E-1,-4.599299908E0
2.191600000E1,-5.223999619E-1,-1.177999973E-1,-3.425099850E0
2.193600000E1,-4.838999808E-1,1.193999946E-1,-2.853499889E0
2.195600000E1,-5.103999972E-1,4.756999910E-1,-2.342299938E0
2.197600000E1,-6.618999839E-1,7.954999804E-1,-9.657999873E-1
2.199600000E1,-5.433999896E-1,6.280999780E-1,8.535999656E-1
2.201600000E1,6.509999931E-2,4.979999959E-1,2.336400032E0
2.203600000E1,8.089999557E-1,5.177000165E-1,3.372299910E0
2.205600000E1,9.074999690E-1,8.307999969E-1,4.444499969E0
2.207600000E1,4.596999884E-1,1.013599992E0,4.253399849E0
2.209600000E1,-2.976000011E-1,1.227999926E0,3.278499842E0
2.211600000E1,-5.816000104E-1,9.149999619E-1,3.190099955E0
2.213600000E1,-7.875999808E-1,5.325999856E-1,3.967599869E0
2.215600000E1,-1.318300009E0,9.569999576E-2,4.420000076E0
2.217600000E1,-2.024999857E0,-1.835999936E-1,3.959899902E0
2.219600000E1,-2.139400005E0,-5.195999742E-1,3.270299911E0
2.221604062E1,-1.228099942E0,-9.255999923E-1,2.827100039E0
2.224600000E1,-2.222999930E-1,-7.854999900E-1,2.131199837E0
2.226600000E1,-2.249999903E-2,-6.534999609E-1,1.171899915E0
2.228600000E1,1.399999950E-3,-4.839999974E-1,3.136000037E-1
2.230600000E1,9.929999709E-2,-3.682999909E-1,-3.828999996E-1
2.232600000E1,3.953999877E-1,-3.197999895E-1,-1.032500029E0
2.234600000E1,8.865999579E-1,-3.826999962E-1,-1.777099967E0
2.236600000E1,1.104099989E0,-4.752999842E-1,-2.352099895E0
2.238600000E1,1.054799914E0,-6.198999882E-1,-2.561599970E0
2.240600000E1,7.559999824E-1,-1.019799948E0,-2.578599930E0
2.242600000E1,3.625999987E-1,-1.572600007E0,-2.552399874E0
2.244600000E1,1.370000001E-2,-2.336199999E0,-3.246299982E0
2.246600000E1,-3.466999829E-1,-2.666399956E0,-4.576600075E0
2.248600000E1,-6.826999784E-1,-2.598700047E0,-5.455399990E0
2.250600000E1,-9.041000009E-1,-1.975699902E0,-5.365099907E0
2.252600000E1,-7.680000067E-1,-1.283900023E0,-4.630499840E0
2.254600000E1,-5.712999701E-1,-4.982999861E-1,-3.865099907E0
2.256600000E1,3.659999743E-2,1.259000003E-1,-1.227699995E0
2.258600000E1,5.417000055E-1,2.149000019E-1,1.944399953E0
2.260600000E1,4.277999997E-1,7.958999872E-1,3.785300016E0
2.262600000E1,6.709999591E-2,1.547500014E0,4.373899937E0
2.264600000E1,7.502999902E-1,1.356999993E0,4.187399864E0
2.266600000E1,1.391199946E0,1.065299988E0,4.469500065E0
2.268600000E1,1.095199943E0,6.223999858E-1,5.796199799E0
2.270600000E1,1.049899936E0,-9.470000118E-2,7.004399776E0
2.272600000E1,1.961699963E0,-9.415999651E-1,6.403399944E0
2.274600000E1,3.108700037E0,-1.113699913E0,4.293499947E0
2.276600000E1,3.981999874E0,-1.160099983E0,1.928599954E0
2.278600000E1,3.820799828E0,-8.144999743E-1,9.626999497E-1
2.280600000E1,3.087599993E0,-8.919999599E-1,3.630000055E-1
2.282600000E1,1.975299954E0,-9.722999930E-1,-8.603000045E-1
2.284600938E1,9.921000004E-1,-8.923999667E-1,-2.614099979E0
2.287600156E1,1.986999959E-1,-4.854999781E-1,-4.756000042E0
2.290600000E1,1.156999990E-1,-1.334999949E-1,-5.250899792E0
2.292600000E1,-4.900000058E-3,6.780000031E-2,-4.944999695E0
2.294600000E1,-3.163999915E-1,1.570999920E-1,-4.622900009E0
2.296600000E1,-8.403999805E-1,2.527999878E-1,-4.445099831E0
2.298600000E1,-1.196299911E0,4.050999880E-1,-4.487100124E0
2.300600000E1,-1.317399979E0,4.291999936E-1,-4.059700012E0
2.302600000E1,-1.639599919E0,5.324000120E-1,-3.354899883E0
2.304600000E1,-2.207799911E0,9.842000008E-1,-2.311899900E0
2.306600000E1,-2.664899826E0,1.487800002E0,-2.997999787E-1
2.308600000E1,-2.317499876E0,1.433399916E0,2.060099840E0
2.310600000E1,-2.146699905E0,1.491999984E0,4.087999821E0
2.312600000E1,-2.088099957E0,1.518000007E0,4.700299740E0
2.314600000E1,-1.640900016E0,1.124099970E0,4.315499783E0
2.316600000E1,-9.692999721E-1,9.862999916E-1,4.074899673E0
2.318600000E1,-1.960000023E-2,6.363999844E-1,4.858699799E0
2.320600000E1,1.530999988E-1,9.519999474E-2,6.230399609E0
2.322600000E1,-5.449000001E-1,-3.561999798E-1,6.307499886E0
2.324600000E1,-1.476199985E0,-6.065999866E-1,4.668799877E0
2.326600000E1,-1.477999926E0,-1.015699983E0,2.863099813E0
2.328600000E1,-1.115100026E0,-1.100700021E0,1.864699960E0
2.330600000E1,-4.971999824E-1,-1.364099979E0,1.487499952E0
2.332600000E1,-6.266999841E-1,-1.180199981E0,8.165999651E-1
2.334600000E1,-7.529000044E-1,-1.140499949E0,-3.307999969E-1
2.336600000E1,-7.494999766E-1,-1.096400023E0,-1.703299999E0
2.338600000E1,-7.102999687E-1,-8.445000052E-1,-2.564299822E0
2.340600000E1,-4.017999768E-1,-7.216999531E-1,-2.568099976E0
2.342600000E1,1.599999960E-3,-7.699999809E-1,-2.881399870E0
2.344600000E1,2.953000069E-1,-6.068999767E-1,-3.361500025E0
2.346600000E1,5.988999605E-1,-5.259000063E-1,-3.516299963E0
2.348600000E1,9.635999799E-1,-6.157000065E-1,-3.422199965E0
2.350600000E1,1.193899989E0,-7.945999503E-1,-3.725799799E0
2.352600000E1,1.082299948E0,-8.750999570E-1,-3.961599827E0
2.354600000E1,7.943999767E-1,-8.571999669E-1,-3.472499847E0
2.356600000E1,5.487999916E-1,-9.259999990E-1,-2.610199928E0
2.358600000E1,3.817999959E-1,-9.509999752E-1,-2.219799995E0
2.360600000E1,3.640999794E-1,-1.020300031E0,-1.984499931E0
2.362600000E1,3.161000013E-1,-1.077700019E0,-9.747999907E-1
2.364600000E1,2.636999786E-1,-1.283100009E0,8.519999683E-2
2.366600156E1,-5.109999701E-2,-1.233299971E0,6.631999612E-1
2.369600156E1,-9.351999760E-1,3.529999778E-2,1.083400011E0
2.371600156E1,-9.131000042E-1,5.361999869E-1,1.447699904E0
2.373600156E1,2.576999962E-1,5.629999638E-1,2.098500013E0
2.376600000E1,1.719799995E0,2.159999907E-1,3.728199959E0
2.378600156E1,2.241899967E0,-7.933999896E-1,5.227499962E0
2.380600156E1,2.024699926E0,-1.547799945E0,6.556599617E0
2.383600000E1,2.338000059E0,-1.778399944E0,5.450500011E0
2.385600000E1,2.243799925E0,-9.603999853E-1,3.573699951E0
2.387600156E1,2.041300058E0,-2.545000017E-1,1.563899994E0
2.390600000E1,1.749599934E0,7.149999589E-2,-5.572000146E-1
2.392600000E1,1.276499987E0,3.876000047E-1,-1.533399940E0
2.394600156E1,8.883999586E-1,4.416999817E-1,-2.865099907E0
2.397600156E1,2.325999886E-1,4.274999797E-1,-5.018699646E0
2.400600000E1,-2.744999826E-1,3.987999856E-1,-6.325199604E0
2.402600000E1,-5.318999887E-1,5.307999849E-1,-6.367499828E0
2.404600000E1,-7.669999599E-1,6.401000023E-1,-6.033899784E0
2.406600000E1,-1.075600028E0,6.312999725E-1,-4.930500031E0
2.408600000E1,-1.271199942E0,6.137999892E-1,-3.355599880E0
2.410600000E1,-1.225700021E0,7.554000020E-1,-1.475499988E0
2.412600000E1,-1.323400021E0,8.655999899E-1,-2.231999934E-1
2.414600000E1,-1.568699956E0,7.296999693E-1,-3.753999770E-1
2.416600000E1,-1.545799971E0,6.936999559E-1,-5.726999640E-1
2.418600000E1,-7.608000040E-1,5.333999991E-1,5.777999759E-1
2.420600000E1,-5.085999966E-1,5.637999773E-1,3.412499905E0
2.422600000E1,-7.730999589E-1,1.241099954E0,6.450399876E0
2.424600000E1,1.828999966E-1,2.802000046E-1,8.967700005E0
2.426600000E1,1.007599950E0,-8.719999790E-1,9.657199860E0
2.428600156E1,4.759999812E-1,-1.115599990E0,8.303400040E0
2.430600156E1,-8.292999864E-1,-7.324000001E-1,5.960000038E0
2.433600000E1,-4.277999997E-1,-8.269000053E-1,3.494799852E0
2.435600156E1,1.378700018E0,-1.395200014E0,2.723700047E0
2.437600156E1,1.521999955E0,-8.836999536E-1,2.121599913E0
2.440600000E1,-7.569999993E-2,-4.679999948E-1,2.305999994E-1
2.442600000E1,-6.661999822E-1,-4.072999954E-1,-1.266999960E0
2.444600156E1,-5.005999804E-1,-3.367999792E-1,-2.357300043E0
2.447600156E1,-3.429999948E-2,-1.908999979E-1,-2.373100042E0
2.450600000E1,2.648999989E-1,-1.552999914E-1,-2.739799976E0
2.452600156E1,2.868999839E-1,-3.184999824E-1,-3.852799892E0
2.455600000E1,2.889999934E-2,-3.006999791E-1,-4.006299973E0
2.457600156E1,-1.620000042E-2,-6.491999626E-1,-3.425599813E0
2.459600156E1,-3.123999834E-1,-7.678999901E-1,-2.865200043E0
2.462600156E1,-2.164999992E-1,-6.036999822E-1,-2.247599840E0
2.465600156E1,8.329999447E-2,-4.967999756E-1,-2.923300028E0
2.467600156E1,4.688999951E-1,-3.800999820E-1,-2.057699919E0
2.469600156E1,1.507200003E0,-6.370999813E-1,-5.798999667E-1
2.472600156E1,3.291999996E-1,-7.114999890E-1,8.720999956E-1
2.475600000E1,-2.054600000E0,-5.059999973E-2,7.886999846E-1
2.477600156E1,-2.512699842E0,6.543999910E-1,8.470000029E-1
2.479600156E1,-1.757499933E0,6.329999566E-1,1.989299893E0
2.481600156E1,5.095999837E-1,-2.359999903E-2,3.742499828E0
2.484601094E1,2.144199848E0,-1.260299921E0,6.184999943E0
2.487600156E1,1.423699975E0,-2.452800035E0,6.269499779E0
2.490600000E1,1.761599898E0,-1.955799937E0,2.420899868E0
2.492600000E1,2.649699926E0,-9.952999949E-1,8.269999921E-2
2.494600156E1,2.776999950E0,-1.653999984E-1,-6.280999780E-1
2.497600156E1,1.371799946E0,6.112999916E-1,-5.501999855E-1
2.500600000E1,3.371999860E-1,9.667999744E-1,-2.110699892E0
2.502600156E1,-3.700000048E-2,1.105000019E0,-3.552199841E0
2.505600156E1,-1.796000004E-1,1.274799943E0,-4.583199978E0
2.507600156E1,-4.820000008E-2,1.054299951E0,-4.299499989E0
2.509600156E1,-7.559999824E-2,9.253000021E-1,-3.828699827E0
2.512600156E1,-7.666999698E-1,7.939999700E-1,-2.483399868E0
2.515600156E1,-1.039399981E0,7.653999925E-1,-1.732100010E0
2.518600000E1,-5.690000057E-1,7.512999773E-1,-9.402999878E-1
2.520600000E1,-1.896999925E-1,5.893999934E-1,-3.739999831E-1
2.522600156E1,-4.349999875E-2,3.741999865E-1,7.499999553E-2
2.525600000E1,3.628000021E-1,-4.600000009E-2,9.838999510E-1
2.527600000E1,4.865999818E-1,-2.264999896E-1,1.384999990E0
2.529600156E1,1.871999949E-1,1.491999924E-1,2.059299946E0
2.531600156E1,4.830999970E-1,1.920000017E-1,3.774299860E0
2.534600156E1,5.791000128E-1,-2.300999910E-1,4.985799789E0
2.536600156E1,-6.384999752E-1,3.743000031E-1,3.735799789E0
2.538600156E1,-9.765999913E-1,2.963999808E-1,1.829699993E0
2.541600156E1,-1.475999951E-1,-6.376999617E-1,4.036999941E-1
2.543600469E1,6.749999523E-2,-1.408800006E0,7.240999937E-1
2.546600000E1,-7.653999925E-1,-8.556999564E-1,9.081999660E-1
2.548600156E1,-2.665999830E-1,-8.633999825E-1,6.574000120E-1
2.551600156E1,-3.106999993E-1,-5.371999741E-1,-5.760999918E-1
2.554600156E1,-7.620000094E-2,-4.319999814E-1,-2.125099897E0
2.557600156E1,3.590000048E-2,-6.542999744E-1,-3.205299854E0
2.559600625E1,2.680999935E-1,-8.162999749E-1,-2.973599911E0
2.562600156E1,8.606999516E-1,-8.718999624E-1,-2.823199987E0
2.565600156E1,6.895999908E-1,-7.637000084E-1,-2.791899920E0
2.568600938E1,5.631999969E-1,-6.671000123E-1,-2.403399944E0
2.571600000E1,3.612999916E-1,-6.807000041E-1,-1.327399969E0
2.573600156E1,-1.001999974E-1,-6.464999914E-1,-1.220199943E0
2.576600000E1,-3.247999847E-1,-8.046999574E-1,-1.229200006E0
2.578600781E1,-4.660999775E-1,-4.694999754E-1,-6.110999584E-1
2.581600156E1,-9.627999663E-1,7.488999963E-1,2.428599834E0
2.584601094E1,-2.305299997E0,2.433599949E0,3.740499973E0
2.587600156E1,7.117999792E-1,1.294299960E0,3.410699844E0
2.590600000E1,1.270699978E0,2.620999813E-1,2.935099840E0
2.592600000E1,7.400999665E-1,-3.754999936E-1,2.686100006E0
2.594600156E1,5.934000015E-1,-7.953999639E-1,3.445899963E0
2.597600000E1,1.582999945E0,-1.121999979E0,3.961099863E0
2.599600000E1,2.590899944E0,-1.325999975E0,3.178799868E0
2.601600156E1,2.635200024E0,-9.854999781E-1,1.856699944E0
2.603600156E1,1.817699909E0,-6.500999928E-1,6.678999662E-1
2.605600156E1,9.573999643E-1,-5.570999980E-1,-2.457999885E-1
2.607600938E1,5.238999724E-1,-5.264999866E-1,-1.053399920E0
2.610600000E1,2.969000041E-1,-1.806999892E-1,-2.321799994E0
2.612600781E1,6.157999635E-1,-1.044999957E-1,-3.068699837E0
2.615600156E1,3.445999920E-1,9.899999946E-2,-3.777699947E0
2.617600469E1,-5.209999904E-2,8.079999685E-2,-4.190099716E0
2.620600000E1,-2.811999917E-1,1.667999923E-1,-3.596799850E0
2.622600156E1,-6.679999828E-2,-1.399999950E-3,-2.610299826E0
2.625600000E1,-7.159000039E-1,4.616999924E-1,-1.469799995E0
2.627600469E1,-1.100099921E0,7.048000097E-1,-1.259500027E0
2.630600000E1,-4.640999734E-1,8.198999763E-1,-4.160999954E-1
2.632600469E1,-7.310000062E-2,8.641999960E-1,5.751999617E-1
2.635600000E1,8.946999907E-1,5.819999576E-1,1.537999988E0
2.637600781E1,7.953000069E-1,9.065999985E-1,2.217499971E0
2.640600000E1,3.944000006E-1,1.239499927E0,2.970599890E0
2.642600625E1,8.546999693E-1,4.285999835E-1,3.366799831E0
2.645600000E1,-5.546999574E-1,3.005999923E-1,3.245499849E0
2.647600000E1,-1.390900016E0,-7.149999589E-2,2.529700041E0
2.649600000E1,-1.486899972E0,-5.712999701E-1,1.879099965E0
2.651600000E1,-1.166499972E0,-1.096099973E0,1.468699932E0
2.653600000E1,-9.116999507E-1,-1.058599949E0,1.641199946E0
2.655600156E1,-5.931999683E-1,-8.190000057E-1,1.603399992E0
2.658600000E1,7.559999824E-2,-6.474999785E-1,3.346000016E-1
2.660600000E1,5.749999732E-2,-4.839999974E-1,-9.449999928E-1
2.662600000E1,2.329999954E-2,-3.050000072E-1,-1.948899984E0
2.664600000E1,2.630999982E-1,-3.713999987E-1,-2.615499973E0
2.666600000E1,5.000000000E-1,-4.757999778E-1,-2.805199862E0
2.668600000E1,7.611999512E-1,-6.043999791E-1,-2.840499878E0
2.670600000E1,9.106000066E-1,-7.324999571E-1,-2.925499916E0
2.672600000E1,7.786999941E-1,-7.666999698E-1,-2.969300032E0
2.674600000E1,5.464000106E-1,-7.231999636E-1,-2.963599920E0
2.676600000E1,3.953999877E-1,-6.958999634E-1,-2.753199816E0
2.678600000E1,1.045999974E-1,-6.139000058E-1,-2.407399893E0
2.680600000E1,-2.017000020E-1,-5.044999719E-1,-1.816199899E0
2.682600000E1,-3.352999985E-1,-3.145000041E-1,-1.144999981E0
2.684600938E1,2.699999837E-3,-4.140999913E-1,-5.184000134E-1
2.687600156E1,-2.046999931E-1,3.869999945E-2,8.289999515E-2
2.690600000E1,-1.381899953E0,1.145699978E0,8.481000066E-1
2.692600000E1,-1.327199936E0,1.827799916E0,1.912699938E0
2.694600000E1,1.718999892E-1,1.577600002E0,3.286700010E0
2.696600000E1,1.905799985E0,1.170400023E0,4.454199791E0
2.698600000E1,2.376299858E0,8.004999757E-1,5.395299911E0
2.700600000E1,2.189699888E0,-3.112999797E-1,5.995299816E0
2.702600000E1,2.037400007E0,-1.500499964E0,5.255699635E0
2.705599844E1,2.089299917E0,-1.894699931E0,2.536099911E0
2.707600000E1,2.663499832E0,-1.446900010E0,5.087999701E-1
2.709600000E1,2.673599958E0,-1.016099930E0,-6.901999712E-1
2.711600000E1,1.532799959E0,-8.364999890E-1,-8.729999661E-1
2.713600000E1,1.454999894E-1,-8.830999732E-1,-1.229200006E0
2.715600000E1,-6.143999696E-1,-9.530999660E-1,-2.297299862E0
2.717600000E1,-1.165899992E0,-5.196999907E-1,-2.791399956E0
2.719600000E1,-9.475999475E-1,-1.393999904E-1,-2.736799955E0
2.721600000E1,-3.746999800E-1,-9.889999777E-2,-2.863899946E0
2.723600000E1,-3.188999891E-1,2.459999919E-2,-3.125999928E0
2.725600000E1,-4.491999745E-1,1.622999907E-1,-3.092099905E0
2.727600000E1,-2.454999983E-1,-5.309999734E-2,-2.958099842E0
2.729600000E1,-1.640999913E-1,-3.959999979E-2,-2.817099810E0
2.731600000E1,-6.154999733E-1,3.185999990E-1,-2.408799887E0
2.733600000E1,-6.017999649E-1,5.313999653E-1,-1.765499949E0
2.735600000E1,-8.329999447E-2,7.005000114E-1,-1.143100023E0
2.737600156E1,3.834999800E-1,8.781999946E-1,-3.637999892E-1
2.740600000E1,1.506999969E0,7.781999707E-1,8.930000067E-1
2.742600000E1,1.552999973E0,7.860999703E-1,1.322799921E0
2.744600156E1,3.915999830E-1,1.136099935E0,1.428900003E0
2.747600000E1,-5.787000060E-1,1.278499961E0,2.012599945E0
2.749600000E1,-3.075999916E-1,7.928000093E-1,2.523599863E0
2.751600000E1,-1.021999955E0,8.065999746E-1,2.536399841E0
2.753600000E1,-1.885699987E0,5.737000108E-1,1.674999952E0
2.755600000E1,-1.827199936E0,2.058999985E-1,9.898999929E-1
2.757600000E1,-6.858999729E-1,-8.517000079E-1,1.007900000E0
2.759600000E1,-1.689999998E-1,-1.472000003E0,1.936999917E0
2.761600000E1,-2.996999919E-1,-1.595899940E0,2.713299990E0
2.763600000E1,-2.712000012E-1,-1.664899945E0,2.547600031E0
2.765600000E1,-2.838999927E-1,-1.503799915E0,8.781999946E-1
2.767600000E1,-2.057999969E-1,-9.865999818E-1,-8.937999606E-1
2.769600000E1,1.564999968E-1,-3.563999832E-1,-1.994799972E0
2.771600000E1,1.176100016E0,1.300999969E-1,-2.875099897E0
2.773600156E1,2.161999941E0,5.555999875E-1,-3.280999899E0
2.776600000E1,2.533399820E0,6.570000052E-1,-2.717299938E0
2.778600000E1,2.233299971E0,-7.079999894E-2,-2.436399937E0
2.780600000E1,1.076300025E0,-7.850999832E-1,-2.586400032E0
2.782600000E1,-3.202999830E-1,-1.172199965E0,-3.082700014E0
2.784600938E1,-1.380999923E0,-1.326799989E0,-3.728799820E0
2.787600000E1,-2.368099928E0,-1.057899952E0,-3.607999802E0
2.789600000E1,-2.171200037E0,-9.740999937E-1,-2.315500021E0
2.791600000E1,-1.743999958E0,-6.345999837E-1,-7.103999853E-1
2.793600000E1,-1.234799981E0,2.659999952E-2,1.073099971E0
2.795600000E1,-1.103299975E0,6.094999909E-1,2.512099981E0
2.797600000E1,-2.008300066E0,1.846399903E0,3.072099924E0
2.799600000E1,-2.774299860E0,3.085099936E0,3.869699955E0
2.801600000E1,-1.666700006E0,2.818399906E0,5.359999657E0
2.803600000E1,9.629999846E-2,1.591099977E0,7.423399925E0
2.805600000E1,4.802999794E-1,6.074999571E-1,9.214499474E0
2.807600000E1,1.383000016E-1,-2.547999918E-1,9.006799698E0
2.809600000E1,8.291999698E-1,-1.324800014E0,6.637699604E0
2.811600000E1,2.648499966E0,-2.260200024E0,3.381299973E0
2.813600000E1,3.977399826E0,-2.241199970E0,1.056599975E0
2.815600000E1,4.101099968E0,-1.919499993E0,-2.527999878E-1
2.817600000E1,3.243700027E0,-1.522199988E0,-1.145399928E0
2.819600000E1,2.294800043E0,-1.548399925E0,-2.360499859E0
2.821600000E1,1.360700011E0,-1.608099937E0,-3.654199839E0
2.823600000E1,6.313999891E-1,-1.355499983E0,-4.684499741E0
2.825600000E1,3.910999894E-1,-1.120599985E0,-5.453700066E0
2.827600000E1,2.974999845E-1,-8.518999815E-1,-5.754399776E0
2.829600000E1,-1.683999896E-1,-3.916999996E-1,-5.038700104E0
2.831600000E1,-6.721999645E-1,-1.459999979E-1,-3.148999929E0
2.833600000E1,-1.157099962E0,-1.042999998E-1,-1.252300024E0
2.835600000E1,-7.895999551E-1,-3.669999912E-2,-9.231999516E-1
2.837600000E1,-1.181999967E-1,6.399999559E-2,-1.314800024E0
2.839600000E1,1.826999933E-1,4.745000005E-1,-1.006099939E0
2.841600000E1,1.166999936E-1,6.667000055E-1,2.529999986E-2
2.843600000E1,7.899999619E-3,8.686999679E-1,1.788199902E0
2.845600000E1,1.322000027E-1,8.356999755E-1,2.865999937E0
2.847600000E1,5.494999886E-1,7.129999995E-1,3.157899857E0
2.849600000E1,8.130999804E-1,8.646999598E-1,2.795699835E0
2.851600000E1,2.735999823E-1,1.347100019E0,2.064699888E0
2.853600000E1,-1.551000029E-1,1.735599995E0,1.803799987E0
2.855600000E1,6.080999970E-1,4.238999784E-1,1.599399924E0
2.857600000E1,9.479999542E-2,9.969999641E-2,1.341899991E0
2.859600000E1,-1.686899900E0,6.604999900E-1,7.599999905E-1
2.861600000E1,-2.583199978E0,4.133999944E-1,7.918999791E-1
2.863600000E1,-2.000699997E0,-5.433999896E-1,7.044000030E-1
2.865600000E1,-7.013999820E-1,-1.455099940E0,1.058699965E0
2.867600000E1,-1.175999939E-1,-1.509999990E0,1.678099990E0
2.869600000E1,8.389999717E-2,-1.491799951E0,1.928200006E0
2.871600000E1,1.459999941E-2,-1.330999970E0,5.375999808E-1
2.873600000E1,-2.814999819E-1,-1.057699919E0,-1.143700004E0
2.875600000E1,-2.266999930E-1,-8.888999820E-1,-2.584800005E0
2.877600156E1,3.799999878E-2,-6.877999902E-1,-2.774499893E0
2.880600000E1,3.260000050E-1,-6.383000016E-1,-2.186800003E0
2.882600000E1,4.167999923E-1,-5.698999763E-1,-2.126699924E0
2.884600938E1,5.507000089E-1,-8.011999726E-1,-2.263599873E0
2.887600000E1,1.733999997E-1,-9.670999646E-1,-2.266599894E0
2.889600000E1,-1.360999942E-1,-7.942999601E-1,-2.147399902E0
2.891600000E1,-2.474000007E-1,-5.221999884E-1,-1.603500009E0
2.893600000E1,-1.538999975E-1,-4.362999797E-1,-1.175699949E0
2.895600000E1,-3.238999844E-1,-2.245000005E-1,-7.690999508E-1
2.897600000E1,-5.220000148E-1,-2.825999856E-1,-3.826999962E-1
2.899600000E1,-1.035899997E0,1.085999981E-1,-1.096000001E-1
2.901600000E1,-1.586799979E0,8.904999495E-1,4.725999832E-1
2.903600000E1,-2.002199888E0,1.817099929E0,9.292999506E-1
2.905600000E1,-1.606400013E0,1.869199991E0,1.534299970E0
2.907600000E1,-9.559999406E-2,6.410999894E-1,2.475699902E0
2.909600000E1,8.531999588E-1,-2.500999868E-1,2.979499817E0
2.911600000E1,7.609999776E-1,-7.976999879E-1,3.483699799E0
2.913600000E1,4.442999959E-1,-1.267099977E0,3.698899984E0
2.915600000E1,1.027099967E0,-1.852899909E0,2.878599882E0
2.917600000E1,2.106799841E0,-1.678299904E0,1.286599994E0
2.919600000E1,2.720000029E0,-1.548299909E0,-1.683999896E-1
2.921600000E1,2.398699999E0,-1.348999977E0,-7.368999720E-1
2.923600000E1,1.903899908E0,-1.369300008E0,-1.284899950E0
2.925600000E1,1.600299954E0,-1.450399995E0,-2.047899961E0
2.927600000E1,1.100299954E0,-9.316999912E-1,-2.663499832E0
2.929600000E1,7.558000088E-1,-6.403999925E-1,-3.293699980E0
2.931600000E1,4.183999896E-1,-3.352999985E-1,-3.626099825E0
2.933600000E1,1.515000015E-1,3.500000015E-2,-3.936899900E0
2.935600000E1,-3.969999775E-2,2.793999910E-1,-4.189000130E0
2.937600156E1,-3.740999997E-1,7.028999925E-1,-4.263999939E0
2.940600000E1,-5.584999919E-1,8.535999656E-1,-2.995100021E0
2.942600000E1,-8.828999996E-1,7.985999584E-1,-2.262599945E0
2.944600000E1,-1.166999936E0,8.628000021E-1,-1.754999995E0
2.946600000E1,-7.744999528E-1,8.422999978E-1,-6.068999767E-1
2.948600000E1,-7.861999869E-1,1.022899985E0,6.735000014E-1
2.950600000E1,-1.219499946E0,1.209399939E0,1.552899957E0
2.952600000E1,-1.179700017E0,9.781999588E-1,1.497399926E0
2.954600000E1,-8.779999614E-1,8.951999545E-1,1.748699903E0
2.956600000E1,-6.825999618E-1,6.692000031E-1,2.545300007E0
2.958600000E1,-4.409999847E-1,6.026999950E-1,3.754599810E0
2.960600000E1,-1.588999927E-1,6.381999850E-1,4.304500103E0
2.962600000E1,-2.529999986E-2,5.090000033E-1,4.795799732E0
2.964600000E1,-1.277000010E-1,3.709999844E-2,4.661600113E0
2.966600000E1,-8.558999896E-1,-2.989999950E-2,3.600600004E0
2.968600000E1,-1.109399915E0,-1.779999882E-1,2.398399830E0
2.970600000E1,-7.464999557E-1,-4.486999810E-1,1.687699914E0
2.972600000E1,-4.717999995E-1,-6.798999906E-1,1.498600006E0
2.974600000E1,-7.569999695E-1,-6.661999822E-1,1.472899914E0
2.976600000E1,-1.077299953E0,-7.069999576E-1,7.203999758E-1
2.978600000E1,-1.419499993E0,-6.204999685E-1,-2.806999981E-1
2.980600000E1,-1.590699911E0,-5.462999940E-1,-1.254699945E0
2.982600000E1,-1.566999912E0,-5.648999810E-1,-2.042000055E0
2.984600938E1,-1.291299939E0,-4.642999768E-1,-2.518699884E0
2.987600000E1,-6.000999808E-1,-6.083999872E-1,-2.709499836E0
2.989600000E1,-2.877999842E-1,-6.020999551E-1,-2.793900013E0
2.991600000E1,4.589999840E-2,-5.968999863E-1,-2.714399815E0
2.993600000E1,1.678999960E-1,-6.530999541E-1,-2.592099905E0
2.996600000E1,9.889999777E-2,-8.590999842E-1,-2.417199850E0
2.998600000E1,-8.519999683E-2,-9.667999744E-1,-2.343499899E0
3.000600000E1,-1.524000019E-1,-8.561999798E-1,-2.200999975E0
3.002600156E1,-1.868999898E-1,-5.807999969E-1,-1.856099963E0
3.005600000E1,-1.085999981E-1,-6.771000028E-1,-2.441999912E-1
3.007600156E1,3.041000068E-1,-9.654999971E-1,1.027400017E0
3.009600156E1,1.862999946E-1,-8.816999793E-1,2.111999989E0
3.012600000E1,-1.105000019E0,-5.345000029E-1,3.663800001E0
3.014600000E1,-1.252599955E0,1.554999948E-1,3.071799994E0
3.016600156E1,3.073000014E-1,-3.350000083E-2,2.554899931E0
3.019600000E1,2.535300016E0,2.210999876E-1,3.887899876E0
3.021600000E1,2.266099930E0,4.021999836E-1,5.134900093E0
3.023600156E1,1.523000002E0,-8.769999444E-2,5.101999760E0
3.026600000E1,2.486299992E0,-8.098999858E-1,4.261199951E0
3.028600000E1,3.267400026E0,-5.291000009E-1,3.247099876E0
3.030600156E1,3.207199812E0,-2.056999952E-1,1.710299969E0
3.033600000E1,2.125999928E0,2.699999837E-3,-3.457999825E-1
3.035600000E1,1.007799983E0,5.123999715E-1,-1.625199914E0
3.037600156E1,2.960999906E-1,8.825999498E-1,-3.069700003E0
3.040600000E1,4.915999770E-1,8.244000077E-1,-5.122299671E0
3.042600000E1,6.517999768E-1,7.881999612E-1,-5.287399769E0
3.044600625E1,-8.439999819E-2,7.233999968E-1,-5.421299934E0
3.047600156E1,-1.577799916E0,5.906999707E-1,-5.257299900E0
3.050600000E1,-1.810099959E0,6.889999658E-2,-4.457299709E0
3.052600000E1,-1.634499907E0,1.429999918E-1,-3.478600025E0
3.054600000E1,-1.742900014E0,4.214999974E-1,-1.774899960E0
3.056600000E1,-2.102200031E0,7.868999839E-1,-1.093999967E-1
3.058600000E1,-1.429700017E0,4.899999797E-1,6.455000043E-1
3.060600000E1,1.150000002E-2,2.515999973E-1,1.161999941E0
3.062600000E1,9.343000054E-1,2.181999981E-1,2.041399956E0
3.064600000E1,1.011799932E0,7.163999677E-1,2.975499868E0
3.066600000E1,8.952999711E-1,8.768000007E-1,3.428900003E0
3.068600000E1,8.481999636E-1,4.661999941E-1,3.722199917E0
3.070600000E1,6.223999858E-1,1.460999995E-1,4.504199982E0
3.072600000E1,-7.449999452E-2,8.789999783E-2,4.942599773E0
3.074600000E1,-8.608999848E-1,-2.777000070E-1,3.835199833E0
3.076600000E1,-9.825999737E-1,-7.441999912E-1,2.610399961E0
3.078600000E1,-3.057999909E-1,-1.168099999E0,2.617899895E0
3.080600000E1,3.301999867E-1,-1.208099961E0,3.206899881E0
3.082600000E1,4.482999742E-1,-1.054000020E0,2.900799990E0
3.084600938E1,-2.949999869E-1,-7.204999924E-1,1.658800006E0
3.087600156E1,-1.140299916E0,-4.738999903E-1,-5.564999580E-1
3.090600000E1,-9.791999459E-1,-1.710999906E-1,-2.131599903E0
3.092600000E1,-3.441999853E-1,-1.004999951E-1,-2.963399887E0
3.094600156E1,4.453999996E-1,-2.500999868E-1,-3.747299910E0
3.096600156E1,4.667999744E-1,-3.152000010E-1,-4.598599911E0
3.098600156E1,2.273999900E-1,-4.253999889E-1,-5.009399891E0
3.101600156E1,8.810000122E-2,-7.969999909E-1,-4.983900070E0
3.104600000E1,2.987999916E-1,-8.264999986E-1,-4.049900055E0
3.106600000E1,3.730999827E-1,-8.253999949E-1,-3.134199858E0
3.108600156E1,-7.899999619E-3,-6.724999547E-1,-2.201900005E0
3.111600000E1,1.617999971E-1,-1.090600014E0,-3.621999919E-1
3.113600000E1,6.561999917E-1,-1.385200024E0,2.554000020E-1
3.115600156E1,5.726000071E-1,-1.396600008E0,7.270999551E-1
3.117600156E1,-1.582999974E-1,-5.594999790E-1,1.021299958E0
3.120600000E1,-1.164499998E0,6.468999982E-1,1.565199971E0
3.122600156E1,-4.296999872E-1,4.517999887E-1,1.969299912E0
3.124600156E1,3.113999963E-1,6.462999582E-1,3.829399824E0
3.127600156E1,5.267999768E-1,8.610999584E-1,8.268400192E0
3.130600156E1,1.024799943E0,-5.956000090E-1,8.967700005E0
3.133600000E1,2.166899920E0,-1.170899987E0,5.670399666E0
3.135600000E1,2.510499954E0,-7.922999859E-1,3.893099785E0
3.137600156E1,2.121700048E0,-4.610999823E-1,2.302000046E0
3.140600000E1,1.387599945E0,-2.531999946E-1,-5.845999718E-1
3.142600000E1,1.050099969E0,-3.608999848E-1,-2.655499935E0
3.144600000E1,8.294999599E-1,-1.768999994E-1,-4.090899944E0
3.146600000E1,4.725999832E-1,3.634999990E-1,-4.446799755E0
3.148600000E1,6.579999626E-2,6.870999932E-1,-4.335599899E0
3.150600000E1,-2.500999868E-1,7.849000096E-1,-4.489999771E0
3.152600000E1,-3.567999899E-1,7.249000072E-1,-4.923500061E0
3.154600000E1,-4.755999744E-1,8.267999887E-1,-5.041199684E0
3.156600000E1,-6.586999893E-1,8.797999620E-1,-4.478099823E0
3.158600000E1,-4.738999903E-1,6.215999722E-1,-3.561899900E0
3.160600000E1,-2.673999965E-1,3.553999960E-1,-2.919600010E0
3.162600000E1,-4.986999929E-1,3.683999777E-1,-2.520099878E0
3.164600000E1,-9.738999605E-1,6.639999747E-1,-2.055799961E0
3.166600000E1,-1.230299950E0,8.014000058E-1,-1.272699952E0
3.168600000E1,-1.072499990E0,7.910999656E-1,1.700000018E-1
3.170600000E1,-8.093000054E-1,8.418999910E-1,1.912999988E0
3.172600000E1,-3.822999895E-1,1.227800012E0,2.967900038E0
3.174600000E1,9.948999882E-1,7.504000068E-1,3.645200014E0
3.176600000E1,1.401799917E0,3.213999867E-1,4.632400036E0
3.178600000E1,2.707000077E-1,6.229999661E-2,5.535599709E0
3.180600000E1,-1.227699995E0,-3.290999830E-1,5.378099918E0
3.182600000E1,-1.708999991E0,-7.549999952E-1,4.560999870E0
3.184600938E1,-1.192499995E0,-7.910999656E-1,4.197799683E0
3.187600156E1,1.033999994E-1,-6.010999680E-1,3.725299835E0
3.190600000E1,-2.908999920E-1,-4.441999793E-1,1.302299976E0
3.192600000E1,-1.110199928E0,-2.031999975E-1,-5.090000033E-1
3.194600000E1,-1.732399940E0,-7.329999655E-2,-1.725299954E0
3.196600000E1,-1.909500003E0,-7.519999892E-2,-2.441999912E0
3.198600000E1,-1.614399910E0,-3.840999901E-1,-3.220399857E0
3.200600000E1,-1.042500019E0,-8.202999830E-1,-4.469199657E0
3.202600000E1,-7.468000054E-1,-9.056999683E-1,-5.378399849E0
3.204600000E1,-6.890000105E-1,-8.654999733E-1,-5.152800083E0
3.206600000E1,-4.429999888E-1,-1.024999976E0,-4.351500034E0
3.208600000E1,-1.483999938E-1,-1.323799968E0,-3.811899900E0
3.210600000E1,9.749999642E-2,-1.548399925E0,-3.540799856E0
3.212600000E1,3.858000040E-1,-1.537899971E0,-3.129699945E0
3.215600000E1,1.533499956E0,-1.449199915E0,-1.240599990E0
3.217600000E1,2.128099918E0,-1.557199955E0,3.844999969E-1
3.219604062E1,1.957699895E0,-1.518099904E0,1.673099995E0
3.222600000E1,7.081999779E-1,-6.406999826E-1,2.616899967E0
3.224600000E1,6.183999777E-1,-4.993999898E-1,2.132499933E0
3.226600000E1,1.583099961E0,-4.388999939E-1,2.283599854E0
3.228600000E1,1.990499973E0,-4.512999952E-1,3.925599813E0
3.230600000E1,1.592099905E0,-6.136999726E-1,6.361299992E0
3.232600000E1,1.742399931E0,-1.100999951E0,7.194299698E0
3.234600000E1,2.688999891E0,-1.422199965E0,5.387899876E0
3.236600000E1,3.305699825E0,-1.269099951E0,2.589999914E0
3.238600000E1,2.985399961E0,-6.179999709E-1,2.345999926E-1
3.240600000E1,2.262699842E0,-2.912999988E-1,-1.363699913E0
3.242600000E1,1.273199916E0,6.439999491E-2,-2.579599857E0
3.244600000E1,4.391999841E-1,3.959999979E-1,-3.585599899E0
3.246600000E1,-3.859999776E-2,6.116999984E-1,-4.462999821E0
3.248600000E1,-3.121999800E-1,7.791999578E-1,-5.107399940E0
3.250600000E1,-5.060999990E-1,8.745999932E-1,-5.292399883E0
3.252600000E1,-7.418000102E-1,7.321000099E-1,-5.256899834E0
3.254600000E1,-1.065199971E0,7.092999816E-1,-5.192299843E0
3.256600000E1,-1.331300020E0,7.673000097E-1,-4.317299843E0
3.258600000E1,-1.780999899E0,7.192999721E-1,-3.376299858E0
3.260600000E1,-2.016900063E0,7.209999561E-1,-2.572799921E0
3.262600000E1,-1.907799959E0,1.020200014E0,-1.171000004E0
3.264600000E1,-1.432999969E0,9.745000005E-1,2.491999865E-1
3.266600000E1,-1.342399955E0,1.102699995E0,1.351899981E0
3.268600000E1,-1.230299950E0,1.002499938E0,2.727699995E0
3.270600000E1,-1.167400002E0,7.131999731E-1,4.435800076E0
3.272600000E1,-1.015799999E0,8.337999582E-1,5.429399967E0
3.274600000E1,-6.909999847E-1,7.605999708E-1,5.548899651E0
3.276600000E1,-6.040999889E-1,1.266999990E-1,5.569499969E0
3.278600000E1,-1.461199999E0,-4.545999765E-1,5.418799877E0
3.280600000E1,-2.345799923E0,-7.594999671E-1,5.179699898E0
3.282600000E1,-2.422600031E0,-1.033299923E0,4.546599865E0
3.284600938E1,-1.402099967E0,-1.396099925E0,3.966799974E0
3.287600156E1,6.685000062E-1,-1.635199904E0,4.294699669E0
3.290600000E1,1.035899997E0,-1.474200010E0,3.945899963E0
3.292600000E1,3.949999809E-2,-1.177500010E0,2.226300001E0
3.294600000E1,-7.469999790E-1,-1.006899953E0,3.029999882E-2
3.296600000E1,-1.090600014E0,-8.791999817E-1,-1.953699946E0
3.298600000E1,-8.553999662E-1,-8.909999728E-1,-3.595799923E0
3.300600000E1,-2.157999873E-1,-8.643999696E-1,-4.726200104E0
3.302600156E1,3.911999762E-1,-7.684999704E-1,-5.357100010E0
3.305600000E1,9.720999599E-1,-7.680999637E-1,-5.711599827E0
3.307600000E1,1.047799945E0,-7.373999953E-1,-5.673099995E0
3.309600000E1,8.452000022E-1,-6.557999849E-1,-5.432899952E0
3.311600000E1,7.336999774E-1,-7.168999910E-1,-5.127299786E0
3.313600000E1,7.662999630E-1,-5.473999977E-1,-4.636399746E0
3.315600000E1,1.350499988E0,-7.312999964E-1,-4.003699780E0
3.317600000E1,1.826200008E0,-7.786999941E-1,-3.215699911E0
3.319600000E1,1.968599916E0,-8.797999620E-1,-1.987100005E0
3.321600000E1,1.885499954E0,-1.149500012E0,-5.867999792E-1
3.323600000E1,1.531999946E0,-9.648000002E-1,5.207999945E-1
3.325600000E1,1.036499977E0,-4.700999856E-1,1.704399943E0
3.327600000E1,4.837999940E-1,1.553999931E-1,1.954299927E0
3.329600000E1,1.067999974E-1,7.761999965E-1,1.839599967E0
3.331600000E1,1.538399935E0,4.352999926E-1,2.113499880E0
3.333600000E1,2.731299877E0,1.472000033E-1,3.616499901E0
3.335600000E1,2.527499914E0,-3.653999865E-1,6.763799667E0
3.337600156E1,1.662400007E0,-9.440000057E-1,1.021640015E1
3.340600000E1,2.529000044E0,-2.543799877E0,9.055500031E0
3.342600000E1,3.314800024E0,-2.503599882E0,5.752299786E0
3.344600000E1,3.048099995E0,-1.801800013E0,2.774099827E0
3.346600000E1,2.121000051E0,-1.309899926E0,2.017999887E-1
3.348600000E1,9.799999595E-1,-8.887999654E-1,-2.170799971E0
3.351600000E1,-2.154999971E-1,-3.616999984E-1,-5.016499996E0
3.353600000E1,-6.996999979E-1,-5.799999926E-3,-6.267399788E0
3.355600000E1,-9.182999730E-1,3.143000007E-1,-6.853699684E0
3.357600000E1,-1.051800013E0,7.317000031E-1,-7.089999676E0
3.359600000E1,-1.101099968E0,1.070500016E0,-6.831099987E0
3.361600000E1,-1.171299934E0,1.109399915E0,-6.243299961E0
3.363600000E1,-1.340399981E0,1.027500033E0,-5.631299973E0
3.365600000E1,-1.531999946E0,9.062999487E-1,-4.684099674E0
3.367600000E1,-1.493699908E0,8.118999600E-1,-3.678200006E0
3.369600000E1,-1.385299921E0,7.674999833E-1,-2.532199860E0
3.371600000E1,-1.519899964E0,8.868999481E-1,-4.623999894E-1
3.373600000E1,-1.198599935E0,2.879999876E-1,2.201999903E0
3.375600000E1,-2.989999950E-1,4.879999906E-2,5.056900024E0
3.377600156E1,9.092999697E-1,6.499999762E-2,6.633299828E0
3.380600000E1,1.722099900E0,4.593999982E-1,5.571199894E0
3.382600000E1,1.884199977E0,2.427999973E-1,4.836599827E0
3.384600938E1,1.824299932E0,-6.572999954E-1,5.163700104E0
3.387600156E1,5.983999968E-1,-1.052699924E0,4.999300003E0
3.390600000E1,-2.443999946E-1,-9.813999534E-1,2.859299898E0
3.392600000E1,6.509999931E-2,-1.396999955E0,1.806899905E0
3.394600000E1,3.585000038E-1,-1.344599962E0,1.686800003E0
3.396600000E1,4.120000079E-2,-8.534999490E-1,1.652799964E0
3.398600000E1,-6.991999745E-1,-6.741999984E-1,7.534999847E-1
3.400600000E1,-1.526399970E0,-4.125999808E-1,-5.647999644E-1
3.402600000E1,-2.041199923E0,-3.959999979E-2,-1.735700011E0
3.404600000E1,-1.991599917E0,1.768999994E-1,-2.536099911E0
3.406600000E1,-1.531899929E0,3.061999977E-1,-3.130699873E0
3.408600000E1,-9.207999706E-1,3.105999827E-1,-3.431200027E0
3.410600000E1,-5.223999619E-1,3.878999949E-1,-3.725299835E0
3.412600000E1,-9.629999846E-2,1.649999917E-1,-4.077799797E0
3.414600000E1,3.917999864E-1,4.900000058E-3,-4.171400070E0
3.416600000E1,6.539999843E-1,-7.349999994E-2,-3.958400011E0
3.418600000E1,7.195999622E-1,-3.000000026E-3,-3.613499880E0
3.420600000E1,8.141999841E-1,-8.320000023E-2,-3.000799894E0
3.422600000E1,9.641999602E-1,-3.709999919E-1,-2.064800024E0
3.424600000E1,5.509999990E-1,-3.652999997E-1,-8.381999731E-1
3.426600000E1,1.832999885E-1,-7.805999517E-1,7.251999974E-1
3.428600000E1,1.204999983E-1,-1.279399991E0,1.493899941E0
3.430600000E1,-7.299999706E-3,-1.171499968E0,1.762399912E0
3.432600000E1,-6.653000116E-1,-5.048999786E-1,1.710599899E0
3.434600000E1,-1.193400025E0,3.059999831E-2,1.801800013E0
3.436600000E1,-1.309399962E0,3.829999864E-1,1.932799935E0
3.438600000E1,-4.359999895E-1,1.721999943E-1,2.738099813E0
3.440600000E1,7.447999716E-1,-6.199999712E-3,4.193699837E0
3.442600000E1,1.276600003E0,-2.450999916E-1,5.407799721E0
3.444600000E1,1.240000010E0,-7.805999517E-1,5.564199924E0
3.446600000E1,1.361099958E0,-1.304999948E0,4.931699753E0
3.448600000E1,1.567899942E0,-1.390699983E0,4.176799774E0
3.450600000E1,1.271700025E0,-9.639999866E-1,2.871500015E0
3.452600000E1,7.728999853E-1,-3.946999907E-1,1.082700014E0
3.454600000E1,4.528999925E-1,-1.724999994E-1,-6.674999595E-1
3.456600000E1,-3.460000083E-2,2.449999899E-1,-1.756899953E0
3.458600156E1,-6.739000082E-1,7.078999877E-1,-2.638599873E0
3.460600156E1,-9.138999581E-1,7.440999746E-1,-3.992399931E0
3.463600000E1,-7.789999843E-1,7.606999874E-1,-6.141099930E0
3.465600156E1,-6.467999816E-1,1.051699996E0,-6.230299950E0
3.467600156E1,-4.954999983E-1,1.216300011E0,-5.351900101E0
3.470600156E1,-3.571999967E-1,1.414600015E0,-4.402800083E0
3.473600156E1,-8.499000072E-1,1.772699952E0,-3.225299835E0
3.476600000E1,-7.559999824E-1,1.192700028E0,-1.393100023E0
3.478600000E1,-2.365999967E-1,8.667999506E-1,6.180999875E-1
3.480601719E1,1.340000033E-1,9.228000045E-1,2.151200056E0
3.483600000E1,4.481000006E-1,9.803999662E-1,3.520999908E0
3.485600000E1,7.663999796E-1,1.281899929E0,3.863799810E0
3.487600156E1,1.627399921E0,7.512999773E-1,4.322000027E0
3.490600000E1,1.584499955E0,-4.736000001E-1,5.857999802E0
3.492600000E1,1.179799914E0,-1.412999988E0,6.694699764E0
3.494600000E1,7.825999856E-1,-1.990999937E0,6.039399624E0
3.496600000E1,3.258000016E-1,-2.028399944E0,4.290599823E0
3.498600000E1,1.512999982E-1,-1.671599984E0,2.674899817E0
3.500600000E1,1.341999918E-1,-1.287599921E0,1.136299968E0
3.502600000E1,-1.685999930E-1,-9.183999896E-1,-4.645999968E-1
3.504600000E1,-2.714000046E-1,-5.906999707E-1,-1.879799962E0
3.506600000E1,3.759999871E-1,-4.393999875E-1,-3.235299826E0
3.508600000E1,-1.577999890E-1,-7.400000002E-3,-4.475199699E0
3.510600000E1,-1.457799911E0,3.917999864E-1,-5.067100048E0
3.512600000E1,-1.800899982E0,6.939999759E-2,-5.018300056E0
3.514600000E1,-1.722099900E0,1.544999927E-1,-4.082200050E0
3.516600000E1,-8.470999599E-1,-1.189999934E-2,-2.876899958E0
3.518600000E1,2.363999933E-1,-1.287000030E-1,-2.297299862E0
3.520601094E1,6.944999695E-1,-3.718999922E-1,-2.432899952E0
3.523600000E1,4.499999806E-2,-1.643999964E-1,-2.700899839E0
3.525600000E1,-5.924999714E-1,-1.833999902E-1,-2.519399881E0
3.527600000E1,-4.125999808E-1,-1.008299947E0,-2.412499905E0
3.529600000E1,5.213999748E-1,-1.336199999E0,-1.860999942E0
3.531600000E1,9.095000029E-1,-1.084100008E0,5.069999769E-2
3.533600000E1,1.888999939E-1,-8.310999870E-1,1.893000007E0
3.535600000E1,-1.475499988E0,-2.624999881E-1,1.687299967E0
3.537600000E1,-2.488899946E0,2.897999883E-1,1.182799935E0
3.539600000E1,-1.940899968E0,9.300000034E-3,2.254799843E0
3.541600000E1,-4.980999827E-1,-9.287999868E-1,5.073100090E0
3.543600000E1,1.551999897E-1,-9.804999828E-1,7.681399822E0
3.545600000E1,-1.024999991E-1,-9.060999751E-1,7.963199615E0
3.547600000E1,3.504999876E-1,-1.316200018E0,6.154699802E0
3.549600000E1,2.340399981E0,-1.821200013E0,4.427400112E0
3.551600000E1,4.271500111E0,-1.788199902E0,3.386499882E0
3.553600000E1,4.753399849E0,-1.281399965E0,2.342499971E0
3.555600000E1,3.860599995E0,-8.890999556E-1,8.222000003E-1
3.557600000E1,2.662899971E0,-5.263999701E-1,-9.717999697E-1
3.559600000E1,2.517599821E0,-3.206000030E-1,-2.667099953E0
3.561600000E1,1.700299978E0,2.635000050E-1,-4.420000076E0
3.563600156E1,2.885999978E-1,8.240000010E-1,-5.861899853E0
3.566600000E1,-8.858999610E-1,1.038800001E0,-6.833799839E0
3.568600000E1,-1.737699986E0,1.123299956E0,-6.996699810E0
3.570600156E1,-1.883499980E0,7.937999964E-1,-6.381099701E0
3.573600156E1,-2.233299971E0,7.274999619E-1,-5.130899906E0
3.576600000E1,-2.240299940E0,7.688999772E-1,-2.633499861E0
3.578600156E1,-2.536399841E0,1.045799971E0,-1.441399932E0
3.581600000E1,-2.486699820E0,9.971999526E-1,1.823000014E-1
3.583600000E1,-1.911499977E0,9.637999535E-1,2.042000055E0
3.585600000E1,-1.304799914E0,4.111999869E-1,3.747099876E0
3.587600156E1,-1.015299916E0,1.679999977E-1,4.969500065E0
3.590600000E1,3.999999911E-2,2.324000001E-1,5.807699680E0
3.592600000E1,7.525999546E-1,2.160999924E-1,5.200399876E0
3.594600156E1,1.521999985E-1,5.335999727E-1,4.214699745E0
3.597600000E1,-6.782000065E-1,-2.201000005E-1,2.767599821E0
3.599600000E1,-4.131000042E-1,-9.189999700E-1,2.887199879E0
3.601600156E1,4.023000002E-1,-1.458899975E0,4.217099667E0
3.603600156E1,1.285399914E0,-1.678900003E0,5.372299671E0
3.606600000E1,1.065699935E0,-1.403499961E0,4.355299950E0
3.608600156E1,1.589999907E-2,-1.004799962E0,1.851699948E0
3.610600156E1,-4.717999995E-1,-8.795999885E-1,-3.380999863E-1
3.613600156E1,-5.852999687E-1,-6.101999879E-1,-3.046700001E0
3.616600156E1,-2.610999942E-1,-6.251999736E-1,-4.322199821E0
3.619600000E1,-1.344999969E-1,-7.073000073E-1,-4.522399902E0
3.621600000E1,6.639999896E-2,-8.756999969E-1,-4.522599697E0
3.623600156E1,4.707999825E-1,-1.090299964E0,-4.637199879E0
3.626600000E1,6.087999940E-1,-1.314800024E0,-4.746299744E0
3.628600156E1,3.692999780E-1,-1.455299973E0,-4.803400040E0
3.630600156E1,9.039999545E-2,-1.192499995E0,-4.452699661E0
3.632600156E1,1.096999943E-1,-9.232999682E-1,-2.910899878E0
3.634600156E1,5.663999915E-1,-1.324499965E0,-9.103999734E-1
3.637600156E1,8.106999993E-1,-1.670499921E0,2.092499971E0
3.640601406E1,-2.572999895E-1,-6.717000008E-1,2.564399958E0
3.643600000E1,-1.420300007E0,4.788999856E-1,-7.249999791E-2
3.645600156E1,-1.060299993E0,8.025999665E-1,7.039999962E-1
3.647600156E1,4.169999957E-1,6.633999944E-1,3.481999874E0
3.650600000E1,1.927199960E0,4.259999841E-2,5.405900002E0
3.652600156E1,1.024199963E0,-1.632999927E-1,6.870699883E0
3.655600000E1,3.510999978E-1,-1.376299977E0,8.174200058E0
3.657600156E1,6.320999861E-1,-1.257699966E0,6.679999828E0
3.660602344E1,1.346300006E0,-3.203999996E-1,2.223399878E0
3.663600000E1,1.125599980E0,2.953999937E-1,-1.658399940E0
3.665600000E1,9.763000011E-1,3.488000035E-1,-3.623199940E0
3.667600000E1,9.917999506E-1,2.926999927E-1,-5.164599895E0
3.669600000E1,1.101400018E0,1.977999955E-1,-6.120199680E0
3.671600000E1,1.050799966E0,1.840000004E-1,-6.779699802E0
3.673600000E1,7.360999584E-1,4.148999751E-1,-7.389799595E0
3.675600000E1,4.171999991E-1,6.237999797E-1,-7.682699680E0
3.677600000E1,-8.599999361E-3,6.879000068E-1,-6.854499817E0
3.679600000E1,-3.840000033E-1,8.314999938E-1,-5.193399906E0
3.681600000E1,-5.598999858E-1,1.093599916E0,-3.161199808E0
3.683600000E1,-4.467999935E-1,1.282299995E0,-9.045999646E-1
3.685600000E1,-6.838999987E-1,1.292099953E0,1.102800012E0
3.687600156E1,-8.187999725E-1,1.147599936E0,2.661200047E0
3.690600000E1,1.738999933E-1,1.235499978E0,4.105199814E0
3.692600000E1,8.294999599E-1,1.334800005E0,4.740299702E0
3.694600000E1,1.639999986E0,9.368000031E-1,5.204899788E0
3.696600000E1,2.099999905E0,1.206999943E-1,5.926099777E0
3.698600000E1,1.477399945E0,-4.731999934E-1,6.018199921E0
3.700601094E1,5.182999969E-1,-6.523000002E-1,4.930900097E0
3.703600000E1,-3.539999947E-2,-1.058899999E0,2.474299908E0
3.705600000E1,8.289999515E-2,-1.020799994E0,1.520299911E0
3.707600000E1,3.052999973E-1,-8.861999512E-1,1.190500021E0
3.709600000E1,1.598999947E-1,-7.411999702E-1,7.282999754E-1
3.711600000E1,-5.564000010E-1,-8.292999864E-1,-1.400000006E-1
3.713600000E1,-1.539299965E0,-7.186999917E-1,-1.009099960E0
3.715600000E1,-2.296000004E0,-3.908999860E-1,-1.649699926E0
3.717600156E1,-2.384599924E0,-2.997999787E-1,-1.858299971E0
3.720600625E1,-1.356400013E0,-6.620999575E-1,-2.601300001E0
3.723600312E1,-2.635999918E-1,-7.423999906E-1,-3.319599867E0
3.726600000E1,4.275999963E-1,-8.003000021E-1,-3.505299807E0
3.728600000E1,4.272999763E-1,-9.266999960E-1,-3.661599874E0
3.730600000E1,1.106999964E-1,-1.020099998E0,-3.984099865E0
3.732600000E1,-3.069999814E-1,-1.024600029E0,-4.234099865E0
3.734600000E1,-2.694000006E-1,-1.255100012E0,-4.336599827E0
3.736600000E1,4.858999848E-1,-1.638399959E0,-3.928599834E0
3.738600156E1,1.610099912E0,-1.988899946E0,-2.697299957E0
3.741600156E1,1.716899991E0,-1.765899897E0,-2.999999851E-4
3.744600156E1,-3.693999946E-1,-1.181699991E0,1.915199995E0
3.747600156E1,-9.474999905E-1,4.820000008E-2,1.719499946E0
3.750600000E1,2.000599861E0,3.332999945E-1,3.731699944E0
3.752600156E1,3.490799904E0,6.441000104E-1,6.868700027E0
3.755600000E1,3.560799837E0,-4.026999772E-1,1.047629929E1
3.757600156E1,2.580799818E0,-1.501399994E0,8.297399521E0
3.759600156E1,1.324199915E0,-1.298699975E0,5.072000027E0
3.761600156E1,3.326999843E-1,-3.077999949E-1,2.964699984E0
3.763600156E1,-1.425999999E-1,1.633999944E-1,1.394699931E0
3.766600000E1,-6.455000043E-1,7.699999958E-2,-1.529500008E0
3.768600000E1,-9.358999729E-1,-8.399999700E-3,-3.309899807E0
3.770600156E1,-1.239099979E0,1.380999982E-1,-4.590600014E0
3.773600156E1,-1.512699962E0,1.074999943E-1,-5.548699856E0
3.776600000E1,-1.946399927E0,7.774999738E-1,-6.283099651E0
3.778600156E1,-2.018599987E0,1.006999969E0,-6.211299896E0
3.780600156E1,-2.105799913E0,1.023599982E0,-5.537099838E0
3.783600000E1,-2.026799917E0,1.152599931E0,-3.515499830E0
3.785600000E1,-1.695400000E0,1.112599969E0,-1.713299990E0
3.787600156E1,-1.449299932E0,8.165999651E-1,-2.489999868E-2
3.790600000E1,-1.804199934E0,1.381999999E-1,1.791999936E0
3.792600000E1,-1.266600013E0,-4.964999855E-1,3.350199938E0
3.794600156E1,2.281999886E-1,-6.941999793E-1,5.052399635E0
3.797600156E1,1.419899940E0,-5.737000108E-1,7.001499653E0
3.800602344E1,9.648999572E-1,-1.379499912E0,6.597699642E0
3.803600156E1,5.449000001E-1,-1.544499993E0,3.538399935E0
3.806600000E1,2.277999967E-1,-8.442999721E-1,7.402999997E-1
3.808600000E1,9.060999751E-1,-1.052600026E0,9.889999777E-2
3.810600156E1,1.590299964E0,-9.993000031E-1,1.911999881E-1
3.813600156E1,1.323599935E0,-4.853999913E-1,3.218999803E-1
3.816600000E1,-2.728999853E-1,-1.534999907E-1,-5.109999776E-1
3.818600000E1,-1.265599966E0,6.899999920E-3,-1.179999948E0
3.820600781E1,-1.986899972E0,3.703999817E-1,-1.756500006E0
3.823600156E1,-2.234699965E0,7.463999987E-1,-2.250299931E0
3.826600000E1,-1.677799940E0,6.717999578E-1,-2.604599953E0
3.828600156E1,-1.147799969E0,4.830999970E-1,-2.641899824E0
3.830600156E1,-7.171999812E-1,3.276999891E-1,-2.557499886E0
3.832600156E1,-2.694999874E-1,-4.299999680E-3,-2.552000046E0
3.834600156E1,2.809000015E-1,-7.277999520E-1,-2.645900011E0
3.837600156E1,3.897999823E-1,-1.428900003E0,-2.816099882E0
3.840600938E1,4.502999783E-1,-1.279099941E0,-2.265799999E0
3.843600000E1,1.008100033E0,-8.154999614E-1,-1.552899957E0
3.845600156E1,1.103099942E0,-4.194999933E-1,-5.733999610E-1
3.847600156E1,8.435999751E-1,-2.113999873E-1,9.721999764E-1
3.849600156E1,3.885000050E-1,-7.389999926E-2,2.215899944E0
3.851600156E1,-3.524000049E-1,7.926999927E-1,3.221799850E0
3.853600156E1,-4.325999916E-1,1.306800008E0,4.330800056E0
3.856600156E1,1.310099959E0,-2.480999976E-1,5.415800095E0
3.859600156E1,1.140499949E0,-8.285999894E-1,6.167799950E0
3.861600156E1,9.565999508E-1,-1.685699940E0,6.533499718E0
3.863600156E1,1.411000013E0,-2.577999830E0,5.269299984E0
3.866600000E1,2.209300041E0,-2.180500031E0,2.299200058E0
3.868600000E1,1.835299969E0,-1.100099921E0,7.804999948E-1
3.870600156E1,1.381299973E0,-3.881999850E-1,-3.637999892E-1
3.873600156E1,3.770000041E-1,5.329999700E-2,-2.319099903E0
3.876600000E1,-4.283999801E-1,2.755999863E-1,-4.351299763E0
3.878600156E1,-8.078999519E-1,7.197999954E-1,-4.918600082E0
3.880600469E1,-7.578999996E-1,7.587999701E-1,-4.982199669E0
3.883600000E1,-8.455999494E-1,3.856000006E-1,-4.922199726E0
3.885600000E1,-1.074499965E0,5.782999992E-1,-4.369800091E0
3.887600156E1,-9.929999709E-1,7.556999922E-1,-3.703099966E0
3.890600000E1,-1.027300000E0,5.832999945E-1,-3.333099842E0
3.892600000E1,-1.544799924E0,7.160999775E-1,-2.502699852E0
3.894600156E1,-1.708699942E0,1.030399919E0,-1.188399911E0
3.896600156E1,-1.824099898E0,9.778999686E-1,-2.929999866E-2
3.899600000E1,-1.452700019E0,1.012099981E0,5.225999951E-1
3.901600156E1,-8.366999626E-1,9.570999742E-1,9.251999855E-1
3.903600156E1,-1.530999988E-1,7.387999892E-1,1.447999954E0
3.906600000E1,1.318699956E0,8.655999899E-1,2.980099916E0
3.908600000E1,2.079900026E0,8.974999785E-1,3.417500019E0
3.910600156E1,2.029899836E0,4.192000031E-1,4.279799938E0
3.913600000E1,1.570199966E0,-8.605999947E-1,5.554499626E0
3.915600000E1,8.537999988E-1,-1.181699991E0,5.450900078E0
3.917600156E1,-2.123999894E-1,-1.209299922E0,4.687200069E0
3.920600156E1,-8.378999829E-1,-1.691999912E0,2.436300039E0
3.923600156E1,-7.206999660E-1,-1.739499927E0,2.748999894E-1
3.926600000E1,-1.368899941E0,-1.179499984E0,-1.498499990E0
3.928600156E1,-1.820799947E0,-9.192999601E-1,-2.300299883E0
3.930600156E1,-1.863199949E0,-7.275999784E-1,-2.899299860E0
3.933600000E1,-1.196099997E0,-5.224999785E-1,-3.352200031E0
3.935600156E1,-5.559999943E-1,-4.549999833E-1,-3.285899878E0
3.937600156E1,-5.399999674E-3,-5.169999599E-1,-3.360299826E0
3.940600000E1,1.116999984E-1,-7.662999630E-1,-3.421700001E0
3.942600000E1,8.469999582E-2,-1.032599926E0,-3.458299875E0
3.944600156E1,2.442999929E-1,-1.431599975E0,-3.554399967E0
3.946600156E1,7.964999676E-1,-1.688099980E0,-3.571299791E0
3.949600000E1,1.460500002E0,-1.942899942E0,-2.549099922E0
3.951600000E1,1.701900005E0,-2.062199831E0,-1.002300024E0
3.953600000E1,1.552599907E0,-2.004299879E0,4.265999794E-1
3.955600000E1,1.059000015E0,-1.470499992E0,1.512699962E0
3.957600000E1,6.916999817E-1,-5.924000144E-1,1.827999949E0
3.959600000E1,8.909999728E-1,5.260000005E-2,1.420799971E0
3.961600000E1,1.754799962E0,4.120000005E-1,1.333799958E0
3.963600156E1,2.818699837E0,1.687999964E-1,2.217900038E0
3.966600156E1,2.933499813E0,-4.266999960E-1,4.581699848E0
3.969600000E1,1.720999956E0,-4.512999952E-1,5.118599892E0
3.971600000E1,1.627599955E0,-6.534999609E-1,4.034599781E0
3.973600156E1,2.113499880E0,-4.623999894E-1,3.180099964E0
3.976600000E1,2.139099836E0,5.020000041E-2,2.234299898E0
3.978600156E1,1.216899991E0,3.125000000E-1,1.105999947E0
3.980600156E1,-3.329999745E-2,8.070999980E-1,-4.083999991E-1
3.983600156E1,-1.245599985E0,1.553699970E0,-2.514699936E0
3.986600000E1,-1.601699948E0,1.831999898E0,-3.858599901E0
3.988600156E1,-1.464100003E0,1.776499987E0,-4.569299698E0
3.991600000E1,-1.402099967E0,1.663599968E0,-4.640399933E0
3.993600000E1,-1.652499914E0,1.088799953E0,-4.391699791E0
3.995600156E1,-1.962099910E0,4.964999855E-1,-3.386099815E0
3.997600156E1,-2.375299931E0,2.249999903E-2,-2.445699930E0
4.000600000E1,-3.075899839E0,-1.597999930E-1,-1.390499949E0
4.002600156E1,-2.942699909E0,-3.680999875E-1,-2.290999889E-1
4.005600000E1,-2.216599941E0,-1.156999990E-1,1.819199920E0
4.007600000E1,-1.673399925E0,8.850000054E-2,2.874300003E0
4.009600000E1,-8.335999846E-1,-3.370000049E-2,3.347999811E0
4.011600000E1,-1.898999959E-1,-2.699999837E-3,2.881899834E0
4.013600000E1,4.324999750E-1,4.253999889E-1,2.557199955E0
4.016600000E1,1.758499980E0,2.635000050E-1,3.250599861E0
4.018600000E1,1.715299964E0,4.959999770E-2,4.171299934E0
4.020600000E1,9.783999920E-1,-4.787999988E-1,4.232699871E0
4.022600000E1,2.307000011E-1,-7.464999557E-1,3.457799911E0
4.024600000E1,-5.999999866E-2,-8.357999921E-1,3.204200029E0
4.026600000E1,-2.832999825E-1,-8.750000000E-1,3.407399893E0
4.028600000E1,-4.993999898E-1,-6.055999994E-1,3.454299927E0
4.030600000E1,-5.580999851E-1,-4.513999820E-1,2.931299925E0
4.032600000E1,-6.456999779E-1,-5.583999753E-1,1.707299948E0
4.034600000E1,-8.343999982E-1,-6.754999757E-1,1.219999976E-2
4.036600000E1,-9.582999945E-1,-6.606999636E-1,-1.463499904E0
4.038600000E1,-8.420000076E-1,-7.673000097E-1,-2.713699818E0
4.040600000E1,-5.867999792E-1,-9.156999588E-1,-3.590199947E0
4.043600000E1,-6.499999762E-2,-1.295899987E0,-4.454999924E0
4.045600000E1,3.258999884E-1,-1.571799994E0,-4.793299675E0
4.047600000E1,7.062999606E-1,-1.851599932E0,-5.074699879E0
4.049600000E1,7.287999988E-1,-1.791099906E0,-5.344999790E0
4.051600000E1,4.818999767E-1,-1.623499990E0,-5.480199814E0
4.053600000E1,2.458999902E-1,-1.608699918E0,-5.460099697E0
4.055600000E1,2.782000005E-1,-1.743600011E0,-5.172199726E0
4.057600000E1,2.969000041E-1,-1.689899921E0,-4.200200081E0
4.059600000E1,2.741999924E-1,-1.646499991E0,-2.282799959E0
4.061600000E1,3.421999812E-1,-1.887899995E0,4.569999874E-2
4.063600000E1,-1.643999964E-1,-1.387499928E0,1.643499970E0
4.065600000E1,-1.367200017E0,2.727999985E-1,3.470599890E0
4.067600000E1,-2.233000040E0,1.335699916E0,5.019199848E0
4.069600000E1,-2.167999983E0,1.383599997E0,5.152100086E0
4.071600000E1,-1.121399999E0,1.069000006E0,4.773399830E0
4.073600000E1,-3.003000021E-1,1.165699959E0,5.283799648E0
4.075600000E1,4.377999902E-1,6.021999717E-1,6.094599724E0
4.077600156E1,2.385299921E0,-6.905999780E-1,6.134699821E0
4.080600000E1,5.928999901E0,-2.375799894E0,5.218299866E0
4.082600000E1,5.819299698E0,-1.979200006E0,3.909299850E0
4.084600938E1,3.887499809E0,-1.396499991E0,2.569599867E0
4.087600156E1,1.123799920E0,-7.170999646E-1,-5.212000012E-1
4.090600000E1,1.759999990E-2,1.879999936E-1,-3.037699938E0
4.092600000E1,3.089999966E-2,4.231999815E-1,-4.354799747E0
4.094600000E1,-4.699999932E-3,5.174999833E-1,-5.521800041E0
4.096600000E1,-1.973000020E-1,4.002999961E-1,-6.088599682E0
4.098600000E1,-4.772999883E-1,3.251000047E-1,-6.276499748E0
4.100600000E1,-7.351999879E-1,2.399999946E-1,-6.371899605E0
4.102600000E1,-7.721999884E-1,1.286000013E-1,-6.545499802E0
4.104600000E1,-6.888999939E-1,2.204999924E-1,-6.166100025E0
4.106600000E1,-6.247999668E-1,5.284999609E-1,-5.243199825E0
4.108600000E1,-1.003000021E0,9.610999823E-1,-3.683799982E0
4.110600000E1,-1.617499948E0,1.193499923E0,-1.856099963E0
4.112600000E1,-2.044699907E0,1.223799944E0,-1.891999990E-1
4.114600000E1,-2.164099932E0,1.243099928E0,1.160799980E0
4.116600000E1,-2.009700060E0,1.133899927E0,2.686100006E0
4.118600000E1,-1.152699947E0,1.042899966E0,4.789599895E0
4.120600000E1,4.227999747E-1,1.369199991E0,7.085799694E0
4.122600000E1,1.757999897E0,1.247799993E0,8.016799927E0
4.124600000E1,2.506700039E0,1.444000006E-1,7.680699825E0
4.126600000E1,1.842000008E0,-1.214900017E0,6.908699989E0
4.128600000E1,-6.046999693E-1,-1.083599925E0,5.799299717E0
4.130600000E1,-2.414199829E0,-1.307799935E0,3.928999901E0
4.132600000E1,-2.771499872E0,-1.574000001E0,2.643899918E0
4.134600000E1,-1.934499979E0,-1.781799912E0,2.536700010E0
4.136600000E1,-1.582299948E0,-1.362999916E0,3.193499804E0
4.138600000E1,-1.980899930E0,-9.825999737E-1,2.873100042E0
4.140600000E1,-2.365900040E0,-5.823999643E-1,1.315500021E0
4.142600000E1,-2.111700058E0,-4.878000021E-1,-5.309000015E-1
4.144600000E1,-1.528100014E0,-2.766999900E-1,-1.998199940E0
4.146600000E1,-9.341999888E-1,-8.109999448E-2,-2.944499969E0
4.148600000E1,-4.147000015E-1,-1.781999916E-1,-3.373299837E0
4.150600000E1,-3.619999811E-2,-3.224000037E-1,-3.615199804E0
4.152600000E1,2.155999988E-1,-3.989000022E-1,-3.680899858E0
4.154600000E1,3.919000030E-1,-4.393999875E-1,-3.373199940E0
4.156600000E1,3.283999860E-1,-4.639999866E-1,-3.187099934E0
4.158600000E1,4.149999842E-2,-5.364999771E-1,-3.191499949E0
4.160600000E1,-2.770999968E-1,-7.261999846E-1,-3.303200006E0
4.162600000E1,-6.833999753E-1,-6.667999625E-1,-3.335299969E0
4.164600000E1,-2.851999998E-1,-7.269999981E-1,-2.637699842E0
4.166600000E1,4.755999744E-1,-6.018999815E-1,-1.462999940E0
4.168600000E1,1.049499989E0,-2.236000001E-1,5.505999923E-1
4.170600000E1,1.325699925E0,-3.136000037E-1,2.039599895E0
4.172600000E1,1.098299980E0,-5.313999653E-1,2.436100006E0
4.174600000E1,8.483999968E-1,-4.572999775E-1,2.170599937E0
4.176600000E1,5.539999604E-1,-2.938999832E-1,2.248999834E0
4.178600000E1,1.046000004E0,-1.181999967E-1,2.634599924E0
4.180600000E1,1.607599974E0,-9.959999472E-2,2.533799887E0
4.182600000E1,1.462899923E0,-6.409999728E-2,2.215800047E0
4.184600938E1,1.195199966E0,-4.140999913E-1,2.185699940E0
4.187600156E1,4.885999858E-1,-9.095999599E-1,2.791599989E0
4.190600000E1,5.537999868E-1,-1.565799952E0,2.720000029E0
4.192600000E1,8.150999546E-1,-1.247099996E0,2.141999960E0
4.194600000E1,1.085600019E0,-8.779999614E-1,1.350899935E0
4.196600000E1,9.477999806E-1,-8.506000042E-1,3.623999953E-1
4.198600000E1,2.698999941E-1,-7.095999718E-1,-8.327999711E-1
4.200600000E1,-1.719999909E-1,-4.806999862E-1,-2.157899857E0
4.202600000E1,-3.538999856E-1,-3.619000018E-1,-3.526199818E0
4.204600000E1,-1.565999985E-1,-2.166000009E-1,-4.600800037E0
4.206600000E1,1.620000042E-2,-1.612999886E-1,-5.108599663E0
4.208600000E1,5.799999926E-3,2.579999901E-2,-4.750799656E0
4.210600000E1,-2.228000015E-1,9.290000051E-2,-4.202099800E0
4.212600000E1,-3.719999790E-1,-3.900000080E-2,-3.880999804E0
4.214600000E1,-3.725999892E-1,-2.657999992E-1,-4.154799938E0
4.216600000E1,-4.746999741E-1,3.109999895E-1,-4.191599846E0
4.218600000E1,-6.777999997E-1,8.571999669E-1,-3.008599997E0
4.220600000E1,-7.792999744E-1,9.957000017E-1,-1.251600027E0
4.222600000E1,-3.692999780E-1,9.864999652E-1,4.777999818E-1
4.224600000E1,2.247999907E-1,1.124300003E0,2.072399855E0
4.226600000E1,4.790000021E-1,1.014699936E0,2.952699900E0
4.228600000E1,2.284999937E-1,1.622999907E0,2.636899948E0
4.230600000E1,7.231000066E-1,1.433899999E0,2.920099974E0
4.232600000E1,5.909999609E-1,1.374300003E0,3.020499945E0
4.234600000E1,-6.886000037E-1,1.105899930E0,3.279399872E0
4.236600000E1,-1.851599932E0,2.401999980E-1,3.091599941E0
4.238600000E1,-2.231600046E0,-3.172999918E-1,2.917899847E0
4.240600000E1,-1.321799994E0,-6.672999859E-1,3.589499950E0
4.242600156E1,2.175000012E-1,-1.273499966E0,4.440999985E0
4.244600156E1,9.273999929E-1,-1.560299993E0,4.539400101E0
4.246600156E1,9.646999836E-1,-2.038300037E0,3.166399956E0
4.249600156E1,-3.849000037E-1,-1.522099972E0,-1.991999894E-1
4.252600156E1,-6.498999596E-1,-1.292599916E0,-2.429100037E0
4.255600156E1,-2.640999854E-1,-8.786000013E-1,-3.586899996E0
4.257600156E1,3.202999830E-1,-6.261000037E-1,-3.433199883E0
4.259600156E1,9.499999881E-1,-5.083999634E-1,-2.817299843E0
4.262600000E1,1.240700006E0,-7.190999985E-1,-2.689800024E0
4.264600000E1,9.296000004E-1,-1.140100002E0,-3.314199924E0
4.266600156E1,2.010999918E-1,-8.386999965E-1,-3.655699968E0
4.269600000E1,-2.346999943E-1,-7.567999959E-1,-3.109299898E0
4.271600000E1,-4.914999902E-1,-5.029000044E-1,-2.300899982E0
4.273600156E1,-3.849000037E-1,-2.268999964E-1,-1.502699971E0
4.276600000E1,9.886999726E-1,-2.269999869E-2,-2.403999865E-1
4.278600156E1,8.703999519E-1,2.689999938E-1,2.178999931E-1
4.280600156E1,-1.953999996E-1,7.759000063E-1,4.306999743E-1
4.283600000E1,-9.304999709E-1,1.786099911E0,1.481899977E0
4.285600000E1,2.883000076E-1,1.482899904E0,2.640399933E0
4.287600000E1,1.521199942E0,9.085999727E-1,3.870399952E0
4.289600000E1,1.605599999E0,7.404999733E-1,4.861399651E0
4.291600000E1,1.288999915E0,1.407999992E-1,5.927499771E0
4.293600000E1,1.542199969E0,-7.635999918E-1,5.167599678E0
4.295600000E1,2.241999865E0,-1.183099985E0,3.488999844E0
4.297600000E1,2.658200026E0,-7.639999986E-1,2.395799875E0
4.299600000E1,2.448400021E0,-3.095999956E-1,2.333099842E0
4.301600000E1,1.818799973E0,-4.129000008E-1,1.100000024E0
4.303600000E1,8.289999962E-1,-2.994000018E-1,-8.605999947E-1
4.305600000E1,2.446999997E-1,-3.463000059E-1,-2.774199963E0
4.307600000E1,-8.569999784E-2,-3.687999845E-1,-3.997799873E0
4.309600000E1,-2.196999937E-1,-4.007999897E-1,-4.661600113E0
4.311600000E1,-7.048000097E-1,-2.778999805E-1,-4.867499828E0
4.313600000E1,-1.095999956E0,-2.906000018E-1,-4.594399929E0
4.315600000E1,-1.146099925E0,-5.315999985E-1,-4.272299767E0
4.317600156E1,-1.145099998E0,-6.128000021E-1,-3.846799850E0
4.320600000E1,-1.188099980E0,-4.241999984E-1,-3.164599895E0
4.322600000E1,-1.082499981E0,-3.139999881E-2,-2.609499931E0
4.324600000E1,-1.075099945E0,2.454999983E-1,-2.103499889E0
4.326600000E1,-9.131000042E-1,4.587000012E-1,-1.546100020E0
4.328600000E1,-3.021999896E-1,7.759000063E-1,-2.122000009E-1
4.330600000E1,2.588000000E-1,1.090499997E0,1.522799969E0
4.332600000E1,8.454999924E-1,1.044799924E0,2.569399834E0
4.334600000E1,1.495299935E0,1.169299960E0,2.700000048E0
4.336600000E1,1.603899956E0,1.664299965E0,3.051899910E0
4.338600000E1,1.633399963E0,1.983799934E0,3.923999786E0
4.340600000E1,2.199399948E0,1.651499987E0,5.072099686E0
4.342600000E1,2.173300028E0,9.264999628E-1,5.352499962E0
4.344600000E1,9.942999482E-1,3.538999856E-1,4.714699745E0
4.346600000E1,-4.522999823E-1,-2.104000002E-1,3.779999971E0
4.348600000E1,-1.648999929E0,-5.582999587E-1,2.881199837E0
4.350600000E1,-2.069999933E0,-8.689000010E-1,2.016499996E0
4.352600000E1,-1.798399925E0,-1.211799979E0,8.980999589E-1
4.354600000E1,-1.613499999E0,-1.118399978E0,-3.163999915E-1
4.356600000E1,-1.314399958E0,-1.070599914E0,-1.551599979E0
4.358600000E1,-1.140399933E0,-9.311999679E-1,-2.464200020E0
4.360600000E1,-8.831999898E-1,-9.151999950E-1,-3.090399981E0
4.362600000E1,-3.599999845E-1,-9.871999621E-1,-3.527699947E0
4.364600000E1,2.412999868E-1,-9.521999955E-1,-4.062999725E0
4.366600000E1,6.547999978E-1,-8.102999926E-1,-4.472599983E0
4.368600000E1,3.775999844E-1,-7.231000066E-1,-4.351599693E0
4.370600000E1,1.377999932E-1,-9.721999764E-1,-4.429999828E0
4.372600000E1,-2.619999945E-1,-1.048900008E0,-4.776299953E0
4.374600000E1,-8.274999857E-1,-6.419000030E-1,-4.442899704E0
4.376600000E1,-1.017699957E0,-8.430999517E-1,-3.484699965E0
4.378600156E1,-9.883999825E-1,-1.043399930E0,-2.180999994E0
4.381600000E1,-9.885999560E-1,-8.485999703E-1,4.032999873E-1
4.383600000E1,-1.220700026E0,-6.477999687E-1,1.253000021E0
4.385600000E1,-1.504400015E0,-4.329999983E-1,1.220399976E0
4.387600156E1,-2.220099926E0,5.302999616E-1,1.578299999E0
4.390600000E1,-2.112599850E0,2.218299866E0,4.218999863E0
4.392600000E1,-7.480999827E-1,2.178499937E0,6.793699741E0
4.394600000E1,-6.229000092E-1,2.204099894E0,9.072899818E0
4.396600000E1,-8.867999911E-1,1.118499994E0,9.252399445E0
4.398600000E1,4.849999771E-2,-5.216999650E-1,7.212100029E0
4.400600000E1,2.154199839E0,-1.917599916E0,5.404900074E0
4.402600000E1,3.882499933E0,-2.343499899E0,4.603899956E0
4.404600000E1,4.158800125E0,-2.189899921E0,4.037099838E0
4.406600000E1,3.128799915E0,-1.712599993E0,2.200999975E0
4.408600000E1,2.248100042E0,-1.671499968E0,-2.989999950E-1
4.410600000E1,1.679399967E0,-1.379099965E0,-2.284499884E0
4.412600000E1,1.515100002E0,-1.068799973E0,-3.698400021E0
4.414600000E1,1.917199969E0,-7.565999627E-1,-4.784499645E0
4.416600000E1,2.976399899E0,-5.764999986E-1,-5.536799908E0
4.418600000E1,2.654999971E0,-1.845999956E-1,-6.073999882E0
4.420600156E1,1.214699984E0,-2.994000018E-1,-6.495599747E0
4.423600156E1,-3.418000042E-1,-7.669999599E-1,-7.190599918E0
4.426600000E1,-1.594299912E0,4.639999941E-2,-5.533699989E0
