"Time (s)","Acceleration x (m/s^2)","Acceleration y (m/s^2)","Acceleration z (m/s^2)"
0.000000000E0,-1.922323704E0,2.210480213E0,9.508428574E0
2.000156300E-2,-2.171320438E0,1.669361949E0,9.380942345E0
4.200000000E-2,-2.888594627E0,1.567694545E0,1.004732513E1
6.200625000E-2,-2.898564100E0,1.803437233E0,1.119046021E1
8.400000000E-2,-2.319492817E0,1.575576305E0,1.051959610E1
1.040046880E-1,-1.726296067E0,1.991698146E0,9.361367226E0
1.260000000E-1,-1.200558066E0,2.116397619E0,8.545164108E0
1.460000000E-1,-9.171611667E-1,1.990548849E0,8.616157532E0
1.660000000E-1,-7.902589440E-1,1.904664040E0,8.706993103E0
1.860031250E-1,-5.682302117E-1,1.666498423E0,8.895857811E0
2.080000000E-1,-6.715735197E-1,1.451796055E0,9.273039818E0
2.280062500E-1,-1.380707383E0,1.365039706E0,9.741498947E0
2.500000000E-1,-1.717906713E0,9.944652319E-1,1.074868298E1
2.700062500E-1,-1.731323838E0,4.635557532E-1,1.112111568E1
2.920000000E-1,-1.594854355E0,4.736880064E-1,1.026549435E1
3.120000000E-1,-1.693983912E0,6.081655025E-1,9.713668823E0
3.320000000E-1,-1.937100649E0,6.699264050E-1,9.852743149E0
3.520062500E-1,-2.270833254E0,7.307773829E-1,1.005706406E1
3.740000000E-1,-2.119337559E0,5.165729523E-1,9.896883011E0
3.940046880E-1,-1.753685713E0,2.258306891E-1,9.577544212E0
4.160000000E-1,-1.439202547E0,1.210412607E-1,9.243965149E0
4.360000000E-1,-1.426120639E0,-1.177947223E-2,9.521682739E0
4.560000000E-1,-1.483303666E0,-1.546462774E-1,1.015992832E1
4.760078130E-1,-1.172344804E0,-1.776497662E-1,1.086133385E1
4.980015630E-1,-3.048201799E-1,4.252102226E-3,1.015812874E1
5.180062500E-1,1.318726223E-2,2.409141511E-1,9.398045540E0
5.399984380E-1,-2.008352131E-1,6.346358061E-1,9.702109337E0
5.600000000E-1,-4.506270885E-1,5.607316494E-1,1.045627308E1
5.800000000E-1,-4.496214986E-1,1.918138564E-1,1.065703201E1
6.000000000E-1,-2.096075714E-1,-2.802365124E-1,1.053879642E1
6.200000000E-1,2.514294982E-1,-1.599805653E-1,9.862176895E0
6.400000000E-1,8.033982664E-2,2.240015119E-1,9.336687088E0
6.600000000E-1,-2.422357500E-1,6.262178421E-1,9.233507156E0
6.800000000E-1,-5.401606560E-1,8.191521764E-1,9.358091354E0
7.000000000E-1,-5.572169423E-1,8.927882314E-1,9.213855743E0
7.200000000E-1,-3.292602003E-1,8.196119070E-1,8.516568184E0
7.400000000E-1,-1.149216816E-1,7.928446531E-1,8.076896667E0
7.600000000E-1,-1.152664497E-1,6.415311098E-1,8.709732056E0
7.800000000E-1,-4.163995758E-2,4.667256773E-1,9.612652779E0
8.000000000E-1,2.669726610E-1,3.079134822E-1,9.699897766E0
8.200000000E-1,2.574245632E-1,4.273937345E-1,9.603775024E0
8.400015630E-1,-4.704127461E-2,8.113662004E-1,9.622354507E0
8.620000000E-1,1.842865050E-1,9.064064622E-1,9.704187393E0
8.820046880E-1,6.218699217E-1,8.023831844E-1,9.506857872E0
9.040015630E-1,1.374664426E0,3.608253598E-1,9.826244354E0
9.260015630E-1,1.920935035E0,5.280651450E-1,1.001471615E1
9.480000000E-1,1.940021634E0,1.118034840E0,1.003744125E1
9.680000000E-1,1.704413056E0,1.451987505E0,9.855309486E0
9.880000000E-1,1.469800472E0,1.441596627E0,9.878504753E0
1.008000000E0,1.396844387E0,1.138136506E0,1.036637592E1
1.028000000E0,1.348031402E0,7.968286276E-1,1.059847927E1
1.048000000E0,1.015160680E0,5.853535533E-1,1.092653275E1
1.068000000E0,9.777441025E-1,1.466783732E-1,1.179558945E1
1.088000000E0,1.152415514E0,-2.662352324E-1,1.186038685E1
1.108000000E0,1.095385671E0,-1.638112813E-1,1.092344952E1
1.128000000E0,6.652911901E-1,3.650008142E-1,9.879712105E0
1.148000000E0,1.653627157E-1,7.354604602E-1,9.737179756E0
1.168000000E0,-3.736103773E-1,8.158386350E-1,9.647895813E0
1.189998438E0,-1.012335539E0,9.211355448E-1,9.812309265E0
1.210000000E0,-1.311026454E0,1.156859159E0,9.980048180E0
1.230018750E0,-1.102999091E0,1.105106115E0,1.036767864E1
1.252000000E0,-9.138188958E-1,9.382684827E-1,1.055405235E1
1.272000000E0,-9.846010804E-1,9.526624084E-1,9.737073898E0
1.292000000E0,-1.011473656E0,1.233847022E0,8.706160545E0
1.312000000E0,-1.079631686E0,1.491156697E0,8.463905334E0
1.332000000E0,-1.672790408E0,1.843621492E0,8.771636963E0
1.352000000E0,-2.098977566E0,2.070352316E0,8.934356689E0
1.372000000E0,-2.024125099E0,1.791916251E0,8.983304024E0
1.392000000E0,-1.435323954E0,1.177430034E0,9.404998779E0
1.412000000E0,-1.100375175E0,7.776367068E-1,9.828523636E0
1.432000000E0,-1.013149500E0,8.133294582E-1,9.769761086E0
1.452001563E0,-9.348208904E-1,8.859121203E-1,9.677248001E0
1.474000000E0,-3.335793316E-1,7.899333239E-1,1.001508045E1
1.494000000E0,1.811069995E-1,5.401989222E-1,1.005129910E1
1.514000000E0,2.067249417E-1,7.963976860E-1,9.886568069E0
1.535998438E0,6.613742560E-2,1.008859158E0,9.985238075E0
1.556000000E0,1.559199989E-1,2.903017700E-1,1.100431633E1
1.576000000E0,1.181969494E-1,1.027016789E-1,1.239947414E1
1.596000000E0,-4.878425226E-2,4.528392851E-1,1.225195408E1
1.616000000E0,-8.067119122E-1,6.352295876E-1,1.110473824E1
1.637998438E0,-1.676898956E0,5.312542319E-1,1.137950706E1
1.657998438E0,-1.471849799E0,-2.016683966E-1,1.279184532E1
1.678000000E0,-7.712681293E-1,-8.479208946E-1,1.233184338E1
1.698003125E0,-9.272168875E-1,-9.797743559E-1,1.085658360E1
1.720000000E0,-1.804596066E0,-5.303730965E-1,9.869857788E0
1.742000000E0,-2.290504217E0,-9.165003896E-2,9.656524658E0
1.762000000E0,-2.284652472E0,2.628833652E-1,9.427743912E0
1.782000000E0,-1.769889593E0,1.405971050E-1,9.317926407E0
1.802007813E0,-1.114587069E0,1.105163433E-2,9.057953835E0
1.824000000E0,-6.816196442E-1,3.991421461E-1,8.012751579E0
1.844001563E0,-4.786871076E-1,9.088964462E-1,6.880974293E0
1.866000000E0,-5.317234397E-1,1.306554198E0,6.214284897E0
1.886000000E0,-3.580097556E-1,1.654738188E0,6.281561375E0
1.906000000E0,-1.426273733E-1,1.416888595E0,6.996384144E0
1.926000000E0,-7.419151813E-2,1.440821052E0,7.470761776E0
1.946000000E0,6.209601462E-2,1.703608632E0,7.197449207E0
1.968000000E0,1.018206105E-1,1.913704634E0,7.163959026E0
1.988000000E0,3.556634486E-1,1.737242341E0,7.868112564E0
2.008000000E0,5.158259869E-1,1.694855332E0,8.792044640E0
2.028000000E0,2.468900830E-1,1.836122751E0,9.798730850E0
2.050000000E0,3.077028133E-2,1.758062243E0,1.119287395E1
2.070000000E0,3.256114200E-3,9.357880950E-1,1.322427750E1
2.092000000E0,6.792637110E-1,-3.071281910E-1,1.524082756E1
2.112000000E0,8.772450686E-1,-7.436486483E-1,1.529866123E1
2.132000000E0,4.790701866E-1,-5.640739575E-3,1.475016880E1
2.152000000E0,1.915361354E-4,8.357871175E-1,1.319782639E1
2.172000000E0,1.676515788E-1,1.421006560E0,1.078604126E1
2.192000000E0,2.469954193E-1,1.512551308E0,9.450929642E0
2.212000000E0,4.555495679E-1,8.844659925E-1,1.036007404E1
2.232000000E0,1.163811922E0,-3.001945913E-1,1.135497093E1
2.252000000E0,1.355788589E0,-1.201592445E0,1.144888115E1
2.272000000E0,2.253614217E-1,-1.018292308E0,1.267940521E1
2.292000000E0,-1.293970227E0,-6.211038232E-1,1.315908813E1
2.312000000E0,-1.680432796E0,6.174167246E-2,1.229841137E1
2.332000000E0,-8.828187585E-1,-1.893430501E-1,1.035347652E1
2.352000000E0,1.647210680E-3,-3.010373414E-1,8.128372192E0
2.372001563E0,3.606242239E-1,5.477933586E-2,6.102600098E0
2.394000000E0,-1.042626947E-1,8.168537617E-1,5.630875111E0
2.414000000E0,-5.964148045E-1,1.493292332E0,6.493946075E0
2.434000000E0,-1.271704137E-1,1.002040505E0,7.378680706E0
2.454000000E0,3.724420071E-1,2.707363367E-1,6.930686951E0
2.474000000E0,7.568838000E-1,1.213094071E-1,5.969051361E0
2.494000000E0,9.073641300E-1,8.544139862E-1,6.196366310E0
2.514001563E0,7.904025912E-1,1.170659304E0,7.154631138E0
2.535998438E0,8.390718699E-1,1.735700488E0,6.802607059E0
2.556000000E0,2.125093341E-1,2.118140697E0,6.991308689E0
2.576000000E0,-2.063323110E-1,2.149227142E0,8.552519798E0
2.596000000E0,-1.965927035E-1,1.448022723E0,1.085056019E1
2.616000000E0,8.202534914E-2,6.969425678E-1,1.178637695E1
2.637998438E0,6.380069256E-1,2.344210744E-1,1.125715351E1
2.657998438E0,1.312759876E0,1.329165101E-1,1.118664837E1
2.678000000E0,2.236845255E0,6.712575555E-1,1.079290867E1
2.698009375E0,1.776133776E0,8.866112232E-1,9.215214729E0
2.719998438E0,-3.301221132E-1,1.168791771E0,9.628626823E0
2.739998438E0,-2.002376318E0,1.173676014E0,1.244944668E1
2.759998438E0,-2.298059940E0,4.945271611E-1,1.503595066E1
2.780000000E0,-1.065113306E0,-1.444278210E-1,1.433072376E1
2.800000000E0,6.433699280E-2,-3.313575089E-1,1.142053318E1
2.820000000E0,6.938492656E-1,2.901389599E-1,8.176495552E0
2.840000000E0,8.718054891E-1,1.363047719E0,6.447700024E0
2.860000000E0,5.967404246E-1,1.542814016E0,7.067396164E0
2.882000000E0,2.953008413E-1,1.393722296E0,7.990849018E0
2.902004688E0,-5.087199807E-2,1.418689013E0,8.102103233E0
2.924000000E0,-8.805873990E-2,1.364493847E0,8.346857071E0
2.944000000E0,8.159439079E-3,1.105718970E0,9.322294235E0
2.964000000E0,3.178925216E-1,9.039835334E-1,9.537818909E0
2.984000000E0,7.599675059E-1,8.006018400E-1,8.848040581E0
3.004000000E0,8.203684092E-1,6.067098379E-1,8.537933350E0
3.024000000E0,6.678769588E-1,4.565168023E-1,9.493354797E0
3.044000000E0,3.830052614E-1,3.926107883E-1,1.023817158E1
3.064000000E0,-9.637140483E-2,4.993251264E-1,1.065878487E1
3.084000000E0,-6.726557612E-1,6.336302757E-1,1.087528801E1
3.104000000E0,-9.909121990E-1,7.846756577E-1,1.160568142E1
3.124000000E0,-7.257591486E-1,4.358691871E-1,1.207196712E1
3.144000000E0,-1.291432381E-1,9.250237793E-2,1.165165997E1
3.164000000E0,1.740967780E-1,2.141182423E-1,1.094180870E1
3.184000000E0,1.343434453E-1,6.592673659E-1,1.070637226E1
3.204000000E0,1.139448434E-1,1.022142172E0,1.064368248E1
3.224000000E0,3.371227384E-1,9.696325064E-1,1.092901325E1
3.244000000E0,5.020353794E-1,7.285746932E-1,1.124942493E1
3.264004688E0,9.039835334E-1,8.466663361E-1,1.054936981E1
3.286000000E0,1.235274076E0,7.831529379E-1,9.616886139E0
3.306000000E0,1.289631963E0,4.604241252E-1,1.058216953E1
3.328000000E0,1.562992334E0,3.645890579E-2,1.209726906E1
3.348000000E0,2.244353533E0,-4.962988496E-1,1.121271706E1
3.368000000E0,2.234106302E0,-3.966042995E-1,1.023738575E1
3.388001563E0,1.235139847E0,-1.498578787E-1,9.455353737E0
3.410012500E0,-1.421102285E-1,-1.087542176E-1,1.006759834E1
3.430018750E0,-1.058332920E0,-1.568872482E-1,1.144044304E1
3.452000000E0,-1.503759742E0,-2.985569537E-1,1.203377438E1
3.472000000E0,-9.413234591E-1,-2.461047769E-1,1.059449577E1
3.492000000E0,-3.134297132E-1,-4.307456017E-1,8.799649239E0
3.512000000E0,-3.945644200E-2,-1.068771631E-1,7.383622169E0
3.532003125E0,-2.036986686E-2,5.710746050E-1,6.660362720E0
3.554000000E0,1.619437896E-2,1.105335951E0,6.567879200E0
3.574000000E0,-1.771038771E-1,1.332430720E0,6.726815701E0
3.594000000E0,-1.919287890E-1,1.635278106E0,7.163451672E0
3.614000000E0,-2.625289857E-1,1.970226884E0,7.420272827E0
3.634000000E0,-4.702595174E-1,1.966195107E0,8.195611000E0
3.654000000E0,-2.524733543E-1,1.248317599E0,9.969982147E0
3.675998438E0,9.787496179E-3,5.562784076E-1,1.140524864E1
3.696000000E0,-1.056513265E-1,7.905749679E-1,1.190513992E1
3.716000000E0,-5.572648048E-1,1.649202704E0,1.156411934E1
3.736000000E0,-7.745338082E-1,2.460358381E0,1.047259235E1
3.756000000E0,-6.222434640E-1,2.916568518E0,9.388622284E0
3.776000000E0,-9.187988192E-2,3.026050806E0,8.922193527E0
3.796003125E0,4.921999872E-1,2.613328695E0,8.737983704E0
3.818000000E0,7.056287527E-1,2.166110754E0,9.206317902E0
3.840000000E0,6.278554797E-1,2.143787384E0,9.577228546E0
3.860000000E0,5.004073381E-1,2.431407690E0,9.497194290E0
3.882004688E0,4.474858642E-1,2.405990839E0,9.604100227E0
3.904000000E0,3.207272664E-2,2.234393597E0,1.087072945E1
3.924000000E0,1.623268612E-2,1.757535696E0,1.161320019E1
3.944000000E0,-2.557964996E-2,1.203718424E0,1.176104641E1
3.964000000E0,-5.532808900E-1,9.775621295E-1,1.202712917E1
3.984000000E0,-1.022850871E0,6.139690280E-1,1.233632565E1
4.004000000E0,-6.824623942E-1,2.459324002E-1,1.249983978E1
4.024000000E0,1.911722124E-1,3.600879386E-2,1.150914764E1
4.044000000E0,6.413587928E-1,6.271850318E-2,1.032177734E1
4.064000000E0,4.696561992E-1,1.257147491E-1,9.537235260E0
4.084000000E0,-1.503271312E-1,3.106716089E-2,9.267907143E0
4.104000000E0,-5.535969138E-1,3.999466002E-1,9.217312813E0
4.124000000E0,-6.230287552E-1,7.171687484E-1,9.035344124E0
4.144000000E0,-2.933375835E-1,7.552940249E-1,8.578932762E0
4.164000000E0,1.074134707E-1,7.855662704E-1,8.269352913E0
4.184000000E0,3.929076493E-1,7.861983776E-1,8.001939774E0
4.204000000E0,6.696486473E-1,9.003826380E-1,7.409882069E0
4.224000000E0,7.856141925E-1,1.196861506E0,6.715094090E0
4.244000000E0,6.103107333E-1,1.626773834E0,6.406251431E0
4.264000000E0,6.994516850E-1,2.019873142E0,6.340008736E0
4.284000000E0,1.042272568E0,1.998124123E0,6.533718586E0
4.304000000E0,1.128195643E0,1.985003948E0,7.242172718E0
4.324000000E0,1.103047013E0,2.087944984E0,7.613121033E0
4.344000000E0,8.083974123E-1,2.288157701E0,8.537138939E0
4.364000000E0,4.497843087E-1,2.198355913E0,9.548842430E0
4.384000000E0,5.288408399E-1,2.119280338E0,1.068126202E1
4.404000000E0,6.996144652E-1,1.668748975E0,1.198684883E1
4.424000000E0,1.006254315E0,1.721545935E0,1.236216450E1
4.444000000E0,1.176185012E0,2.117412806E0,1.149518490E1
4.464000000E0,1.063197970E0,2.512686014E0,1.083450985E1
4.484000000E0,1.115295768E0,2.447793484E0,1.102535629E1
4.504000000E0,9.456139207E-1,2.077956200E0,1.226451874E1
4.524000000E0,6.657125950E-1,2.014644146E0,1.274449825E1
4.544000000E0,4.991719127E-1,2.149590731E0,1.210831165E1
4.564000000E0,6.727610826E-1,1.654278398E0,1.239707088E1
4.584000000E0,1.280476570E0,6.600718498E-1,1.292704201E1
4.604000000E0,2.111523151E0,1.974737458E-2,1.223359489E1
4.624000000E0,2.389997482E0,-5.075707566E-3,1.108348751E1
4.644000000E0,2.033615828E0,4.125879705E-1,1.021788788E1
4.664000000E0,9.143360853E-1,3.528382778E-1,1.063770580E1
4.684000000E0,-4.127891064E-1,3.895749152E-1,1.223384380E1
4.704000000E0,-1.477461934E0,5.876137018E-1,1.299528599E1
4.724000000E0,-1.566334605E0,8.255399466E-1,1.112899590E1
4.744000000E0,-1.043871999E0,9.416682720E-1,8.678991318E0
4.764000000E0,-4.396233261E-1,8.160110116E-1,7.844209194E0
4.784000000E0,-4.701733291E-1,3.617925942E-1,9.096940994E0
4.804000000E0,-6.475549340E-1,2.107280642E-1,9.112006187E0
4.824000000E0,-9.553151727E-1,5.086625218E-1,7.827315807E0
4.844000000E0,-1.280926585E0,1.151333213E0,6.336493969E0
4.864000000E0,-1.024430990E0,1.552927136E0,6.136913776E0
4.884000000E0,-6.327012777E-1,7.167952657E-1,7.438583374E0
4.904000000E0,-4.118122458E-1,1.893430501E-1,8.098204613E0
4.924000000E0,-2.168380618E-1,4.976396263E-1,7.700270176E0
4.944000000E0,2.568787038E-1,1.408077836E0,7.304268837E0
4.964000000E0,3.206889629E-1,1.571783781E0,7.901603222E0
4.984000000E0,1.590516120E-1,1.438273549E0,9.000877380E0
5.004000000E0,-9.590214491E-2,1.155202270E0,9.232827187E0
5.024000000E0,-1.604115069E-1,7.973840833E-1,9.869751930E0
5.044000000E0,1.115410700E-1,1.109664589E-1,1.137135601E1
5.064000000E0,4.044285715E-1,-2.010650635E-1,1.177839947E1
5.084000000E0,5.693411827E-1,3.959051967E-1,1.094558144E1
5.104000000E0,4.765419066E-1,8.691431284E-1,1.081950283E1
5.124000000E0,-2.804089189E-1,1.169251442E0,1.047048569E1
5.144000000E0,-9.012733102E-1,1.546481967E0,1.053277302E1
5.164001563E0,-9.321297407E-1,1.426302671E0,1.118716621E1
5.186006250E0,-3.304668665E-1,1.183913589E0,1.082278824E1
5.207998438E0,1.217978299E-1,1.121290922E0,9.577601433E0
5.227998438E0,1.553453803E-1,1.075887203E0,9.178507805E0
5.248000000E0,2.319502644E-2,6.488094926E-1,9.929108620E0
5.268000000E0,-3.146364093E-1,4.744541645E-1,1.022717762E1
5.288000000E0,-4.175104797E-1,7.238820791E-1,9.825803757E0
5.309998438E0,-5.722142011E-2,9.879338145E-1,9.176553726E0
5.330017188E0,2.971108258E-1,9.400976300E-1,8.818725586E0
5.352006250E0,7.327215075E-1,1.177669525E0,8.075804710E0
5.374000000E0,8.172368407E-1,1.665368438E0,7.471413136E0
5.394000000E0,6.990015507E-1,2.104800224E0,7.434465408E0
5.414000000E0,4.664479494E-1,2.436301231E0,7.653697968E0
5.436000000E0,3.577032983E-1,2.661126375E0,7.693154335E0
5.458000000E0,4.115728438E-1,2.431867123E0,8.299318314E0
5.478000000E0,3.486723900E-1,2.116809607E0,8.811092377E0
5.498007813E0,2.647412419E-1,1.989476323E0,9.297335625E0
5.519998438E0,5.368757993E-2,2.177947760E0,9.467535019E0
5.540000000E0,-9.011775255E-3,2.298223019E0,9.276247978E0
5.560000000E0,1.555081904E-1,2.334959507E0,9.374017715E0
5.582001563E0,3.922755718E-1,2.013437271E0,9.669433594E0
5.602006250E0,2.342295349E-1,1.910419703E0,1.016430569E1
5.624000000E0,2.152770460E-1,1.679446340E0,1.067559147E1
5.644000000E0,2.946400344E-1,1.193423390E0,1.135606289E1
5.664001563E0,5.705382824E-1,1.129383326E0,1.183610916E1
5.684001563E0,1.223973393E0,1.291518569E0,1.149473476E1
5.704001563E0,1.689185858E0,1.723892212E0,1.030234528E1
5.726000000E0,1.658769965E0,1.906407118E0,9.128238678E0
5.746000000E0,1.184488177E0,1.034113169E0,1.124162006E1
5.766000000E0,9.588873386E-1,-9.241618216E-3,1.356811333E1
5.786000000E0,9.587724805E-1,-4.671949446E-1,1.387678337E1
5.807998438E0,1.222287863E-1,-3.323151916E-2,1.183892441E1
5.828000000E0,-1.029908895E0,3.227288127E-1,1.140373611E1
5.850000000E0,-1.780807257E0,5.212368965E-1,1.197966576E1
5.872000000E0,-1.265249372E0,-8.514739573E-2,1.251242352E1
5.892000000E0,-8.051508665E-1,-1.311572433E0,1.165495491E1
5.912006250E0,-1.022094250E0,-1.308172584E0,1.115416431E1
5.934000000E0,-1.187073946E0,-7.451043129E-1,1.085825062E1
5.954000000E0,-8.455170989E-1,-1.683602631E-1,9.039912224E0
5.974001563E0,-7.924520373E-1,3.759758472E-1,7.037497520E0
5.995998438E0,-1.389537215E0,1.152291059E0,5.538228989E0
6.016000000E0,-2.088194132E0,1.835806847E0,5.651532173E0
6.038000000E0,-2.466535330E0,2.107156038E0,6.976339817E0
6.060000000E0,-1.783364296E0,1.658310294E0,7.547107697E0
6.080000000E0,-8.023927808E-1,9.301856756E-1,7.281188965E0
6.100000000E0,-2.738775313E-1,6.313605309E-1,7.468463421E0
6.120000000E0,-3.332633078E-1,1.200577259E0,8.293418884E0
6.140000000E0,-6.996144652E-1,1.655801177E0,9.132174492E0
6.162003125E0,-1.119586229E0,2.004167080E0,1.008797836E1
6.184000000E0,-1.307483196E0,2.033271074E0,1.118550873E1
6.204000000E0,-8.362946510E-1,1.692815542E0,1.191083813E1
6.224000000E0,4.609316960E-2,1.314110279E0,1.210469151E1
6.244000000E0,8.149096966E-1,1.228962898E0,1.236640644E1
6.264000000E0,6.154343486E-1,1.086105704E0,1.170012856E1
6.284000000E0,-4.593707025E-1,1.125293970E0,1.153253460E1
6.304000000E0,-1.340456009E0,9.950685501E-1,1.297347069E1
6.324000000E0,-9.890925884E-1,1.951561719E-1,1.407561684E1
6.344000000E0,-1.290187389E-1,-5.127614141E-1,1.304950142E1
6.364000000E0,3.026845753E-1,-6.081367731E-1,1.119696331E1
6.384000000E0,5.227787495E-1,-2.358001471E-1,9.835351944E0
6.404000000E0,5.588545799E-1,7.642100453E-1,8.659406662E0
6.424000000E0,5.566423535E-1,1.758684874E0,7.304967880E0
6.444000000E0,6.887160540E-1,2.409371376E0,6.028848648E0
6.464000000E0,4.272309244E-1,2.568633556E0,6.055050850E0
6.484000000E0,1.271799952E-2,2.190991402E0,7.323795795E0
6.504000000E0,1.180245653E-1,1.828298569E0,7.922901630E0
6.524000000E0,5.347976089E-1,1.210278511E0,8.191741943E0
6.544000000E0,9.747944474E-1,8.168728352E-1,8.213500023E0
6.564000000E0,1.358843565E0,7.343878746E-1,7.981071472E0
6.584000000E0,1.594059467E0,9.319574237E-1,7.652921677E0
6.604000000E0,1.418574095E0,1.422835827E0,7.453235626E0
6.624000000E0,9.851086140E-1,1.875981569E0,7.821119785E0
6.644000000E0,3.688507080E-1,2.111321926E0,9.062071800E0
6.664000000E0,2.446299642E-1,1.955756307E0,1.074226570E1
6.684000000E0,2.102875262E-1,1.699873686E0,1.197201347E1
6.704000000E0,2.303222120E-1,1.566938043E0,1.260583591E1
6.724000000E0,3.065918982E-1,1.520337224E0,1.266089249E1
6.744000000E0,2.119826227E-1,1.481292605E0,1.278664589E1
6.764000000E0,6.109140515E-1,1.363095522E0,1.313825893E1
6.784000000E0,1.334815264E0,9.565219283E-1,1.278920269E1
6.804000000E0,1.952768326E0,7.638652325E-1,1.160460949E1
6.824000000E0,2.634684801E0,8.946078420E-1,1.051546764E1
6.844000000E0,3.252877474E0,7.268796563E-1,1.061744118E1
6.864000000E0,3.257637024E0,6.399988532E-1,1.084911442E1
6.884000000E0,1.961627007E0,3.220296800E-1,1.074502468E1
6.904000000E0,1.237323433E-1,1.755620241E-1,1.155539417E1
6.924000000E0,-1.210192442E0,1.498291492E-1,1.428411388E1
6.944000000E0,-1.094638586E0,-4.789073765E-1,1.499510574E1
6.964000000E0,-3.253241256E-2,-1.034017444E0,1.206972694E1
6.984001563E0,5.938386321E-1,-7.166324258E-1,8.242901802E0
7.006000000E0,7.274829745E-1,2.182937264E-1,6.085687160E0
7.026000000E0,4.426783025E-1,8.425482512E-1,5.295887947E0
7.046000000E0,3.093404174E-1,1.314234734E0,4.563654900E0
7.067998438E0,1.493024174E-2,1.610550761E0,4.431945324E0
7.087998438E0,-2.322854400E-1,1.387688875E0,5.286349773E0
7.108000000E0,-2.975609601E-1,1.130781531E0,6.349164486E0
7.130018750E0,-5.691879392E-1,9.476155043E-1,7.101795673E0
7.152000000E0,-5.517007113E-1,8.074110150E-1,7.827200890E0
7.172004688E0,-6.185084581E-1,6.753468513E-1,8.431794167E0
7.194000000E0,-8.209909201E-1,6.908133626E-1,9.495634079E0
7.214000000E0,-1.020887613E0,5.912624598E-1,9.982748032E0
7.234000000E0,-9.994642735E-1,2.039476782E-1,1.091368103E1
7.254000000E0,-8.381717205E-1,-4.367502630E-1,1.181701374E1
7.274000000E0,-6.932458878E-1,-4.860804081E-1,1.271415901E1
7.294004688E0,-2.174701244E-1,2.169625610E-1,1.225656891E1
7.316000000E0,-5.423824191E-1,9.776387215E-1,1.030072784E1
7.336000000E0,-2.205088377E0,1.355951309E0,1.131794739E1
7.356000000E0,-3.301163673E0,6.600047946E-1,1.429902458E1
7.376000000E0,-2.979133844E0,-3.915381730E-1,1.565001583E1
7.396000000E0,-1.813588619E0,-9.509194493E-1,1.392759800E1
7.416000000E0,-8.794956207E-1,-8.669691682E-1,1.057946968E1
7.436000000E0,-3.183617890E-1,-2.190215737E-1,8.365283012E0
7.456000000E0,-3.098096848E-1,1.250443608E-1,8.790187836E0
7.476000000E0,-7.000262737E-1,-6.172252074E-2,1.006667995E1
7.498006250E0,-8.790072203E-1,1.453950852E-1,1.005516815E1
7.520000000E0,-7.436869740E-1,7.312945724E-1,8.735302925E0
7.540000000E0,-3.595708013E-1,1.310902119E0,7.345161438E0
7.560000000E0,7.845319808E-2,1.649356008E0,6.127930641E0
7.582001563E0,6.770131588E-1,2.000412941E0,5.182853222E0
7.602001563E0,1.078607082E0,2.212673426E0,5.110548019E0
7.624000000E0,1.545629621E0,1.962460041E0,5.867067814E0
7.644000000E0,1.749615550E0,1.611843586E0,6.900079727E0
7.664000000E0,1.381492734E0,1.514476180E0,8.570446968E0
7.684000000E0,1.185781002E0,1.032360554E0,1.046924973E1
7.704000000E0,1.363354206E0,6.134614944E-1,1.151175308E1
7.724000000E0,1.650610566E0,2.782445252E-1,1.285100174E1
7.744000000E0,1.780864596E0,-7.036080211E-2,1.373887825E1
7.764000000E0,1.427288890E0,8.084740490E-2,1.403761578E1
7.784000000E0,8.522687554E-1,5.373354554E-1,1.402921772E1
7.804000000E0,5.373163223E-1,6.190256476E-1,1.374043846E1
7.824000000E0,7.919923663E-1,7.216315269E-1,1.310783291E1
7.844000000E0,1.179996729E0,8.696507215E-1,1.144928360E1
7.864000000E0,1.572032809E0,1.025628209E0,1.059841347E1
7.884000000E0,2.367453575E0,5.174540281E-1,1.067539024E1
7.904000000E0,3.025016308E0,-7.241981477E-2,1.048043537E1
7.924000000E0,2.447371960E0,-4.487883449E-1,9.956354141E0
7.944000000E0,1.052213430E0,-7.309880853E-1,1.147062016E1
7.964000000E0,-4.888289571E-1,-9.362860918E-1,1.453226757E1
7.984000000E0,-1.171741486E0,-1.207233191E0,1.537258530E1
8.004000000E0,-6.860728860E-1,-1.232266903E0,1.225455856E1
8.024000000E0,-6.701849103E-1,-8.392539024E-1,8.995331764E0
8.044000000E0,-1.497735977E0,2.037753016E-1,9.384342194E0
8.064000000E0,-2.080235481E0,2.877351642E-1,1.025176048E1
8.084000000E0,-2.151324272E0,4.483190477E-1,9.467679024E0
8.104000000E0,-2.265077591E0,8.770056963E-1,7.456855774E0
8.124000000E0,-2.065372467E0,1.451231003E0,5.969233513E0
8.144000000E0,-1.770521760E0,1.812717199E0,5.777697086E0
8.164000000E0,-1.371657372E0,1.331607103E0,6.442853928E0
8.185998438E0,-6.064034104E-1,8.568465114E-1,6.383430004E0
8.206000000E0,-4.713895917E-1,7.226179838E-1,6.014416695E0
8.226000000E0,-4.047924876E-1,1.239478230E0,5.855776787E0
8.248000000E0,-4.507036805E-1,1.421016097E0,6.702385902E0
8.268000000E0,-6.159994006E-1,1.230207920E0,7.814808369E0
8.288000000E0,-8.566740751E-1,1.244534731E0,8.228996277E0
8.308000000E0,-8.630426526E-1,7.279427052E-1,8.986396790E0
8.328000000E0,-3.500897586E-1,3.735337853E-1,1.005758190E1
8.348000000E0,-3.546291590E-2,5.778453946E-1,1.075195789E1
8.368000000E0,-2.570893764E-1,5.385230184E-1,1.075510883E1
8.388000000E0,-6.779900789E-1,4.519199133E-1,1.153265953E1
8.410015625E0,-1.063829899E0,4.126645997E-2,1.247597504E1
8.430018750E0,-9.398677945E-1,-1.960851103E-1,1.302019501E1
8.452004688E0,-7.804618478E-1,-2.200750262E-1,1.270335674E1
8.472004688E0,-7.261996865E-1,-2.895451784E-1,1.215902042E1
8.494000000E0,-2.539290190E-1,-4.476678371E-1,1.158751488E1
8.514000000E0,4.834276438E-1,-5.568242669E-1,1.111783028E1
8.534000000E0,1.065802813E0,-4.449001551E-1,1.012607479E1
8.554000000E0,1.477710843E0,-6.891470402E-2,8.691621780E0
8.574000000E0,1.628794551E0,5.020353794E-1,7.495843410E0
8.594000000E0,1.679848552E0,1.142790794E0,6.179032326E0
8.614000000E0,1.849358082E0,1.699270248E0,5.366344929E0
8.634000000E0,1.951504230E0,1.686724782E0,5.836048603E0
8.654000000E0,2.224931717E0,1.894005179E0,6.638221264E0
8.674000000E0,2.301670551E0,2.364034653E0,7.371813774E0
8.694000000E0,2.490419865E0,2.370815277E0,8.416950226E0
8.714000000E0,2.758244991E0,1.400962234E0,1.025507450E1
8.734000000E0,2.240388632E0,4.326609671E-1,1.233515739E1
8.754000000E0,1.627463341E0,-2.099331766E-1,1.426961422E1
8.774003125E0,1.228723526E0,-1.780711561E-1,1.485334969E1
8.796000000E0,9.882019758E-1,6.269935369E-1,1.334782791E1
8.818000000E0,5.683930516E-1,1.370891094E0,1.145713615E1
8.838000000E0,5.065076947E-1,1.642259479E0,1.082647419E1
8.860000000E0,9.134645462E-1,1.601663470E0,1.084049511E1
8.880000000E0,1.296967745E0,1.919268727E0,1.018410015E1
8.900000000E0,1.273696184E0,1.906770945E0,1.043848038E1
8.920000000E0,1.046227813E0,1.364273548E0,1.183303547E1
8.940000000E0,1.671938062E0,8.345325589E-1,1.247731590E1
8.960000000E0,2.610905647E0,7.263529301E-1,1.114168549E1
8.980000000E0,2.897233248E0,9.206375480E-1,9.577572823E0
9.000000000E0,2.211265564E0,1.153363466E0,9.908154488E0
9.022009375E0,1.287113309E0,6.306423545E-1,1.300483418E1
9.044000000E0,8.666818738E-1,-3.577703536E-1,1.463265228E1
9.064000000E0,5.903909802E-1,-8.708860874E-1,1.313885212E1
9.084000000E0,2.161006480E-1,-5.081357956E-1,1.013429165E1
9.104000000E0,-3.577032983E-1,3.843268454E-1,8.751698494E0
9.124000000E0,-8.960060477E-1,8.644313216E-1,9.225222588E0
9.144000000E0,-5.372205973E-1,5.058661103E-1,8.740953445E0
9.164000000E0,-2.289048284E-1,3.606242239E-1,7.235353947E0
9.184000000E0,-1.673163921E-1,6.183935404E-1,5.902904510E0
9.204000000E0,-2.892482877E-1,1.081039548E0,5.288772583E0
9.224000000E0,-6.967988610E-1,1.475134730E0,5.095158100E0
9.244000000E0,-1.048823118E0,1.928443193E0,5.017758369E0
9.264000000E0,-1.230830312E0,1.990826488E0,5.263058662E0
9.284000000E0,-1.069834709E0,1.654565811E0,6.201001644E0
9.304000000E0,-8.161163330E-1,1.252320647E0,7.006008625E0
9.324000000E0,-5.343188047E-1,8.271296620E-1,8.272455215E0
9.344000000E0,-2.148460895E-1,5.790807605E-1,9.150437355E0
9.364000000E0,-2.453099042E-1,6.659041047E-1,9.280634880E0
9.384000000E0,-6.779708862E-1,1.294257522E0,9.046912193E0
9.404000000E0,-1.054502249E0,2.167939901E0,9.381899834E0
9.424000000E0,-1.436501861E0,1.953994155E0,1.025380039E1
9.444000000E0,-1.164319515E0,7.286800742E-1,1.292965603E1
9.464000000E0,-7.799638510E-1,-2.991507351E-1,1.473869610E1
9.484000000E0,-4.883884192E-1,-3.527904153E-1,1.416802311E1
9.504000000E0,-5.370002985E-1,2.816634476E-1,1.199404144E1
9.524000000E0,-1.028750181E0,8.206270337E-1,1.122032166E1
9.544000000E0,-1.512848139E0,8.492904305E-1,1.259369278E1
9.564000000E0,-1.192810416E0,5.026004314E-1,1.299822617E1
9.584000000E0,-6.133083105E-1,2.337123901E-1,1.180793476E1
9.604000000E0,1.093192548E-1,2.178436220E-1,9.768870354E0
9.624000000E0,7.487722039E-1,4.200291634E-1,7.991931438E0
9.644000000E0,1.133826852E0,6.225307584E-1,7.040849209E0
9.664000000E0,1.229604483E0,5.639781356E-1,7.122788429E0
9.684000000E0,1.375373125E0,7.039240003E-1,6.754857063E0
9.704000000E0,1.344736934E0,9.690866470E-1,6.117846012E0
9.724000000E0,1.260987639E0,1.173053503E0,5.854273319E0
9.744000000E0,1.177027822E0,1.306324363E0,6.276284695E0
9.764000000E0,1.135608196E0,1.065946579E0,6.995120049E0
9.784000000E0,1.347188592E0,8.740081191E-1,7.996126175E0
9.804000000E0,1.585871339E0,9.196128249E-1,9.022462845E0
9.824000000E0,1.783919692E0,9.224858880E-1,1.032844257E1
9.844000000E0,1.465596199E0,7.213250995E-1,1.187167740E1
9.864000000E0,1.437114716E0,1.871307939E-1,1.325476074E1
9.884000000E0,1.741638064E0,-4.356680810E-1,1.433097267E1
9.904000000E0,1.674715281E0,-4.644272327E-1,1.469688416E1
9.924000000E0,1.578650355E0,-1.924076229E-1,1.431077576E1
9.944000000E0,1.604411960E0,5.631162319E-3,1.334346104E1
9.964000000E0,1.613931417E0,2.781104669E-2,1.281328869E1
9.984000000E0,2.047971487E0,-6.423164159E-2,1.261707878E1
1.000400000E1,2.710829973E0,-3.355904520E-1,1.267605305E1
1.002400000E1,2.613299847E0,-6.587215066E-1,1.181038666E1
1.004400000E1,1.425957799E0,-3.627119660E-1,1.207046413E1
1.006400000E1,3.993336856E-1,-5.993931890E-1,1.417584801E1
1.008400000E1,1.071644649E-1,-1.012565374E0,1.469014168E1
1.010400000E1,3.195205629E-1,-9.725151658E-1,1.226646328E1
1.012400000E1,3.440276086E-1,-7.262954712E-1,9.837496758E0
1.014400000E1,2.284834534E-1,-7.559164762E-1,8.630149841E0
1.016400000E1,-3.436158225E-2,-8.070662022E-1,8.613102913E0
1.018400000E1,-3.629897237E-1,-6.272616982E-1,8.074770927E0
1.020400000E1,-6.482061744E-1,-2.726325393E-1,7.184941769E0
1.022400000E1,-9.511301517E-1,-2.037657201E-1,6.811915398E0
1.024400000E1,-1.152635694E0,-1.776497625E-2,7.260148525E0
1.026400000E1,-1.364656568E0,-1.562743336E-1,7.429513931E0
1.028400000E1,-1.409064293E0,-3.986824751E-1,7.159678459E0
1.030400000E1,-1.400722861E0,-6.391752362E-1,6.960183620E0
1.032400000E1,-1.492325068E0,-5.193406343E-1,7.209113598E0
1.034400000E1,-1.766509056E0,-2.323620617E-1,7.477436543E0
1.036400000E1,-1.795411825E0,5.300762504E-2,7.317235947E0
1.038400000E1,-1.948171496E0,2.343253046E-1,7.584486485E0
1.040400000E1,-2.016664743E0,-4.287440479E-1,9.757587433E0
1.042400000E1,-1.322489977E0,-1.460769534E0,1.231637669E1
1.044400000E1,-5.174540281E-1,-1.815590262E0,1.264012146E1
1.046600000E1,-1.292888045E0,-5.319245458E-1,1.104150295E1
1.048600000E1,-2.741217375E0,7.619882226E-1,1.122984028E1
1.050600000E1,-3.287890196E0,5.997188091E-1,1.247838783E1
1.052600000E1,-3.035627365E0,-4.646858275E-1,1.303028870E1
1.054600000E1,-2.582414865E0,-1.520710707E0,1.390017033E1
1.056799844E1,-1.870570660E0,-2.099762678E0,1.349178600E1
1.058799844E1,-7.491648793E-1,-1.846753120E0,1.134442711E1
1.060800000E1,-1.713290662E-1,-1.169701695E0,8.682954788E0
1.063001875E1,-2.279663086E-1,1.049426496E-1,7.043894768E0
1.065200469E1,-1.089840569E-2,7.830763459E-1,6.698909283E0
1.067400000E1,6.100808978E-1,9.316318035E-1,5.829747200E0
1.069400000E1,1.084841609E0,1.443933487E0,5.206306458E0
1.071400000E1,1.385285139E0,2.024699688E0,5.111859798E0
1.073400000E1,1.295866489E0,2.475518227E0,5.670044422E0
1.075400000E1,1.874161959E0,2.219482422E0,6.566988945E0
1.077400000E1,2.487384081E0,1.677377701E0,7.973180294E0
1.079400469E1,2.094131708E0,1.526543021E0,9.489130974E0
1.081600000E1,1.654297590E0,1.633152008E0,1.085891151E1
1.083600000E1,2.137887955E0,1.388234735E0,1.129489517E1
1.085799844E1,2.510329962E0,8.248695135E-1,1.192838192E1
1.087799844E1,1.973578691E0,6.451224089E-1,1.250497246E1
1.089800000E1,1.129890919E0,7.217943668E-1,1.350502110E1
1.091800000E1,5.162473917E-1,6.430538297E-1,1.466242695E1
1.093800000E1,2.387114912E-1,5.138148069E-1,1.499577618E1
1.095800000E1,7.003040314E-1,6.157311797E-1,1.359619236E1
1.097800000E1,1.386530042E0,1.095653653E0,1.108079720E1
1.100000000E1,1.798572183E0,1.448539972E0,9.746718407E0
1.102200625E1,2.170803547E0,9.698719382E-1,1.055846786E1
1.104400000E1,2.316926479E0,9.968498349E-2,1.136971855E1
1.106400000E1,1.872543454E0,-4.679515064E-1,1.145946312E1
1.108400000E1,5.797320008E-1,-4.387805462E-1,1.218540382E1
1.110400000E1,-1.058313727E0,-4.714566469E-1,1.467246246E1
1.112400000E1,-1.570624948E0,-9.105340838E-1,1.544775295E1
1.114400000E1,-8.241129518E-1,-1.298078775E0,1.348943043E1
1.116400000E1,-1.925033927E-1,-1.200883627E0,1.022796249E1
1.118400000E1,-1.378485560E-1,-4.993538558E-1,7.383507252E0
1.120400000E1,-6.760268211E-1,3.132477701E-1,6.332194328E0
1.122400000E1,-8.909686208E-1,7.102638483E-1,6.348216534E0
1.124400000E1,-6.667947173E-1,7.487338781E-1,6.119139194E0
1.126400000E1,-3.987495005E-1,7.353934050E-1,5.287527561E0
1.128400000E1,-3.593983948E-1,9.677554965E-1,6.015671253E0
1.130400000E1,-2.922075093E-1,9.665775299E-1,7.686421871E0
1.132400000E1,-1.926853508E-1,9.815844297E-1,8.256442070E0
1.134400000E1,-3.062663078E-1,1.203890800E0,7.717843056E0
1.136400000E1,-2.970821261E-1,1.693868995E0,7.221314430E0
1.138400000E1,-9.516472369E-2,1.863598704E0,7.459240913E0
1.140400000E1,2.937206626E-2,1.775836945E0,7.885686398E0
1.142400000E1,-2.819411829E-2,1.416965246E0,8.505881310E0
1.144400000E1,-9.533711523E-2,9.050848484E-1,1.029777718E1
1.146400000E1,2.328121848E-2,4.288877249E-1,1.181426430E1
1.148400156E1,3.297103047E-1,4.311574101E-1,1.194196224E1
1.150600156E1,4.758140445E-1,7.936204076E-1,1.084338760E1
1.152799844E1,1.914307922E-1,1.353030443E0,1.058334827E1
1.154800000E1,-4.315787852E-1,1.484941363E0,1.205039024E1
1.157000000E1,6.358999759E-2,1.053688169E0,1.216537857E1
1.159000000E1,9.500383735E-1,7.795425057E-1,1.066256714E1
1.161000000E1,1.292964697E0,6.552547216E-1,9.526557922E0
1.163001875E1,6.229617596E-1,2.743850946E-1,1.066777706E1
1.165200000E1,1.782339513E-1,-9.647675604E-2,1.270902634E1
1.167200469E1,3.010469377E-1,-1.456728131E-1,1.279689312E1
1.169200469E1,9.208482504E-1,2.322758734E-1,1.061178207E1
1.171400000E1,1.614333630E0,7.037612200E-1,7.928542614E0
1.173400000E1,1.748906851E0,1.348490953E0,6.263901711E0
1.175400000E1,1.499881268E0,1.906512499E0,5.720197678E0
1.177400000E1,1.316475749E0,2.182650089E0,6.074243069E0
1.179400000E1,1.433130860E0,2.355147362E0,6.034566402E0
1.181400000E1,1.365106821E0,2.660092354E0,5.930791855E0
1.183400000E1,1.431828380E0,2.819239616E0,6.326907635E0
1.185400000E1,1.969384193E0,2.390457392E0,7.209898949E0
1.187600000E1,2.657391548E0,1.657515407E0,7.858832836E0
1.189600000E1,2.678642273E0,1.216311932E0,8.744908333E0
1.191600000E1,2.271292925E0,1.111953497E0,9.839651108E0
1.193600000E1,1.687816381E0,1.285954475E0,1.160269451E1
1.195600000E1,1.162059307E0,1.067335129E0,1.329909134E1
1.197600000E1,1.028079867E0,7.545949221E-1,1.365053082E1
1.199600000E1,1.003735542E0,8.381908536E-1,1.347345638E1
1.201600000E1,1.441520095E0,9.264219999E-1,1.339914036E1
1.203800000E1,1.819679499E0,1.219319105E0,1.319337273E1
1.205800000E1,1.446011543E0,1.580565810E0,1.275121212E1
1.207800000E1,1.572032809E0,1.508031011E0,1.268059254E1
1.209800781E1,2.764374018E0,7.521719933E-1,1.263490105E1
1.211999844E1,3.606864691E0,-1.691264100E-2,1.133598042E1
1.214000000E1,2.997933149E0,-6.011361629E-2,1.044392014E1
1.216000000E1,1.176098824E0,2.394393384E-1,1.182775879E1
1.218000000E1,-1.623172909E-1,1.780328341E-2,1.396919918E1
1.220000000E1,1.805994213E-1,-1.184334993E0,1.444754219E1
1.222000000E1,9.000953436E-1,-2.215067625E0,1.226948929E1
1.224200156E1,5.150119662E-1,-1.979545116E0,9.427303314E0
1.226400000E1,-2.819316089E-1,-7.082431912E-1,8.610239029E0
1.228400000E1,-7.442137003E-1,1.554315723E-2,7.943865299E0
1.230400000E1,-7.424132228E-1,6.257964373E-1,6.416680813E0
1.232400000E1,-3.847003281E-1,1.250434041E0,4.663445473E0
1.234400000E1,-1.978568360E-2,1.610416651E0,3.872601986E0
1.236400000E1,8.619126165E-4,1.423946619E0,4.721193314E0
1.238400000E1,-1.419282854E-1,1.119231820E0,6.082517147E0
1.240400000E1,-9.320148826E-2,9.962368608E-1,7.218058586E0
1.242400000E1,-3.803907707E-2,1.077524781E0,7.635616779E0
1.244400000E1,-1.392371953E-1,1.404256701E0,7.507718563E0
1.246400000E1,-3.144065440E-1,1.681112647E0,7.834038734E0
1.248400000E1,-4.191097915E-1,1.668777704E0,8.564528465E0
1.250400000E1,-4.313393831E-1,1.575413465E0,9.245487213E0
1.252400000E1,-4.193779528E-1,1.355826855E0,9.781435013E0
1.254400000E1,-2.359054834E-1,1.176022291E0,1.026338768E1
1.256400000E1,1.846982986E-1,1.227488041E0,1.039387131E1
1.258400000E1,6.167176366E-1,1.483246207E0,1.000310802E1
1.260400000E1,7.884585112E-2,1.723336816E0,9.773792267E0
1.262400000E1,-1.190042734E0,1.505062222E0,1.160029984E1
1.264400000E1,-1.372021198E0,6.893385649E-1,1.441893673E1
1.266400000E1,1.153622121E-1,-1.557954848E-1,1.459222889E1
1.268400000E1,1.476590276E0,-2.457887381E-1,1.194096565E1
1.270400000E1,1.876393318E0,2.975130975E-1,9.730303764E0
1.272400000E1,1.391806841E0,3.354755640E-1,1.024944305E1
1.274400000E1,8.727535605E-1,2.512475252E-1,1.105131912E1
1.276400000E1,5.420472622E-1,6.466451287E-1,1.045334244E1
1.278400000E1,2.689071596E-1,1.167680860E0,1.019125462E1
1.280400000E1,2.864518762E-1,1.398836255E0,1.018750954E1
1.282400000E1,8.819185495E-1,1.523296475E0,9.219131470E0
1.284400000E1,1.450033903E0,1.435505867E0,7.990820408E0
1.286400000E1,1.891706705E0,1.257980585E0,7.334167480E0
1.288400000E1,1.689961672E0,9.790848494E-1,7.796153069E0
1.290400000E1,1.121798515E0,8.698518276E-1,8.456780434E0
1.292400000E1,7.277128100E-1,1.184794664E0,8.596802711E0
1.294400000E1,2.461526692E-1,1.297446609E0,8.615583420E0
1.296400000E1,3.507601321E-1,1.298461795E0,8.732171059E0
1.298400000E1,6.788040996E-1,8.699571490E-1,9.163031578E0
1.300400000E1,6.590758562E-1,5.409746766E-1,1.010714149E1
1.302400000E1,1.297561526E-1,7.538574934E-1,1.086691761E1
1.304400000E1,-4.573883116E-2,1.161848664E0,1.138482094E1
1.306400000E1,9.749189019E-2,1.190157771E0,1.119680977E1
1.308400000E1,2.377059162E-1,1.183205009E0,1.136337852E1
1.310400000E1,4.069089293E-1,1.238242745E0,1.166478062E1
1.312400000E1,8.579382300E-1,1.224490523E0,1.203933907E1
1.314400000E1,1.439700603E0,1.471399784E0,1.156109238E1
1.316400000E1,1.790508509E0,1.928663611E0,1.060810471E1
1.318400000E1,1.541875482E0,1.937732816E0,1.007932091E1
1.320400000E1,1.153545499E0,1.285935283E0,1.135293102E1
1.322400000E1,1.522846341E0,4.445936978E-1,1.247159767E1
1.324400000E1,2.191977739E0,1.214339025E-2,1.131242085E1
1.326400000E1,2.233809233E0,9.049125016E-2,8.862578392E0
1.328400000E1,1.583774090E0,6.205579042E-1,7.355581760E0
1.330400000E1,7.898088098E-1,6.929298639E-1,7.882027626E0
1.332400000E1,6.360052824E-1,1.321599353E-3,9.708295822E0
1.334400000E1,6.208069324E-1,-9.454223514E-1,1.098728848E1
1.336400000E1,4.279779196E-1,-1.326157928E0,1.080263805E1
1.338400000E1,-1.053448796E-4,-1.003591895E0,1.067448139E1
1.340400000E1,-4.354382753E-1,-3.222116828E-1,9.936702728E0
1.342400000E1,-6.311594248E-1,7.582245469E-1,7.864157677E0
1.344400000E1,-5.916838646E-1,1.534807682E0,6.585701466E0
1.346400000E1,-2.174030840E-1,2.048794985E0,6.584198475E0
1.348400000E1,9.358455986E-2,1.702315688E0,7.569278240E0
1.350400000E1,1.300243139E-1,1.101706266E0,8.374888420E0
1.352400000E1,2.454631329E-1,9.057073593E-1,9.356559753E0
1.354400000E1,6.021800637E-1,6.327875257E-1,1.005014038E1
1.356400000E1,1.152223825E0,6.392039657E-1,9.555000305E0
1.358400000E1,1.094006419E0,1.224337339E0,8.669471741E0
1.360400000E1,9.000666142E-1,1.955823421E0,8.509931564E0
1.362400000E1,6.411193013E-1,2.141804934E0,9.736309052E0
1.364400000E1,7.040485144E-1,1.462512493E0,1.106775284E1
1.366400000E1,7.808353901E-1,9.297546744E-1,1.157617569E1
1.368400000E1,9.858077168E-1,1.364417195E0,1.166397572E1
1.370400000E1,1.079066634E0,1.895738482E0,1.086917782E1
1.372400000E1,4.398244321E-1,1.935348153E0,1.043012905E1
1.374400000E1,-9.020298719E-1,1.412722707E0,1.180258083E1
1.376400000E1,-1.295406699E0,2.875148952E-1,1.418622971E1
1.378400313E1,-2.791734934E-1,-8.030918837E-1,1.416264153E1
1.380600000E1,4.547738433E-1,-1.642700076E0,1.173210526E1
1.382600000E1,1.908178777E-1,-2.011512518E0,1.029657173E1
1.384600000E1,-8.312284946E-1,-1.533945918E0,1.083504581E1
1.386600000E1,-1.444010139E0,-6.114407778E-1,1.126705551E1
1.388600000E1,-1.254868150E0,4.901409522E-2,1.052416420E1
1.390600000E1,-6.642760634E-1,4.194832742E-1,8.909111977E0
1.392799844E1,1.368621588E-1,7.722258568E-1,7.349049568E0
1.394800000E1,7.213538289E-1,1.307416081E0,6.628127098E0
1.396800000E1,8.723417521E-1,1.654651999E0,6.399002075E0
1.398800000E1,1.150739551E0,1.718117476E0,6.280249596E0
1.401000000E1,1.394785285E0,1.456785560E0,6.305752277E0
1.403001875E1,1.216790795E0,1.417156696E0,6.810431004E0
1.405200000E1,1.073521733E0,1.594183922E0,7.621232510E0
1.407200000E1,1.201975465E0,1.418181419E0,8.328690529E0
1.409200000E1,1.159425616E0,1.282822847E0,8.695673943E0
1.411200000E1,8.361989260E-1,1.283320785E0,9.491343498E0
1.413200000E1,7.059734464E-1,1.231328368E0,1.043664169E1
1.415200000E1,7.869645357E-1,1.090080023E0,1.107650566E1
1.417200156E1,8.417725563E-1,1.224222422E0,1.084955502E1
1.419200156E1,7.083197832E-1,1.702535987E0,1.038434315E1
1.421201094E1,1.989868879E-1,2.018781185E0,1.086573029E1
1.423400000E1,-3.702872396E-1,1.653512359E0,1.179373264E1
1.425400000E1,-5.731814504E-1,1.404486537E0,1.333867168E1
1.427400000E1,-1.264138520E-1,1.809202552E0,1.349690056E1
1.429400000E1,-1.615894586E-1,2.276914597E0,1.145055676E1
1.431400000E1,-4.235438406E-1,1.868042350E0,1.137547493E1
1.433400000E1,2.995146215E-1,6.288610101E-1,1.282347870E1
1.435400000E1,1.539299369E0,3.552995156E-3,1.211128998E1
1.437400000E1,1.958974123E0,-7.711245120E-2,1.023430252E1
1.439400000E1,1.351115108E0,1.707352996E-1,8.734948158E0
1.441400000E1,-1.979525946E-2,2.358863205E-1,9.720650673E0
1.443400000E1,-1.180925608E0,1.132840514E-1,1.161812210E1
1.445400000E1,-1.426082253E0,-4.796735346E-1,1.272419548E1
1.447400000E1,-8.457086682E-1,-1.025446177E0,1.137144375E1
1.449400000E1,-3.109206259E-1,-8.451915383E-1,9.201338768E0
1.451400000E1,-3.313671052E-1,-1.292581707E-1,7.914550781E0
1.453400000E1,-5.271457434E-1,6.697347760E-1,7.296195984E0
1.455400000E1,-7.435049415E-1,1.271024227E0,6.617362976E0
1.457400000E1,-1.002950311E0,1.801560163E0,6.150943279E0
1.459400000E1,-1.278149366E0,1.969805598E0,6.730311394E0
1.461400000E1,-1.186499238E0,1.565137625E0,7.618589401E0
1.463400000E1,-8.190755844E-1,9.367840290E-1,8.000761032E0
1.465400000E1,-2.953104377E-1,5.010681152E-1,7.972921371E0
1.467400000E1,-2.701042593E-1,4.214465320E-1,8.004649162E0
1.469400000E1,-7.166132927E-1,1.066348791E0,8.174685478E0
1.471400000E1,-8.582447171E-1,1.519369960E0,8.510477066E0
1.473400000E1,-6.408032775E-1,1.142503381E0,9.180528641E0
1.475400000E1,-3.603082001E-1,4.331493974E-1,1.022831726E1
1.477400000E1,-3.561039865E-1,1.779562235E-1,1.128168964E1
1.479400469E1,-3.878606856E-2,7.256538272E-1,1.153860664E1
1.481600000E1,-1.536119822E-2,1.365499377E0,1.034265423E1
1.483600000E1,-1.184373260E0,1.647095799E0,1.047883701E1
1.485799844E1,-2.177670240E0,1.473391771E0,1.260548115E1
1.487800000E1,-1.750755191E0,9.492722154E-1,1.341741276E1
1.489800312E1,-9.425492883E-1,2.294890285E-1,1.232458401E1
1.492000000E1,-2.111685872E-1,-4.210443199E-1,1.139993382E1
1.494000000E1,4.153461009E-2,-3.898239136E-1,1.124802589E1
1.496000000E1,-2.208794653E-1,8.658390492E-2,1.095561790E1
1.498200000E1,-2.491980940E-1,2.651817799E-1,1.142018890E1
1.500200000E1,2.908476256E-2,4.409162104E-1,1.117780018E1
1.502200000E1,1.949550658E-1,6.833339334E-1,9.954218864E0
1.504200000E1,2.261084169E-1,1.338128924E0,8.752942085E0
1.506200000E1,4.706521630E-1,1.609133482E0,7.993396282E0
1.508200625E1,7.548726201E-1,1.474301457E0,7.374447823E0
1.510201094E1,1.048899770E0,1.425660849E0,7.269514561E0
1.512400000E1,9.528156519E-1,1.419512630E0,7.793136120E0
1.514400000E1,8.122856021E-1,1.646435022E0,8.098770142E0
1.516400000E1,8.601791859E-1,1.827551603E0,7.712154865E0
1.518400000E1,1.253038883E0,2.028894424E0,7.263002396E0
1.520400000E1,1.112595081E0,1.932599664E0,7.893568039E0
1.522400000E1,6.118717790E-1,1.734848142E0,8.849601746E0
1.524400000E1,8.124867082E-1,1.501691103E0,9.689535141E0
1.526400000E1,1.391174793E0,1.207051158E0,9.568446159E0
1.528400000E1,1.808129907E0,1.473458767E0,8.970767975E0
1.530400000E1,1.532241225E0,1.765877008E0,8.904304504E0
1.532400000E1,1.010870218E0,1.927820802E0,1.019337082E1
1.534400000E1,1.013590097E0,1.949215293E0,1.192143822E1
1.536400000E1,1.875454783E0,1.985377431E0,1.230721188E1
1.538400000E1,1.893823147E0,1.632213473E0,1.116657639E1
1.540400000E1,7.414842248E-1,1.116253376E0,1.169310856E1
1.542400000E1,6.818686724E-1,2.641091943E-1,1.467945385E1
1.544400000E1,1.890413761E0,-1.901379228E-1,1.401970768E1
1.546400000E1,2.557706594E0,3.112079203E-1,1.046004677E1
1.548400000E1,1.843094707E0,8.974905014E-1,8.172683716E0
1.550400000E1,5.053872466E-1,7.809215784E-1,9.211988449E0
1.552400000E1,-7.562804222E-2,1.997721791E-1,1.097978973E1
1.554400000E1,-2.048670501E-1,-7.913985848E-1,1.157574558E1
1.556400000E1,-3.895557523E-1,-1.316734433E0,1.061432934E1
1.558400000E1,-5.924978852E-1,-1.278858066E0,1.035877228E1
1.560400000E1,-6.918380857E-1,-1.023205161E0,1.013159084E1
1.562400000E1,-6.022279263E-1,-4.278055429E-1,8.805308342E0
1.564400000E1,-6.571796536E-1,7.916188985E-2,6.963353634E0
1.566400000E1,-8.436592221E-1,6.661339998E-1,6.017911911E0
1.568400000E1,-1.295090675E0,9.613581300E-1,6.118593216E0
1.570400000E1,-1.611316919E0,1.196660280E0,6.531966209E0
1.572400000E1,-1.996333241E0,1.493033767E0,6.716118813E0
1.574400000E1,-2.110661030E0,1.801263332E0,7.227663994E0
1.576400000E1,-1.799529910E0,1.478802562E0,7.876214981E0
1.578400000E1,-9.800329804E-1,9.605633020E-1,7.956344128E0
1.580400000E1,-5.078867674E-1,5.874509215E-1,8.113959312E0
1.582400000E1,-8.765651286E-2,1.582854688E-1,9.541363716E0
1.584400000E1,-1.167700067E-1,-2.261275649E-1,1.110557175E1
1.586400469E1,-6.634524465E-1,5.386953801E-2,1.227798367E1
1.588600000E1,-5.379866958E-1,5.510016084E-1,1.301067543E1
1.590600000E1,-6.869443655E-1,4.161122441E-1,1.175734997E1
1.592799844E1,-1.996419430E0,6.536074877E-1,1.159285831E1
1.594799844E1,-2.935195446E0,4.044764340E-1,1.361605453E1
1.596800000E1,-1.965869427E0,-7.841585279E-1,1.494118881E1
1.598800000E1,-3.379655182E-1,-1.322987914E0,1.319075871E1
1.600800000E1,-3.017077446E-1,-1.134200454E0,1.015619469E1
1.603001875E1,-1.245396733E0,-1.452227086E-1,9.736834526E0
1.605200000E1,-1.858580470E0,3.009224236E-1,1.157532310E1
1.607200000E1,-1.815781713E0,-1.170285791E-1,1.168527412E1
1.609200000E1,-1.625107527E0,2.400905453E-2,1.058382702E1
1.611200000E1,-1.054684162E0,4.458003640E-1,8.933667183E0
1.613201875E1,-3.227000833E-1,7.489253879E-1,8.290182114E0
1.615400000E1,-2.420059033E-2,4.407629669E-1,8.531450272E0
1.617400000E1,5.023705363E-1,5.425835848E-1,7.621605873E0
1.619400000E1,5.796458125E-1,8.141338825E-1,6.445775509E0
1.621400000E1,8.316882253E-1,1.151850462E0,6.426257610E0
1.623400000E1,1.231050611E0,7.794563174E-1,7.306519508E0
1.625400000E1,9.896193147E-1,6.742838025E-1,8.211173058E0
1.627400000E1,6.417226791E-1,1.141315937E0,8.564768791E0
1.629400000E1,5.155003667E-1,1.331511378E0,8.866044998E0
1.631400000E1,6.649942994E-1,1.093805432E0,9.975892067E0
1.633400156E1,5.393370390E-1,6.130114198E-1,1.119025040E1
1.635599844E1,2.693189681E-1,1.552783549E-1,1.215935516E1
1.637600000E1,4.343177676E-1,-9.433154762E-2,1.273633862E1
1.639800000E1,1.159100056E0,-4.615829587E-1,1.289359951E1
1.642000000E1,1.921442628E0,-2.002606094E-1,1.195562840E1
1.644000000E1,1.314924359E0,2.716748714E-1,1.031201839E1
1.646000000E1,4.692252278E-1,8.109639585E-2,1.162540054E1
1.648199844E1,1.217240810E0,-1.164520502E0,1.405883884E1
1.650200000E1,1.959318876E0,-1.715962648E0,1.303024101E1
1.652200156E1,1.918502569E0,-9.740282297E-1,1.009134960E1
1.654200469E1,1.266915798E0,-2.393627167E-1,9.237826347E0
1.656400000E1,6.734793782E-1,-4.261870384E-1,1.020063972E1
1.658400000E1,8.211632967E-1,-9.288832545E-1,1.044206142E1
1.660400000E1,3.410588205E-1,-1.277756691E0,9.473443985E0
1.662400000E1,2.088222653E-1,-9.970030785E-1,9.409854889E0
1.664400000E1,5.412715673E-1,-1.109549642E0,1.007827759E1
1.666400000E1,1.038279057E0,-1.597440004E0,9.957005501E0
1.668400000E1,1.085349083E0,-1.304361105E0,8.287164688E0
1.670400000E1,6.096020341E-1,-5.012021661E-1,6.332634926E0
1.672400000E1,1.472625583E-1,4.153844416E-1,5.156899929E0
1.674400000E1,-1.466975212E-1,9.782995582E-1,5.369006634E0
1.676400000E1,-3.484616876E-1,8.960443735E-1,6.014158249E0
1.678400000E1,-7.042304873E-1,7.991462350E-1,6.373135090E0
1.680400000E1,-1.197589278E0,1.054023266E0,7.181896687E0
1.682400000E1,-1.477787495E0,1.377202272E0,8.917730331E0
1.684400000E1,-1.305309176E0,1.714593172E0,9.605853081E0
1.686400000E1,-1.344440103E0,1.715052843E0,9.511071205E0
1.688400000E1,-1.538044810E0,1.638658643E0,9.450488091E0
1.690400000E1,-1.512369394E0,1.868415952E0,1.054979134E1
1.692400000E1,-1.051236391E0,1.894694567E0,1.143367290E1
1.694400000E1,-2.759461105E-1,1.801157951E0,1.050774860E1
1.696400000E1,-4.536533356E-2,1.912651181E0,9.175539017E0
1.698400156E1,-7.723503709E-1,1.854682684E0,8.810604095E0
1.700600000E1,-1.878730059E0,1.159368277E0,1.193246174E1
1.702600000E1,-2.526897907E0,1.665406674E-2,1.463561153E1
1.704800000E1,-2.274730921E0,-7.814769745E-1,1.518768597E1
1.707000000E1,-1.152109027E0,-4.162463248E-1,1.259897804E1
1.709200000E1,-4.371237755E-1,-1.486990750E-1,1.106070423E1
1.711200156E1,-4.959253669E-1,-4.606444240E-1,1.156697273E1
1.713400000E1,-9.035621285E-1,-2.595793605E-1,1.177067089E1
1.715400000E1,-1.017315388E0,3.248931468E-1,1.096352863E1
1.717400000E1,-1.098258615E0,7.929691672E-1,1.037898922E1
1.719400000E1,-7.000550032E-1,1.005229592E0,9.972089767E0
1.721400000E1,-4.281790182E-2,7.205589414E-1,9.186140060E0
1.723400000E1,4.943930805E-1,6.633949876E-1,8.145620346E0
1.725400000E1,6.921445131E-1,8.760288358E-1,7.369879246E0
1.727400000E1,6.445861459E-1,1.144734859E0,6.938990116E0
1.729400000E1,5.128667355E-1,1.458739281E0,7.383698940E0
1.731400000E1,3.527999818E-1,1.380803108E0,7.932353973E0
1.733400000E1,2.515252531E-1,9.472419620E-1,8.961142540E0
1.735400000E1,1.994753182E-1,3.596473932E-1,9.868736267E0
1.737400000E1,3.039678372E-2,3.985866904E-2,1.071075821E1
1.739400000E1,-1.437574476E-1,-6.262274086E-2,1.136171246E1
1.741400000E1,-2.131701410E-1,-1.816815883E-1,1.133664036E1
1.743400000E1,-2.607859969E-1,7.166324556E-2,1.051876259E1
1.745400000E1,-4.537012279E-1,3.649146557E-1,1.022896767E1
1.747400000E1,-5.343092084E-1,3.491799533E-1,1.077014351E1
1.749400000E1,-5.418556929E-1,6.315616965E-1,1.124129391E1
1.751400000E1,-2.189257927E-2,1.132074356E0,1.083270931E1
1.753400000E1,-3.892780542E-1,1.293318987E0,1.001718616E1
1.755400000E1,-1.293912888E0,1.046965241E0,1.098403263E1
1.757400000E1,-1.034371734E0,1.541386992E-1,1.256234741E1
1.759400000E1,1.985272020E-2,-1.066923380E0,1.265033054E1
1.761400000E1,7.813333869E-1,-1.696215391E0,1.132746601E1
1.763400000E1,5.084422827E-1,-1.355051160E0,9.750837326E0
1.765400000E1,-5.618903637E-1,-3.761194944E-1,9.331066132E0
1.767400000E1,-1.538916230E0,2.001935691E-1,9.908767700E0
1.769400000E1,-1.874755740E0,3.011522591E-1,1.029267311E1
1.771400000E1,-1.598723412E0,1.371398717E-1,9.746258736E0
1.773400000E1,-9.336237311E-1,2.386061400E-1,8.112092018E0
1.775400000E1,-3.107003570E-1,-5.322789401E-2,7.588767052E0
1.777400000E1,-8.585607260E-2,-3.575022146E-2,7.306643963E0
1.779400000E1,-3.510569930E-1,4.270489812E-1,7.130717754E0
1.781400000E1,-7.856716514E-1,1.053831816E0,6.148587704E0
1.783400000E1,-1.384930730E0,1.681237221E0,5.954063416E0
1.785400000E1,-1.624006271E0,1.989562511E0,7.350620747E0
1.787400000E1,-1.246459723E0,1.583879352E0,8.797791481E0
1.789400000E1,-5.465962291E-1,9.792859554E-1,9.206701279E0
1.791400000E1,-1.689348817E-1,5.753266811E-1,9.348697662E0
1.793400000E1,4.280832596E-3,6.445669532E-1,1.021566582E1
1.795400000E1,4.428794384E-1,7.222540379E-1,1.125718117E1
1.797400000E1,9.106010795E-1,1.181174517E0,1.049102879E1
1.799400000E1,5.190246105E-1,1.985061407E0,1.004299641E1
1.801400000E1,-6.264764071E-1,2.319215298E0,1.080643082E1
1.803400000E1,-9.136656523E-1,2.409323454E0,1.210846519E1
1.805400000E1,-1.003266275E-1,2.143327713E0,1.123994350E1
1.807400000E1,4.683154225E-1,2.026002169E0,9.261567116E0
1.809400156E1,8.658103347E-1,1.890069008E0,8.308387756E0
1.811600000E1,1.069442034E0,1.409466505E0,9.586336136E0
1.813800000E1,7.091625333E-1,1.059022427E0,1.152488327E1
1.816000000E1,1.597315669E-1,9.419555664E-1,1.272075748E1
1.818200312E1,2.648082972E-1,9.572880268E-1,1.211938190E1
1.820202500E1,7.281438112E-1,9.965624809E-1,1.136930752E1
1.822400000E1,9.048166871E-1,9.332789779E-1,1.089222908E1
1.824400000E1,8.569900990E-1,9.317849874E-1,9.994221687E0
1.826400000E1,9.346484542E-1,1.029717445E0,8.548094749E0
1.828400000E1,9.447807074E-1,1.168475866E0,7.187881947E0
1.830400000E1,9.566847086E-1,1.503539562E0,6.900826454E0
1.832400000E1,8.235000372E-1,1.663692474E0,7.296914101E0
1.834400000E1,7.329322100E-1,1.696435571E0,7.850998878E0
1.836400000E1,5.753458142E-1,1.622263193E0,8.360935211E0
1.838400000E1,4.895759225E-1,1.515251994E0,8.586086273E0
1.840400000E1,5.489425659E-1,1.309034586E0,9.356655121E0
1.842400000E1,6.565762758E-1,1.115046740E0,1.001115322E1
1.844400000E1,6.941843629E-1,1.294018149E0,1.007080746E1
1.846400000E1,4.777486026E-1,1.846762657E0,9.731337547E0
1.848400000E1,3.851121068E-1,2.259264469E0,9.826425552E0
1.850400000E1,4.681143165E-1,2.458299398E0,9.656648636E0
1.852400000E1,5.089210868E-1,2.470825672E0,9.509232521E0
1.854599844E1,3.305243254E-1,2.516152859E0,9.500308037E0
1.856600000E1,2.599049807E-1,2.558587551E0,9.899755478E0
1.858600000E1,4.289356172E-1,2.434644461E0,1.024155140E1
1.860800000E1,7.790349126E-1,2.267634630E0,9.785867691E0
1.862800000E1,9.657635093E-1,2.220124006E0,9.508783340E0
1.865000000E1,7.125527263E-1,2.436866522E0,9.749381065E0
1.867200000E1,7.718331814E-1,2.591924667E0,1.001537704E1
1.869200469E1,8.605335951E-1,2.493685484E0,9.570179939E0
1.871400000E1,1.580556184E-1,1.942808509E0,1.008117867E1
1.873400000E1,-5.513367653E-1,1.008964419E0,1.201655579E1
1.875400000E1,-6.985226870E-1,-1.812506467E-1,1.454271698E1
1.877400000E1,-3.360693157E-1,-1.268505454E0,1.503886223E1
1.879400000E1,5.851716399E-1,-1.336290121E0,1.220091915E1
1.881400000E1,1.276032805E0,-2.466123551E-1,9.348466873E0
1.883400000E1,1.468028665E0,6.462141871E-1,7.310522556E0
1.885400000E1,1.010573387E0,8.454692364E-1,7.186770916E0
1.887400000E1,-1.010640413E-1,4.094851017E-1,9.215991020E0
1.889400000E1,-1.022228360E0,4.658158869E-2,1.146764183E1
1.891400000E1,-1.227354050E0,-3.311659992E-1,1.232221889E1
1.893400000E1,-8.323202729E-1,-4.270585179E-1,1.148570442E1
1.895400000E1,-1.886056364E-1,-2.844024301E-1,1.023144817E1
1.897400000E1,2.613223195E-1,-1.431445330E-1,9.137250900E0
1.899400000E1,2.415845394E-1,2.047808468E-1,8.266393661E0
1.901400000E1,-3.434243053E-2,7.152342796E-1,7.527628899E0
1.903400000E1,-4.488170445E-1,9.419938922E-1,7.222032547E0
1.905400000E1,-9.351655841E-1,1.045021176E0,7.765191078E0
1.907400000E1,-1.172220349E0,1.067153215E0,8.700107574E0
1.909400000E1,-1.069039822E0,7.760373950E-1,9.136981964E0
1.911400000E1,-7.408139110E-1,7.017788291E-1,8.656111717E0
1.913400000E1,-7.564527988E-1,8.923476934E-1,8.464805603E0
1.915400000E1,-9.797839522E-1,5.456098914E-1,9.205849648E0
1.917400000E1,-1.037225604E0,2.230246663E-1,1.018672466E1
1.919400000E1,-8.988120556E-1,2.290580571E-1,1.127094460E1
1.921400000E1,-1.091880441E0,4.765418917E-2,1.139437866E1
1.923400000E1,-1.302292466E0,2.097033411E-1,1.139779758E1
1.925400000E1,-1.697776318E0,6.348465085E-1,1.153766823E1
1.927400000E1,-1.605187774E0,8.690090179E-1,1.165953255E1
1.929400000E1,-1.198001146E0,4.958200157E-1,1.115291882E1
1.931400000E1,-1.427174091E0,3.876404166E-1,1.104553413E1
1.933400000E1,-1.631629229E0,2.723739743E-1,1.157522774E1
1.935400000E1,-1.738343596E0,2.982887924E-1,1.178228855E1
1.937600000E1,-1.677645922E0,6.817441583E-1,1.103331470E1
1.939600000E1,-1.304772973E0,9.309996963E-1,1.009373474E1
1.941600000E1,-6.994516850E-1,1.130273938E0,9.130929947E0
1.943600000E1,-1.330122650E-1,1.192178369E0,8.415753365E0
1.945600000E1,-1.589366943E-1,1.164424777E0,8.600039482E0
1.947800000E1,-3.707277775E-1,1.214655161E0,9.167705536E0
1.949800938E1,-4.457620680E-1,1.261399508E0,9.534535408E0
1.951999844E1,-2.015343159E-1,1.200768828E0,8.617814064E0
1.954000000E1,1.346307546E-1,1.156763315E0,7.699838638E0
1.956200000E1,3.234183490E-1,1.225247025E0,7.368644238E0
1.958400000E1,6.514239311E-1,1.097712755E0,7.545048714E0
1.960400000E1,9.690004587E-1,8.949717283E-1,7.152132034E0
1.962400000E1,7.184424400E-1,1.195922852E0,7.034758091E0
1.964400000E1,-6.358999759E-3,1.714076042E0,7.764827251E0
1.966400000E1,-9.673532844E-2,1.784149528E0,8.784756660E0
1.968400312E1,4.480987787E-2,1.360883474E0,9.525282860E0
1.970600000E1,-1.438723803E-1,1.258737206E0,9.998300552E0
1.972600000E1,-3.604901731E-1,1.452753663E0,1.097291374E1
1.974600000E1,-6.583096981E-1,1.409131289E0,1.212548256E1
1.976800000E1,-8.774557710E-1,1.273590803E0,1.263651085E1
1.979000156E1,-7.957560420E-1,1.851771355E0,1.198676300E1
1.981200156E1,-7.971446514E-1,2.434386015E0,1.098223114E1
1.983200781E1,-1.389814973E0,2.179307699E0,1.172481728E1
1.985400000E1,-1.513240814E0,1.141507387E0,1.394625378E1
1.987400000E1,-6.075717807E-1,3.989506364E-1,1.369264030E1
1.989400000E1,6.239385605E-1,6.935044527E-1,1.019816875E1
1.991400000E1,1.207932234E0,1.814900637E0,7.513378620E0
1.993400000E1,7.965604663E-1,2.249553680E0,7.310340405E0
1.995400000E1,2.360395491E-1,1.552237511E0,9.456177711E0
1.997400000E1,-4.636036456E-1,8.419258595E-1,1.136050606E1
1.999400000E1,-6.468750238E-1,2.753714919E-1,1.169588566E1
2.001600000E1,-3.752767742E-1,-7.652826607E-2,1.130056572E1
2.003600000E1,-5.113632083E-1,-3.233704567E-1,1.110379982E1
2.005600000E1,-7.063469887E-1,-1.271704137E-1,1.052441311E1
2.007600000E1,-9.027768373E-1,6.024003029E-1,8.885476112E0
2.009600000E1,-1.024306536E0,1.429041505E0,7.439809799E0
2.011800000E1,-1.329921603E0,1.865447044E0,6.669968128E0
2.014000000E1,-1.853552580E0,1.983404517E0,7.059351444E0
2.016000000E1,-2.052367210E0,1.806856036E0,7.918640137E0
2.018000000E1,-1.980158091E0,1.289038181E0,8.515285492E0
2.020201875E1,-1.641388059E0,8.484476209E-1,8.637589455E0
2.022400000E1,-1.492047310E0,2.995720804E-1,9.217465401E0
2.024400000E1,-1.366916776E0,-2.608147562E-1,1.034749985E1
2.026400000E1,-9.928849936E-1,-2.934142053E-1,1.087114048E1
2.028400000E1,-1.005641341E0,5.384846926E-1,9.988867760E0
2.030400000E1,-1.792653680E0,1.418545365E0,9.209622383E0
2.032400000E1,-2.649117231E0,2.109205484E0,1.001116276E1
2.034400000E1,-2.170334339E0,1.736064315E0,1.090953445E1
2.036400000E1,-5.641601086E-1,1.012814283E0,1.024210739E1
2.038400000E1,4.522742927E-1,9.178698659E-1,8.653727531E0
2.040400000E1,3.528095782E-1,1.229815245E0,7.382348537E0
2.042400000E1,-2.685911357E-1,1.357272983E0,7.988761902E0
2.044400000E1,-5.731623173E-1,1.250328779E0,8.782104492E0
2.046400000E1,-5.231426358E-1,1.026739001E0,9.008796692E0
2.048400000E1,-9.991291165E-1,1.296345353E0,8.102505684E0
2.050400000E1,-1.258267999E0,1.981029510E0,8.587541580E0
2.052400156E1,-5.032612085E-1,1.857804775E0,9.450230598E0
2.054600000E1,7.051019669E-1,1.081614137E0,9.399683952E0
2.056600000E1,1.084161639E0,1.103430033E0,8.435941696E0
2.058600000E1,9.925976992E-1,1.576035857E0,7.392002106E0
2.060600000E1,6.927862167E-1,2.229413509E0,7.501627922E0
2.062600000E1,3.681994975E-1,2.190550804E0,8.659129143E0
2.064799844E1,2.648082972E-1,1.731438875E0,9.417631149E0
2.066799844E1,2.141757011E-1,1.488015532E0,9.777460098E0
2.068800000E1,3.389327824E-1,1.301516771E0,1.000380802E1
2.070800000E1,7.692952752E-1,8.554482460E-1,1.062699890E1
2.072800000E1,8.819090128E-1,8.815546036E-1,1.096175671E1
2.074800000E1,4.695604146E-1,1.388828516E0,1.100892258E1
2.076800000E1,5.416642129E-2,1.872083783E0,1.087241459E1
2.079000000E1,1.653818786E-1,2.194285870E0,1.118954086E1
2.081200000E1,5.427272320E-1,1.797461271E0,1.144655418E1
2.083200000E1,3.905613422E-1,1.479137778E0,1.166349697E1
2.085200000E1,4.468537867E-2,1.752000213E0,1.186870861E1
2.087200000E1,4.791276529E-2,1.992684484E0,1.160082626E1
2.089200000E1,2.496960908E-1,1.611010551E0,1.121332073E1
2.091200313E1,3.134680390E-1,9.053242803E-1,1.170282936E1
2.093400000E1,1.451843828E-1,-1.959127337E-1,1.341223145E1
2.095400000E1,2.830999792E-1,-1.393377542E0,1.455597115E1
2.097400000E1,7.069407105E-1,-1.857699513E0,1.374681664E1
2.099400000E1,9.852619171E-1,-1.236882925E0,1.084139538E1
2.101400000E1,1.072420359E0,-1.621832252E-1,8.437923431E0
2.103400000E1,9.944269061E-1,5.978417397E-1,7.411328316E0
2.105400000E1,5.563358665E-1,5.362820625E-1,8.453648567E0
2.107400000E1,-1.088882908E-1,1.375612468E-1,1.028600788E1
2.109400000E1,-6.523146629E-1,-8.888234943E-2,1.176537514E1
2.111400000E1,-8.841020465E-1,-5.155865550E-1,1.311115646E1
2.113400000E1,-7.348858714E-1,-9.323596358E-1,1.292210102E1
2.115400000E1,-2.670875490E-1,-8.714223504E-1,1.114399433E1
2.117400000E1,1.008916646E-1,-3.905996382E-1,8.931262970E0
2.119400000E1,1.371207088E-1,3.156611323E-1,7.263902664E0
2.121400000E1,-1.041381955E-1,8.454884291E-1,6.594340324E0
2.123400000E1,-2.480680197E-1,1.097894669E0,6.458435535E0
2.125400000E1,-1.926662028E-1,1.012076974E0,6.542807102E0
2.127400625E1,-2.041775174E-2,7.244279981E-1,6.639513969E0
2.129600156E1,9.154469520E-2,4.797309935E-1,6.798795223E0
2.131799844E1,2.792117894E-1,4.228064716E-1,7.295305252E0
2.133800000E1,-1.083998829E-1,7.603409886E-1,7.471556664E0
2.136000000E1,-1.574139744E-1,1.511631966E0,7.296665192E0
2.138000000E1,1.178904921E-1,1.711001873E0,7.552873135E0
2.140000000E1,-4.058459103E-1,1.896370649E0,8.084606171E0
2.142000000E1,-9.180997610E-1,2.291030645E0,8.479151726E0
2.144000000E1,-9.360179305E-1,2.486646652E0,8.980793953E0
2.146200625E1,-5.060288906E-1,1.906493306E0,9.888972282E0
2.148400000E1,-1.132170111E-1,1.317280173E0,1.119111156E1
2.150400000E1,4.815218225E-2,1.271110415E0,1.205682659E1
2.152400000E1,2.569074035E-1,1.715608239E0,1.167446327E1
2.154400000E1,4.090828896E-1,1.732367635E0,1.116874027E1
2.156400000E1,2.920926083E-3,1.040069938E0,1.212827969E1
2.158400000E1,-9.257133007E-1,6.102054119E-1,1.426152229E1
2.160400000E1,-1.144639134E0,-1.788947433E-1,1.601563835E1
2.162400000E1,-6.202322841E-1,-1.148910403E0,1.583103657E1
2.164400000E1,-3.517465591E-1,-1.419129491E0,1.388130379E1
2.166400000E1,-3.359831274E-1,-8.250514269E-1,1.140850449E1
2.168400000E1,-6.597558260E-1,-2.283110842E-2,9.492665291E0
2.170400000E1,-1.282027960E0,5.799522996E-1,8.769711494E0
2.172400000E1,-1.584722042E0,9.371001124E-1,8.648191452E0
2.174400000E1,-1.480938196E0,9.034472108E-1,8.279169083E0
2.176400000E1,-9.872730374E-1,4.534235001E-1,8.189414978E0
2.178400000E1,-5.731527209E-1,-8.150820434E-2,8.623827934E0
2.180400000E1,1.179575250E-1,-4.298262298E-1,8.475790024E0
2.182400000E1,9.832986593E-1,-6.939832568E-1,7.571892738E0
2.184400000E1,8.621233106E-1,-5.351519585E-1,7.269475937E0
2.186400000E1,3.162932098E-1,-1.320833117E-1,7.446857929E0
2.188400000E1,1.069920883E-1,3.837426305E-1,7.717249393E0
2.190400000E1,-1.601912528E-1,6.883330345E-1,8.465964317E0
2.192400000E1,-6.035686731E-1,1.016826987E0,8.141732216E0
2.194400000E1,-6.759501696E-1,1.788296223E0,7.643996716E0
2.196400000E1,-1.814134568E-1,2.360357285E0,7.626528263E0
2.198400156E1,3.376303017E-1,2.345570564E0,8.404557228E0
2.200600156E1,5.521412492E-1,2.286050797E0,9.248121262E0
2.202799844E1,7.528041005E-1,2.102540016E0,1.037261009E1
2.204800000E1,7.001029253E-1,1.792462111E0,1.135357189E1
2.207000000E1,3.918446302E-1,2.157530069E0,1.197370911E1
2.209200938E1,1.561689973E-1,2.704193354E0,1.145173550E1
2.211400000E1,8.579861373E-2,3.099878073E0,1.131140614E1
2.213400000E1,3.106237054E-1,3.133167267E0,1.136895275E1
2.215400625E1,5.280555487E-1,2.715752602E0,1.129212761E1
2.217600000E1,7.674948573E-1,1.802920103E0,1.303853512E1
2.219600156E1,1.112422705E0,4.015842378E-1,1.444463062E1
2.221800000E1,1.768587112E0,-4.230554402E-1,1.359553242E1
2.223999844E1,1.954674244E0,1.857230067E-1,1.034011650E1
2.226000000E1,1.026518822E0,1.584865689E0,8.203463554E0
2.228000000E1,-1.614075005E-1,2.435918331E0,8.720295906E0
2.230000000E1,-6.123505831E-1,2.026117086E0,1.072288322E1
2.232000000E1,-5.930916592E-2,9.411606789E-1,1.193227005E1
2.234200000E1,7.773302794E-1,2.165794820E-1,1.057460403E1
2.236200625E1,1.014710546E0,4.076463580E-1,8.380375862E0
2.238400000E1,5.355733633E-1,8.829624653E-1,7.881376743E0
2.240400000E1,6.512228400E-3,1.193777680E0,7.813956261E0
2.242400000E1,-9.287586808E-2,1.449430585E0,7.469191074E0
2.244400000E1,1.423113514E-2,1.529080868E0,6.746036530E0
2.246400000E1,-8.252334595E-2,1.660857677E0,6.140820980E0
2.248400000E1,-4.524658322E-1,1.893660307E0,6.258376122E0
2.250400000E1,-2.941037416E-1,1.676343441E0,7.175565720E0
2.252400000E1,5.757097006E-1,1.091602802E0,7.752587795E0
2.254400000E1,1.063561916E0,9.239416122E-1,7.812500477E0
2.256400000E1,9.301377535E-1,1.549077272E0,7.686651230E0
2.258400000E1,1.736370921E-1,1.908054233E0,8.147698402E0
2.260400000E1,-4.481658340E-1,1.945911407E0,9.333995819E0
2.262400000E1,-8.885169625E-1,1.845661402E0,1.052108002E1
2.264400000E1,-7.920785546E-1,1.693552971E0,1.085602856E1
2.266600000E1,3.135063350E-1,1.787032127E0,1.034047031E1
2.268600000E1,1.398730993E0,1.891811967E0,9.653038025E0
2.270600000E1,2.123609066E0,2.464208364E0,9.380598068E0
2.272600000E1,2.152952433E0,2.958936453E0,9.154507637E0
2.274600000E1,1.175361395E0,2.864719629E0,9.907637596E0
2.276600000E1,3.407044709E-1,2.188568592E0,1.232650852E1
2.278799844E1,9.875411391E-1,7.249929905E-1,1.458776569E1
2.280799844E1,2.639894724E0,-3.807738423E-2,1.360520363E1
2.282800000E1,3.806339979E0,-2.014960200E-1,1.130294895E1
2.284800000E1,3.944102526E0,-1.391031146E-1,9.986042976E0
2.286800000E1,3.173753738E0,-2.225075215E-1,1.085315514E1
2.288999844E1,2.550974131E0,-3.276033998E-1,1.222959137E1
2.291001250E1,2.113055468E0,-3.057778478E-1,1.178188610E1
2.293001875E1,1.218112350E0,5.546503067E-1,1.094861698E1
2.295200156E1,6.264572144E-1,1.136699915E0,1.090972519E1
2.297200156E1,1.195338726E0,7.123803496E-1,9.982049942E0
2.299400156E1,1.772829771E0,6.689399481E-1,7.872671604E0
2.301600000E1,2.144247055E0,1.088815928E0,5.949131489E0
2.303800000E1,2.221225262E0,1.289517045E0,5.262752533E0
2.305999844E1,2.180332422E0,1.029621720E0,6.137162685E0
2.308000000E1,1.971117496E0,1.038164139E0,6.524630547E0
2.310200000E1,1.905526042E0,1.431799650E0,6.406912804E0
2.312200469E1,1.857814312E0,1.825693727E0,6.541629314E0
2.314400000E1,1.844177008E0,1.860581994E0,7.768447399E0
2.316400000E1,1.782387495E0,1.544949532E0,9.022367477E0
2.318400000E1,1.745756149E0,1.344746470E0,9.804169655E0
2.320400000E1,1.394938469E0,1.262079477E0,9.641651154E0
2.322400000E1,1.120390654E0,1.436923265E0,1.025691319E1
2.324400000E1,8.404605985E-1,1.323763728E0,1.193921375E1
2.326400000E1,5.880542397E-1,1.032887340E0,1.288429070E1
2.328400000E1,7.686632872E-1,7.417524457E-1,1.296707344E1
2.330400000E1,7.879413366E-1,9.692782164E-1,1.290667152E1
2.332400000E1,5.447383523E-1,1.192848802E0,1.255991459E1
2.334400000E1,8.891298771E-1,5.133743286E-1,1.285350227E1
2.336400000E1,1.755170107E0,-9.836242795E-1,1.349960041E1
2.338400000E1,2.185771942E0,-1.687864304E0,1.234321117E1
2.340400000E1,1.634645939E0,-8.873581886E-1,1.129242516E1
2.342400000E1,3.981653154E-1,-8.941864967E-2,1.122313690E1
2.344400000E1,-2.429635972E-1,1.151036397E-1,1.200472832E1
2.346400000E1,2.398032323E-2,-5.112769604E-1,1.262437725E1
2.348400000E1,5.544204712E-1,-8.307784200E-1,1.174271679E1
2.350400000E1,6.711809039E-1,-5.935513377E-1,9.603239059E0
2.352400469E1,8.632437587E-1,-1.925225556E-1,7.502911091E0
2.354599844E1,9.703124762E-1,3.868072107E-2,6.555678844E0
2.356599844E1,9.891117811E-1,1.820742488E-1,6.191664219E0
2.358600000E1,1.940261126E-1,1.073751599E-1,6.900960922E0
2.360600000E1,-6.681259274E-1,6.583766937E-1,7.466164589E0
2.362600000E1,-5.906974673E-1,7.433996797E-1,7.344798088E0
2.364799844E1,1.681399941E-1,5.182967708E-2,8.136761665E0
2.366799844E1,4.228830636E-1,6.803363562E-2,8.212236404E0
2.368800000E1,3.813676238E-1,8.818418980E-1,6.987209320E0
2.371000000E1,1.477318257E-1,1.654297590E0,6.644148827E0
2.373001875E1,2.939792573E-1,1.189334154E0,8.600996971E0
2.375200625E1,4.570530951E-1,8.283458948E-1,9.701478004E0
2.377400000E1,3.499748111E-1,1.195118427E0,9.465217590E0
2.379400000E1,2.116378546E-1,1.610646486E0,9.429821968E0
2.381400000E1,2.852930725E-1,1.434222579E0,1.044059658E1
2.383400000E1,6.605506539E-1,1.114778519E0,1.131662464E1
2.385400000E1,9.466194510E-1,9.647962451E-1,1.182370758E1
2.387400000E1,9.878954887E-1,1.459333062E0,1.102403545E1
2.389400000E1,4.998326898E-1,1.754298568E0,9.740243912E0
2.391400000E1,-3.831393123E-1,1.160325885E0,1.055979919E1
2.393400156E1,-1.189621329E0,4.939429760E-1,1.292849827E1
2.395600000E1,-1.055277944E0,-2.162730247E-1,1.437244987E1
2.397600000E1,-2.052213848E-1,-7.290440202E-1,1.300835800E1
2.399600000E1,7.449797541E-2,-5.298560262E-1,1.074083900E1
2.401600000E1,-2.133138031E-1,-8.396944404E-2,9.285901070E0
2.403600000E1,-1.006761789E0,1.376187205E-1,9.893387794E0
2.405600000E1,-1.685230732E0,2.739445567E-1,1.080327034E1
2.407799844E1,-1.762601733E0,6.840425730E-1,1.123381424E1
2.409801094E1,-7.690463066E-1,5.012404919E-1,1.025001717E1
2.411999844E1,2.154685855E-1,1.923310161E-1,9.095418930E0
2.414000000E1,6.866858006E-1,1.499153227E-1,8.098722458E0
2.416000000E1,5.966925025E-1,5.654242635E-1,7.582599640E0
2.418200781E1,2.102587819E-1,1.245434880E0,7.385346413E0
2.420400156E1,4.438849911E-2,1.580852985E0,7.303607941E0
2.422600156E1,5.327864885E-1,1.371714711E0,7.719298840E0
2.424800000E1,6.689878702E-1,1.086986661E0,8.497529030E0
2.426800000E1,2.651626170E-1,1.230667591E0,8.684842110E0
2.429000000E1,9.155427665E-2,1.371053934E0,9.338564873E0
2.431200000E1,-1.008150503E-1,1.225754619E0,9.982700348E0
2.433200000E1,-7.104362845E-1,1.750841379E0,1.025917339E1
2.435200000E1,-9.302814603E-1,2.395226240E0,1.022028255E1
2.437200000E1,-5.320011973E-1,2.511077166E0,9.894862175E0
2.439200313E1,4.239652306E-2,2.284671783E0,9.471529007E0
2.441400000E1,2.876010835E-1,2.224567652E0,9.646094322E0
2.443400000E1,-4.244440794E-2,1.765426874E0,1.080101013E1
2.445400000E1,-2.050777376E-1,1.497199655E0,1.180052280E1
2.447400000E1,-1.683123708E-1,1.711490393E0,1.195363617E1
2.449400000E1,1.255232096E-1,2.091478825E0,1.085683346E1
2.451400000E1,2.661681771E-1,1.980225086E0,1.084723759E1
2.453400000E1,3.054043837E-2,7.345219254E-1,1.302757931E1
2.455400000E1,4.226532280E-1,-4.378324449E-1,1.422192192E1
2.457400000E1,1.189113736E0,-9.074120522E-1,1.256180191E1
2.459400000E1,1.169308901E0,-5.480902195E-1,9.756410599E0
2.461599844E1,4.374685287E-1,2.755438983E-1,8.134845734E0
2.463600000E1,-3.243377209E-1,6.008201241E-1,8.977087975E0
2.465600000E1,-6.272521615E-1,3.176914155E-1,1.013739491E1
2.467600000E1,-5.818580389E-1,4.466622695E-2,1.032588577E1
2.469600000E1,-2.951380312E-1,3.981078789E-2,9.464241028E0
2.471600000E1,-6.248866394E-2,3.347094059E-1,8.529200554E0
2.473600000E1,2.027027011E-1,5.430719852E-1,7.807520390E0
2.475800000E1,6.969042122E-2,8.676874638E-1,6.705430984E0
2.477800000E1,-3.984621763E-1,1.289210558E0,6.564862728E0
2.479800000E1,-4.933875203E-1,1.504037499E0,7.071379662E0
2.481999844E1,-2.986527085E-1,9.602760077E-1,7.684228420E0
2.484000000E1,-3.893163502E-1,7.126485109E-1,7.907243729E0
2.486000000E1,-6.915029287E-1,9.767193794E-1,8.035227776E0
2.488000000E1,-9.866792560E-1,1.264071465E0,8.506493568E0
2.490000000E1,-8.833359480E-1,1.120515108E0,9.326478958E0
2.492000000E1,-6.887639165E-1,1.020246029E0,9.262965202E0
2.494000000E1,-6.748967171E-1,1.206256270E0,9.042747498E0
2.496200313E1,-7.591630220E-1,1.334729075E0,9.690760612E0
2.498400156E1,-8.124675155E-1,9.149010777E-1,1.097081661E1
2.500599844E1,-5.733346939E-1,1.005746603E0,1.161508656E1
2.502600000E1,-2.440936565E-1,1.152721882E0,1.152761269E1
2.504600000E1,-1.533629894E-1,1.075992584E0,1.103454018E1
2.506600000E1,-1.022582650E0,8.073248267E-1,1.097085476E1
2.508600000E1,-2.211447477E0,3.764642775E-1,1.361618900E1
2.510600000E1,-2.399200678E0,-4.640154541E-1,1.634573174E1
2.512600000E1,-1.044513583E0,-1.175668001E0,1.501206684E1
2.514799844E1,-2.538141310E-1,-1.157778502E0,1.146646404E1
2.516800000E1,-3.231980801E-1,-6.193129420E-1,9.707550049E0
2.518800000E1,-7.999698520E-1,-2.344593853E-1,1.003359222E1
2.521000000E1,-9.486018419E-1,-1.480382830E-1,1.076166916E1
2.523001875E1,-8.929510713E-1,-6.647261977E-2,9.878485680E0
2.525200156E1,-4.399010241E-1,3.671843708E-1,8.825439453E0
2.527200156E1,3.233129904E-2,5.582895279E-1,7.702051163E0
2.529400000E1,4.761779904E-1,6.837361455E-1,6.403579712E0
2.531400000E1,5.800959468E-1,8.178305626E-1,5.471488476E0
2.533400000E1,5.562113523E-1,1.005114675E0,5.288111687E0
2.535400000E1,2.954923809E-1,8.472983837E-1,6.269111633E0
2.537600000E1,2.487000823E-1,7.679449916E-1,6.912242413E0
2.539800000E1,2.387210727E-1,8.959485888E-1,7.361672401E0
2.541800000E1,2.188108861E-1,9.258186817E-1,8.161334991E0
2.543800000E1,1.298710853E-1,6.913688183E-1,9.581432343E0
2.545999844E1,1.004128158E-1,3.288962841E-1,1.179822350E1
2.548000000E1,2.632951438E-1,1.947060525E-1,1.267409992E1
2.550000000E1,3.264445961E-1,6.721673608E-1,1.176368904E1
2.552000000E1,4.503972232E-1,1.314311385E0,1.105812836E1
2.554000000E1,6.266775131E-1,1.788899660E0,1.085015774E1
2.556200469E1,9.656294584E-1,1.625318289E0,1.080204391E1
2.558399844E1,1.064950466E0,1.446346760E0,1.041934586E1
2.560400000E1,7.415130138E-1,1.705782413E0,1.009710503E1
2.562400000E1,1.810782552E-1,1.743821621E0,1.105875111E1
2.564400000E1,4.929086566E-1,8.438890576E-1,1.293108273E1
2.566600000E1,1.728594542E0,1.599614173E-1,1.264160538E1
2.568600156E1,2.529445410E0,1.990443617E-1,1.005693054E1
2.570800000E1,2.504516840E0,6.089987159E-1,8.022951126E0
2.572800000E1,1.378629327E0,8.681279421E-1,8.587839127E0
2.574999844E1,1.458930820E-1,9.395709038E-1,1.149276161E1
2.577000000E1,-2.600198686E-1,3.782168329E-1,1.345571995E1
2.579000000E1,1.308287531E-1,-3.091967702E-1,1.273742104E1
2.581000000E1,5.961466432E-1,-3.484138250E-1,1.073340702E1
2.583001875E1,9.210685492E-1,-1.352436692E-1,9.138907433E0
2.585200000E1,1.167786241E0,5.680961534E-2,8.008786201E0
2.587200000E1,1.344076037E0,1.725165993E-1,7.214247227E0
2.589200469E1,1.262424231E0,4.834850729E-1,6.579697132E0
2.591400000E1,6.122452617E-1,8.722746968E-1,6.522562027E0
2.593400000E1,-1.162911654E-1,1.267452002E0,6.447154522E0
2.595400000E1,-2.538619936E-1,1.337831974E0,7.121639252E0
2.597400000E1,4.743967056E-1,1.321580172E0,7.966849804E0
2.599400000E1,1.041889548E0,1.760264993E0,7.642416477E0
2.601400000E1,7.051786184E-1,2.203891277E0,7.337108135E0
2.603400000E1,4.956667721E-1,2.211313486E0,8.005348206E0
2.605400000E1,6.437050700E-1,1.627051592E0,9.651141167E0
2.607400000E1,7.831434011E-1,9.295248389E-1,1.139932156E1
2.609600000E1,9.259144068E-1,6.905068755E-1,1.172661781E1
2.611600000E1,1.644366503E0,8.328182697E-1,1.173193264E1
2.613799844E1,2.675635338E0,1.644730330E0,1.119272041E1
2.615800000E1,2.756731749E0,1.942119002E0,9.853470802E0
2.617800000E1,1.513939977E0,1.553271890E0,1.033822060E1
2.619800000E1,-7.050444931E-2,8.158481717E-1,1.291089535E1
2.622000000E1,-6.603112817E-1,-9.131772518E-1,1.575043774E1
2.624200000E1,-3.150482178E-1,-2.317309618E0,1.535120010E1
2.626200000E1,-5.505706370E-2,-2.508453131E0,1.251283550E1
2.628200156E1,-1.363258511E-1,-2.245627165E0,1.018050003E1
2.630400000E1,-3.241078854E-1,-1.718155742E0,9.344166756E0
2.632400000E1,-9.358455539E-1,-7.907378078E-1,9.741632462E0
2.634400000E1,-1.348864555E0,-9.576806406E-6,9.575667381E0
2.636400000E1,-1.272757530E0,5.318192244E-1,8.735043526E0
2.638400000E1,-6.848183274E-1,7.296377420E-1,8.605230331E0
2.640400000E1,3.806780651E-2,2.894493937E-1,8.972031593E0
2.642400000E1,5.532808900E-1,1.536598653E-1,8.699935913E0
2.644600000E1,6.429580450E-1,5.729612112E-1,7.843280315E0
2.646600000E1,4.184298515E-1,1.056666493E0,7.453762531E0
2.648600000E1,2.237908244E-1,1.348050594E0,7.146634579E0
2.650799844E1,3.660064042E-1,1.374290943E0,6.710659981E0
2.652799844E1,7.287757993E-1,1.314818978E0,6.345678329E0
2.654800000E1,1.178426027E0,8.896949291E-1,6.778348923E0
2.656800000E1,1.331377149E0,7.243992090E-1,7.452020168E0
2.658800000E1,1.221081138E0,9.552194476E-1,7.886643887E0
2.660800000E1,8.758564591E-1,1.179651856E0,9.044058800E0
2.662800000E1,1.012728095E0,1.043125033E0,1.051653099E1
2.665000000E1,1.125638723E0,7.280480266E-1,1.216583920E1
2.667200469E1,6.163058281E-1,5.365788937E-1,1.307821178E1
2.669400000E1,-1.759259403E-2,8.315829039E-1,1.356951141E1
2.671400000E1,-1.091468632E-1,1.223906398E0,1.348502541E1
2.673400000E1,4.610179067E-1,1.116741776E0,1.275250530E1
2.675400000E1,9.541468620E-1,5.292621851E-1,1.176991463E1
2.677400000E1,6.801927090E-1,7.421067357E-1,1.251862049E1
2.679600000E1,4.165911078E-1,5.557229519E-1,1.384335041E1
2.681600000E1,8.555248976E-1,6.030515209E-2,1.264883614E1
2.683600000E1,1.167173386E0,-2.192609906E-1,1.020803356E1
2.685799844E1,1.442449093E0,-2.572426200E-1,8.468904495E0
2.687800000E1,8.625159264E-1,-4.084699750E-1,1.036148262E1
2.689800156E1,-5.833998919E-1,-7.808353901E-1,1.322127056E1
2.692000000E1,-1.664075613E0,-8.115673065E-1,1.400340843E1
2.694000000E1,-1.904079795E0,-1.416122466E-1,1.164765739E1
2.696200000E1,-1.847279787E0,4.981184304E-1,8.416633606E0
2.698200313E1,-1.365959048E0,1.178292036E0,6.733040810E0
2.700400000E1,-5.465101004E-1,1.322365522E0,5.707116127E0
2.702400000E1,-9.987651557E-2,1.011837482E0,5.454480171E0
2.704400000E1,-2.515252531E-1,1.035827398E0,5.602001190E0
2.706400000E1,-7.026407719E-1,1.329050064E0,5.721787453E0
2.708400000E1,-1.228072286E0,1.731084466E0,6.327779293E0
2.710400000E1,-1.542775631E0,1.978788614E0,6.819739819E0
2.712400000E1,-1.246450186E0,1.979774952E0,7.542424679E0
2.714400000E1,-8.021150231E-1,1.633975625E0,7.574018478E0
2.716400000E1,-3.980216682E-1,1.884552717E0,7.033072948E0
2.718400000E1,-2.678345740E-1,2.095903397E0,7.820966244E0
2.720400000E1,-1.886535138E-1,1.412033081E0,9.403801918E0
2.722400000E1,-6.014330387E-1,8.926254511E-1,1.121423054E1
2.724400000E1,-9.104670286E-1,4.025993943E-1,1.271870804E1
2.726599844E1,-6.959082484E-1,3.996210098E-1,1.309905052E1
2.728599844E1,-5.972479582E-1,9.294099808E-1,1.195174980E1
2.730600000E1,-1.038384438E0,1.466094255E0,1.134977055E1
2.732600000E1,-2.144821644E0,1.548138618E0,1.262177181E1
2.734600000E1,-2.385180473E0,9.191532135E-1,1.431408024E1
2.736600000E1,-1.344593287E0,-1.314225197E-1,1.391592407E1
2.738600000E1,-2.145204693E-3,-5.913582444E-1,1.143062782E1
2.740600000E1,7.505439520E-1,-5.078005791E-1,9.527008057E0
2.742600000E1,4.986739159E-1,-4.873924255E-1,9.856306076E0
2.744600000E1,-3.177105784E-1,-5.912720412E-2,1.100130844E1
2.746800000E1,-6.462525129E-1,5.754224062E-1,1.037411404E1
2.748800000E1,-5.454853773E-1,1.007125735E0,9.199040413E0
2.751000000E1,-3.933194578E-1,1.108649373E0,8.304471016E0
2.753001719E1,-1.596645266E-1,1.094619393E0,7.772881508E0
2.755200000E1,3.086700737E-1,1.502179623E0,7.017740250E0
2.757200000E1,8.635119796E-1,1.778920531E0,5.868916035E0
2.759200000E1,1.496634603E0,1.823730469E0,5.209945679E0
2.761200312E1,2.000183105E0,1.580096602E0,5.793211460E0
2.763400000E1,2.221598864E0,1.007489681E0,7.086674213E0
2.765400000E1,2.057203293E0,6.816004515E-1,8.879175186E0
2.767400000E1,1.207941771E0,7.052839398E-1,1.041788960E1
2.769400000E1,7.861505151E-1,7.738443017E-1,1.134305763E1
2.771400000E1,1.345005035E0,7.388506532E-1,1.117905426E1
2.773400000E1,1.933499932E0,4.938376248E-1,1.080269527E1
2.775600000E1,1.808321357E0,6.526019573E-1,1.075404453E1
2.777600000E1,1.064280152E0,1.183875203E0,1.102897644E1
2.779600000E1,4.037964642E-1,1.779351592E0,1.153996563E1
2.781600000E1,6.653007865E-2,1.915294290E0,1.169764805E1
2.783800000E1,-3.122422099E-1,1.630231023E0,1.200188351E1
2.786000000E1,-2.708033621E-1,8.333545327E-1,1.348913383E1
2.788000000E1,7.438114285E-1,-4.143597186E-1,1.397728252E1
2.790000000E1,1.939217210E0,-1.038518548E0,1.205825329E1
2.792200000E1,2.657630920E0,-2.883097529E-1,8.634324074E0
2.794200000E1,2.570462942E0,7.375099063E-1,7.087813854E0
2.796200000E1,1.649231434E0,9.260580540E-1,8.065136909E0
2.798400000E1,3.860315084E-1,5.301241279E-1,9.890226364E0
2.800400156E1,-2.650764585E-1,4.440669417E-1,1.091059780E1
2.802600000E1,3.042455614E-1,-4.508760571E-2,1.150595856E1
2.804600000E1,1.029171467E0,-5.458300710E-1,1.152785110E1
2.806799844E1,1.478716373E0,-5.140830278E-1,1.009000874E1
2.808800000E1,1.434663057E0,6.903920323E-2,8.375607491E0
2.810800000E1,1.093795776E0,6.437050700E-1,7.746353626E0
2.812800000E1,8.708860874E-1,7.226466537E-1,8.125269890E0
2.815000000E1,7.739208937E-1,3.534894884E-1,8.616569519E0
2.817200156E1,6.926904619E-2,3.515549898E-1,8.673589706E0
2.819400000E1,-7.926722616E-2,6.064417362E-1,8.561800003E0
2.821400156E1,5.093711615E-1,5.079059601E-1,7.813007832E0
2.823600000E1,4.015172124E-1,5.298846960E-1,7.572917461E0
2.825800000E1,-6.692942977E-1,4.939525425E-1,8.872087479E0
2.827800000E1,-1.377345920E0,2.250645310E-1,1.051456738E1
2.829800312E1,-1.144150615E0,-3.516220450E-1,1.189594555E1
2.831999844E1,-6.286599040E-1,-3.627790213E-1,1.156418514E1
2.834000000E1,-6.726749539E-1,5.422196388E-1,1.001875687E1
2.836000000E1,-9.094997644E-1,1.204618692E0,9.205322266E0
2.838000000E1,-1.065898538E0,1.300808072E0,9.852934837E0
2.840000000E1,-9.344856739E-1,8.275126815E-1,1.111877823E1
2.842200625E1,-4.538065791E-1,3.500705957E-1,1.127903652E1
2.844400000E1,-3.816836178E-1,-2.232257873E-1,1.149712849E1
2.846400000E1,-6.490201950E-1,-6.607038975E-1,1.272150517E1
2.848400000E1,-5.882745385E-1,-1.081355572E0,1.414608288E1
2.850400000E1,-2.738966607E-3,-9.194117188E-1,1.318182278E1
2.852600000E1,6.844256520E-1,5.838692188E-1,9.457843781E0
2.854800000E1,1.226109028E0,1.953907967E0,6.632666588E0
2.856800000E1,1.504593015E0,2.422242641E0,6.248464584E0
2.858800000E1,1.351517320E0,1.948573709E0,7.575407028E0
2.860800000E1,6.706733108E-1,1.897519827E0,9.466309547E0
2.862800000E1,2.517742477E-2,1.716680884E0,1.128127766E1
2.864800000E1,1.949263364E-1,1.152549505E0,1.252221107E1
2.866800000E1,-1.130925119E-1,1.141105175E0,1.239025211E1
2.868800000E1,-8.420311809E-1,2.000863075E0,1.217913151E1
2.870800000E1,-1.230179191E0,2.701808929E0,1.112545300E1
2.872800000E1,-1.102166057E0,2.505857706E0,1.024013519E1
2.874999844E1,-1.041975737E0,2.313928843E0,9.483614922E0
2.877000000E1,-1.152530432E0,2.225171089E0,1.038963890E1
2.879000000E1,-1.060516477E0,1.406842470E0,1.228889179E1
2.881200625E1,-1.676707268E-1,6.072653085E-2,1.442810154E1
2.883400000E1,4.306977093E-1,-3.529915214E-1,1.256278801E1
2.885400000E1,1.214319944E0,2.551261187E-1,9.305726051E0
2.887400000E1,1.984592080E0,6.358712316E-1,8.361701012E0
2.889400000E1,1.463460565E0,5.481285453E-1,9.635799408E0
2.891400000E1,1.627080321E0,8.678502440E-1,9.259947777E0
2.893400000E1,2.159790277E0,1.743562937E0,6.683787823E0
2.895400000E1,2.450647354E0,2.895298481E0,5.472014904E0
2.897400000E1,2.333570957E0,3.259313107E0,6.157934666E0
2.899400000E1,1.819344282E0,2.762774706E0,7.681068420E0
2.901400000E1,1.263496876E0,2.157750130E0,7.975986004E0
2.903400000E1,1.219491482E0,1.777800083E0,8.351885796E0
2.905400000E1,9.411032200E-1,1.748150229E0,9.178238869E0
2.907400000E1,7.261422276E-1,1.983011961E0,9.009572029E0
2.909400000E1,9.330874681E-1,2.281109095E0,7.850089550E0
2.911400000E1,1.045662880E0,2.548512697E0,7.566720963E0
2.913400000E1,1.169864416E0,2.660542250E0,7.502020359E0
2.915400000E1,1.181634307E0,2.749769211E0,7.128477097E0
2.917400000E1,1.129000068E0,2.814383984E0,7.181963444E0
2.919599844E1,1.278130293E0,3.007500410E0,7.832784176E0
2.921599844E1,1.240512609E0,3.233618498E0,8.120174408E0
2.923600000E1,6.126762033E-1,3.609230280E0,7.788117886E0
2.925600000E1,3.061800897E-1,3.857901573E0,7.774806023E0
2.927600000E1,7.753670216E-1,3.586035490E0,8.563629150E0
2.929600000E1,1.476523280E0,3.203518629E0,8.923735619E0
2.931600000E1,1.316006422E0,3.137112856E0,8.669164658E0
2.933800000E1,2.792980075E-1,2.930933952E0,9.483663559E0
2.935800000E1,-3.830722708E-4,2.480862379E0,1.156976891E1
2.937800000E1,8.730887175E-1,2.659096241E0,1.217762756E1
2.939800000E1,3.673184216E-1,2.667092800E0,9.625734329E0
2.941800000E1,-8.371278048E-1,2.722753286E0,9.574048996E0
2.944000000E1,-1.267586231E0,2.530010462E0,1.137827110E1
2.946200469E1,-6.700987816E-1,1.834485173E0,1.058523560E1
2.948201719E1,-8.914091438E-2,1.692987919E0,1.063215160E1
2.950400000E1,-6.341378093E-1,1.917573571E0,1.174695873E1
2.952400000E1,-7.922030687E-1,2.199658394E0,1.203350639E1
2.954400000E1,-6.593056917E-1,2.505532026E0,1.034343910E1
2.956400000E1,-3.514017761E-1,2.641312122E0,8.785580635E0
2.958400000E1,1.357416511E-1,2.534971237E0,8.067914009E0
2.960400000E1,7.433996797E-1,2.258019447E0,7.769041061E0
2.962400000E1,1.271100879E0,1.899176478E0,7.313883781E0
2.964400000E1,1.387133479E0,1.596051455E0,6.497279167E0
2.966400000E1,1.168121457E0,1.568144679E0,6.779172421E0
2.968400000E1,6.925372481E-1,1.701731563E0,8.099191666E0
2.970400000E1,2.528659999E-1,1.768654346E0,8.729010582E0
2.972400000E1,1.576246619E-1,1.732827425E0,8.422418594E0
2.974400000E1,2.975417972E-1,1.809997320E0,8.258970261E0
2.976400000E1,2.244133204E-1,1.897941113E0,8.982460976E0
2.978400000E1,-1.543781310E-1,1.788554788E0,9.959812164E0
2.980400000E1,-7.076014876E-1,1.776631713E0,1.086799049E1
2.982400000E1,-1.312558889E0,1.923463345E0,1.152214336E1
2.984400000E1,-1.924392343E0,1.784647584E0,1.260129642E1
2.986400000E1,-1.802575350E0,1.540946484E0,1.390027523E1
2.988400000E1,-1.012555838E0,1.435515523E0,1.421259403E1
2.990400000E1,-2.135244906E-1,1.656481028E0,1.248084831E1
2.992400000E1,3.525605798E-1,2.205212831E0,1.079863453E1
2.994400000E1,6.630023122E-1,2.644759655E0,9.807368279E0
2.996400000E1,9.453361630E-1,2.610053539E0,9.681845665E0
2.998400000E1,8.439177871E-1,2.377701044E0,9.803201675E0
3.000400000E1,9.397720546E-2,1.919096351E0,1.098109245E1
3.002400000E1,-4.358691871E-1,1.297599912E0,1.234697437E1
3.004400000E1,-6.588364244E-1,6.255953312E-1,1.308177471E1
3.006400000E1,-3.930130005E-1,1.266819984E-1,1.207755947E1
3.008400000E1,1.473583281E-1,1.516966224E-1,9.548707962E0
3.010400000E1,3.582012951E-1,4.259380400E-1,7.411691666E0
3.012400000E1,1.424071193E-1,8.652644753E-1,6.397479534E0
3.014400000E1,-2.342103869E-1,1.271886110E0,6.660774231E0
3.016400000E1,-3.893067539E-1,1.563126445E0,6.877785206E0
3.018400000E1,-3.397372067E-1,1.748447180E0,6.270490646E0
3.020400156E1,-5.815898776E-1,2.016808510E0,5.556099415E0
3.022600156E1,-6.826251745E-1,2.339288235E0,6.282375336E0
3.024799844E1,-4.108162820E-1,2.051198721E0,7.474793434E0
3.026800000E1,8.414182067E-2,1.620520234E0,7.746276855E0
3.029000000E1,2.592058480E-1,1.767064452E0,7.205167770E0
3.031200000E1,-2.890375853E-1,1.967037797E0,7.880706310E0
3.033200000E1,-6.756916046E-1,2.323534489E0,9.572497368E0
3.035200000E1,-3.844321966E-1,2.433054686E0,1.028202343E1
3.037200000E1,-3.677493893E-3,1.988384485E0,1.053412437E1
3.039200000E1,-1.607467085E-1,1.405923128E0,1.100981331E1
3.041201094E1,-1.101045460E-1,9.037058353E-1,1.266732788E1
3.043400000E1,2.668098509E-1,9.270253181E-1,1.325466442E1
3.045400000E1,9.799946845E-2,1.512580037E0,1.192639065E1
3.047400000E1,-9.206375480E-1,2.294449806E0,1.159888268E1
3.049400000E1,-1.764268041E0,2.389949799E0,1.282142830E1
3.051400000E1,-1.500867605E0,1.761730194E0,1.355932236E1
3.053400000E1,-7.280671597E-1,1.009462476E0,1.273457718E1
3.055400000E1,-4.467675984E-1,3.149141371E-1,1.142912388E1
3.057400000E1,-4.503397644E-1,-9.894756973E-2,1.113374710E1
3.059400000E1,-2.220669985E-1,-3.674716353E-1,1.123136330E1
3.061400000E1,4.045243189E-2,-1.452801563E-2,9.951470375E0
3.063400000E1,1.296412349E-1,7.037899494E-1,8.443469048E0
3.065400000E1,1.737424284E-1,1.253048539E0,7.598487377E0
3.067400000E1,9.863153100E-2,1.525767326E0,7.530971050E0
3.069400000E1,-1.072219312E-1,1.885922194E0,7.169370174E0
3.071400000E1,-1.780041009E-1,2.212558270E0,6.340200901E0
3.073600000E1,1.444565654E-1,2.042091131E0,5.768110752E0
3.075600000E1,8.819472790E-1,1.343472719E0,6.317445755E0
3.077600000E1,1.442085147E0,6.010116339E-1,7.202055454E0
3.079600000E1,1.631744266E0,1.708023548E-1,8.158289909E0
3.081600000E1,9.963709712E-1,4.328333735E-1,9.358197212E0
3.083600000E1,2.274395972E-1,1.010937333E0,1.075619030E1
3.085600000E1,-2.673270106E-1,1.330553770E0,1.140797806E1
3.087600000E1,-6.650996804E-1,1.545256138E0,1.138304043E1
3.089600000E1,-9.314402342E-1,1.801483512E0,1.179003525E1
3.091600000E1,-8.245630264E-1,1.751492620E0,1.233994484E1
3.093600000E1,-4.973235726E-1,1.448559046E0,1.246251869E1
3.095600000E1,-1.795555502E-1,1.469101310E0,1.205146313E1
3.097800000E1,2.024536878E-1,1.804260850E0,1.146896362E1
3.099800000E1,5.252974033E-1,2.103938341E0,1.058360672E1
3.101800000E1,6.510217190E-1,2.298251629E0,9.757913589E0
3.104000000E1,5.468261242E-1,2.013485432E0,9.740015030E0
3.106000000E1,8.684918880E-1,9.961411357E-1,1.140427208E1
3.108000000E1,1.612399101E0,5.470272154E-2,1.217505169E1
3.110000000E1,2.266255617E0,-2.842300534E-1,1.113210964E1
3.112000000E1,2.004396915E0,-3.155462146E-1,9.353744507E0
3.114000000E1,9.526911378E-1,2.499546623E-3,9.034098625E0
3.116000000E1,2.163209021E-1,-8.796297014E-2,1.098417568E1
3.118200156E1,-7.413406670E-2,-4.246739149E-1,1.213975239E1
3.120400000E1,-2.491693646E-1,-5.487701893E-1,1.082976913E1
3.122400000E1,-3.718865514E-1,-1.541195512E-1,8.699791908E0
3.124400000E1,-7.453246117E-1,3.632099628E-1,7.637206554E0
3.126400000E1,-9.919943810E-1,7.267072797E-1,7.707596302E0
3.128400000E1,-1.144572020E0,8.941481113E-1,7.387625694E0
3.130400000E1,-1.389288187E0,1.064969659E0,6.848441601E0
3.132400000E1,-1.430861115E0,1.022745490E0,7.020230293E0
3.134400000E1,-1.399248004E0,4.349211156E-1,7.884996891E0
3.136400000E1,-1.477749109E0,7.032249123E-2,8.436132431E0
3.138400000E1,-1.712639570E0,2.089946568E-1,8.561818123E0
3.140400156E1,-1.582203388E0,3.179595768E-1,8.681528091E0
3.142400156E1,-1.274232388E0,2.193280309E-1,8.890724182E0
3.144600000E1,-1.331530571E0,2.314810008E-1,9.069110870E0
3.146600000E1,-1.296785831E0,-4.169741645E-2,1.018354511E1
3.148600000E1,-1.109722018E0,-3.686878979E-1,1.173195171E1
3.150600000E1,-8.205025196E-1,-5.622159839E-1,1.238384533E1
3.152600000E1,-5.657019615E-1,-4.428507090E-1,1.151427174E1
3.154800000E1,-1.141794801E0,-4.536533356E-2,1.086743450E1
3.157000000E1,-2.263669968E0,1.558050662E-1,1.215415573E1
3.159000000E1,-2.172259331E0,-1.197579727E-1,1.286284828E1
3.161000000E1,-1.738975763E0,-8.246971369E-1,1.230688667E1
3.163001875E1,-1.472980022E0,-1.709220529E0,1.190737152E1
3.165200000E1,-1.251152396E0,-2.161303282E0,1.320145607E1
3.167200000E1,-1.293864846E0,-1.787022591E0,1.330289364E1
3.169200000E1,-1.494566083E0,-6.475645304E-1,1.133852768E1
3.171200000E1,-1.168207645E0,5.424878001E-1,8.765019417E0
3.173200469E1,-5.571211576E-1,1.084927678E0,6.884910107E0
3.175400000E1,1.877149940E-1,1.192685962E0,6.063382626E0
3.177400000E1,5.219838023E-1,1.242006421E0,5.712086201E0
3.179600000E1,2.777944207E-1,1.483974099E0,5.928254128E0
3.181600000E1,1.746809669E-2,1.383953929E0,6.589743137E0
3.183800000E1,3.860985339E-1,1.013254881E0,7.190831661E0
3.186000000E1,9.780026674E-1,7.812376022E-1,7.387108326E0
3.188000000E1,1.226396322E0,6.032526493E-1,7.898960114E0
3.190000000E1,1.333283067E0,6.030898690E-1,8.326650620E0
3.192000000E1,1.183243155E0,5.774910450E-1,9.279150009E0
3.194000000E1,7.511185408E-1,8.893023133E-1,1.017207241E1
3.196200156E1,3.921415210E-1,1.036880851E0,1.089446068E1
3.198400000E1,2.225841433E-1,8.182040453E-1,1.217931366E1
3.200400000E1,1.964298785E-1,3.313671052E-1,1.345972252E1
3.202400000E1,9.731951356E-2,1.739243865E-1,1.455622005E1
3.204400000E1,8.820239455E-2,6.821942925E-1,1.401928616E1
3.206400000E1,2.769325376E-1,1.277124643E0,1.217206478E1
3.208400000E1,5.396913290E-1,1.124211788E0,1.130579376E1
3.210400000E1,1.167163730E0,-8.604760468E-2,1.232251549E1
3.212400000E1,2.136145115E0,-1.275937080E0,1.276266575E1
3.214400000E1,2.571612120E0,-1.766652703E0,1.139383411E1
3.216400000E1,1.719534755E0,-1.050738573E0,9.916543961E0
3.218400000E1,2.705543935E-1,-3.048297763E-1,1.066161060E1
3.220400000E1,-7.169772387E-1,-2.634579502E-2,1.271444607E1
3.222400000E1,-9.035717249E-1,-2.459706962E-1,1.371778870E1
3.224400000E1,-4.330249131E-1,-7.169293165E-1,1.201101112E1
3.226400000E1,-1.785116792E-1,-6.852779984E-1,9.537225723E0
3.228400000E1,-1.387391984E-1,-4.239556491E-1,7.863698006E0
3.230400000E1,-2.759940028E-1,-6.711426377E-2,7.566941261E0
3.232400000E1,-4.524849653E-1,2.459132373E-1,7.041663170E0
3.234400000E1,-5.386092067E-1,6.986950636E-1,5.956620693E0
3.236400000E1,-7.266976833E-1,1.143729210E0,5.142879486E0
3.238400000E1,-1.126376152E0,1.427451730E0,5.292497635E0
3.240400000E1,-1.367587209E0,1.275716782E0,6.190198898E0
3.242400000E1,-1.230092883E0,8.296866417E-1,6.835177898E0
3.244400000E1,-8.823590875E-1,3.645986021E-1,7.050483227E0
3.246400000E1,-4.188416302E-1,1.569925994E-1,6.760315895E0
3.248400000E1,-2.705447972E-1,2.584971488E-1,7.059226990E0
3.250400000E1,-5.799810290E-1,6.723780632E-1,7.736680508E0
3.252400000E1,-8.374821544E-1,8.362659216E-1,8.443401337E0
3.254400000E1,-1.083395362E0,7.282491326E-1,9.076341629E0
3.256400000E1,-1.084314823E0,4.082305431E-1,1.029088211E1
3.258400000E1,-2.906082273E-1,-1.924938262E-1,1.166618824E1
3.260400000E1,8.836040497E-1,-5.964435264E-2,1.155637074E1
3.262400000E1,1.017966628E0,7.284119129E-1,9.978591919E0
3.264400000E1,-8.345229179E-2,1.514083624E0,9.075048447E0
3.266600000E1,-1.642824531E0,6.856227517E-1,1.313854599E1
3.268600000E1,-8.381812572E-1,-1.207577825E0,1.704803658E1
3.270600000E1,1.062307239E0,-2.708321095E0,1.685473061E1
3.272600000E1,2.124681711E0,-2.888863087E0,1.353958416E1
3.274600000E1,1.903591394E0,-1.933317900E0,1.116170120E1
3.276600000E1,8.761149645E-1,-1.213678360E0,1.205632782E1
3.278799844E1,1.500589848E-1,-5.886192918E-1,1.234580708E1
3.280800000E1,-4.732858017E-2,2.257923782E-1,1.119383144E1
3.282800000E1,-8.588480204E-2,7.889373302E-1,9.456110001E0
3.284800000E1,-1.397256106E-1,1.224519253E0,8.513607979E0
3.287000000E1,1.298614889E-1,1.229920506E0,7.836959362E0
3.289000000E1,5.213038921E-1,8.780590892E-1,7.309660435E0
3.291001250E1,8.944545984E-1,7.520666718E-1,6.637694359E0
3.293001875E1,1.283885837E0,6.001688838E-1,6.362322807E0
3.295200000E1,1.417903662E0,6.573424935E-1,6.230076790E0
3.297200000E1,1.522673965E0,6.804800034E-1,6.404642582E0
3.299200000E1,1.628717899E0,4.563827217E-1,6.935331821E0
3.301200000E1,1.444575071E0,3.279290199E-1,7.940350533E0
3.303200000E1,1.298978925E0,1.496280432E-1,9.123029709E0
3.305200000E1,1.176137209E0,4.612190276E-2,9.967176437E0
3.307200625E1,1.055756688E0,2.214349210E-1,1.073614693E1
3.309200625E1,8.391102552E-1,2.490831614E-1,1.124979782E1
3.311400000E1,7.846181989E-1,2.076538950E-1,1.182038498E1
3.313400000E1,9.096530080E-1,-1.246612966E-1,1.253913403E1
3.315400000E1,7.584831119E-1,-2.332431376E-1,1.303231907E1
3.317400000E1,6.431496143E-1,1.187045202E-1,1.277130413E1
3.319400000E1,5.289461613E-1,6.358041763E-1,1.218986702E1
3.321400000E1,4.824220538E-1,7.531009316E-1,1.206435394E1
3.323600000E1,1.241834164E0,-2.260222137E-1,1.246555424E1
3.325800000E1,2.401173592E0,-1.168868423E0,1.197192764E1
3.327800000E1,2.880904436E0,-1.226080298E0,1.009341812E1
3.330000000E1,1.863694429E0,-3.749703169E-1,8.761648178E0
3.332200625E1,-4.807556793E-2,1.825530827E-1,1.014339924E1
3.334400000E1,-1.009615779E0,8.389282972E-3,1.317301273E1
3.336400000E1,-8.578137159E-1,-9.215856791E-1,1.450366211E1
3.338400000E1,2.916233540E-1,-1.964499950E0,1.255102730E1
3.340400000E1,7.220816612E-1,-2.198509216E0,1.014381123E1
3.342400000E1,2.196057588E-1,-1.413632393E0,8.757002831E0
3.344400000E1,-3.984334767E-1,-4.983674586E-1,7.768734455E0
3.346400000E1,-8.554003835E-1,3.292793632E-1,6.616941452E0
3.348400000E1,-1.275563598E0,1.201266766E0,5.629247189E0
3.350400000E1,-1.380544543E0,1.799491525E0,5.274464607E0
3.352400000E1,-1.208526015E0,1.885577559E0,5.817785740E0
3.354400000E1,-8.652932048E-1,1.174240947E0,6.376994610E0
3.356400000E1,-6.426899433E-1,7.068545818E-1,6.554443359E0
3.358400000E1,-5.869816542E-1,4.130380750E-1,7.069005013E0
3.360400000E1,-5.004743338E-1,2.357809842E-1,7.836729527E0
3.362400000E1,-5.794351101E-1,2.441128045E-1,8.323949814E0
3.364400000E1,-8.946557045E-1,4.777581394E-1,8.460113525E0
3.366400000E1,-1.262788177E0,5.829784870E-1,9.577477455E0
3.368400000E1,-1.537537217E0,1.923214346E-1,1.166022205E1
3.370400000E1,-1.026336789E0,-1.157261357E-1,1.328285885E1
3.372400000E1,-5.735645294E-1,-1.239430308E-1,1.211686325E1
3.374400000E1,-1.249629617E0,2.768367529E-1,1.087348747E1
3.376400000E1,-2.011263609E0,6.208643690E-2,1.328751278E1
3.378400000E1,-1.194017053E0,-1.139362335E0,1.504489517E1
3.380400000E1,6.697060913E-2,-1.724217892E0,1.370950603E1
3.382400000E1,5.171475932E-3,-1.426273823E0,1.109472084E1
3.384400000E1,-4.248463213E-1,-3.562572002E-1,9.617814064E0
3.386400000E1,-8.471738696E-1,4.210443199E-1,9.901383400E0
3.388400000E1,-7.999602556E-1,4.533756077E-1,9.974513054E0
3.390400000E1,-5.372014046E-1,5.533095598E-1,9.297010422E0
3.392400000E1,-1.069250479E-1,7.276074886E-1,8.746201515E0
3.394400469E1,2.627875805E-1,1.071529746E0,7.590328217E0
3.396600000E1,5.533287525E-1,1.433973670E0,6.684170246E0
3.398600000E1,8.211345673E-1,1.662265539E0,5.650210381E0
3.400799844E1,1.162777543E0,1.760782123E0,5.127939224E0
3.402800000E1,1.357828379E0,1.421648145E0,5.552594185E0
3.404800000E1,1.583314300E0,1.178809166E0,6.278707981E0
3.407000000E1,1.832560301E0,7.367437482E-1,7.498448372E0
3.409000000E1,1.789579630E0,4.916445315E-1,8.975641251E0
3.411200000E1,1.458767891E0,1.016769558E-1,1.146026802E1
3.413200000E1,1.486626863E0,-5.813409090E-1,1.361566257E1
3.415200000E1,1.624724507E0,-8.474516869E-1,1.471078873E1
3.417200000E1,1.435620904E0,-4.011628628E-1,1.471936035E1
3.419200312E1,9.720458984E-1,2.267213315E-1,1.441056633E1
3.421400000E1,9.852619171E-1,8.376545310E-1,1.419412994E1
3.423400000E1,1.381291628E0,9.282032251E-1,1.296598148E1
3.425400000E1,1.406919122E0,3.762152791E-1,1.195271683E1
3.427400000E1,1.512120366E0,-5.893471241E-1,1.252428913E1
3.429400000E1,2.323065281E0,-1.889226198E0,1.316045666E1
3.431400469E1,3.516880989E0,-2.685173750E0,1.143020630E1
3.433599844E1,3.655763865E0,-1.791207671E0,8.291503906E0
3.435600000E1,2.588218212E0,-3.375537097E-1,7.029385567E0
3.437600000E1,1.124182940E0,7.401914150E-2,9.710335732E0
3.439800000E1,-2.298721075E-1,-3.844321966E-1,1.338137531E1
3.441800000E1,-9.286821485E-1,-8.892639875E-1,1.460149860E1
3.444000000E1,-1.318860292E0,-6.773867011E-1,1.268338871E1
3.446200000E1,-1.161685824E0,-1.496471912E-1,9.798547745E0
3.448200938E1,-8.886510730E-1,2.435094565E-1,8.151461601E0
3.450400000E1,-7.633576393E-1,6.993750334E-1,7.117856503E0
3.452400000E1,-6.087784171E-1,1.145242453E0,5.974098206E0
3.454400000E1,-7.548247576E-1,1.470307946E0,6.530730724E0
3.456400000E1,-7.095456123E-1,1.306468010E0,6.813773632E0
3.458400000E1,-3.814825118E-1,7.958709598E-1,6.832294941E0
3.460400000E1,-7.387261391E-1,4.587386250E-1,7.207581520E0
3.462400000E1,-1.204350471E0,6.281427741E-1,7.778339863E0
3.464400469E1,-1.390868425E0,9.190956950E-1,8.604761124E0
3.466600000E1,-1.524637222E0,1.180590510E0,8.357765198E0
3.468600000E1,-8.327704072E-1,1.575011253E0,7.136693954E0
3.470600000E1,-3.146843016E-1,1.928864598E0,6.891038895E0
3.472799844E1,-6.319735199E-2,1.809365273E0,8.001891136E0
3.474799844E1,2.575107813E-1,1.721383214E0,9.202335358E0
3.476800000E1,7.982555628E-1,1.867563486E0,9.832804680E0
3.479000000E1,1.294966221E0,2.198700666E0,1.038981056E1
3.481000000E1,1.278407931E0,1.935290694E0,1.077834225E1
3.483001875E1,9.982097149E-1,1.114625335E0,1.246415615E1
3.485200000E1,1.386846066E0,-7.619307935E-2,1.436999893E1
3.487200469E1,2.434816837E0,-6.905835867E-1,1.399960613E1
3.489400000E1,3.432499886E0,-5.718598366E-1,1.134921455E1
3.491400000E1,3.446290493E0,-3.227383830E-3,8.790589333E0
3.493400000E1,2.326972485E0,2.808111310E-1,1.014538193E1
3.495400000E1,1.598953247E0,3.441808522E-1,1.205006504E1
3.497400000E1,1.416639566E0,4.951017499E-1,1.172906971E1
3.499400000E1,1.091832638E0,1.037934303E0,9.582754135E0
3.501400000E1,8.614721298E-1,1.613260984E0,8.594493866E0
3.503400000E1,6.646591425E-1,1.798179507E0,8.324036598E0
3.505400000E1,8.656475544E-1,1.692901731E0,8.081733704E0
3.507400000E1,1.539203525E0,1.302857518E0,6.874499798E0
3.509600000E1,2.080704927E0,1.241144538E0,5.762383938E0
3.511800000E1,2.175362110E0,1.628334880E0,5.517189026E0
3.513999844E1,1.891907692E0,1.764718175E0,6.275796413E0
3.516000000E1,1.533007383E0,1.795651197E0,7.437893867E0
3.518200000E1,1.177324653E0,1.781305194E0,9.019925117E0
3.520200313E1,1.459926724E0,1.368650198E0,1.032373047E1
3.522400000E1,1.740230322E0,8.687791824E-1,1.173773670E1
3.524400000E1,1.553961396E0,7.223210931E-1,1.303061485E1
3.526400000E1,1.510511518E0,4.198567867E-1,1.430901337E1
3.528400000E1,1.546721339E0,3.650583029E-1,1.465624046E1
3.530400000E1,1.681103110E0,9.949536324E-1,1.343728447E1
3.532400000E1,1.945135593E0,1.322509170E0,1.132645130E1
3.534400000E1,2.053545237E0,1.110478640E0,1.080528164E1
3.536400000E1,1.863416791E0,1.580843478E-1,1.337208557E1
3.538400000E1,2.401872873E0,-9.140965939E-1,1.407154655E1
3.540400000E1,3.415635347E0,-1.372528791E0,1.177081490E1
3.542400156E1,3.397171259E0,-6.595834494E-1,9.049248695E0
3.544600000E1,1.976844430E0,1.803887337E-1,9.429678917E0
3.546600000E1,5.390305519E-1,-2.298433632E-1,1.233656406E1
3.548600000E1,-2.113026530E-1,-1.164434314E0,1.445575905E1
3.550600000E1,8.406520635E-2,-1.867218733E0,1.344486046E1
3.552600000E1,4.882447422E-1,-1.759604096E0,1.005516815E1
3.554800000E1,3.373047113E-1,-7.972212434E-1,6.775773048E0
3.557000000E1,-3.974183202E-1,-8.454405516E-2,7.163767815E0
3.559000000E1,-8.138561845E-1,1.158697903E-1,7.503734589E0
3.561200156E1,-9.227923751E-1,6.820027232E-1,5.910805225E0
3.563200156E1,-1.123445630E0,1.157510400E0,5.120239735E0
3.565200469E1,-1.516420245E0,1.180791497E0,5.643516541E0
3.567200469E1,-1.683727145E0,1.041448951E0,6.498543262E0
3.569400000E1,-1.583362222E0,9.198427200E-1,6.953154087E0
3.571400000E1,-1.257798672E0,1.004855990E0,6.191903591E0
3.573600000E1,-1.129057646E0,1.391481280E0,5.586764336E0
3.575600000E1,-1.028529882E0,1.518316507E0,6.160060406E0
3.577600000E1,-9.851278067E-1,1.411697865E0,7.437098980E0
3.579600000E1,-1.463527560E0,1.160105586E0,8.334992409E0
3.581600000E1,-1.626180053E0,4.907826185E-1,1.079868221E1
3.583600000E1,-8.974713087E-1,-5.915688872E-1,1.325387001E1
3.585600000E1,2.558348179E-1,-6.690644622E-1,1.334504128E1
3.587600000E1,5.381590724E-1,3.106907606E-1,1.158132839E1
3.589600000E1,-2.233215570E-1,1.156562209E0,1.034210873E1
3.591600000E1,-1.395551443E0,6.705775857E-1,1.313348961E1
3.593600000E1,-1.033873796E0,-8.737495542E-1,1.612908554E1
3.595600000E1,3.606338203E-1,-2.050681591E0,1.571889114E1
3.597800000E1,1.099254608E0,-1.826019287E0,1.257569695E1
3.599800000E1,7.100914717E-1,-9.876081944E-1,1.131843567E1
3.601800000E1,-4.382346570E-2,-5.276533365E-1,1.208316231E1
3.603999844E1,-5.943174958E-1,-6.796659529E-2,1.187791252E1
3.605999844E1,-1.099925041E0,5.469793081E-1,1.138155556E1
3.608000000E1,-9.991482496E-1,7.829518318E-1,1.070016575E1
3.610200000E1,-3.532309532E-1,7.746295929E-1,9.246704102E0
3.612201094E1,5.451309681E-1,7.120547295E-1,7.254383087E0
3.614400000E1,1.350952268E0,6.786221266E-1,5.699358940E0
3.616400000E1,1.668902278E0,8.668925762E-1,5.505974770E0
3.618400000E1,1.770138621E0,7.779719234E-1,6.327625751E0
3.620400000E1,2.111858368E0,7.411108017E-1,6.753612041E0
3.622400000E1,2.417023182E0,7.440125942E-1,6.783472538E0
3.624400000E1,2.456374168E0,7.887074947E-1,6.730541706E0
3.626400000E1,2.099667072E0,1.068924904E0,7.477005959E0
3.628400000E1,1.573632240E0,1.234067440E0,8.774577141E0
3.630400000E1,9.371288419E-1,1.453692317E0,1.016590500E1
3.632400000E1,7.286992073E-1,1.273494959E0,1.123147774E1
3.634400000E1,6.601580381E-1,9.368990064E-1,1.179300404E1
3.636400000E1,3.284174502E-1,9.504118562E-1,1.242918205E1
3.638400000E1,2.401863039E-2,1.269300461E0,1.321039104E1
3.640400000E1,2.872563303E-1,1.894024253E0,1.322884560E1
3.642400156E1,7.824155092E-1,2.300483227E0,1.203217602E1
3.644600000E1,8.835849166E-1,2.330621243E0,1.129450321E1
3.646600000E1,8.020001054E-1,1.035817862E0,1.415640736E1
3.648600000E1,1.645611405E0,-7.918965816E-1,1.559131908E1
3.650800000E1,2.812536001E0,-1.353020906E0,1.283407974E1
3.652800000E1,2.819383383E0,-3.726431131E-1,9.350181580E0
3.654800000E1,1.670769691E0,7.114896774E-1,8.038733482E0
3.656800000E1,-4.827668518E-2,9.828772545E-1,9.964073181E0
3.658800000E1,-8.883541822E-1,6.460418105E-1,1.253602982E1
3.660800000E1,-4.709298909E-1,-5.616797209E-1,1.325000954E1
3.662800000E1,2.677387893E-1,-1.282899380E0,1.111104965E1
3.665000000E1,4.985685647E-2,-1.117843151E0,9.191847801E0
3.667200625E1,-5.148299336E-1,-3.867881000E-1,8.479869843E0
3.669400000E1,-7.999411225E-1,2.631227672E-1,7.454347134E0
3.671400000E1,-8.518856764E-1,9.762979746E-1,5.684610367E0
3.673400000E1,-9.835476279E-1,1.480756402E0,4.101593494E0
3.675400000E1,-1.238309860E0,1.674025893E0,4.310444355E0
3.677400000E1,-1.490314007E0,1.317912221E0,5.556357861E0
3.679400000E1,-1.534530044E0,1.103679061E0,6.288495064E0
3.681400000E1,-1.510961533E0,7.917242050E-1,6.810335636E0
3.683599844E1,-1.455368161E0,6.936385632E-1,8.081493378E0
3.685600000E1,-1.268515110E0,7.215740681E-1,8.892792702E0
3.687600000E1,-9.523367882E-1,9.254259467E-1,8.459959984E0
3.689600000E1,-8.709435463E-1,1.003812075E0,8.284417152E0
3.691600000E1,-9.580733180E-1,8.182040453E-1,9.453304291E0
3.693799844E1,-5.864357948E-1,1.994465739E-1,1.091973305E1
3.695800000E1,1.075092331E-1,2.088318467E-1,1.132557011E1
3.697800156E1,6.533297896E-2,1.080330849E0,1.059146976E1
3.700000000E1,-9.382014871E-1,1.396432519E0,1.104209709E1
3.702000000E1,-1.475345373E0,8.499033451E-1,1.411718082E1
3.704200000E1,-6.808151603E-1,-5.980715901E-2,1.610777664E1
3.706200781E1,5.650699139E-1,-4.343560934E-1,1.447410870E1
3.708400000E1,8.705125451E-1,-3.349009156E-2,1.134472370E1
3.710400000E1,8.578520417E-1,5.306987166E-1,1.040588951E1
3.712400000E1,5.833902955E-1,6.983119845E-1,1.029573727E1
3.714400000E1,5.920860767E-1,1.130206943E0,9.404069901E0
3.716400000E1,5.312829614E-1,1.693016648E0,7.770621300E0
3.718400000E1,5.798661113E-1,2.053439617E0,6.645011425E0
3.720400000E1,6.568540335E-1,2.165593863E0,6.602528095E0
3.722400000E1,1.154062629E0,1.892348289E0,7.236962795E0
3.724400000E1,1.746694565E0,1.660876870E0,7.016495705E0
3.726400000E1,1.874822736E0,1.845996618E0,6.539982319E0
3.728400000E1,1.673202276E0,2.047147751E0,7.382415295E0
3.730400000E1,1.695736408E0,1.545926571E0,9.271201134E0
3.732400000E1,1.646530747E0,9.550374746E-1,1.054714870E1
3.734400000E1,1.613375902E0,8.699188232E-1,1.075700474E1
3.736400000E1,1.690440416E0,7.076014876E-1,1.119238567E1
3.738400000E1,1.957058668E0,9.519346058E-3,1.209115887E1
3.740400000E1,2.004243612E0,-1.356171519E-1,1.206976509E1
3.742400000E1,1.610081553E0,6.950463057E-1,1.077628231E1
3.744400000E1,1.140664697E0,1.428447723E0,9.662595749E0
3.746400000E1,8.552280068E-1,1.810064316E0,9.294041634E0
3.748400000E1,6.712958217E-1,1.649806023E0,1.024665642E1
3.750400000E1,7.149660587E-1,1.242810965E0,1.143169975E1
3.752400000E1,8.179742694E-1,8.542607427E-1,1.150588226E1
3.754400000E1,7.545757294E-1,5.261976123E-1,1.177027798E1
3.756400000E1,6.429772377E-1,6.021896005E-2,1.320705891E1
3.758400000E1,9.267380238E-1,-7.491744161E-1,1.441224194E1
3.760400000E1,1.332986236E0,-1.538533211E0,1.425603390E1
3.762400000E1,1.586024523E0,-1.434318304E0,1.220288181E1
3.764400000E1,1.199878216E0,-6.033387780E-1,1.021194077E1
3.766400000E1,3.744052649E-1,1.026442200E-1,9.460113525E0
3.768400000E1,-3.354085088E-1,2.225458324E-1,1.044303799E1
3.770400000E1,-5.311488509E-1,8.405563235E-2,1.073089886E1
3.772400000E1,-6.781336665E-1,2.048670501E-1,1.034755802E1
3.774400000E1,-5.273468494E-1,9.534668922E-2,1.010737133E1
3.776400000E1,-3.011905849E-1,-2.433658093E-1,1.007173634E1
3.778400000E1,-1.424741447E-1,-5.497182608E-1,9.639945984E0
3.780400000E1,-1.847270131E-1,-5.620532036E-1,9.003222466E0
3.782400000E1,-3.708522618E-1,-3.970927000E-1,7.998721123E0
3.784400000E1,-7.192660570E-1,3.224414885E-1,7.022854328E0
3.786400000E1,-1.056455851E0,8.739601970E-1,6.685281754E0
3.788400000E1,-1.348433614E0,1.024909854E0,6.462659359E0
3.790400000E1,-1.553999782E0,1.124403358E0,6.577494621E0
3.792400000E1,-1.471591353E0,1.147014141E0,6.785914421E0
3.794400000E1,-1.056053638E0,8.470398784E-1,7.023946285E0
3.796400000E1,-5.395860076E-1,8.588384390E-1,6.753756046E0
3.798400000E1,-3.906953931E-1,9.888628125E-1,6.879164219E0
3.800400000E1,-7.190362811E-1,1.195386648E0,7.558465958E0
3.802400000E1,-8.757702708E-1,1.226396322E0,8.460113525E0
3.804400000E1,-6.508014798E-1,6.598707438E-1,9.721205711E0
3.806400000E1,-4.434061646E-1,6.824623942E-1,1.041722965E1
3.808400000E1,-3.386837840E-1,1.091621995E0,1.000272560E1
3.810400000E1,-2.733125091E-1,1.204695344E0,9.198235512E0
3.812400938E1,-8.083303571E-1,1.596788883E0,9.745415688E0
3.814600000E1,-1.806894422E0,1.473066211E0,1.302329922E1
3.816600000E1,-1.466812491E0,4.675971568E-1,1.522077370E1
3.818800000E1,2.794607878E-1,-7.301549315E-1,1.435336304E1
3.820800000E1,1.436386943E0,-8.160397410E-1,1.199715328E1
3.823001875E1,1.746704221E0,-2.964213192E-1,1.082598591E1
3.825200781E1,1.016894102E0,3.043796420E-1,1.170141220E1
3.827400000E1,5.245408416E-1,8.842840791E-1,1.146720123E1
3.829400000E1,4.162463248E-1,1.144064426E0,1.034797955E1
3.831600000E1,1.927811205E-1,1.229834318E0,9.767280579E0
3.833600000E1,4.598686695E-1,8.615869880E-1,1.020540905E1
3.835600000E1,9.626414776E-1,2.764249444E-1,9.508208275E0
3.837600000E1,1.534194827E0,2.487096749E-2,7.806754589E0
3.839600000E1,1.839896083E0,1.396298409E-1,5.994334221E0
3.841600000E1,1.764344692E0,7.444722056E-1,5.536428928E0
3.843799844E1,1.508078933E0,9.628808498E-1,6.094603062E0
3.845800000E1,1.336826444E0,1.007633328E0,6.444874763E0
3.847800000E1,1.196918964E0,9.094231725E-1,7.291847706E0
3.849800781E1,1.230724931E0,4.130859971E-1,9.175634384E0
3.852000000E1,1.504439712E0,-5.245217085E-1,1.147857952E1
3.854200000E1,2.005900621E0,-1.208899498E0,1.214690495E1
3.856200313E1,1.818951607E0,-9.125643373E-1,1.171658134E1
3.858400000E1,1.440935969E0,-4.172614589E-2,1.139217663E1
3.860400000E1,1.005239129E0,4.187937677E-1,1.173078442E1
3.862400000E1,6.080123186E-1,6.831136346E-1,1.249279118E1
3.864400000E1,4.743584096E-1,7.505630255E-1,1.266989517E1
3.866400000E1,7.186627388E-1,8.649389148E-1,1.184945011E1
3.868400000E1,9.457862973E-1,1.028501272E0,1.114523792E1
3.870400156E1,1.538609743E0,3.471592367E-1,1.167438602E1
3.872600000E1,2.526984215E0,-1.194419265E0,1.305344582E1
3.874600000E1,3.404334545E0,-1.825732112E0,1.219547939E1
3.876800000E1,3.035685062E0,-1.426072717E0,1.047980404E1
3.879000000E1,1.399161816E0,-4.944409430E-1,1.013842010E1
3.881000000E1,-1.003362015E-1,-2.783786356E-1,1.214325714E1
3.883001875E1,-1.108371735E0,-3.022057116E-1,1.391481209E1
3.885200469E1,-7.018937469E-1,-1.036900043E0,1.357700062E1
3.887400000E1,1.714248359E-1,-1.609851718E0,1.131131935E1
3.889400000E1,4.940100014E-1,-1.499306560E0,9.532733917E0
3.891400000E1,5.813887715E-1,-9.404041171E-1,8.000082016E0
3.893400000E1,3.795192838E-1,-2.201803625E-1,7.013919353E0
3.895400000E1,-4.913859442E-2,2.162634581E-1,6.443926811E0
3.897400000E1,-6.481486559E-1,5.544300675E-1,6.486926556E0
3.899400000E1,-1.371724367E0,1.041841626E0,6.978571415E0
3.901400000E1,-1.668040276E0,1.230495095E0,7.453839302E0
3.903400000E1,-1.350473404E0,7.497586012E-1,7.257601261E0
3.905400000E1,-9.035142660E-1,5.196088552E-1,6.832237720E0
3.907400000E1,-8.992142677E-1,7.581000328E-1,6.498275280E0
3.909400000E1,-9.601994157E-1,9.673244953E-1,6.507162571E0
3.911400000E1,-1.012565374E0,8.649771810E-1,7.133313656E0
3.913400000E1,-1.051102400E0,3.317789137E-1,8.566205025E0
3.915400000E1,-1.219213724E0,7.542693615E-2,1.000268745E1
3.917400000E1,-1.036603093E0,-4.893748090E-2,1.084496784E1
3.919400000E1,-4.500237405E-1,3.985675275E-1,1.038601875E1
3.921400000E1,-5.716204047E-1,8.312668204E-1,9.659914017E0
3.923400000E1,-1.638907671E0,1.110708475E0,1.009752655E1
3.925400000E1,-2.980599165E0,8.524124026E-1,1.250313377E1
3.927400000E1,-2.958313942E0,-3.589578867E-1,1.512521553E1
3.929400000E1,-1.491654634E0,-1.547219396E0,1.428947639E1
3.931400000E1,-2.961435914E-1,-1.343348265E0,1.119919395E1
3.933599844E1,1.182831451E-1,-3.605284691E-1,9.757932663E0
3.935600000E1,-1.184076369E-1,-4.064109623E-1,1.047248745E1
3.937600000E1,-2.869498730E-1,-1.084381863E-1,1.055719471E1
3.939600000E1,-2.003659457E-1,5.331503749E-1,9.379630089E0
3.941800000E1,2.503473163E-1,7.936778665E-1,8.511674881E0
3.944000000E1,7.536947131E-1,9.620189667E-1,8.156192780E0
3.946200156E1,1.279806137E0,1.155144930E0,7.387376308E0
3.948400000E1,1.657946467E0,1.366332650E0,6.765219212E0
3.950400000E1,1.944340825E0,1.299486399E0,6.833616734E0
3.952400000E1,2.175448179E0,1.140789151E0,7.332137108E0
3.954400000E1,2.131672621E0,1.112719655E0,7.501694679E0
3.956400000E1,2.051160336E0,1.394277692E0,7.594599247E0
3.958400000E1,2.238003969E0,1.332880855E0,8.310196877E0
3.960400000E1,2.332067490E0,7.241023779E-1,9.404356956E0
3.962400000E1,1.950785995E0,5.671384931E-1,1.093665600E1
3.964400000E1,1.707908511E0,4.066120684E-1,1.226853085E1
3.966400000E1,1.937340140E0,-8.714893833E-3,1.272609138E1
3.968400000E1,2.364159107E0,-3.142724931E-1,1.246044064E1
3.970400156E1,2.343894720E0,-3.704308867E-1,1.230239487E1
3.972600000E1,1.824190140E0,-1.408077776E-1,1.302270508E1
3.974600000E1,1.193624496E0,1.690785289E-1,1.340242481E1
3.976800000E1,7.228477597E-1,2.775741518E-1,1.393060589E1
3.979000000E1,1.162921309E0,-6.181541681E-1,1.481272507E1
3.981000000E1,2.219147205E0,-1.563643575E0,1.396317577E1
3.983001875E1,2.677234650E0,-1.536895514E0,1.151636887E1
3.985200000E1,1.988327026E0,-5.934651494E-1,9.567718506E0
3.987200000E1,5.140734315E-1,-1.250060648E-1,1.070462894E1
3.989200000E1,-5.102139711E-1,-5.492394567E-1,1.286991596E1
3.991200313E1,-8.950387836E-1,-9.710211754E-1,1.376868057E1
3.993200781E1,-6.152715683E-1,-1.018455029E0,1.152339840E1
3.995400000E1,-4.650401473E-1,-5.250293016E-1,8.759560585E0
3.997400000E1,-4.766281247E-1,-3.453492522E-1,7.884613991E0
3.999400000E1,-7.063660622E-1,-3.069175184E-1,8.040553093E0
4.001400000E1,-9.801669717E-1,-1.922543943E-1,7.637866974E0
4.003400000E1,-1.230648398E0,2.698744237E-1,6.610476971E0
4.005599844E1,-1.163036108E0,6.403244734E-1,5.503992081E0
4.007600000E1,-1.186403513E0,9.978744984E-1,5.275345802E0
4.009600000E1,-1.380496740E0,1.265948534E0,5.606032848E0
4.011600000E1,-1.566085696E0,1.212816358E0,6.267952919E0
4.013600000E1,-1.751846910E0,9.819674492E-1,6.968171120E0
4.015600000E1,-1.789914846E0,9.135124683E-1,7.784775257E0
4.017600000E1,-1.439413190E0,7.934767604E-1,8.090946198E0
4.019800000E1,-8.353369832E-1,6.484551430E-1,8.118172646E0
4.021800000E1,-6.188819408E-1,5.431486368E-1,8.436697006E0
4.023800000E1,-5.992686749E-1,5.124357939E-1,9.486718178E0
4.025800000E1,-6.779229641E-1,7.013861537E-1,1.039083481E1
4.027800000E1,-4.139000177E-1,1.048660398E0,1.051200104E1
4.029801250E1,-2.550399601E-1,1.359944820E0,9.959715843E0
4.032000000E1,-7.703775167E-1,1.058026433E0,1.091692734E1
4.034200000E1,-9.437751174E-1,2.743563652E-1,1.372408104E1
4.036200625E1,-1.501260251E-1,-5.712181926E-1,1.450162220E1
4.038400000E1,8.784326315E-1,-6.814568639E-1,1.249356747E1
4.040400000E1,1.160086513E0,-1.133702397E-1,1.075968647E1
4.042400000E1,8.210483789E-1,2.884725630E-1,1.064663219E1
4.044400000E1,6.377291083E-1,2.368918955E-1,1.163913345E1
4.046400000E1,8.498745561E-1,-1.291049421E-1,1.188820744E1
4.048400000E1,1.016118288E0,2.443043329E-2,1.092091179E1
4.050400000E1,1.184976578E0,4.014597535E-1,9.309604645E0
4.052400000E1,1.268821478E0,8.048827648E-1,8.203023911E0
4.054400000E1,1.229700327E0,1.231098533E0,7.333507061E0
4.056400000E1,1.263257504E0,1.495609879E0,6.502450466E0
4.058400000E1,1.224988580E0,1.536445379E0,5.883090019E0
4.060400000E1,1.144351840E0,1.506450772E0,6.075411320E0
4.062400000E1,1.052519798E0,1.258622289E0,6.381447792E0
4.064400000E1,1.553741097E0,8.410830498E-1,6.460542679E0
4.066400000E1,1.908418179E0,4.014214575E-1,7.170662403E0
4.068400000E1,1.575566649E0,2.948219776E-1,8.562690735E0
4.070400000E1,1.429472566E0,-7.805097383E-3,1.046080399E1
4.072400000E1,1.587116361E0,-6.604070663E-1,1.166111183E1
4.074400000E1,1.608271480E0,-8.593651652E-1,1.246422386E1
4.076400000E1,1.178770900E0,-2.911444902E-1,1.240785408E1
4.078400000E1,4.991048574E-1,3.249602020E-1,1.225106335E1
4.080400000E1,-1.968895793E-1,8.567889929E-1,1.237279415E1
4.082400156E1,-6.133083105E-1,1.081202388E0,1.278282547E1
4.084600000E1,-4.531649053E-1,1.092081547E0,1.316487217E1
4.086799844E1,4.383304715E-2,6.088646054E-1,1.295461369E1
4.088800000E1,9.881636500E-1,-3.286376894E-1,1.338332939E1
4.090800000E1,1.957566381E0,-1.033892989E0,1.315519047E1
4.092800000E1,2.675568342E0,-1.053716898E0,1.164326191E1
4.094800000E1,2.685556889E0,-2.756683826E-1,9.471634865E0
4.096800000E1,1.732951880E0,5.880159140E-1,8.979175568E0
4.098800000E1,4.175296426E-1,6.434943676E-1,1.083205795E1
4.101000000E1,2.945825830E-2,-2.951763272E-1,1.346916580E1
4.103001875E1,2.572713196E-1,-1.482729077E0,1.442018032E1
4.105200469E1,5.090072751E-1,-1.846686006E0,1.199575520E1
4.107400000E1,8.453447223E-1,-1.669697165E0,9.521596909E0
4.109400000E1,8.784230351E-1,-1.977505207E0,8.523262978E0
4.111400000E1,2.878979743E-1,-1.889714718E0,8.473691940E0
4.113400000E1,-4.946612120E-1,-1.492325068E0,8.269697189E0
4.115400000E1,-1.299926996E0,-8.251664042E-1,7.586238861E0
4.117400000E1,-1.549613476E0,-5.135083944E-2,6.333592415E0
4.119400000E1,-1.483437777E0,5.800576210E-1,5.438218117E0
4.121400000E1,-1.431177139E0,7.511089444E-1,4.739178658E0
4.123400000E1,-1.534079909E0,6.782485843E-1,4.755373001E0
4.125400000E1,-1.782684326E0,7.397987843E-1,5.884890079E0
4.127400000E1,-2.011378527E0,6.071503758E-1,7.315425873E0
4.129400156E1,-1.491089702E0,5.263412744E-2,8.276679039E0
4.131600000E1,-9.964667559E-1,-4.377271235E-1,7.668618679E0
4.133600000E1,-1.662993312E0,1.598752141E-1,8.325510979E0
4.135600000E1,-2.117786407E0,7.128496170E-1,1.013548946E1
4.137600000E1,-1.650457263E0,7.345793843E-1,1.122936153E1
4.139600000E1,-6.135189533E-1,4.371716678E-1,1.066539288E1
4.141800000E1,-1.222862452E-1,5.242056847E-1,1.014401245E1
4.144000000E1,-1.079009295E0,7.851066440E-2,1.203763485E1
4.146200000E1,-1.235867739E0,-1.418468714E0,1.527245903E1
4.148201250E1,-3.814250529E-1,-2.488619328E0,1.652461624E1
4.150400000E1,5.923542380E-1,-2.223006487E0,1.368766117E1
4.152400000E1,8.699954152E-1,-9.136177897E-1,1.022804928E1
4.154400469E1,5.591227412E-1,1.170764640E-1,8.244328499E0
4.156600000E1,-4.328908026E-1,7.175422311E-1,8.710670471E0
4.158600000E1,-9.138763547E-1,4.370471537E-1,1.128938866E1
4.160600000E1,-1.679197252E-1,-6.227510571E-1,1.247107124E1
4.162800000E1,9.053912759E-1,-1.173273802E0,1.138353825E1
4.165000000E1,1.415701032E0,-8.984960318E-1,9.755682945E0
4.167000000E1,1.514801860E0,-4.088147283E-1,8.490126610E0
4.169000000E1,1.413699508E0,6.947015226E-2,7.338046551E0
4.171200156E1,1.100988030E0,6.017299294E-1,6.382099152E0
4.173400000E1,9.242480397E-1,9.865260124E-1,6.239069462E0
4.175400000E1,9.117215872E-1,1.167901158E0,6.665572166E0
4.177400156E1,1.241201997E0,9.092411995E-1,7.253148079E0
4.179600000E1,1.613567472E0,4.027621746E-1,7.719088554E0
4.181600000E1,1.475335836E0,2.763866484E-1,8.419516563E0
4.183800000E1,8.507556319E-1,3.731890023E-1,9.313138008E0
4.185800000E1,3.144065440E-1,2.084775120E-1,1.090787792E1
4.187800000E1,-6.174167246E-2,-1.153430641E-1,1.266597843E1
4.189800469E1,-4.931097850E-2,-4.524083436E-1,1.422776413E1
4.191999844E1,3.608157635E-1,-7.065863609E-1,1.458020020E1
4.194000000E1,6.113450527E-1,-5.168123841E-1,1.407718754E1
4.196200781E1,6.770036221E-1,-2.837224603E-1,1.278375435E1
4.198201094E1,7.667478919E-1,-1.253220886E-1,1.185113621E1
4.200400000E1,1.115515947E0,-4.296346903E-1,1.210599327E1
4.202600000E1,2.125256300E0,-1.486588597E0,1.247206783E1
4.204600000E1,2.880147934E0,-2.100777864E0,1.106239986E1
4.206600000E1,2.630739212E0,-1.733727694E0,9.358560562E0
4.208600000E1,1.105948806E0,-8.302899599E-1,9.962904930E0
4.210600000E1,-9.800904244E-2,-6.390699148E-1,1.259840393E1
4.212600000E1,-2.812899649E-1,-9.959017038E-1,1.388248158E1
4.214600000E1,2.283206433E-1,-8.858067393E-1,1.129261589E1
4.216600000E1,3.786286414E-1,-1.069250479E-1,8.242508888E0
4.218600000E1,3.696647286E-2,5.462228060E-1,6.960241318E0
