"Time (s)","Gyroscope x (rad/s)","Gyroscope y (rad/s)","Gyroscope z (rad/s)"
1.528541250E-1,1.320690662E-1,1.794198528E-2,1.402721167E0
1.748510000E-1,7.251843065E-2,1.369559914E-1,1.534476042E0
1.948588130E-1,9.618509561E-2,3.551745117E-1,1.664031863E0
2.168510000E-1,5.267403647E-2,5.369505286E-1,1.801005244E0
2.368556880E-1,-9.105382860E-2,5.907765031E-1,2.003184080E0
2.588510000E-1,-1.972745657E-1,3.861890137E-1,2.224945784E0
2.788572500E-1,-2.138551921E-1,8.721410483E-2,2.329054594E0
3.008510000E-1,-2.033308595E-1,8.916886896E-2,2.439987659E0
3.228588130E-1,-1.428901106E-1,3.746174574E-1,2.600854635E0
3.448588130E-1,-7.548549026E-2,5.038591027E-1,2.760308027E0
3.668510000E-1,-1.034980267E-1,3.745301962E-1,2.982767582E0
3.868541250E-1,-2.161241174E-1,2.079559863E-1,3.107384205E0
4.088494380E-1,-3.519281745E-1,1.301317513E-1,3.114313126E0
4.288510000E-1,-4.477991164E-1,2.074149251E-1,3.078254700E0
4.488510000E-1,-5.052379370E-1,2.747497261E-1,3.041096687E0
4.688510000E-1,-4.420220852E-1,2.085668445E-1,3.036942720E0
4.888510000E-1,-2.469815463E-1,6.318091601E-2,3.001914024E0
5.088510000E-1,-8.136724681E-2,2.674891651E-1,2.898136616E0
5.288510000E-1,-4.574507847E-2,5.993286371E-1,2.773607492E0
5.488510000E-1,-1.106189713E-1,7.146773934E-1,2.741353750E0
5.708510000E-1,-1.206022501E-1,5.978450775E-1,2.751511574E0
5.928510000E-1,-2.265437320E-2,4.402593076E-1,2.660876513E0
6.128510000E-1,8.552113175E-2,3.244567215E-1,2.429585695E0
6.328525630E-1,1.021366641E-1,3.393269181E-1,2.202780008E0
6.548510000E-1,3.408627957E-2,3.816685975E-1,2.065562248E0
6.748510000E-1,1.008800324E-2,4.063301086E-1,2.063467979E0
6.948525630E-1,5.778785050E-2,4.040088058E-1,2.136841536E0
7.168525630E-1,6.541494280E-2,4.082499743E-1,2.230565786E0
7.388510000E-1,-5.468116701E-2,5.803219676E-1,2.297062635E0
7.588510000E-1,-1.662426144E-1,8.139342666E-1,2.314271688E0
7.788510000E-1,-1.123293936E-1,9.478533864E-1,2.298459053E0
7.988510000E-1,9.913469665E-3,9.531068206E-1,2.209115505E0
8.188525630E-1,-2.633701824E-2,8.347211480E-1,2.034425497E0
8.408525630E-1,-2.860245705E-1,5.040685534E-1,1.928519011E0
8.628510000E-1,-5.074195862E-1,1.711469889E-1,1.900488973E0
8.828556880E-1,-5.596398115E-1,1.052433532E-2,1.831216931E0
9.048525630E-1,-5.131617188E-1,-5.393067375E-3,1.636228681E0
9.268525630E-1,-3.447374403E-1,1.517738253E-1,1.316013217E0
9.488510000E-1,-1.498888731E-1,3.460987806E-1,1.051316500E0
9.688510000E-1,-4.424409568E-2,5.382071733E-1,9.400866628E-1
9.888510000E-1,-9.744173288E-2,6.415306926E-1,8.956854939E-1
1.008851000E0,-2.179567218E-1,6.260147095E-1,8.388925195E-1
1.028851000E0,-3.603406847E-1,5.208760500E-1,7.276277542E-1
1.048851000E0,-5.454677343E-1,4.649731517E-1,6.312157512E-1
1.068851000E0,-6.058561206E-1,3.022561073E-1,5.743355155E-1
1.088851000E0,-4.021064043E-1,6.798057258E-2,4.386535883E-1
1.108851000E0,-1.222428605E-1,-5.326744914E-2,2.737897933E-1
1.128851000E0,2.607521974E-2,6.829473376E-2,2.032784969E-1
1.148851000E0,-7.120943163E-3,1.446179748E-1,2.136457562E-1
1.168851000E0,-1.292765439E-1,1.072853878E-1,2.419549972E-1
1.190849438E0,-2.477494925E-1,6.459463388E-2,3.152588308E-1
1.210851000E0,-3.211929500E-1,3.810053691E-2,5.052553415E-1
1.230869750E0,-2.440319359E-1,9.538224339E-2,6.601184011E-1
1.252851000E0,1.029744279E-3,1.151917316E-2,7.313802242E-1
1.272851000E0,1.624901593E-1,-1.988104582E-1,7.461805940E-1
1.292851000E0,1.513898522E-1,-3.051708043E-1,7.227932215E-1
1.312851000E0,1.321214288E-1,-1.371479779E-1,6.695257425E-1
1.332851000E0,1.931730360E-1,1.874483563E-2,7.200530171E-1
1.352851000E0,1.761560738E-1,3.768165782E-2,9.196838140E-1
1.372851000E0,9.943141043E-2,-3.291691095E-2,1.186893702E0
1.392851000E0,8.244935423E-2,4.536110535E-2,1.335421205E0
1.412851000E0,1.083500385E-1,7.204718888E-2,1.316815972E0
1.432851000E0,8.340928704E-2,-5.044001620E-3,1.274544120E0
1.452852563E0,-4.852015525E-3,-8.323474973E-2,1.288890719E0
1.474851000E0,-3.303908184E-2,-1.314232964E-2,1.363346457E0
1.494851000E0,9.269443899E-2,1.151742786E-1,1.300392509E0
1.514851000E0,1.186998412E-1,2.811376452E-1,1.198814273E0
1.536849438E0,-1.656317525E-2,3.902207017E-1,1.231190205E0
1.556851000E0,-1.449844986E-1,4.414810240E-1,1.188464522E0
1.576851000E0,-1.273741275E-1,3.503399491E-1,1.011784792E0
1.596851000E0,-4.642575979E-3,1.530479193E-1,8.804662228E-1
1.616851000E0,-5.623450875E-2,1.965066195E-1,8.821592331E-1
1.638849438E0,-3.816511333E-1,1.958782971E-1,1.105020285E0
1.658849438E0,-5.024104714E-1,-2.232450694E-1,1.291124821E0
1.678851000E0,-2.770012021E-1,-6.083344817E-1,1.203805923E0
1.698854125E0,-4.365068302E-2,-5.836555362E-1,9.206088185E-1
1.720851000E0,-5.160938576E-2,-3.324503005E-1,7.957130671E-1
1.742851000E0,-1.894554943E-1,-1.824392676E-1,8.035495877E-1
1.762851000E0,-2.719222903E-1,-2.010793835E-1,9.125279188E-1
1.782851000E0,-2.519731820E-1,-2.156179696E-1,1.007543683E0
1.802858813E0,-9.187413007E-2,-2.298773080E-1,9.266476631E-1
1.824851000E0,3.523819894E-2,-2.409427017E-1,7.616617084E-1
1.844852563E0,7.330382941E-4,-1.937664598E-1,6.674662828E-1
1.866851000E0,-1.723512560E-1,-1.020319462E-1,6.595773697E-1
1.886851000E0,-3.674092591E-1,-3.508111835E-2,7.357435226E-1
1.906851000E0,-4.084768593E-1,6.784094870E-2,7.383092046E-1
1.926851000E0,-2.618691921E-1,4.949753731E-2,6.497337222E-1
1.946851000E0,-1.123468429E-1,9.194394201E-2,5.938831568E-1
1.968851000E0,-9.546951205E-2,2.534043491E-1,5.926439762E-1
1.988851000E0,-1.527861208E-1,2.908765674E-1,5.766567588E-1
2.008851000E0,-1.872214675E-1,2.690250576E-1,4.943121374E-1
2.028851000E0,-2.586577833E-1,2.413964868E-1,4.695808291E-1
2.050851000E0,-3.181037009E-1,1.808161139E-1,5.305103064E-1
2.070851000E0,-2.611885071E-1,8.213519305E-2,5.692566037E-1
2.092851000E0,1.542347521E-1,-2.060012072E-1,3.629935682E-1
2.112851000E0,6.571339369E-1,-4.802622497E-1,-1.057494953E-1
2.132851000E0,9.747140408E-1,-8.106879592E-1,-5.207364559E-1
2.152851000E0,1.122979760E0,-1.203090310E0,-6.870488524E-1
2.172851000E0,1.080201745E0,-1.138652802E0,-5.249077678E-1
2.192851000E0,7.396705151E-1,-5.418374538E-1,-1.381428093E-1
2.212851000E0,2.833541930E-1,-1.335700452E-1,2.661976218E-1
2.232851000E0,1.381602585E-1,3.255039081E-2,4.408352673E-1
2.252851000E0,1.716356725E-1,4.212526679E-1,2.286206782E-1
2.272851000E0,1.668883860E-1,6.403438449E-1,-2.912954427E-2
2.292851000E0,2.147976756E-1,2.157401443E-1,-1.024333760E-1
2.312851000E0,1.924923658E-1,-5.035100579E-1,3.947934881E-2
2.332851000E0,2.292838991E-1,-9.530719519E-1,1.589645892E-1
2.352851000E0,3.626270592E-1,-9.634566307E-1,7.611380517E-2
2.372852563E0,4.240102768E-1,-5.535660982E-1,-6.433283538E-2
2.394851000E0,2.903180718E-1,-8.815658092E-2,-1.399928629E-1
2.414851000E0,1.590867639E-1,-3.958406672E-2,5.656611919E-2
2.434851000E0,3.031811416E-1,-3.478441015E-2,3.275459409E-1
2.454851000E0,5.879490376E-1,3.839724232E-4,3.445279896E-1
2.474851000E0,5.940577388E-1,1.502379477E-1,1.605004817E-1
2.494851000E0,3.388382196E-1,2.444857210E-1,4.700171575E-2
2.514852563E0,1.368687153E-1,1.479341090E-1,2.193878777E-2
2.536849438E0,-2.719222941E-2,1.825614423E-1,2.251474652E-3
2.556851000E0,-3.486644328E-1,4.796862900E-1,7.757988572E-2
2.576851000E0,-6.570990086E-1,7.237007618E-1,3.130946159E-1
2.596851000E0,-6.590712070E-1,6.950598955E-1,5.005778670E-1
2.616851000E0,-3.571990728E-1,4.315152168E-1,5.473352671E-1
2.638849438E0,-9.386380762E-2,1.582839042E-1,4.114264548E-1
2.658849438E0,-5.585053470E-3,-9.082693607E-2,1.910611987E-1
2.678851000E0,8.798204362E-2,-2.942101657E-1,-1.228886321E-1
2.698860375E0,5.794493016E-3,8.213519305E-2,-3.940778971E-1
2.720849438E0,-5.546830893E-1,6.838200092E-1,-4.521624446E-1
2.740849438E0,-1.114846468E0,7.661820650E-1,-1.698903441E-1
2.760849438E0,-1.108580828E0,1.637991518E-1,1.446179748E-1
2.780851000E0,-6.566801071E-1,-5.683664680E-1,1.858601123E-1
2.800851000E0,-2.459168881E-1,-8.424006104E-1,-6.981316954E-3
2.820851000E0,-1.880592257E-1,-7.396181822E-1,-3.084695041E-1
2.840851000E0,-4.519355595E-1,-1.215796322E-1,-3.941651583E-1
2.860851000E0,-5.939704776E-1,4.767890573E-1,-3.097959459E-1
2.882851000E0,-5.058138967E-1,7.406479120E-1,-2.462310493E-1
2.902855688E0,-3.953519762E-1,7.989768386E-1,-1.429250091E-1
2.924851000E0,-3.604279459E-1,8.317017555E-1,-3.319616243E-2
2.944851000E0,-2.990446985E-1,7.003831863E-1,1.092576142E-2
2.964851000E0,-1.391201913E-1,3.510904312E-1,-3.045599535E-2
2.984851000E0,-3.815289587E-2,1.544267386E-1,-1.332209855E-1
3.004851000E0,-5.576327071E-2,2.552194893E-1,-2.461612374E-1
3.024851000E0,-3.007202223E-2,3.836931884E-1,-3.458369970E-1
3.044851000E0,1.111425683E-1,4.434008896E-1,-4.468042850E-1
3.064851000E0,2.125287354E-1,3.972893059E-1,-5.403539538E-1
3.084851000E0,1.580221057E-1,2.499660552E-1,-5.436351299E-1
3.104851000E0,2.045525797E-2,-5.017821491E-2,-4.878369868E-1
3.124851000E0,5.733406544E-2,-3.947760165E-1,-4.285830557E-1
3.144851000E0,2.590941191E-1,-5.023232102E-1,-5.048015714E-1
3.164851000E0,4.361228645E-1,-3.976907134E-1,-6.481280327E-1
3.184851000E0,5.177519321E-1,-2.396860719E-1,-7.559544444E-1
3.204851000E0,5.542991161E-1,-1.486322433E-1,-7.529525161E-1
3.224851000E0,5.732010603E-1,-1.144412383E-1,-7.400196195E-1
3.244851000E0,5.635144711E-1,-3.002140820E-1,-8.091346622E-1
3.264855688E0,4.670326412E-1,-5.236511230E-1,-8.881108165E-1
3.286851000E0,2.215171903E-1,-3.612307906E-1,-9.162803888E-1
3.306851000E0,7.229153812E-2,-4.462806880E-2,-9.070476294E-1
3.328851000E0,2.072927505E-1,-1.512153298E-1,-8.502720594E-1
3.348851000E0,4.439594150E-1,-3.308097124E-1,-9.461604357E-1
3.368851000E0,4.613079727E-1,-2.132268697E-1,-1.173175454E0
3.388852563E0,2.428102046E-1,-4.012512043E-2,-1.249568462E0
3.410863500E0,-1.252273768E-1,2.296329737E-1,-1.124690175E0
3.430869750E0,-2.639112473E-1,2.201558352E-1,-9.175719619E-1
3.452851000E0,-1.287529320E-1,-2.805965841E-1,-6.996152401E-1
3.472851000E0,1.022762954E-1,-6.880437136E-1,-5.687155128E-1
3.492851000E0,3.458020687E-1,-6.809925437E-1,-5.694485903E-1
3.512851000E0,5.266181827E-1,-4.287750423E-1,-6.442359090E-1
3.532854125E0,5.835508108E-1,-1.409527957E-1,-6.637487411E-1
3.554851000E0,5.738468170E-1,1.768018492E-2,-5.892755389E-1
3.574851000E0,4.882907569E-1,8.059930801E-2,-4.911705554E-1
3.594851000E0,3.556457460E-1,1.282118857E-1,-3.626095951E-1
3.614851000E0,1.750390679E-1,1.864535213E-1,-2.099980116E-1
3.634851000E0,-1.262396574E-1,2.325476706E-1,9.930923581E-3
3.654851000E0,-3.106162548E-1,2.226516455E-1,1.666091233E-1
3.676849438E0,-2.706133127E-1,1.666789502E-1,1.130100712E-1
3.696851000E0,-1.111774743E-1,1.258382387E-2,-7.414158434E-2
3.716851000E0,8.552113432E-4,-2.559350729E-1,-1.584933549E-1
3.736851000E0,1.404990070E-2,-5.350481272E-1,-5.539675057E-2
3.756851000E0,-4.956734926E-2,-5.692914724E-1,1.755452156E-1
3.776851000E0,-1.121199504E-1,-4.652524292E-1,3.970274925E-1
3.796854125E0,-1.314581931E-1,-2.031563222E-1,5.255360603E-1
3.818851000E0,9.320057929E-3,1.434137076E-1,4.927937090E-1
3.840851000E0,1.554041207E-1,2.827956975E-1,3.721390963E-1
3.860851000E0,1.401150376E-1,2.403143793E-1,3.336895108E-1
3.882855688E0,-7.103490178E-3,3.792076707E-1,3.820351064E-1
3.904851000E0,-1.436056942E-1,4.273787737E-1,4.346044362E-1
3.924851000E0,-1.547234356E-1,3.629761338E-1,4.930031598E-1
3.944851000E0,-1.890889704E-1,3.544589281E-1,4.451113045E-1
3.964851000E0,-3.342654705E-1,2.416408360E-1,4.148473144E-1
3.984851000E0,-4.911181927E-1,-4.499458894E-2,4.874704480E-1
4.004851000E0,-4.114439189E-1,-4.534539878E-1,5.586100817E-1
4.024851000E0,-1.212480217E-1,-6.535909176E-1,5.374741554E-1
4.044851000E0,1.534842551E-1,-4.607669115E-1,4.544488192E-1
4.064851000E0,3.125710189E-1,-7.023204863E-2,3.743556738E-1
4.084851000E0,3.541796505E-1,2.237337530E-1,3.252944648E-1
4.104851000E0,3.056769669E-1,3.200410306E-1,3.477045000E-1
4.124851000E0,1.936268210E-1,2.786418200E-1,4.594753683E-1
4.144851000E0,1.134638563E-1,2.029817849E-1,5.649456382E-1
4.164851000E0,7.372270525E-2,2.046049535E-1,6.216513515E-1
4.184851000E0,9.937904775E-2,1.635373533E-1,6.027669311E-1
4.204851000E0,1.393645406E-1,9.452702850E-2,5.124112368E-1
4.224851000E0,1.159247681E-1,3.464478627E-2,4.113566577E-1
4.244851000E0,8.203047328E-3,1.136209350E-2,3.664318621E-1
4.264851000E0,-1.369385272E-1,-1.932079531E-2,4.174827635E-1
4.284851000E0,-2.503849268E-1,5.183627829E-2,4.402418435E-1
4.304851000E0,-3.133563995E-1,1.024333760E-1,3.559598923E-1
4.324851000E0,-3.815115094E-1,1.309171468E-1,2.759365439E-1
4.344851000E0,-4.852364361E-1,1.872563809E-1,2.007477731E-1
4.364851000E0,-5.625370741E-1,1.460666060E-1,1.688082516E-1
4.384851000E0,-5.796762109E-1,1.911484599E-1,1.651255935E-1
4.404851000E0,-4.191233516E-1,8.621926606E-2,8.848819137E-2
4.424851000E0,-1.788438857E-1,-1.422094256E-1,-9.506808221E-2
4.444851000E0,-5.518731102E-2,-3.152588308E-1,-2.962172925E-1
4.464851000E0,-9.347983450E-2,-2.790257931E-1,-3.907442987E-1
4.484851000E0,-1.582140923E-1,-4.155628756E-2,-3.962421119E-1
4.504851000E0,-8.763298392E-2,1.370432526E-1,-4.610112607E-1
4.524851000E0,5.846852809E-2,6.265731901E-2,-5.036147833E-1
4.544851000E0,9.520771354E-2,2.281145379E-2,-4.277103841E-1
4.564851000E0,5.543165654E-2,9.272934496E-2,-2.590068579E-1
4.584851000E0,2.233672440E-1,-1.157153305E-2,-2.067342550E-1
4.604851000E0,5.059709549E-1,-1.353677362E-1,-3.423637748E-1
4.624851000E0,6.113015413E-1,-1.554564834E-1,-5.882981420E-1
4.644851000E0,5.124112368E-1,1.186823938E-3,-7.546803951E-1
4.664851000E0,2.865830660E-1,3.252944648E-1,-7.713133693E-1
4.684851000E0,1.538158655E-1,3.661002517E-1,-7.588167787E-1
4.704851000E0,2.216568142E-1,-1.141270772E-1,-6.265906692E-1
4.724851000E0,2.937389016E-1,-6.592283249E-1,-4.242022634E-1
4.744851000E0,1.574461460E-1,-6.838025451E-1,-2.514670491E-1
4.764851000E0,-8.377580671E-4,-2.414139360E-1,-1.114916354E-1
4.784851000E0,1.537984163E-1,2.094394993E-3,-9.800023586E-2
4.804851000E0,5.486617088E-1,-5.784020945E-2,-1.060985625E-1
4.824851000E0,8.002683520E-1,-1.311440468E-1,-1.052084491E-1
4.844851000E0,6.252816319E-1,-1.877799779E-1,2.558652684E-2
4.864851000E0,1.761560738E-1,-1.405339092E-1,3.262194991E-1
4.884851000E0,7.993607782E-3,-5.539675057E-2,5.413312912E-1
4.904851000E0,1.810604632E-1,-1.850049011E-2,5.536533594E-1
4.924851000E0,2.717303038E-1,-4.440117627E-2,5.036496520E-1
4.944851000E0,1.339714676E-1,7.412413508E-2,5.507037640E-1
4.964851000E0,-3.549999744E-2,2.386039644E-1,6.496813297E-1
4.984851000E0,-1.370607018E-1,1.888969839E-1,7.523939610E-1
5.004851000E0,-1.945867538E-1,6.956882030E-2,8.226609230E-1
5.024851000E0,-2.781007588E-1,1.956339478E-1,9.291085601E-1
5.044851000E0,-1.704663038E-1,2.076069117E-1,9.264207482E-1
5.064851000E0,1.343205422E-1,5.312782153E-2,7.161958814E-1
5.084851000E0,2.964441776E-1,5.698499829E-2,5.334424376E-1
5.104851000E0,3.561518788E-1,2.315528244E-1,4.467519224E-1
5.124851000E0,3.125186563E-1,4.021064043E-1,4.600338936E-1
5.144851000E0,-7.661995478E-3,3.841993213E-1,5.977403522E-1
5.164852563E0,-3.637266159E-1,3.169517964E-2,7.587120533E-1
5.186857250E0,-4.758291245E-1,-4.329638183E-1,7.835306525E-1
5.208849438E0,-4.770683050E-1,-2.984687686E-1,7.005227804E-1
5.228849438E0,-4.669628441E-1,1.001993492E-1,6.681993008E-1
5.248851000E0,-3.920707703E-1,4.138175547E-1,6.439741254E-1
5.268851000E0,-2.400002182E-1,4.612730742E-1,5.727821589E-1
5.288851000E0,-1.174955666E-1,3.650356233E-1,5.164603591E-1
5.310849438E0,-3.991568089E-2,3.684389889E-1,5.423959494E-1
5.330868188E0,6.382668763E-2,3.737273514E-1,5.022708774E-1
5.352857250E0,1.505520940E-1,3.142814338E-1,3.449992239E-1
5.374851000E0,7.642796636E-2,2.341010123E-1,1.596976221E-1
5.394851000E0,-4.670501128E-2,1.459095180E-1,5.272639543E-2
5.414851000E0,-1.350710243E-1,8.466592431E-2,3.602359444E-2
5.436851000E0,-2.521477044E-1,4.178318381E-2,1.242499873E-1
5.458851000E0,-3.177720904E-1,1.023461074E-1,1.861917228E-1
5.478851000E0,-2.861641943E-1,1.689478755E-1,1.773778051E-1
5.498858813E0,-2.018822283E-1,1.199041158E-1,1.340761930E-1
5.520849438E0,-2.199114859E-1,-7.229153812E-2,6.702063978E-2
5.540851000E0,-3.105464280E-1,-2.650108039E-1,1.844812930E-2
5.560851000E0,-3.762929738E-1,-2.726029754E-1,2.038544603E-2
5.582852563E0,-3.167248964E-1,-1.034107581E-1,-2.345722541E-2
5.602857250E0,-2.506292760E-1,2.979277074E-2,-1.026777178E-1
5.624851000E0,-1.868025959E-1,1.061160192E-1,-1.446354389E-1
5.644851000E0,-5.733406544E-2,1.255066246E-1,-2.394766212E-1
5.664852563E0,1.600641459E-1,-2.106612362E-2,-3.518060148E-1
5.684852563E0,3.680899441E-1,-2.561794221E-1,-4.735601842E-1
5.704852563E0,3.400774002E-1,-4.567875564E-1,-6.317743063E-1
5.726851000E0,-7.463027537E-2,-8.000589162E-2,-6.990392804E-1
5.746851000E0,-4.047243893E-1,3.480710089E-1,-6.232221723E-1
5.766851000E0,-3.239680231E-1,2.694788277E-1,-6.499257088E-1
5.786851000E0,3.481931984E-2,-9.686577134E-3,-8.388925195E-1
5.808849438E0,1.047197580E-1,6.265731901E-2,-9.558120966E-1
5.828851000E0,-2.772630155E-1,1.954419762E-1,-8.635016680E-1
5.850851000E0,-7.550469041E-1,-1.291543692E-1,-5.697453022E-1
5.872851000E0,-8.316144943E-1,-4.640655816E-1,-1.411273181E-1
5.892851000E0,-4.040611684E-1,-3.704810441E-1,-9.602801502E-2
5.912857250E0,1.256287992E-1,1.427853853E-1,-2.704387605E-1
5.934851000E0,6.965783834E-1,1.453510225E-1,-3.992615044E-1
5.954851000E0,1.067338705E0,-1.361356769E-2,-4.985882044E-1
5.974852563E0,1.107132196E0,-2.134188563E-1,-6.225589514E-1
5.996849438E0,7.441036701E-1,-3.236014843E-1,-6.614623070E-1
6.016851000E0,2.623753548E-1,-2.999697328E-1,-4.806287587E-1
6.038851000E0,-2.605776489E-2,-2.804569602E-1,-5.557128415E-2
6.060851000E0,5.438445881E-2,-2.896024883E-1,3.892258704E-1
6.080851000E0,2.488490492E-1,-2.375393175E-2,5.290790796E-1
6.100851000E0,2.518510222E-1,2.872462869E-1,3.665191531E-1
6.120851000E0,6.906268001E-2,4.075518250E-1,1.666091233E-1
6.140851000E0,-8.358381689E-2,4.290193915E-1,1.230980754E-1
6.162854125E0,-1.987929940E-1,4.178318083E-1,1.855983138E-1
6.184851000E0,-2.325302213E-1,1.972920150E-1,3.122568429E-1
6.204851000E0,-1.879719645E-1,-6.599090248E-2,3.909362853E-1
6.224851000E0,-4.342379048E-2,-8.452629298E-2,3.937637210E-1
6.244851000E0,2.001368999E-1,-3.735004691E-3,2.899166346E-1
6.264851000E0,3.051184714E-1,1.788962483E-1,1.475501359E-1
6.284851000E0,7.431612164E-2,4.192106426E-1,1.700823307E-1
6.304851000E0,-2.953620553E-1,3.507937193E-1,4.088259339E-1
6.324851000E0,-3.535338938E-1,-3.255039081E-2,6.343050003E-1
6.344851000E0,-1.110203937E-1,-3.572863638E-1,6.054198146E-1
6.364851000E0,1.248259470E-1,-2.958682179E-1,4.626867771E-1
6.384851000E0,2.590417564E-1,-9.557422996E-2,2.790432274E-1
6.404851000E0,2.884680033E-1,1.434660610E-2,1.231155246E-1
6.424851000E0,1.554215699E-1,-1.385791413E-2,9.222319722E-2
6.444851000E0,-1.625774205E-1,6.183701381E-2,1.361182332E-1
6.464851000E0,-5.154830217E-1,3.476695716E-1,2.314655632E-1
6.484851000E0,-6.232745051E-1,4.983438551E-1,3.755948544E-1
6.504851000E0,-5.331980586E-1,4.770857394E-1,5.236685872E-1
6.524851000E0,-3.243345320E-1,4.587947130E-1,5.802347064E-1
6.544851000E0,-1.356120855E-1,3.704635799E-1,4.398404360E-1
6.564851000E0,-4.752531648E-2,2.513448596E-1,2.006779611E-1
6.584851000E0,-4.253367335E-2,1.597325355E-1,-7.260569930E-2
6.604851000E0,-1.105142459E-1,1.995260417E-1,-2.926917076E-1
6.624851000E0,-2.391973734E-1,3.372499645E-1,-4.022983909E-1
6.644851000E0,-3.938510120E-1,4.347964227E-1,-3.917565942E-1
6.664851000E0,-3.558028340E-1,4.218286276E-1,-3.089407384E-1
6.684851000E0,-1.377413869E-1,3.366914690E-1,-3.009471297E-1
6.704851000E0,4.178318381E-2,9.993755072E-2,-3.833964765E-1
6.724851000E0,1.045626774E-1,-1.156804189E-1,-4.713610709E-1
6.744851000E0,1.432566196E-1,-2.506118119E-1,-5.297423601E-1
6.764851000E0,2.570171952E-1,-4.028918147E-1,-5.429545045E-1
6.784851000E0,4.391771853E-1,-6.182305217E-1,-6.382669210E-1
6.804851000E0,5.286427736E-1,-7.230375409E-1,-8.048411012E-1
6.824851000E0,4.646590054E-1,-5.365316868E-1,-8.952142596E-1
6.844851000E0,3.758566678E-1,-2.211332172E-1,-1.002429843E0
6.864851000E0,3.130073547E-1,-4.518657550E-2,-1.195725083E0
6.884851000E0,1.379333735E-1,1.704663038E-1,-1.330499411E0
6.904851000E0,-1.730493903E-1,6.122266054E-1,-1.307670474E0
6.924851000E0,-2.714859545E-1,4.539077878E-1,-1.069031596E0
6.944851000E0,1.055051535E-1,-3.304082751E-1,-8.001462221E-1
6.964851000E0,6.547602415E-1,-9.635788202E-1,-8.373740911E-1
6.984852563E0,8.607614636E-1,-1.016933560E0,-1.035835505E0
7.006851000E0,7.171558142E-1,-8.540943265E-1,-1.206162095E0
7.026851000E0,4.876973629E-1,-8.460658193E-1,-1.212532640E0
7.046851000E0,2.911209166E-1,-7.769856453E-1,-1.131287456E0
7.068849438E0,4.359832406E-2,-4.421093464E-1,-9.493020177E-1
7.088849438E0,-8.735372871E-2,-1.154709831E-1,-7.399497628E-1
7.108851000E0,-7.262314856E-2,1.343554407E-1,-5.800077915E-1
7.130869750E0,-1.457349956E-2,2.487268746E-1,-4.109901190E-1
7.152851000E0,-6.637486815E-2,4.042357206E-1,-2.105565220E-1
7.172855688E0,-1.730144918E-1,5.639682412E-1,-8.834856749E-2
7.194851000E0,-3.727848828E-1,6.043551564E-1,3.143338114E-2
7.214851000E0,-5.671447515E-1,4.889365435E-1,1.196772233E-1
7.234851000E0,-7.039610744E-1,4.670675695E-1,2.040988058E-1
7.254851000E0,-6.544635892E-1,4.491255879E-1,2.167000771E-1
7.274851000E0,-4.811872840E-1,3.169517815E-1,1.429948211E-1
7.294855688E0,-2.301042080E-1,7.445574552E-2,5.452408642E-2
7.316851000E0,-2.385516018E-1,3.758043051E-1,1.900663599E-2
7.336851000E0,-5.481032133E-1,1.003773808E0,2.322684228E-1
7.356851000E0,-6.678153276E-1,1.000597239E0,6.773797274E-1
7.376851000E0,-3.904825151E-1,2.721841037E-1,9.623047113E-1
7.396851000E0,-6.536258012E-2,-5.633224845E-1,8.959473372E-1
7.416851000E0,-8.178612590E-2,-8.275478482E-1,6.768037677E-1
7.436851000E0,-3.314903975E-1,-3.953694403E-1,4.742059708E-1
7.456851000E0,-4.963541925E-1,2.911558151E-1,4.349535108E-1
7.476851000E0,-3.748792708E-1,4.672595561E-1,3.665889502E-1
7.498857250E0,-1.177748144E-1,2.475575060E-1,3.177371919E-1
7.520851000E0,7.679448463E-3,-1.061160192E-1,2.800555229E-1
7.540851000E0,-1.228711754E-2,-4.310963154E-1,2.922903001E-1
7.560851000E0,-1.117883399E-1,-6.727197170E-1,3.182258904E-1
7.582852563E0,-2.688156068E-1,-7.097381353E-1,3.305130005E-1
7.602852563E0,-3.695385754E-1,-5.257629752E-1,3.548079729E-1
7.624851000E0,-3.334451616E-1,-1.682497412E-1,3.714584112E-1
7.644851000E0,-2.350085825E-1,1.303761005E-1,2.694962919E-1
7.664851000E0,-2.047096640E-1,2.759714723E-1,1.591042131E-1
7.684851000E0,-2.008175850E-1,1.630137488E-2,4.935790971E-2
7.704851000E0,-2.735105455E-1,-3.040538132E-1,-1.324879378E-1
7.724851000E0,-2.862339914E-1,-4.849048257E-1,-3.557330072E-1
7.744851000E0,-4.871213809E-2,-4.305552840E-1,-6.100100279E-1
7.764851000E0,3.129375279E-1,-2.462136000E-1,-8.511795998E-1
7.784851000E0,5.748067498E-1,-1.600815952E-1,-9.719564319E-1
7.804851000E0,6.923372149E-1,-2.448696941E-1,-1.000370383E0
7.824851000E0,7.730412483E-1,-5.549623370E-1,-1.063865423E0
7.844851000E0,7.540869713E-1,-7.522543669E-1,-1.167468190E0
7.864851000E0,6.398202777E-1,-6.627888083E-1,-1.116993308E0
7.884851000E0,5.355018973E-1,-5.864131451E-1,-9.968098998E-1
7.904851000E0,4.578696787E-1,-4.473104179E-1,-1.062731028E0
7.924851000E0,1.874658167E-1,-1.263618376E-2,-1.168707371E0
7.944851000E0,-2.550624013E-1,6.542541385E-1,-1.169946551E0
7.964851000E0,-3.959977627E-1,5.714207888E-1,-1.080568194E0
7.984851000E0,-5.218534544E-2,-2.200860232E-1,-9.489878416E-1
8.004851000E0,3.729768693E-1,-7.287447453E-1,-9.479057789E-1
8.024851000E0,4.903328121E-1,-4.298397005E-1,-1.017317533E0
8.044851000E0,3.906221390E-1,-9.841911495E-2,-9.168912768E-1
8.064851000E0,5.536184311E-1,-3.203377426E-1,-6.870313883E-1
8.084851000E0,9.081471562E-1,-7.761130333E-1,-5.806186795E-1
8.104851000E0,1.035207152E0,-1.007526159E0,-4.815886915E-1
8.124851000E0,9.088976383E-1,-9.577319622E-1,-2.918365002E-1
8.144851000E0,6.405358315E-1,-7.796211243E-1,-3.275983036E-2
8.164851000E0,5.604426861E-1,-6.494370103E-1,2.049190998E-1
8.186849438E0,7.408049703E-1,-4.050036371E-1,2.939134538E-1
8.206851000E0,8.793317676E-1,-2.220058814E-2,2.407158166E-1
8.226851000E0,8.622450233E-1,3.141069114E-1,2.603856623E-1
8.248851000E0,5.777738094E-1,6.286501288E-1,4.086339474E-1
8.268851000E0,3.047344983E-1,5.800776482E-1,4.694412053E-1
8.288851000E0,-2.227040194E-2,4.972442985E-1,5.818229318E-1
8.308851000E0,-3.469365537E-1,5.095139742E-1,7.301235795E-1
8.328851000E0,-4.768239558E-1,5.105437040E-1,7.587469816E-1
8.348851000E0,-4.406607151E-1,5.435130000E-1,7.439814806E-1
8.368851000E0,-4.113740921E-1,6.707474589E-1,8.316319585E-1
8.388851000E0,-5.214171410E-1,8.138644695E-1,9.627759457E-1
8.410866625E0,-6.555980444E-1,8.037765026E-1,1.156053782E0
8.430869750E0,-6.965957880E-1,7.355515361E-1,1.301631689E0
8.452855688E0,-7.997098565E-1,5.558350086E-1,1.405827761E0
8.472855688E0,-1.021994948E0,2.699151635E-1,1.470544577E0
8.494851000E0,-1.138740063E0,2.232276089E-2,1.530025482E0
8.514851000E0,-9.648529291E-1,-2.588323317E-2,1.520164371E0
8.534851000E0,-6.187890172E-1,1.476548519E-2,1.429110527E0
8.554851000E0,-3.189938366E-1,8.897688240E-2,1.265695333E0
8.574851000E0,-1.512851417E-1,1.278279126E-1,1.094478488E0
8.594851000E0,-1.307775229E-1,1.063429117E-1,9.590409398E-1
8.614851000E0,-2.531774640E-1,2.507514656E-1,9.149016142E-1
8.634851000E0,-3.614576757E-1,3.799581826E-1,8.563807011E-1
8.654851000E0,-4.345520735E-1,3.443709016E-1,7.425503135E-1
8.674851000E0,-5.470036268E-1,2.460390627E-1,6.442533731E-1
8.694851000E0,-7.017794251E-1,2.911034524E-1,6.321931481E-1
8.714851000E0,-6.904173493E-1,5.091474652E-1,5.802870393E-1
8.734851000E0,-4.919385016E-1,7.824485302E-1,3.979874253E-1
8.754851000E0,-9.398598224E-2,7.044497728E-1,1.364323944E-1
8.774854125E0,4.144284427E-1,3.059562147E-1,-1.721941829E-1
8.796851000E0,7.146425247E-1,-2.437526882E-1,-4.513247013E-1
8.818851000E0,6.003409028E-1,-5.529377460E-1,-5.800601840E-1
8.838851000E0,4.327543974E-1,-5.514891148E-1,-5.751383305E-1
8.860851000E0,4.292811751E-1,-4.959003925E-1,-6.164153814E-1
8.880851000E0,4.845557511E-1,-3.130247891E-1,-6.984283924E-1
8.900851000E0,4.268377125E-1,7.634069771E-2,-6.877818704E-1
8.920851000E0,4.193153381E-1,1.787391752E-1,-6.113539338E-1
8.940851000E0,5.463753343E-1,-1.602910310E-1,-6.159441471E-1
8.960851000E0,6.070255041E-1,-4.916417897E-1,-7.874925733E-1
8.980851000E0,3.935717344E-1,-3.982492387E-1,-9.941220880E-1
9.000851000E0,3.281218931E-3,2.390751988E-1,-1.037231684E0
9.022860375E0,-5.787511915E-2,6.309016347E-1,-8.488757610E-1
9.044851000E0,4.211130440E-1,5.596572757E-1,-7.638782263E-1
9.064851000E0,8.920377493E-1,2.649235129E-1,-8.674286604E-1
9.084851000E0,9.574527144E-1,1.952674389E-1,-1.022867680E0
9.104851000E0,7.004180551E-1,1.018574163E-1,-1.032030582E0
9.124851000E0,4.859869182E-1,-3.104591668E-1,-8.233940005E-1
9.144851000E0,5.733755827E-1,-7.371921539E-1,-6.706253290E-1
9.164851000E0,7.904945016E-1,-8.167442679E-1,-6.775193810E-1
9.184851000E0,8.941670656E-1,-6.508332491E-1,-7.123910189E-1
9.204851000E0,8.400095105E-1,-4.975061119E-1,-6.776939034E-1
9.224851000E0,6.520898938E-1,-4.559672773E-1,-5.832017660E-1
9.244851000E0,3.728896081E-1,-4.397182465E-1,-3.998200297E-1
9.264851000E0,3.637266159E-2,-2.875778973E-1,-1.344078034E-1
9.284851000E0,-2.312735766E-1,-1.935221106E-1,8.967501670E-2
9.304851000E0,-4.203450978E-1,-8.503244072E-2,2.245191485E-1
9.324851000E0,-5.391321778E-1,-5.061454722E-4,2.869844735E-1
9.344851000E0,-5.471607447E-1,-9.519025683E-2,1.769763827E-1
9.364851000E0,-4.978900850E-1,-1.540427655E-1,-7.365289610E-3
9.384851000E0,-5.505117774E-1,-1.134114936E-1,-8.351400495E-2
9.404851000E0,-7.545930743E-1,-3.335324302E-2,2.499311417E-2
9.424851000E0,-9.694082141E-1,3.005980551E-1,3.762406111E-1
9.444851000E0,-9.478359818E-1,5.375614166E-1,6.195046306E-1
9.464851000E0,-6.122091413E-1,4.034328461E-1,5.910906792E-1
9.484851000E0,-1.924400032E-1,6.750933826E-2,4.287750423E-1
9.504851000E0,-1.259953231E-1,1.509709805E-1,3.597647250E-1
9.524851000E0,-4.279547334E-1,5.563411713E-1,4.571889937E-1
9.544851000E0,-6.905569434E-1,6.315299273E-1,7.354119420E-1
9.564851000E0,-6.806609631E-1,3.435680568E-1,9.751154780E-1
9.584851000E0,-5.854358077E-1,9.721484035E-3,1.056203485E0
9.604851000E0,-5.772851110E-1,-1.262920201E-1,1.025311112E0
9.624851000E0,-6.557027698E-1,-1.186125726E-1,9.409070015E-1
9.644851000E0,-7.456570268E-1,6.789331138E-2,8.515810370E-1
9.664851000E0,-6.425778866E-1,2.924997211E-1,7.926238179E-1
9.684851000E0,-3.627666831E-1,4.765272439E-1,6.829473376E-1
9.704851000E0,-1.695936471E-1,6.994755864E-1,5.745449066E-1
9.724851000E0,-1.963669956E-1,7.586247921E-1,4.805938601E-1
9.744851000E0,-3.981794119E-1,6.017895341E-1,4.050036371E-1
9.764851000E0,-6.347936988E-1,3.042981625E-1,3.156777024E-1
9.784851000E0,-7.625169158E-1,7.822565734E-2,1.984264851E-1
9.804851000E0,-7.318514585E-1,9.559167922E-2,5.489060655E-2
9.824851000E0,-6.006376147E-1,2.252521962E-1,-3.361504152E-2
9.844851000E0,-4.757592976E-1,3.122045100E-1,-1.041437984E-1
9.864851000E0,-2.803347707E-1,2.624626160E-1,-1.516865641E-1
9.884851000E0,6.911503617E-3,1.451415867E-1,-3.815464377E-1
9.904851000E0,2.550275028E-1,-1.134289503E-1,-6.821793914E-1
9.924851000E0,3.706381321E-1,-4.077263772E-1,-9.041154385E-1
9.944851000E0,4.114090204E-1,-4.921653867E-1,-1.051787734E0
9.964851000E0,4.401196837E-1,-3.491880298E-1,-1.114305496E0
9.984851000E0,5.687853694E-1,-1.377239376E-1,-1.103484392E0
1.000485100E1,6.995803118E-1,-2.146754880E-3,-1.166770101E0
1.002485100E1,6.554583907E-1,1.694540232E-1,-1.382789493E0
1.004485100E1,3.674092591E-1,6.457020044E-1,-1.460718393E0
1.006485100E1,2.426531315E-1,5.636889935E-1,-1.343397379E0
1.008485100E1,4.494397342E-1,-1.378810126E-2,-1.273304939E0
1.010485100E1,6.497337222E-1,-5.661324263E-1,-1.335665584E0
1.012485100E1,6.040759087E-1,-6.271142364E-1,-1.330691338E0
1.014485100E1,5.083969831E-1,-4.088433683E-1,-1.271332741E0
1.016485100E1,5.322381258E-1,-2.900911868E-1,-1.236705422E0
1.018485100E1,6.548649669E-1,-3.967831433E-1,-1.205446601E0
1.020485100E1,6.626666188E-1,-4.597720802E-1,-1.104461789E0
1.022485100E1,5.728519559E-1,-3.765896857E-1,-9.481152296E-1
1.024485100E1,5.366364121E-1,-3.017848730E-1,-8.010712266E-1
1.026485100E1,5.961869955E-1,-4.109726846E-1,-6.246533394E-1
1.028485100E1,6.036221385E-1,-5.094441772E-1,-5.013807416E-1
1.030485100E1,5.612280965E-1,-4.295080602E-1,-4.333303571E-1
1.032485100E1,5.421865582E-1,-2.027897984E-1,-3.322408795E-1
1.034485100E1,5.002462864E-1,-1.535715163E-1,-1.875181794E-1
1.036485100E1,3.249104917E-1,-1.229584441E-1,2.132792398E-2
1.038485100E1,-1.214749180E-2,1.396263391E-1,2.719222903E-1
1.040485100E1,-2.655518353E-1,4.090353549E-1,5.553288460E-1
1.042485100E1,-1.155058891E-1,3.356617093E-1,6.516885161E-1
1.044485100E1,2.822372019E-1,1.021715775E-1,3.671125472E-1
1.046685100E1,2.614677846E-1,1.565909386E-1,1.018399596E-1
1.048685100E1,-3.036523759E-1,2.042209804E-1,3.438298702E-1
1.050685100E1,-9.137845635E-1,-4.890412465E-2,9.161581993E-1
1.052685100E1,-1.221102118E0,-3.436553106E-2,1.360361934E0
1.054685100E1,-1.236408710E0,-7.019714266E-2,1.594881892E0
1.056884944E1,-9.489180446E-1,-4.398229718E-1,1.539170980E0
1.058884944E1,-5.224817395E-1,-5.797984004E-1,1.384971142E0
1.060885100E1,-1.201833710E-1,-2.165779024E-1,1.146367192E0
1.063086975E1,-6.623524427E-2,3.311936855E-1,1.066535830E0
1.065285569E1,-1.752136052E-1,3.348239660E-1,1.128931284E0
1.067485100E1,-1.666440368E-1,1.933475733E-1,1.098475337E0
1.069485100E1,-1.584060788E-1,2.039940804E-1,1.029709339E0
1.071485100E1,-2.239431888E-1,2.633876503E-1,1.011069179E0
1.073485100E1,-2.033832222E-1,3.654021323E-1,1.017474532E0
1.075485100E1,-1.389980167E-1,5.846503973E-1,1.112525225E0
1.077485100E1,-9.171704948E-2,6.517757773E-1,9.693733454E-1
1.079485569E1,-1.794198453E-1,3.626445234E-1,7.297745347E-1
1.081685100E1,-2.879793346E-1,-1.960528344E-1,6.019640565E-1
1.083685100E1,-3.292389214E-1,-4.822693765E-1,5.257280469E-1
1.085884944E1,-2.426531315E-1,-3.389603794E-1,3.031462431E-1
1.087884944E1,-1.256811619E-1,-3.054326214E-2,7.473500073E-2
1.089885100E1,-7.866198570E-2,1.841322333E-1,-5.820672959E-2
1.091885100E1,4.359832406E-2,1.372177899E-1,-1.109156758E-1
1.093885100E1,2.228610963E-1,-3.299195766E-1,-1.582315564E-1
1.095885100E1,3.403392136E-1,-1.036132216E0,-3.327993751E-1
1.097885100E1,3.232524395E-1,-1.278453708E0,-5.195146799E-1
1.100085100E1,1.885304600E-1,-7.971442342E-1,-5.516462326E-1
1.102285725E1,1.715658605E-1,-2.285159528E-1,-4.343600869E-1
1.104485100E1,3.154508173E-1,1.223824844E-1,-4.693714082E-1
1.106485100E1,3.471634388E-1,4.845906794E-1,-5.806536078E-1
1.108485100E1,1.970476657E-1,1.016008496E0,-5.831843019E-1
1.110485100E1,8.372344077E-2,1.057861567E0,-3.732386529E-1
1.112485100E1,3.015928864E-1,2.608568966E-1,-1.108982190E-1
1.114485100E1,6.707649231E-1,-4.962669313E-1,-5.831145123E-2
1.116485100E1,9.541714787E-1,-8.665210605E-1,-1.922305673E-1
1.118485100E1,9.733526707E-1,-8.467465043E-1,-3.429746628E-1
1.120485100E1,7.893425822E-1,-6.711488962E-1,-2.940356135E-1
1.122485100E1,6.942745447E-1,-5.897991061E-1,-1.089783609E-1
1.124485100E1,7.758511901E-1,-5.060582161E-1,8.700466156E-2
1.126485100E1,8.588415980E-1,-1.875530779E-1,2.068215162E-1
1.128485100E1,7.939153910E-1,2.953097224E-1,3.178069890E-1
1.130485100E1,8.430987597E-1,4.817108810E-1,4.538379610E-1
1.132485100E1,9.215862155E-1,2.544690073E-1,4.867897928E-1
1.134485100E1,7.528651953E-1,-1.178446338E-1,4.585677981E-1
1.136485100E1,2.988527119E-1,-4.449018836E-1,4.808033109E-1
1.138485100E1,-7.655014098E-2,-5.328490138E-1,5.891358852E-1
1.140485100E1,-2.377487570E-1,-3.378957510E-1,6.783745885E-1
1.142485100E1,-2.749242485E-1,1.583537161E-1,8.102167249E-1
1.144485100E1,-1.945518553E-1,5.988224745E-1,8.833285570E-1
1.146485100E1,-8.569566533E-3,5.660800934E-1,7.720114589E-1
1.148485256E1,1.991420686E-1,2.106263340E-1,5.177344680E-1
1.150685256E1,1.818982214E-1,4.204498231E-2,2.962696254E-1
1.152884944E1,-7.098253816E-2,2.334726900E-1,2.645744681E-1
1.154885100E1,-2.907893062E-1,1.682671905E-1,4.638735950E-1
1.157085100E1,-2.594606578E-1,-2.510656118E-1,7.319037914E-1
1.159085100E1,-1.878323406E-1,-1.729446799E-1,8.059756160E-1
1.161085100E1,-2.770012021E-1,4.106061459E-1,8.441110253E-1
1.163086975E1,-5.614374876E-1,1.079939961E0,8.963836432E-1
1.165285100E1,-6.501874924E-1,9.803339839E-1,9.216734767E-1
1.167285569E1,-4.648160934E-1,3.978827000E-1,8.652120829E-1
1.169285569E1,-2.726553380E-1,-1.047197580E-1,7.588517070E-1
1.171485100E1,-1.484227926E-1,-1.819854826E-1,5.834635496E-1
1.173485100E1,-1.479341090E-1,6.544984877E-2,4.404338300E-1
1.175485100E1,-2.697231770E-1,3.105289936E-1,3.948109150E-1
1.177485100E1,-3.675837815E-1,2.852566242E-1,3.958057761E-1
1.179485100E1,-3.660653532E-1,1.374621242E-1,4.050036371E-1
1.181485100E1,-3.876027167E-1,8.251916617E-2,4.400847554E-1
1.183485100E1,-4.531049132E-1,4.763003439E-2,5.345245600E-1
1.185485100E1,-4.160864949E-1,5.522221699E-2,6.004805565E-1
1.187685100E1,-3.162187636E-1,1.454208344E-1,4.663868845E-1
1.189685100E1,-3.248057663E-1,1.985137463E-1,2.168048024E-1
1.191685100E1,-3.893131316E-1,2.759365439E-1,-8.779006079E-3
1.193685100E1,-3.522248864E-1,3.496592641E-1,-1.593660116E-1
1.195685100E1,-1.096415818E-1,2.945766747E-1,-1.790184230E-1
1.197685100E1,1.713564247E-1,1.294336170E-1,-2.243271619E-1
1.199685100E1,2.064899057E-1,-1.114916354E-1,-3.065321743E-1
1.201685100E1,6.352998316E-2,-3.936939240E-1,-3.992789686E-1
1.203885100E1,4.014257342E-2,-5.350306630E-1,-6.095737219E-1
1.205885100E1,1.273043156E-1,-3.976383507E-1,-6.518630385E-1
1.207885100E1,2.724458873E-1,-1.816538721E-1,-4.318817258E-1
1.209885881E1,4.936663806E-1,-4.084070399E-2,-2.820801139E-1
1.212084944E1,5.674588680E-1,9.559167922E-2,-4.755847752E-1
1.214085100E1,2.867924869E-1,5.016075969E-1,-7.442433238E-1
1.216085100E1,-1.064127237E-1,8.657705784E-1,-7.624121904E-1
1.218085100E1,-1.927890629E-1,7.526383400E-1,-4.630183876E-1
1.220085100E1,2.654820383E-1,2.558129132E-1,-1.977807134E-1
1.222085100E1,9.081646204E-1,-9.871581942E-2,-3.875329196E-1
1.224285256E1,1.190593839E0,-8.063421398E-2,-7.455523014E-1
1.226485100E1,1.058001161E0,-2.725157142E-1,-8.680918813E-1
1.228485100E1,8.905542493E-1,-7.666532993E-1,-7.823612690E-1
1.230485100E1,7.311009765E-1,-1.292171955E0,-6.517233849E-1
1.232485100E1,4.745724797E-1,-1.378181815E0,-4.878893495E-1
1.234485100E1,1.956164986E-1,-9.165945649E-1,-2.607522011E-1
1.236485100E1,4.386012256E-2,-2.453234792E-1,-5.635667965E-2
1.238485100E1,6.026621908E-2,1.809557378E-1,6.677629799E-2
1.240485100E1,1.344078034E-1,3.207042515E-1,1.333256960E-1
1.242485100E1,1.183682308E-1,2.173982114E-1,1.286656708E-1
1.244485100E1,-6.988298148E-2,1.198343039E-1,1.319468915E-1
1.246485100E1,-3.656813800E-1,1.724385321E-1,2.310815901E-1
1.248485100E1,-5.551892519E-1,2.109230459E-1,3.651577830E-1
1.250485100E1,-6.136752367E-1,3.098133802E-1,5.001066327E-1
1.252485100E1,-5.802347064E-1,3.816685975E-1,5.962917209E-1
1.254485100E1,-4.957607687E-1,4.728446007E-1,6.420717239E-1
1.256485100E1,-3.829077780E-1,5.319240093E-1,6.359979510E-1
1.258485100E1,-3.368485570E-1,6.850417256E-1,5.665687919E-1
1.260485100E1,-5.065119863E-1,1.012116432E0,5.556430221E-1
1.262485100E1,-8.317192197E-1,1.200542212E0,7.461631298E-1
1.264485100E1,-9.326690435E-1,6.317219138E-1,1.021000147E0
1.266485100E1,-6.232396364E-1,-3.951425552E-1,1.004855871E0
1.268485100E1,-2.701246142E-1,-7.786437273E-1,6.966656446E-1
1.270485100E1,-2.258281559E-1,-2.345547974E-1,4.611334503E-1
1.272485100E1,-2.924822867E-1,3.433062732E-1,3.535164297E-1
1.274485100E1,-2.023709267E-1,3.992615044E-1,2.240653634E-1
1.276485100E1,-1.270599663E-1,2.699675262E-1,1.758768260E-1
1.278485100E1,-1.942202449E-1,1.880766749E-1,2.109753937E-1
1.280485100E1,-1.765051484E-1,-8.000589162E-2,3.085393012E-1
1.282485100E1,-6.197664142E-2,-2.723062634E-1,3.597996235E-1
1.284485100E1,-8.901178953E-4,-2.660754323E-1,3.114016354E-1
1.286485100E1,1.448623254E-3,-8.936085738E-3,1.978854239E-1
1.288485100E1,-3.961897455E-3,2.800380886E-1,3.387684003E-2
1.290485100E1,2.700024284E-2,2.423389703E-1,-1.083849445E-1
1.292485100E1,-1.649336144E-2,5.988224596E-2,-1.492780149E-1
1.294485100E1,-1.780235767E-1,-1.724734306E-1,-1.262920201E-1
1.296485100E1,-3.845309317E-1,-3.346145153E-1,-4.583234712E-2
1.298485100E1,-4.194724262E-1,-1.662426144E-1,-1.966986060E-2
1.300485100E1,-2.724284530E-1,4.443608224E-2,-1.679530293E-1
1.302485100E1,-9.698794782E-2,9.581857920E-2,-3.006504178E-1
1.304485100E1,7.475244999E-2,-4.646066576E-2,-2.970375717E-1
1.306485100E1,2.149721980E-1,-1.551074088E-1,-2.660579979E-1
1.308485100E1,2.668608427E-1,-1.462236792E-1,-2.695486546E-1
1.310485100E1,3.494847417E-1,-2.166826278E-1,-2.960427403E-1
1.312485100E1,4.695982933E-1,-3.254689872E-1,-3.263765574E-1
1.314485100E1,5.861164927E-1,-4.949230254E-1,-4.387408793E-1
1.316485100E1,5.303531885E-1,-4.877846241E-1,-5.362175107E-1
1.318485100E1,2.935992777E-1,-1.566433012E-1,-5.373345017E-1
1.320485100E1,2.107485086E-1,1.683893651E-1,-3.767991364E-1
1.322485100E1,4.422315359E-1,1.064650831E-3,-2.714510560E-1
1.324485100E1,6.585476398E-1,-4.402069449E-1,-3.753330410E-1
1.326485100E1,5.051506162E-1,-6.500827670E-1,-5.952969193E-1
1.328485100E1,-5.853834376E-2,-4.911880195E-1,-6.685658097E-1
1.330485100E1,-6.371150017E-1,-9.253735840E-2,-4.790056050E-1
1.332485100E1,-7.670722008E-1,2.767219543E-1,-2.092998773E-1
1.334485100E1,-4.324053228E-1,5.033354759E-1,-1.290321946E-1
1.336485100E1,2.869321220E-2,6.516885161E-1,-2.658136487E-1
1.338485100E1,3.018372357E-1,5.342976451E-1,-5.131791830E-1
1.340485100E1,4.269599020E-1,-5.246459693E-2,-6.800152063E-1
1.342485100E1,3.119950593E-1,-5.624846816E-1,-6.874502897E-1
1.344485100E1,2.560397983E-2,-6.004979610E-1,-5.463229418E-1
1.346485100E1,-1.908866614E-1,-2.741388679E-1,-2.481160015E-1
1.348485100E1,-1.894031316E-1,1.093972400E-1,3.961897455E-3
1.350485100E1,-9.473647177E-2,3.521027267E-1,9.358455241E-2
1.352485100E1,-4.080579802E-2,3.766769469E-1,9.117600322E-2
1.354485100E1,1.822123677E-2,9.697049111E-2,9.232792072E-3
1.356485100E1,8.710937947E-2,-2.092824280E-1,-2.012364566E-1
1.358485100E1,1.614429615E-2,-2.820277512E-1,-3.661526144E-1
1.360485100E1,-1.520007253E-1,-1.672025397E-2,-3.526088595E-1
1.362485100E1,-2.223898470E-1,3.661351800E-1,-1.206546128E-1
1.364485100E1,-6.408849359E-2,5.854532719E-1,6.887069345E-2
1.366485100E1,8.272860944E-2,5.827828646E-1,4.590215907E-2
1.368485100E1,8.609709144E-2,3.418227434E-1,-3.277728334E-2
1.370485100E1,-6.213372201E-2,1.910786480E-1,-6.515314430E-2
1.372485100E1,-3.629237711E-1,3.501653969E-1,3.316125658E-4
1.374485100E1,-6.788632870E-1,5.762553811E-1,2.600889504E-1
1.376485100E1,-6.777637005E-1,1.494350880E-1,5.638111830E-1
1.378485412E1,-2.570520937E-1,-5.436351299E-1,6.643072367E-1
1.380685100E1,2.345024347E-1,-5.313655138E-1,4.818505049E-1
1.382685100E1,3.297101557E-1,6.012659147E-2,2.374520451E-1
1.384685100E1,2.560572624E-1,4.413414001E-1,3.068288788E-2
1.386685100E1,2.276781946E-1,2.761808932E-1,4.776966199E-2
1.388685100E1,2.628291249E-1,-1.465029418E-1,1.469567269E-1
1.390685100E1,2.343278974E-1,-4.407130778E-1,2.148325741E-1
1.392884944E1,1.677785069E-1,-4.793721437E-1,1.974840015E-1
1.394885100E1,7.965682447E-2,-3.137927353E-1,1.306727976E-1
1.396885100E1,1.879719645E-2,-1.573414356E-1,1.026777178E-1
1.398885100E1,-1.492256485E-2,-6.021386012E-3,1.068665087E-1
1.401085100E1,-3.303908184E-2,1.744107455E-1,2.078687213E-2
1.403086975E1,-1.050513685E-1,2.852915227E-1,-1.079137102E-1
1.405285100E1,-2.146056890E-1,2.061931938E-1,-1.671327353E-1
1.407285100E1,-2.435083389E-1,1.450892240E-1,-1.962273717E-1
1.409285100E1,-2.432465404E-1,1.840449721E-1,-2.767044902E-1
1.411285100E1,-2.843664885E-1,2.164731920E-1,-3.493625522E-1
1.413285100E1,-2.556907237E-1,1.178795397E-1,-3.925769031E-1
1.415285100E1,-9.154251963E-2,-9.930923581E-3,-4.671548307E-1
1.417285256E1,4.565781355E-2,-1.335351467E-1,-6.061877608E-1
1.419285256E1,-1.253146399E-2,-1.371479779E-1,-6.935065985E-1
1.421286194E1,-1.474977732E-1,-3.696607426E-2,-6.639057994E-1
1.423485100E1,-1.625425071E-1,1.779363155E-1,-5.558175445E-1
1.425485100E1,4.975933582E-2,2.642253935E-1,-5.043826699E-1
1.427485100E1,3.855781257E-1,-1.720894575E-1,-5.764124393E-1
1.429485100E1,3.395538032E-1,-2.789385319E-1,-5.487140417E-1
1.431485100E1,4.722860828E-2,-7.255333662E-2,-2.843839526E-1
1.433485100E1,1.439373046E-1,-2.043780535E-1,-1.012290940E-1
1.435485100E1,4.996004999E-1,-4.416555762E-1,-1.968207806E-1
1.437485100E1,5.677032471E-1,-4.925319254E-1,-4.433136284E-1
1.439485100E1,2.188293785E-1,-1.346870512E-1,-6.416702867E-1
1.441485100E1,-2.179741710E-1,2.766172290E-1,-6.456845403E-1
1.443485100E1,-3.348588645E-1,4.118104279E-1,-4.425805807E-1
1.445485100E1,2.792526782E-2,1.511804163E-1,-1.990897059E-1
1.447485100E1,5.248903036E-1,-1.756848395E-1,-1.790358722E-1
1.449485100E1,7.541742325E-1,-2.583087385E-1,-3.312285841E-1
1.451485100E1,7.093018293E-1,-3.288200200E-1,-4.850269854E-1
1.453485100E1,5.308768153E-1,-4.588994086E-1,-5.411916971E-1
1.455485100E1,3.797836304E-1,-5.578072071E-1,-4.933696687E-1
1.457485100E1,1.980774105E-1,-3.777416050E-1,-3.242123723E-1
1.459485100E1,2.164208330E-2,-4.022983834E-2,-2.200860158E-2
1.461485100E1,-3.298672382E-3,1.333955079E-1,2.932327688E-1
1.463485100E1,2.970550396E-2,2.052332610E-1,4.879067838E-1
1.465485100E1,7.721336931E-2,2.829876840E-1,4.835783839E-1
1.467485100E1,4.356341809E-2,3.843738735E-1,3.853163421E-1
1.469485100E1,-1.419999897E-1,2.947511971E-1,3.747221828E-1
1.471485100E1,-4.392993748E-1,2.146929502E-1,5.557652116E-1
1.473485100E1,-5.909335613E-1,3.281742632E-1,7.568445802E-1
1.475485100E1,-4.867548645E-1,6.456845403E-1,7.942469716E-1
1.477485100E1,-2.255314440E-1,8.010537624E-1,7.136825919E-1
1.479485569E1,7.801621687E-3,6.470633745E-1,5.769360065E-1
1.481685100E1,-9.808750451E-2,5.479984879E-1,4.874355495E-1
1.483685100E1,-5.253266692E-1,6.517233849E-1,5.733930469E-1
1.485884944E1,-8.455073237E-1,3.642327487E-1,9.103288054E-1
1.487885100E1,-7.254111767E-1,-1.336747706E-1,1.203456879E0
1.489885413E1,-4.891808927E-1,-3.373372257E-1,1.322418571E0
1.492085100E1,-4.061206579E-1,-2.032261342E-1,1.242081046E0
1.494085100E1,-3.789284229E-1,-9.634217620E-2,1.038994551E0
1.496085100E1,-3.813195229E-1,1.051560864E-1,9.117774367E-1
1.498285100E1,-3.034778535E-1,1.862615347E-1,9.007295370E-1
1.500285100E1,-1.078613475E-1,4.382521659E-2,8.379849195E-1
1.502285100E1,9.707520902E-2,-1.173210293E-1,7.278022766E-1
1.504285100E1,1.894031316E-1,-1.139874533E-1,6.767339706E-1
1.506285100E1,2.207666934E-1,-1.010545641E-1,7.070328593E-1
1.508285725E1,2.351482064E-1,-8.691739291E-3,6.943966746E-1
1.510286194E1,2.409252524E-1,1.624901593E-1,6.328215003E-1
1.512485100E1,2.653424144E-1,2.079559863E-1,4.978900850E-1
1.514485100E1,2.857278585E-1,-6.614797749E-3,3.788062632E-1
1.516485100E1,2.724109888E-1,-2.212030292E-1,3.097086847E-1
1.518485100E1,2.306278050E-1,-1.397310644E-1,2.861816287E-1
1.520485100E1,1.848303676E-1,8.124507964E-2,2.216917276E-1
1.522485100E1,1.653175801E-1,1.203229949E-1,1.958259344E-1
1.524485100E1,2.323905826E-1,3.129375353E-2,1.884082854E-1
1.526485100E1,3.675488830E-1,-1.154535264E-1,2.534218132E-2
1.528485100E1,3.689626157E-1,-4.715879634E-2,-1.985661089E-1
1.530485100E1,2.266833633E-1,1.948136538E-1,-3.401995897E-1
1.532485100E1,4.204498231E-2,4.002389014E-1,-3.952123523E-1
1.534485100E1,3.279473633E-2,2.791828513E-1,-4.408352673E-1
1.536485100E1,1.554564834E-1,-5.499532446E-2,-6.051405668E-1
1.538485100E1,6.766641140E-2,-9.320057929E-3,-8.163777590E-1
1.540485100E1,-2.257234305E-1,4.062079191E-1,-8.274605870E-1
1.542485100E1,-2.368935347E-1,8.777260780E-2,-7.428819537E-1
1.544485100E1,2.196147740E-1,-8.007745147E-1,-9.576796293E-1
1.546485100E1,4.077089131E-1,-1.041350722E0,-1.267527938E0
1.548485100E1,1.431170036E-3,-5.763251781E-1,-1.430943131E0
1.550485100E1,-5.665163994E-1,-1.925098151E-1,-1.293847442E0
1.552485100E1,-7.319911122E-1,-1.531002820E-1,-1.032240033E0
1.554485100E1,-4.583932757E-1,-2.348165959E-1,-8.527504206E-1
1.556485100E1,-9.829694033E-2,-1.288052946E-1,-8.551589847E-1
1.558485100E1,1.025380939E-1,-6.510077976E-3,-9.466665983E-1
1.560485100E1,3.146305084E-1,-1.607273668E-1,-1.031053305E0
1.562485100E1,4.560894370E-1,-4.956036806E-1,-1.096084237E0
1.564485100E1,3.833790123E-1,-6.568022966E-1,-1.096747398E0
1.566485100E1,1.135336682E-1,-5.820498466E-1,-1.025119185E0
1.568485100E1,-1.584235430E-1,-4.366813898E-1,-8.676206470E-1
1.570485100E1,-2.187595665E-1,-2.665117681E-1,-6.861238480E-1
1.572485100E1,-2.019520402E-1,-7.431612164E-2,-4.571889937E-1
1.574485100E1,-3.112445772E-1,2.260201424E-2,-1.222952232E-1
1.576485100E1,-4.593357444E-1,-8.670795709E-2,2.031039596E-1
1.578485100E1,-5.211727619E-1,-1.512502283E-1,3.717027605E-1
1.580485100E1,-6.057513952E-1,5.864306353E-3,4.014431834E-1
1.582485100E1,-6.311459541E-1,1.843067706E-1,3.655941188E-1
1.584485100E1,-5.264959931E-1,2.921855748E-1,2.110975683E-1
1.586485569E1,-3.548429012E-1,2.974041104E-1,1.026253626E-1
1.588685100E1,-4.270820692E-2,2.646791935E-1,1.444783509E-1
1.590685100E1,1.593311131E-1,4.148647487E-1,1.356120855E-1
1.592884944E1,-1.189616397E-1,7.777885199E-1,2.215870023E-1
1.594884944E1,-5.789257288E-1,4.764574170E-1,6.062575579E-1
1.596885100E1,-6.090326309E-1,-3.614402413E-1,8.545132279E-1
1.598885100E1,-2.231927067E-1,-8.848470449E-1,6.715677977E-1
1.600885100E1,3.722787276E-2,-5.231624246E-1,3.841644228E-1
1.603086975E1,-7.847000659E-2,3.880390525E-1,3.687880635E-1
1.605285100E1,-1.203579083E-1,6.474996805E-1,6.639581323E-1
1.607285100E1,7.068583276E-3,4.832118452E-1,8.251916766E-1
1.609285100E1,3.705333918E-2,1.741664112E-1,8.628558517E-1
1.611285100E1,-6.921976060E-2,-7.906341925E-3,9.128595591E-1
1.613286975E1,-2.039417177E-1,-3.466223925E-2,9.659001231E-1
1.615485100E1,-1.192059889E-1,-1.772207320E-1,9.553932548E-1
1.617485100E1,4.577998444E-2,-3.298497796E-1,8.596444726E-1
1.619485100E1,2.991494350E-2,-2.766521275E-1,7.656759620E-1
1.621485100E1,-1.240929067E-1,-1.859473735E-1,7.721336484E-1
1.623485100E1,-1.823869050E-1,-1.103746220E-1,6.702413559E-1
1.625485100E1,-1.847081929E-1,-1.815840602E-1,4.412366748E-1
1.627485100E1,-2.131396085E-1,-3.296577930E-1,3.186447620E-1
1.629485100E1,-2.295456976E-1,-2.116909772E-1,3.325550258E-1
1.631485100E1,-1.276010275E-1,-1.677261479E-2,3.468318284E-1
1.633485256E1,3.677408770E-2,1.087689176E-1,2.762507200E-1
1.635684944E1,1.774476171E-1,-4.132939503E-2,1.496270746E-1
1.637685100E1,2.694613934E-1,-2.953620553E-1,4.398229718E-2
1.639885100E1,4.686557949E-1,-5.209284425E-1,-1.647765338E-1
1.642085100E1,6.157172322E-1,-6.795090437E-1,-5.241048932E-1
1.644085100E1,4.377460182E-1,-2.107834071E-1,-6.533989310E-1
1.646085100E1,2.020044029E-1,4.676784277E-1,-3.502875865E-1
1.648284944E1,4.719195664E-1,5.070181489E-1,-1.941329688E-1
1.650285100E1,9.638057351E-1,5.400048569E-2,-4.333128929E-1
1.652285256E1,9.716945887E-1,1.282118857E-1,-6.937683821E-1
1.654285569E1,3.898367286E-1,3.250675797E-1,-7.328463197E-1
1.656485100E1,-2.047271132E-1,1.868374944E-1,-6.185097694E-1
1.658485100E1,-2.737374306E-1,1.523672417E-2,-5.688726306E-1
1.660485100E1,-9.588839114E-2,2.322335094E-1,-5.646139979E-1
1.662485100E1,3.485422581E-2,5.828701258E-1,-4.765447080E-1
1.664485100E1,2.281843424E-1,5.685409904E-1,-3.737448156E-1
1.666485100E1,5.520127416E-1,1.717403978E-1,-5.286427736E-1
1.668485100E1,8.558920026E-1,-1.977109015E-1,-8.229053020E-1
1.670485100E1,8.925963044E-1,-3.084171414E-1,-1.019062877E0
1.672485100E1,6.055420041E-1,-2.459867001E-1,-1.044352651E0
1.674485100E1,2.238559276E-1,-1.473232359E-1,-9.109571576E-1
1.676485100E1,4.934045672E-2,-6.880088151E-2,-7.417474985E-1
1.678485100E1,4.466297477E-2,1.299048513E-1,-6.306921840E-1
1.680485100E1,3.228859231E-2,5.133013129E-1,-5.064072609E-1
1.682485100E1,1.011941880E-1,5.712985992E-1,-3.554362953E-1
1.684485100E1,2.469466329E-1,3.848101795E-1,-2.081130594E-1
1.686485100E1,2.937214673E-1,3.059562147E-1,-8.112290502E-2
1.688485100E1,3.939208016E-2,3.504446447E-1,3.502875939E-2
1.690485100E1,-3.082425892E-1,2.542595565E-1,1.486147791E-1
1.692485100E1,-4.111123085E-1,-1.974665523E-1,2.661976218E-1
1.694485100E1,-3.684215546E-1,-4.630358517E-1,2.815041542E-1
1.696485100E1,-4.390375614E-1,-2.250078470E-1,2.271545976E-1
1.698485256E1,-7.825183868E-1,5.058313012E-1,2.895326614E-1
1.700685100E1,-1.157240510E0,1.076990366E0,5.314527750E-1
1.702685100E1,-1.089417100E0,7.987149954E-1,7.186916471E-1
1.704885100E1,-6.872059107E-1,-1.359087825E-1,6.562438011E-1
1.707085100E1,-4.343251884E-1,-6.117553711E-1,4.917814136E-1
1.709285100E1,-4.229456484E-1,-2.282367051E-1,4.002040029E-1
1.711285256E1,-3.586826026E-1,2.099980116E-1,3.053104579E-1
1.713485100E1,-1.288052946E-1,3.310889602E-1,2.135235816E-1
1.715485100E1,1.282817032E-2,3.392570913E-1,2.243271619E-1
1.717485100E1,-4.660028964E-3,2.151816487E-1,3.182258904E-1
1.719485100E1,-5.586798862E-2,-4.644321278E-2,4.514293969E-1
1.721485100E1,5.113814492E-3,-2.683967352E-1,4.905945957E-1
1.723485100E1,1.206022501E-1,-3.049962819E-1,4.124736488E-1
1.725485100E1,1.700474322E-1,-2.162288427E-1,3.123092055E-1
1.727485100E1,1.107236892E-1,-8.171631396E-2,2.460216135E-1
1.729485100E1,1.675516134E-3,3.857177682E-3,2.460565120E-1
1.731485100E1,-9.143780172E-2,7.881906629E-2,2.928662598E-1
1.733485100E1,-1.256462485E-1,1.160469428E-1,3.446152508E-1
1.735485100E1,-6.101670861E-2,9.187413007E-2,3.355919123E-1
1.737485100E1,5.836381018E-2,5.951572582E-2,2.723062634E-1
1.739485100E1,2.373124212E-1,-7.913322747E-2,2.306103557E-1
1.741485100E1,4.677307904E-1,-2.548878789E-1,1.738522500E-1
1.743485100E1,5.945115089E-1,-3.789807856E-1,9.450957924E-2
1.745485100E1,5.753477812E-1,-3.377561271E-1,8.206538111E-2
1.747485100E1,6.102543473E-1,-3.171437681E-1,4.792674258E-2
1.749485100E1,7.137698531E-1,-3.915646076E-1,-6.178465672E-3
1.751485100E1,8.133757710E-1,-4.813094437E-1,-6.466444582E-2
1.753485100E1,6.195744276E-1,-1.960004717E-1,-5.726425350E-2
1.755485100E1,2.671226263E-1,6.841690838E-2,1.754055917E-1
1.757485100E1,1.355073601E-1,-4.694935679E-2,5.480682850E-1
1.759485100E1,3.100577295E-1,-2.915397882E-1,6.385636330E-1
1.761485100E1,5.051855445E-1,-4.339063168E-1,3.896273077E-1
1.763485100E1,3.939731717E-1,-3.366740048E-1,2.790781483E-2
1.765485100E1,7.400196046E-2,-1.408306211E-1,-1.021192148E-1
1.767485100E1,-1.792104095E-1,-1.742885858E-1,5.780530348E-2
1.769485100E1,-2.149547487E-1,-3.486120701E-1,3.063227236E-1
1.771485100E1,-4.571017250E-2,-5.853136182E-1,5.163033009E-1
1.773485100E1,5.508258939E-2,-5.130744576E-1,6.301685572E-1
1.775485100E1,1.520879865E-1,-1.633453667E-1,6.665586829E-1
1.777485100E1,3.298497796E-1,1.614255011E-1,5.249950290E-1
1.779485100E1,4.561766982E-1,2.032261342E-1,3.876201808E-1
1.781485100E1,4.034154117E-1,1.488940418E-1,3.778812289E-1
1.783485100E1,1.627170444E-1,3.109478652E-1,5.553113818E-1
1.785485100E1,-9.354964644E-2,3.758915663E-1,8.852658868E-1
1.787485100E1,-1.302015632E-1,1.638864130E-1,1.202357292E0
1.789485100E1,4.007275775E-2,4.209734127E-2,1.328788996E0
1.791485100E1,2.325476706E-1,2.097187638E-1,1.319172263E0
1.793485100E1,3.390651047E-1,4.176747501E-1,1.297181010E0
1.795485100E1,4.828453362E-1,3.461162448E-1,1.257160664E0
1.797485100E1,5.965360999E-1,3.224146664E-1,1.105282068E0
1.799485100E1,4.410446882E-1,5.249601603E-1,1.013652325E0
1.801485100E1,5.028293654E-2,5.558524728E-1,1.090237379E0
1.803485100E1,-2.520430088E-1,1.502728462E-2,1.302225113E0
1.805485100E1,-3.381226361E-1,-6.191031933E-1,1.410225987E0
1.807485100E1,-4.812221825E-1,-6.744475961E-1,1.390015125E0
1.809485256E1,-8.083841205E-1,-2.994984984E-1,1.354811788E0
1.811685100E1,-1.028260708E0,3.674965203E-1,1.229619384E0
1.813885100E1,-9.010436535E-1,7.591484189E-1,1.058350205E0
1.816085100E1,-6.070080400E-1,6.813591123E-1,8.837823868E-1
1.818285413E1,-3.559948206E-1,2.815565169E-1,6.926862597E-1
1.820287600E1,-2.142740786E-1,1.798038185E-1,5.260596871E-1
1.822485100E1,1.745329246E-5,1.089085415E-1,3.004758954E-1
1.824485100E1,2.498264313E-1,8.848818950E-3,1.103920713E-1
1.826485100E1,4.568050206E-1,-6.442010403E-2,-3.152064607E-2
1.828485100E1,4.201705754E-1,6.539748609E-2,-1.558753550E-1
1.830485100E1,2.228959948E-1,2.062106431E-1,-2.486221492E-1
1.832485100E1,3.370230645E-2,2.880142331E-1,-2.834240198E-1
1.834485100E1,-7.602654397E-2,3.190985322E-1,-2.903704345E-1
1.836485100E1,-1.517389268E-1,3.212103844E-1,-2.906845808E-1
1.838485100E1,-2.463357747E-1,3.274586797E-1,-2.937563658E-1
1.840485100E1,-3.393269181E-1,3.581415713E-1,-3.186447620E-1
1.842485100E1,-2.874382734E-1,3.394665420E-1,-4.118104279E-1
1.844485100E1,-2.018822283E-1,2.355321795E-1,-5.712113380E-1
1.846485100E1,-2.028770745E-1,1.774650812E-1,-6.810274720E-1
1.848485100E1,-2.250252962E-1,8.454374969E-2,-7.330731750E-1
1.850485100E1,-1.996307522E-1,3.113667294E-2,-7.253937125E-1
1.852485100E1,-1.555088311E-1,1.281071641E-2,-7.515562177E-1
1.854684944E1,-1.435358822E-1,3.682644665E-2,-7.544709444E-1
1.856685100E1,-1.275486648E-1,6.101670861E-2,-7.058809400E-1
1.858685100E1,-3.438298777E-2,-2.595304511E-2,-6.925292015E-1
1.860885100E1,4.244640842E-2,-7.691665739E-2,-7.458664775E-1
1.862885100E1,7.246606797E-2,-1.438151300E-2,-8.446695209E-1
1.865085100E1,4.742059484E-2,-2.897246508E-3,-9.318487644E-1
1.867285100E1,-1.438151300E-2,-1.592612863E-1,-9.317265749E-1
1.869285569E1,-1.309869587E-1,-9.641198814E-2,-8.972563148E-1
1.871485100E1,-3.476695716E-1,3.913551867E-1,-7.816805840E-1
1.873485100E1,-4.997750223E-1,8.311432600E-1,-5.687329769E-1
1.875485100E1,-2.961649299E-1,7.477339506E-1,-4.513247013E-1
1.877485100E1,2.641032338E-1,-7.485716790E-2,-5.824338198E-1
1.879485100E1,6.707125902E-1,-8.598713875E-1,-9.447641969E-1
1.881485100E1,7.108551264E-1,-1.093972325E0,-1.261279583E0
1.883485100E1,4.917290509E-1,-7.102442980E-1,-1.361810565E0
1.885485100E1,1.969953179E-1,6.984807551E-2,-1.310148835E0
1.887485100E1,4.565781355E-2,6.848322749E-1,-1.189145207E0
1.889485100E1,1.146681309E-1,7.946134806E-1,-1.001731753E0
1.891485100E1,3.244217932E-1,4.093320668E-1,-8.742353916E-1
1.893485100E1,4.479038417E-1,-2.445206232E-2,-8.580213189E-1
1.895485100E1,4.297349751E-1,-2.748195529E-1,-9.022305012E-1
1.897485100E1,3.926816285E-1,-3.641454875E-1,-1.018294930E0
1.899485100E1,3.781081140E-1,-3.692069352E-1,-1.120658398E0
1.901485100E1,2.962870896E-1,-3.068637848E-1,-1.113589883E0
1.903485100E1,1.271472424E-1,-1.622108966E-1,-1.005798340E0
1.905485100E1,-4.223696887E-2,-5.462880712E-3,-8.360999823E-1
1.907485100E1,-9.311331809E-2,3.188716620E-2,-6.056118011E-1
1.909485100E1,-2.710496262E-2,-7.386233658E-2,-4.084070325E-1
1.911485100E1,1.989675453E-3,-1.551772207E-1,-2.889218032E-1
1.913485100E1,-9.864600748E-2,-6.276203692E-2,-1.770112962E-1
1.915485100E1,-1.993864179E-1,3.956661373E-2,-4.653047770E-2
1.917485100E1,-1.285434961E-1,1.504124701E-1,2.200860158E-2
1.919485100E1,7.552039623E-2,2.320764363E-1,5.874778330E-2
1.921485100E1,2.764776051E-1,1.223650351E-1,3.310889751E-2
1.923485100E1,2.899340987E-1,7.187265903E-2,-7.539822254E-3
1.925485100E1,1.795420200E-1,-9.274679422E-2,4.749041051E-2
1.927485100E1,3.874630854E-2,-3.535338938E-1,1.999449134E-1
1.929485100E1,-4.221951589E-2,-4.711690843E-1,2.733883858E-1
1.931485100E1,-1.590344012E-1,-3.345621526E-1,2.595479190E-1
1.933485100E1,-2.015331686E-1,-2.485872507E-1,2.487268746E-1
1.935485100E1,-1.559451669E-1,-2.630734742E-1,1.996482164E-1
1.937685100E1,-1.328544617E-1,-4.009195864E-1,1.855459511E-1
1.939685100E1,-1.493303776E-1,-4.523369670E-1,1.725432426E-1
1.941685100E1,-1.457873583E-1,-3.653497696E-1,1.696110964E-1
1.943685100E1,-1.334827840E-1,1.462585945E-2,1.263618320E-1
1.945685100E1,-1.525941342E-1,2.732138336E-1,2.518510073E-2
1.947885100E1,-2.300518453E-1,2.233497798E-1,-7.798130810E-2
1.949886038E1,-1.979377866E-1,-1.865756884E-2,-1.292241812E-1
1.952084944E1,-6.276203692E-2,-1.907644868E-1,-1.441467404E-1
1.954085100E1,3.413863853E-2,-1.300619394E-1,-1.625250578E-1
1.956285100E1,3.909537569E-2,4.317944497E-2,-1.795420200E-1
1.958485100E1,6.593853980E-2,4.637339711E-2,-2.142391652E-1
1.960485100E1,9.932668507E-2,7.784168422E-2,-3.315252960E-1
1.962485100E1,3.949680179E-2,1.896300167E-1,-4.891634285E-1
1.964485100E1,-1.216843575E-1,1.991071552E-1,-4.839099944E-1
1.966485100E1,-2.265961021E-1,1.211782098E-1,-3.874107301E-1
1.968485412E1,-1.937489957E-1,3.544763848E-2,-3.636742532E-1
1.970685100E1,-1.467821896E-1,9.201376140E-2,-4.095589519E-1
1.972685100E1,-1.348965019E-1,2.114815414E-1,-4.092273414E-1
1.974685100E1,-4.583234712E-2,1.744282097E-1,-3.972893059E-1
1.976885100E1,1.280897111E-1,-1.883210242E-2,-4.360530674E-1
1.979085256E1,2.632829249E-1,-1.669930965E-1,-5.201081038E-1
1.981285256E1,1.798212677E-1,1.150346473E-1,-5.009095073E-1
1.983285881E1,3.253293782E-2,5.876872540E-1,-2.943672240E-1
1.985485100E1,1.503775716E-1,4.224743843E-1,-1.100953668E-1
1.987485100E1,6.125058532E-1,-4.149869382E-1,-1.833119243E-1
1.989485100E1,9.519898295E-1,-8.098851442E-1,-4.062253833E-1
1.991485100E1,8.173027635E-1,-4.088433683E-1,-5.667083859E-1
1.993485100E1,3.375990391E-1,2.562143207E-1,-4.560894370E-1
1.995485100E1,1.692969352E-3,5.458342433E-1,-2.736676335E-1
1.997485100E1,-1.745329238E-2,4.128925502E-1,-1.583711803E-1
1.999485100E1,1.482482702E-1,9.217083454E-2,-9.784315526E-2
2.001685100E1,3.411071599E-1,1.827185154E-1,-9.452702850E-2
2.003685100E1,5.832366943E-1,2.572266161E-1,-2.035053968E-1
2.005685100E1,7.543836832E-1,-4.136430472E-2,-3.711791635E-1
2.007685100E1,7.284131646E-1,-4.160166681E-1,-4.685859978E-1
2.009685100E1,5.273163319E-1,-5.218883753E-1,-4.152312875E-1
2.011885100E1,2.270324230E-1,-3.910584748E-1,-2.365095615E-1
2.014085100E1,-3.275983036E-2,-1.631359309E-1,4.420918971E-2
2.016085100E1,-1.107411385E-1,-8.854055405E-2,3.526961207E-1
2.018085100E1,-7.031931728E-2,-6.321582198E-2,6.204296350E-1
2.020286975E1,-1.308996975E-2,1.741838641E-2,8.422784209E-1
2.022485100E1,-1.865756884E-2,2.269626111E-1,9.553583264E-1
2.024485100E1,7.281513512E-2,2.407158166E-1,9.513615370E-1
2.026485100E1,2.878746092E-1,2.095267773E-1,8.056265116E-1
2.028485100E1,4.367162883E-1,1.836435497E-1,6.226462126E-1
2.030485100E1,1.860346496E-1,3.430619240E-1,6.025050879E-1
2.032485100E1,-2.376963943E-1,2.280272692E-1,8.950921297E-1
2.034485100E1,-4.766843319E-1,-2.439272106E-1,1.279343843E0
2.036485100E1,-4.220904112E-1,-5.911954045E-1,1.293079495E0
2.038485100E1,-2.464928478E-1,-4.016526341E-1,1.029464960E0
2.040485100E1,-2.449744195E-1,2.102423608E-1,7.627961636E-1
2.042485100E1,-4.859869182E-1,5.467243791E-1,6.202027202E-1
2.044485100E1,-7.405781150E-1,3.415958285E-1,5.298296213E-1
2.046485100E1,-7.638608217E-1,-1.258731484E-1,4.413065016E-1
2.048485100E1,-7.911751866E-1,-2.675938904E-1,3.777416050E-1
2.050485100E1,-8.713730574E-1,-1.525417715E-1,5.381199121E-1
2.052485256E1,-7.581710219E-1,-3.996803984E-2,7.972489595E-1
2.054685100E1,-3.240727484E-1,-1.040216256E-2,6.999817491E-1
2.056685100E1,-7.335618883E-2,-2.689552307E-2,4.325973094E-1
2.058685100E1,-2.084097713E-1,-7.009242475E-2,1.919862181E-1
2.060685100E1,-5.888915658E-1,-3.525565146E-3,1.077391729E-1
2.062685100E1,-7.848396301E-1,-3.932226822E-2,1.745154709E-1
2.064884944E1,-7.266503572E-1,-5.190609023E-2,2.402620167E-1
2.066884944E1,-6.019117236E-1,-5.724680144E-3,2.434036136E-1
2.068885100E1,-5.265483856E-1,6.058037654E-2,2.378709167E-1
2.070885100E1,-4.542044699E-1,9.236282110E-2,1.102000922E-1
2.072885100E1,-3.231302500E-1,4.914847016E-2,-1.404815465E-1
2.074885100E1,-2.679603994E-1,-8.583529294E-2,-3.473379612E-1
2.076885100E1,-2.471735328E-1,-1.788264364E-1,-4.117929935E-1
2.079085100E1,-1.702219546E-1,-1.236565784E-1,-3.348937631E-1
2.081285100E1,4.324925691E-2,1.105491519E-1,-3.079808056E-1
2.083285100E1,2.178519964E-1,2.659881711E-1,-4.114439189E-1
2.085285100E1,2.600715160E-1,1.331511736E-1,-4.543266594E-1
2.087285100E1,9.330530465E-2,-9.688322991E-2,-3.625223339E-1
2.089285100E1,-2.113942802E-1,-1.426283121E-1,-2.442064732E-1
2.091285413E1,-4.811523557E-1,6.808529049E-2,-1.515643895E-1
2.093485100E1,-4.831245840E-1,2.231403440E-1,-1.097637564E-1
2.095485100E1,-8.040732145E-2,7.047639787E-2,-2.098409384E-1
2.097485100E1,6.375338435E-1,-3.600963354E-1,-5.216614604E-1
2.099485100E1,1.095281363E0,-5.636366010E-1,-8.076860309E-1
2.101485100E1,1.081353664E0,-4.876275361E-1,-9.462826252E-1
2.103485100E1,7.043276429E-1,-1.294859797E-1,-8.792619705E-1
2.105485100E1,3.234444261E-1,2.786069214E-1,-7.389549613E-1
2.107485100E1,1.973792911E-1,5.359731317E-1,-6.067637205E-1
2.109485100E1,2.141693532E-1,6.633123755E-1,-4.134685099E-1
2.111485100E1,3.737273514E-1,5.153608322E-1,-2.254965454E-1
2.113485100E1,6.352474689E-1,8.887216449E-2,-1.632755548E-1
2.115485100E1,7.870038748E-1,-3.607071936E-1,-2.504547536E-1
2.117485100E1,7.509279251E-1,-6.322978735E-1,-3.754377663E-1
2.119485100E1,5.510702729E-1,-6.526135206E-1,-4.425631464E-1
2.121485100E1,2.965139747E-1,-6.008296013E-1,-3.886673748E-1
2.123485100E1,8.656833321E-2,-5.150990486E-1,-2.226167470E-1
2.125485100E1,-9.494591504E-3,-4.118453562E-1,-4.529129341E-2
2.127485725E1,-1.021017600E-2,-3.080157042E-1,3.473205119E-2
2.129685256E1,2.326523885E-2,-1.233773232E-1,5.703736097E-2
2.131884944E1,1.070584953E-1,1.289798319E-2,7.714355364E-3
2.133885100E1,9.058258682E-2,1.792453043E-2,-3.797836602E-2
2.136085100E1,-6.127851084E-2,-3.867649660E-2,5.242969096E-2
2.138085100E1,-1.903107017E-1,9.391617030E-2,9.824458510E-2
2.140085100E1,-2.948035598E-1,2.722539008E-1,1.198168546E-1
2.142085100E1,-4.637514353E-1,3.605501056E-1,2.583959997E-1
2.144085100E1,-6.688275933E-1,4.054923356E-1,4.812221825E-1
2.146285725E1,-8.229576349E-1,4.985358417E-1,6.755122542E-1
2.148485100E1,-8.439539671E-1,5.361825824E-1,6.429793239E-1
2.150485100E1,-7.442258596E-1,3.161489367E-1,4.810476601E-1
2.152485100E1,-6.479360461E-1,1.845860183E-1,3.448247015E-1
2.154485100E1,-6.444977522E-1,4.652524292E-1,3.227288425E-1
2.156485100E1,-6.018767953E-1,1.074197769E0,3.127979040E-1
2.158485100E1,-4.749913514E-1,1.347708344E0,3.811101019E-1
2.160485100E1,-2.262819409E-1,9.182700515E-1,5.311560631E-1
2.162485100E1,1.663647890E-1,1.273741275E-1,4.727573395E-1
2.164485100E1,5.238955021E-1,-5.075243115E-1,2.108881325E-1
2.166485100E1,7.224441171E-1,-6.978698969E-1,-1.162389293E-2
2.168485100E1,6.677455306E-1,-5.464276671E-1,-8.091346174E-2
2.170485100E1,4.242546260E-1,-4.128750861E-1,3.574434295E-2
2.172485100E1,1.346347034E-1,-5.184849501E-1,2.714335918E-1
2.174485100E1,-1.150521040E-1,-6.123661995E-1,5.644394755E-1
2.176485100E1,-3.214547336E-1,-5.039463639E-1,7.556053996E-1
2.178485100E1,-3.295181692E-1,-3.465525806E-1,8.256803751E-1
2.180485100E1,-1.555262953E-1,-2.597922683E-1,7.799876332E-1
2.182485100E1,5.305800959E-2,-1.018574163E-1,5.159891248E-1
2.184485100E1,1.499586850E-1,1.386489570E-1,1.506568193E-1
2.186485100E1,1.523846984E-1,1.411796808E-1,-1.044754088E-1
2.188485100E1,2.117782533E-1,1.796467453E-1,-2.836160064E-1
2.190485100E1,5.384864211E-1,2.956587672E-1,-3.873234689E-1
2.192485100E1,8.313352466E-1,2.407158166E-1,-4.195247889E-1
2.194485100E1,6.810798049E-1,3.132865950E-2,-4.017573297E-1
2.196485100E1,2.350609452E-1,-2.154085338E-1,-3.295007050E-1
2.198485256E1,-9.705775976E-2,-3.840247989E-1,-3.373721540E-1
2.200685256E1,-2.090729922E-1,-4.767715931E-1,-4.428598285E-1
2.202884944E1,-1.241976321E-1,-3.986332119E-1,-5.084493160E-1
2.204885100E1,1.350186765E-1,-1.961750090E-1,-6.061004996E-1
2.207085100E1,4.284434319E-1,-1.406211704E-1,-6.803817153E-1
2.209286038E1,5.082922578E-1,-2.553765774E-1,-6.719168425E-1
2.211485100E1,3.859795630E-1,-3.778812289E-1,-5.726076365E-1
2.213485100E1,2.261248529E-1,-5.399175882E-1,-4.717275798E-1
2.215485725E1,1.207767799E-2,-4.627566040E-1,-3.981445134E-1
2.217685100E1,4.014257342E-3,-4.701916873E-2,-2.835636437E-1
2.219685256E1,4.078660011E-1,-4.372049868E-2,-2.647489905E-1
2.221885100E1,9.312378764E-1,-4.659680128E-1,-5.336867571E-1
2.224084944E1,1.029814124E0,-7.786088586E-1,-9.475392699E-1
2.226085100E1,6.044424176E-1,-5.304229856E-1,-1.084023952E0
2.228085100E1,4.082325101E-2,-7.586946338E-2,-7.959923148E-1
2.230085100E1,-1.619141996E-1,1.522276103E-1,-2.742610276E-1
2.232085100E1,3.666936606E-2,1.278279126E-1,7.834783196E-2
2.234285100E1,4.058763087E-1,-3.843215108E-2,7.419394702E-2
2.236285725E1,4.610810876E-1,4.525638744E-2,-1.093099713E-1
2.238485100E1,3.289771080E-1,2.453932911E-2,-2.472782433E-1
2.240485100E1,2.738421559E-1,-1.258556992E-1,-2.089857310E-1
2.242485100E1,2.727077007E-1,-2.339962870E-1,-1.070584953E-1
2.244485100E1,2.686410844E-1,-2.466150224E-1,6.457717973E-4
2.246485100E1,1.586504281E-1,-1.758942753E-1,9.283406287E-2
2.248485100E1,-4.551818594E-2,-1.152091846E-1,2.533170879E-1
2.250485100E1,-1.637467891E-1,-1.300793886E-1,4.746772051E-1
2.252485100E1,-1.367116421E-1,-1.837308109E-1,5.439318419E-1
2.254485100E1,-5.726425350E-2,-2.468070090E-1,3.929434121E-1
2.256485100E1,-7.995353639E-2,-1.677959561E-1,2.291268259E-1
2.258485100E1,-2.130348831E-1,-3.378957510E-2,2.440144867E-1
2.260485100E1,-3.575132489E-1,-5.860815570E-2,3.846007586E-1
2.262485100E1,-4.665614069E-1,-1.714960486E-1,5.564982295E-1
2.264485100E1,-4.876450002E-1,-4.273613095E-1,7.154453397E-1
2.266685100E1,-3.676012456E-1,-4.225442111E-1,8.245284557E-1
2.268685100E1,-2.664070427E-1,-1.175304726E-1,8.258374333E-1
2.270685100E1,-2.954667807E-1,2.340835631E-1,7.027044892E-1
2.272685100E1,-4.741012454E-1,5.994682312E-1,6.305001974E-1
2.274685100E1,-8.107752204E-1,9.714851379E-1,7.544884086E-1
2.276685100E1,-1.161673665E0,8.690692186E-1,1.082453251E0
2.278884944E1,-1.216634154E0,-1.228711754E-1,1.332907915E0
2.280884944E1,-9.020210505E-1,-9.467538595E-1,1.191187263E0
2.282885100E1,-5.661150217E-1,-1.010667801E0,8.695055842E-1
2.284885100E1,-3.842342198E-1,-2.664419711E-1,5.378406644E-1
2.286885100E1,-2.548006177E-1,4.873133898E-1,3.462384045E-1
2.289084944E1,-3.178244457E-2,6.830345988E-1,1.711993515E-1
2.291086350E1,1.912182719E-1,4.417952001E-1,-1.017526910E-2
2.293086975E1,2.568775713E-1,3.163234591E-1,-1.236042157E-1
2.295285256E1,2.566855848E-1,-3.260274976E-2,1.322785020E-1
2.297285256E1,3.321012557E-1,-4.505043924E-1,2.966012657E-1
2.299485256E1,3.569372892E-1,-6.903300881E-1,2.226341963E-1
2.301685100E1,2.104867101E-1,-5.430766344E-1,1.037423685E-1
2.303885100E1,-1.186823845E-2,-2.071705759E-1,1.685987972E-2
2.306084944E1,-6.876597553E-2,1.267283559E-1,-7.422885299E-2
2.308085100E1,2.111848444E-2,2.243097126E-1,-1.855634004E-1
2.310285100E1,3.911282867E-2,3.588571548E-1,-2.888170779E-1
2.312285569E1,-9.751154482E-2,4.857949317E-1,-3.155555129E-1
2.314485100E1,-2.941403389E-1,5.177344680E-1,-2.859547436E-1
2.316485100E1,-3.015405238E-1,4.110599458E-1,-3.048391938E-1
2.318485100E1,-1.850398034E-1,2.150943726E-1,-3.742858469E-1
2.320485100E1,-1.350884885E-1,1.249132156E-1,-4.717450440E-1
2.322485100E1,-2.045351416E-1,3.152762651E-1,-4.752531648E-1
2.324485100E1,-1.851096153E-1,3.485771716E-1,-4.195946157E-1
2.326485100E1,-8.553858846E-2,9.016370773E-2,-3.497116268E-1
2.328485100E1,-3.722787276E-2,-1.361182332E-1,-3.738146126E-1
2.330485100E1,-3.593632951E-2,-2.139599174E-1,-4.439070523E-1
2.332485100E1,-1.270599663E-1,-2.073451132E-1,-3.212278485E-1
2.334485100E1,-1.723687202E-1,-1.086816490E-1,-1.057669520E-2
2.336485100E1,1.566433012E-1,-1.743583940E-2,4.776966199E-2
2.338485100E1,6.356838346E-1,1.806241274E-1,-2.441541106E-1
2.340485100E1,7.361798882E-1,5.173155665E-1,-5.192528963E-1
2.342485100E1,4.034677744E-1,5.632352233E-1,-5.161636472E-1
2.344485100E1,3.530801088E-2,4.150916636E-1,-2.773502767E-1
2.346485100E1,4.782202095E-2,1.554041207E-1,-1.181587875E-1
2.348485100E1,3.309667706E-1,-1.625250578E-1,-1.814618856E-1
2.350485100E1,5.297772288E-1,-3.670601845E-1,-2.994635999E-1
2.352485569E1,4.539775848E-1,-3.041585386E-1,-3.790855110E-1
2.354684944E1,2.042907923E-1,-1.443038285E-1,-4.297349751E-1
2.356684944E1,-7.682939619E-2,-7.353071868E-2,-4.374842346E-1
2.358685100E1,-2.001543641E-1,-3.242821619E-2,-4.523718953E-1
2.360685100E1,-1.024857312E-1,-1.188918278E-1,-2.861292660E-1
2.362685100E1,1.151917279E-1,1.686162651E-1,1.510582417E-1
2.364884944E1,4.693364799E-1,5.625720024E-1,3.683168292E-1
2.366884944E1,6.248802543E-1,3.812671602E-1,2.753955126E-1
2.368885100E1,3.850021660E-1,8.028514683E-3,1.643751115E-1
2.371085100E1,-2.207317948E-1,7.576474547E-2,2.896024883E-1
2.373086975E1,-4.917639792E-1,1.404466480E-1,4.316897392E-1
2.375285725E1,-3.370579779E-1,1.384220570E-1,3.943920434E-1
2.377485100E1,-9.227555990E-2,1.893856823E-1,3.737622499E-1
2.379485100E1,-1.111774743E-1,4.468391836E-1,4.879591465E-1
2.381485100E1,-1.959830225E-1,6.571513414E-1,6.215815544E-1
2.383485100E1,-1.415811032E-1,6.860365868E-1,6.539748907E-1
2.385485100E1,-3.796090931E-2,4.354945421E-1,5.113465786E-1
2.387485100E1,-8.417722583E-2,5.419247225E-2,3.263765574E-1
2.389485100E1,-3.991917074E-1,1.058018580E-1,3.288549483E-1
2.391485100E1,-7.957130671E-1,5.263214707E-1,4.796164632E-1
2.393485256E1,-9.181653857E-1,5.780181289E-1,6.089453697E-1
2.395685100E1,-6.754249930E-1,-1.218763441E-1,7.016572356E-1
2.397685100E1,-2.781182230E-1,-6.748315692E-1,5.171410441E-1
2.399685100E1,2.160717547E-2,-5.726076365E-1,2.462136000E-1
2.401685100E1,7.916813344E-2,3.148574010E-2,1.038819999E-1
2.403685100E1,-2.878047898E-2,5.192005634E-1,1.069188714E-1
2.405685100E1,-1.455430090E-1,4.932125807E-1,1.777966917E-1
2.407884944E1,-1.089434549E-1,1.231504306E-1,3.988949955E-1
2.409886194E1,-2.523746155E-2,-2.020393163E-1,5.784195662E-1
2.412084944E1,3.045599535E-2,-3.582986295E-1,5.257804394E-1
2.414085100E1,1.064476296E-1,-2.904576957E-1,2.882411182E-1
2.416085100E1,1.931206882E-1,-1.481609941E-1,7.286749780E-2
2.418285881E1,1.896474808E-1,-1.258731484E-1,1.661553420E-2
2.420485256E1,7.288494706E-2,-1.934522986E-1,1.210909411E-1
2.422685256E1,4.422664270E-2,-5.146975815E-2,1.830850393E-1
2.424885100E1,9.361945838E-2,5.146975815E-2,7.895869762E-2
2.426885100E1,9.354964644E-2,7.670722157E-2,-1.429424621E-2
2.429085100E1,1.017876044E-1,1.960528344E-1,-4.628613219E-2
2.431285100E1,2.180963457E-1,2.652725875E-1,-1.634675413E-1
2.433285100E1,2.831622064E-1,1.220159680E-1,-2.256885320E-1
2.435285100E1,2.321811467E-1,-2.239606529E-1,-1.379857361E-1
2.437285100E1,1.838355362E-1,-4.247084260E-1,1.448623277E-2
2.439285413E1,2.115339041E-1,-3.322059810E-1,4.244640842E-2
2.441485100E1,2.302263826E-1,-4.763003439E-2,2.858849242E-2
2.443485100E1,2.549402416E-1,1.525766850E-1,1.429424621E-2
2.445485100E1,3.394840062E-1,1.177573651E-1,-6.358234584E-2
2.447485100E1,4.045149684E-1,-8.777260780E-2,-1.419301778E-1
2.449485100E1,2.586752474E-1,-8.274605870E-2,-8.976228535E-2
2.451485100E1,-2.014459074E-1,2.439272106E-1,2.286381321E-3
2.453485100E1,-4.745026529E-1,2.518160939E-1,9.457939118E-2
2.455485100E1,-2.096315026E-1,-1.918989569E-1,6.520549953E-2
2.457485100E1,3.262543976E-1,-5.203000903E-1,-1.456477195E-1
2.459485100E1,5.979847312E-1,-4.046894908E-1,-3.709173799E-1
2.461684944E1,3.008075058E-1,2.426007576E-2,-4.477118552E-1
2.463685100E1,-1.131496951E-1,2.776644230E-1,-3.067416251E-1
2.465685100E1,-2.668608427E-1,2.217091769E-1,-1.273566782E-1
2.467685100E1,-2.110801190E-1,3.220132366E-2,-9.145525284E-3
2.469685100E1,-1.597150862E-1,-1.954943240E-1,-8.447393775E-3
2.471685100E1,-1.431344450E-1,-2.748544514E-1,-4.747295380E-2
2.473685100E1,-5.237733200E-2,-2.801253498E-1,-1.033933014E-1
2.475885100E1,7.314674556E-2,-2.586578019E-2,-1.311614960E-1
2.477885100E1,4.424409568E-2,2.626546025E-1,-6.876597553E-2
2.479885100E1,-8.649851382E-2,3.048217595E-1,8.461356163E-2
2.482084944E1,-1.308124214E-1,2.651154995E-1,1.819331199E-1
2.484085100E1,-8.960520476E-2,3.104417026E-1,1.431693584E-1
2.486085100E1,-9.864600748E-2,3.440392911E-1,1.254891753E-1
2.488085100E1,-1.940806061E-1,3.177197278E-1,1.985835582E-1
2.490085100E1,-2.122145891E-1,1.866978705E-1,3.040189147E-1
2.492085100E1,-1.478817463E-1,1.476548612E-1,3.202679157E-1
2.494085100E1,-1.302888244E-1,2.259677798E-1,3.282789886E-1
2.496285412E1,-2.523047924E-1,4.486019611E-1,4.098905623E-1
2.498485256E1,-2.695835531E-1,4.353025556E-1,4.515341222E-1
2.500684944E1,-1.923527420E-1,2.844886780E-1,4.439244866E-1
2.502685100E1,-1.128878966E-1,1.573937982E-1,4.290891886E-1
2.504685100E1,-1.629962921E-1,2.332458049E-1,3.989997208E-1
2.506685100E1,-4.514468610E-1,6.309365034E-1,4.576951265E-1
2.508685100E1,-8.147546053E-1,8.436747193E-1,6.628236771E-1
2.510685100E1,-7.263013124E-1,4.443608224E-2,9.035394788E-1
2.512685100E1,-2.743832171E-1,-9.369974732E-1,8.614596128E-1
2.514884944E1,5.283111706E-2,-1.055941701E0,6.041282415E-1
2.516885100E1,-1.413716655E-2,-4.688827097E-1,4.229281843E-1
2.518885100E1,-8.176867664E-2,3.525565146E-3,4.146204293E-1
2.521085100E1,5.742133036E-2,8.587019518E-3,4.643622935E-1
2.523086975E1,1.821600199E-1,-1.693492979E-1,4.647462666E-1
2.525285256E1,1.808859259E-1,-3.826285303E-1,4.591088593E-1
2.527285256E1,1.825614423E-1,-5.321683288E-1,4.283561707E-1
2.529485100E1,2.081828713E-1,-4.838401675E-1,3.431666493E-1
2.531485100E1,1.886526346E-1,-3.008598685E-1,2.607696354E-1
2.533485100E1,6.494370103E-2,-1.663298719E-2,2.337868512E-1
2.535485100E1,-4.475024343E-2,5.967280641E-2,2.065248042E-1
2.537685100E1,-6.208136305E-2,1.736602560E-2,1.852317899E-1
2.539885100E1,-9.758135676E-2,8.508480340E-2,1.505870074E-1
2.541885100E1,-1.359785944E-1,2.506641746E-1,1.463982165E-1
2.543885100E1,-1.467123777E-1,4.497538805E-1,1.383871585E-1
2.546084944E1,-7.166321576E-2,2.653773129E-1,1.387536712E-2
2.548085100E1,9.381144494E-2,-2.670528293E-1,-1.912706345E-1
2.550085100E1,2.031912357E-1,-6.185795665E-1,-3.956661522E-1
2.552085100E1,2.175203860E-1,-6.865601540E-1,-4.995306730E-1
2.554085100E1,2.059488446E-1,-6.010913849E-1,-4.872959256E-1
2.556285569E1,2.276432961E-1,-4.775220752E-1,-4.704186022E-1
2.558484944E1,2.600889504E-1,-3.499385118E-1,-5.941973329E-1
2.560485100E1,8.995427191E-2,-3.152064607E-2,-6.666459441E-1
2.562485100E1,-1.563640535E-1,4.507836401E-1,-4.811872840E-1
2.564485100E1,-2.129301615E-2,4.924272001E-1,-2.566332221E-1
2.566685100E1,4.656014740E-1,-1.199041214E-2,-2.721491754E-1
2.568685256E1,6.388777494E-1,-3.289945722E-1,-4.478514791E-1
2.570885100E1,3.856304884E-1,-6.246533245E-2,-6.646737456E-1
2.572885100E1,2.059488557E-3,5.520476699E-1,-6.483548880E-1
2.575084944E1,-2.171189636E-1,8.921250701E-1,-3.809704781E-1
2.577085100E1,-5.314527452E-2,5.526061654E-1,-7.470009476E-2
2.579085100E1,2.579945624E-1,4.178318381E-2,3.396410868E-2
2.581085100E1,3.780557811E-1,-2.290395498E-1,1.192059834E-2
2.583086975E1,3.559424579E-1,-3.882659376E-1,-6.129596382E-2
2.585285100E1,2.455154657E-1,-3.673219979E-1,-1.296256036E-1
2.587285100E1,2.630909383E-1,-2.183232307E-1,-2.401573062E-1
2.589285569E1,3.046995699E-1,8.686503768E-2,-3.515267670E-1
2.591485100E1,3.262718618E-1,2.560921609E-1,-3.975161910E-1
2.593485100E1,2.289522886E-1,3.203551769E-1,-2.849424481E-1
2.595485100E1,9.407324344E-2,3.621209264E-1,-4.712389037E-2
2.597485100E1,8.148942143E-2,1.890889704E-1,3.930481523E-2
2.599485100E1,4.379031062E-2,4.639085010E-2,8.011061698E-3
2.601485100E1,-1.736951619E-1,8.653342724E-2,6.117378920E-2
2.603485100E1,-4.517959356E-1,1.399928629E-1,2.342929989E-1
2.605485100E1,-6.774669886E-1,2.167873383E-1,4.101174772E-1
2.607485100E1,-6.495417356E-1,1.152964532E-1,4.485670626E-1
2.609685100E1,-5.144532323E-1,-1.021192148E-1,4.605225623E-1
2.611685100E1,-4.216890037E-1,-3.243345320E-1,4.074994624E-1
2.613884944E1,-3.870965838E-1,-5.912128091E-1,2.720619142E-1
2.615885100E1,-4.514817595E-1,-2.711369097E-1,2.155132592E-1
2.617885100E1,-6.607292891E-1,4.138524830E-1,2.942974269E-1
2.619885100E1,-8.357160091E-1,6.916390657E-1,5.117828846E-1
2.622085100E1,-6.190333962E-1,1.739918739E-1,7.076612115E-1
2.624285100E1,-9.920451790E-2,-8.560141921E-1,5.038241744E-1
2.626285100E1,2.397558838E-1,-1.191972613E0,1.253844500E-1
2.628285256E1,3.314729333E-1,-8.099200130E-1,-1.799608916E-1
2.630485100E1,2.862688899E-1,-6.955137104E-2,-4.803146124E-1
2.632485100E1,2.526364028E-1,3.671474457E-1,-6.272364259E-1
2.634485100E1,2.161939293E-1,4.196469784E-1,-5.831668377E-1
2.636485100E1,9.403833747E-2,3.634124696E-1,-4.332430661E-1
2.638485100E1,-6.124360487E-2,4.274136722E-1,-2.416059226E-1
2.640485100E1,-8.304276317E-2,3.393618166E-1,-2.139424533E-1
2.642485100E1,-4.846779257E-2,1.889842451E-1,-3.758566678E-1
2.644685100E1,-1.923352852E-2,1.391376406E-1,-5.825385451E-1
2.646685100E1,-2.733185515E-2,1.549503356E-1,-6.320186257E-1
2.648685100E1,-1.548107062E-2,1.058193147E-1,-5.547703505E-1
2.650884944E1,-4.433136433E-3,4.916592315E-2,-4.387583137E-1
2.652884944E1,-6.255260110E-2,9.442231059E-2,-3.545636237E-1
2.654885100E1,-1.478991956E-1,1.677610427E-1,-3.769562244E-1
2.656885100E1,-1.756324768E-1,1.627868563E-1,-5.117828846E-1
2.658885100E1,-2.244668007E-1,2.163859159E-1,-6.473600864E-1
2.660885100E1,-2.936167419E-1,3.386287689E-1,-6.790378094E-1
2.662885100E1,-2.383247018E-1,4.396658838E-1,-6.878691912E-1
2.665085100E1,2.949606441E-2,4.083721340E-1,-8.103214502E-1
2.667285569E1,2.287603021E-1,1.828930527E-1,-1.005292177E0
2.669485100E1,3.326946497E-1,-1.155757010E-1,-1.085804224E0
2.671485100E1,3.537258804E-1,-3.790506124E-1,-9.868615270E-1
2.673485100E1,3.115238249E-1,-5.380849838E-1,-8.823162913E-1
2.675485100E1,2.208888680E-1,-3.499559760E-1,-9.833708405E-1
2.677485100E1,2.698802650E-1,1.389631182E-1,-1.084512711E0
2.679685100E1,5.359905958E-1,6.642723083E-2,-9.816778898E-1
2.681685100E1,6.763325334E-1,-4.973490238E-1,-9.454622865E-1
2.683685100E1,4.941376150E-1,-7.946833372E-1,-1.022518635E0
2.685884944E1,1.029918790E-1,-1.762957126E-1,-1.124899626E0
2.687885100E1,-3.769911081E-2,8.058708906E-1,-1.182669997E0
2.689885256E1,1.809906363E-1,1.167660117E0,-1.202322364E0
2.692085100E1,7.533015609E-1,6.098878384E-1,-1.184345484E0
2.694085100E1,1.030337691E0,-2.058964968E-1,-1.141724586E0
2.696285100E1,7.737917304E-1,-9.193521738E-1,-1.019918084E0
2.698285413E1,3.607246578E-1,-1.259970665E0,-8.737990856E-1
2.700485100E1,8.663814515E-2,-1.234017611E0,-6.541319489E-1
2.702485100E1,1.085943878E-1,-8.379849195E-1,-6.214070320E-1
2.704485100E1,2.924997211E-1,-3.353126645E-1,-6.230651140E-1
2.706485100E1,4.715705216E-1,1.648288965E-1,-5.436177254E-1
2.708485100E1,5.770058632E-1,5.305975676E-1,-3.606024683E-1
2.710485100E1,5.347165465E-1,6.138846278E-1,-9.978047013E-2
2.712485100E1,3.434633315E-1,3.374594152E-1,1.176875532E-1
2.714485100E1,4.883431271E-2,-2.160543054E-1,1.891587824E-1
2.716485100E1,-3.087836504E-1,-3.868871331E-1,2.105739713E-1
2.718485100E1,-6.217037439E-1,-1.795594692E-1,3.387683928E-1
2.720485100E1,-7.037865520E-1,1.897871047E-1,4.376936555E-1
2.722485100E1,-6.294878721E-1,5.383468270E-1,4.465774000E-1
2.724485100E1,-4.274834991E-1,5.458168387E-1,4.461410642E-1
2.726684944E1,-1.731192023E-1,2.776644230E-1,3.536560535E-1
2.728684944E1,-1.074250117E-1,2.360732406E-1,2.843490541E-1
2.730685100E1,-2.905624211E-1,4.794943035E-1,2.845410407E-1
2.732685100E1,-5.727996230E-1,6.002187133E-1,4.889539778E-1
2.734685100E1,-6.018069983E-1,1.129577085E-1,8.210901618E-1
2.736685100E1,-3.765896857E-1,-6.737843752E-1,1.004367113E0
2.738685100E1,-1.392947286E-1,-9.471901655E-1,8.767486811E-1
2.740685100E1,-1.231678873E-1,-4.459490776E-1,6.644992232E-1
2.742685100E1,-1.203404516E-1,2.779611349E-1,4.472755194E-1
2.744685100E1,3.883357719E-2,4.775046408E-1,3.216641843E-1
2.746885100E1,2.035752088E-1,3.412642181E-1,3.321012557E-1
2.748885100E1,1.627170444E-1,1.988628209E-1,3.848101795E-1
2.751085100E1,-7.190756500E-3,4.328416660E-3,4.251447618E-1
2.753086819E1,-4.752531648E-2,-1.206895187E-1,4.026125371E-1
2.755285100E1,1.069886796E-2,-3.083822131E-1,4.144633412E-1
2.757285100E1,-5.811946467E-3,-3.976732790E-1,4.284608662E-1
2.759285100E1,-1.796816438E-1,-2.377662063E-1,4.286877811E-1
2.761285413E1,-3.464129567E-1,2.574360557E-2,3.667460382E-1
2.763485100E1,-3.802723289E-1,2.601413131E-1,1.655270308E-1
2.765485100E1,-3.334451616E-1,3.338989317E-1,-8.196066320E-2
2.767485100E1,-2.401398569E-1,1.628741324E-1,-3.116634488E-1
2.769485100E1,-1.665044129E-1,-2.379756421E-1,-3.849498332E-1
2.771485100E1,-3.302162886E-2,-4.244466126E-1,-4.807509482E-1
2.773485100E1,1.425061375E-1,-2.582738101E-1,-6.986901760E-1
2.775685100E1,3.130771518E-1,6.333799660E-2,-1.013407946E0
2.777685100E1,3.482978940E-1,1.916371584E-1,-1.201554418E0
2.779685100E1,2.713114321E-1,1.546361744E-1,-1.253652573E0
2.781685100E1,7.620107383E-2,-6.878342479E-2,-1.205568671E0
2.783885100E1,-2.668957412E-1,-6.295402348E-2,-1.138565540E0
2.786085100E1,-3.917915225E-1,-1.086118370E-1,-9.652019739E-1
2.788085100E1,-6.511823088E-2,-3.450864851E-1,-9.408197403E-1
2.790085100E1,5.231798887E-1,-6.240599155E-1,-1.185130954E0
2.792285100E1,7.481703162E-1,-4.609239995E-1,-1.571232677E0
2.794285100E1,4.118453562E-1,4.604178667E-2,-1.742781043E0
2.796285100E1,-7.831292599E-2,3.986855447E-1,-1.698816180E0
2.798485100E1,-4.084593952E-1,3.478615582E-1,-1.545471549E0
2.800485256E1,-5.247157812E-1,1.520705372E-1,-1.285766602E0
2.802685100E1,-3.895924091E-1,-1.926843449E-2,-1.039692640E0
2.804685100E1,-5.400048569E-2,-1.707455665E-1,-1.068350911E0
2.806884944E1,2.874382734E-1,-4.110774100E-1,-1.248294353E0
2.808885100E1,3.029367924E-1,-4.623377025E-1,-1.423368335E0
2.810885100E1,1.653524935E-1,-3.295530677E-1,-1.456040978E0
2.812885100E1,1.540427655E-1,-1.923527420E-1,-1.347359300E0
2.815085100E1,2.532472610E-1,-2.011841089E-1,-1.300951004E0
2.817285256E1,2.458296269E-1,-3.919485807E-1,-1.249271750E0
2.819485100E1,2.222676724E-1,-6.636090875E-1,-1.091528893E0
2.821485256E1,2.087937444E-1,-6.637487411E-1,-1.000527501E0
2.823685100E1,1.493652761E-1,-2.501580417E-1,-1.024857283E0
2.825885100E1,-3.761184588E-2,6.239552051E-2,-9.153204560E-1
2.827885100E1,-1.506044567E-1,1.616349369E-1,-7.346265316E-1
2.829885413E1,4.417428374E-2,3.232349828E-2,-5.914047956E-1
2.832084944E1,4.295953512E-1,-2.160019428E-1,-6.549173594E-1
2.834085100E1,4.612905085E-1,-3.251373768E-1,-6.824237108E-1
2.836085100E1,1.936268210E-1,-1.703790426E-1,-5.226911902E-1
2.838085100E1,-9.255480766E-2,4.382521659E-2,-2.332807034E-1
2.840085100E1,-2.455329150E-1,-5.691518635E-2,-1.123992074E-2
2.842285725E1,-4.091924429E-1,-2.691995800E-1,9.539970011E-2
2.844485100E1,-5.613676906E-1,-1.311614960E-1,1.398706883E-1
2.846485100E1,-5.792049766E-1,1.948311031E-1,2.047271132E-1
2.848485100E1,-3.339338303E-1,1.156106070E-1,1.910786480E-1
2.850485100E1,8.215264976E-2,-4.415159523E-1,6.754423957E-3
2.852685100E1,2.297376841E-1,-7.792894840E-1,-1.517912894E-1
2.854885100E1,-9.166469425E-2,-5.982290506E-1,-1.267458051E-1
2.856885100E1,-5.141739845E-1,-1.366418302E-1,1.904154196E-2
2.858885100E1,-7.059507966E-1,2.552543879E-1,1.243721619E-1
2.860885100E1,-6.574480534E-1,4.399451315E-1,1.762259007E-1
2.862885100E1,-4.307996035E-1,4.396484494E-1,3.010343909E-1
2.864885100E1,-2.371902391E-2,1.330638975E-1,2.900213599E-1
2.866885100E1,3.316649199E-1,-1.130275205E-1,2.743657492E-2
2.868885100E1,5.546481609E-1,-4.187393785E-1,-8.937831223E-2
2.870885100E1,6.706078649E-1,-6.337988377E-1,7.342600077E-2
2.872885100E1,7.312929630E-1,-5.818753242E-1,2.730044127E-1
2.875084944E1,6.810972691E-1,-2.236639410E-1,4.675039053E-1
2.877085100E1,6.347064376E-1,3.522074521E-1,7.793942094E-1
2.879085100E1,8.525060415E-1,7.387978435E-1,1.151638031E0
2.881285725E1,1.284649611E0,2.495122701E-1,1.193717957E0
2.883485100E1,1.637415528E0,-5.388005972E-1,8.833809495E-1
2.885485100E1,1.618845224E0,-4.280070961E-1,7.350628376E-1
2.887485100E1,1.515678883E0,3.432364464E-1,7.192850709E-1
2.889485100E1,1.456407428E0,4.148124158E-1,6.923197508E-1
2.891485100E1,1.375511408E0,-3.005631566E-1,5.996252894E-1
2.893485100E1,1.100430131E0,-6.947283149E-1,4.517959356E-1
2.895485100E1,6.720913649E-1,-3.129898906E-1,4.236612320E-1
2.897485100E1,2.720444798E-1,2.755002081E-1,6.044249535E-1
2.899485100E1,5.784020945E-2,5.477715731E-1,7.871434689E-1
2.901485100E1,-2.298598550E-2,6.913423538E-1,9.299637675E-1
2.903485100E1,-5.593780056E-2,8.799426556E-1,9.840864539E-1
2.905485100E1,-1.448623254E-3,9.390394688E-1,9.210975170E-1
2.907485100E1,9.894271195E-2,6.950948238E-1,8.508828878E-1
2.909485100E1,1.245117858E-1,5.654517412E-1,8.143008351E-1
2.911485100E1,9.435249865E-2,6.197140813E-1,8.142484426E-1
2.913485100E1,2.811725438E-2,5.173504949E-1,8.120667934E-1
2.915485100E1,-1.580919176E-1,3.483677208E-1,7.698647380E-1
2.917485100E1,-3.009994924E-1,3.543891013E-1,7.104013562E-1
2.919684944E1,-1.691049486E-1,5.831145048E-1,6.921452284E-1
2.921684944E1,2.871066518E-2,6.860016584E-1,6.692814231E-1
2.923685100E1,-6.946410518E-3,5.601459742E-1,6.752678752E-1
2.925685100E1,-1.933650225E-1,3.870092928E-1,7.628659606E-1
2.927685100E1,-1.864360720E-1,2.943148613E-1,8.313177824E-1
2.929685100E1,-6.649704650E-3,2.708925605E-1,7.540695071E-1
2.931685100E1,5.700245500E-2,4.098556638E-1,6.151412725E-1
2.933885100E1,-6.771877408E-3,7.660773396E-1,6.295402646E-1
2.935885100E1,1.888446212E-1,8.334470987E-1,6.570815444E-1
2.937885100E1,5.301437378E-1,2.857452929E-1,4.882558584E-1
2.939885100E1,4.101872742E-1,7.122688740E-2,2.739643455E-1
2.941885100E1,-3.111049235E-1,1.769763790E-2,1.779014170E-1
2.944085100E1,-9.565451741E-1,-7.690793276E-1,2.546086311E-1
2.946285569E1,-1.007788062E0,-8.400967717E-1,3.639011383E-1
2.948286819E1,-6.857747436E-1,-1.134464052E-2,3.853512406E-1
2.950485100E1,-2.760936320E-1,7.575427294E-1,4.353549182E-1
2.952485100E1,-9.941395372E-2,5.790304542E-1,4.576951265E-1
2.954485100E1,-2.093871534E-1,1.333256960E-1,4.245338738E-1
2.956485100E1,-4.805589616E-1,-1.143888757E-1,4.441513717E-1
2.958485100E1,-6.921277642E-1,-1.477421224E-1,4.761956334E-1
2.960485100E1,-7.456570268E-1,-8.878489584E-2,5.074195862E-1
2.962485100E1,-6.579192877E-1,-4.225442186E-2,4.486892521E-1
2.964485100E1,-5.839347839E-1,1.935395598E-1,3.416132927E-1
2.966485100E1,-5.880014300E-1,5.321334600E-1,2.091253549E-1
2.968485100E1,-5.309815407E-1,5.969898701E-1,1.180889755E-1
2.970485100E1,-3.831172287E-1,3.345097899E-1,9.602801502E-2
2.972485100E1,-2.845759392E-1,6.263986975E-2,8.587019891E-2
2.974485100E1,-2.924124599E-1,4.206243530E-2,-1.082104165E-3
2.976485100E1,-2.795144916E-1,1.240056455E-1,-5.134758726E-2
2.978485100E1,-1.806241274E-1,1.790358722E-1,-1.029046103E-1
2.980485100E1,-7.724827528E-2,1.325228512E-1,-1.742362231E-1
2.982485100E1,-6.204645336E-2,1.416683793E-1,-1.733461022E-1
2.984485100E1,-1.579522900E-2,2.172760367E-1,-5.625196174E-2
2.986485100E1,1.908342987E-1,1.291718185E-1,7.031931728E-2
2.988485100E1,5.627813935E-1,-2.591464818E-1,-1.527163107E-2
2.990485100E1,8.165348172E-1,-5.419247150E-1,-2.131396085E-1
2.992485100E1,7.993433475E-1,-5.400921106E-1,-3.485073447E-1
2.994485100E1,5.679999590E-1,-3.233048022E-1,-2.785719931E-1
2.996485100E1,2.877000868E-1,-4.984660447E-2,-1.060985625E-1
2.998485100E1,7.066838443E-2,4.122991264E-1,4.213224724E-2
3.000485100E1,-7.538077235E-2,8.133059740E-1,2.139075547E-1
3.002485100E1,-1.767669469E-1,8.111417890E-1,3.960326612E-1
3.004485100E1,-1.256462485E-1,3.298846781E-1,4.806811213E-1
3.006485100E1,6.452482194E-2,-3.249453902E-1,4.115660787E-1
3.008485100E1,2.278701812E-1,-7.235611677E-1,2.445555329E-1
3.010485100E1,2.506816387E-1,-6.761230826E-1,8.777260780E-2
3.012485100E1,1.710073650E-1,-3.685262799E-1,-1.371828746E-2
3.014485100E1,1.126610041E-1,-1.186474785E-1,-1.021017600E-2
3.016485100E1,1.975712776E-1,-9.780824929E-2,6.101670861E-2
3.018485100E1,2.886599898E-1,-1.096764877E-1,1.361880451E-1
3.020485256E1,1.962273717E-1,7.592181861E-2,2.250078470E-1
3.022685256E1,-1.015258059E-1,2.506991029E-1,4.002214372E-1
3.024884944E1,-2.800729871E-1,1.764178872E-1,5.613327622E-1
3.026885100E1,-2.347118706E-1,1.132718660E-2,5.403364897E-1
3.029085100E1,-2.545737326E-1,8.251916617E-2,4.341855645E-1
3.031285100E1,-4.791626930E-1,2.851344347E-1,3.743556738E-1
3.033285100E1,-6.813591123E-1,2.651504278E-1,4.161388576E-1
3.035285100E1,-7.255856991E-1,8.796459436E-2,5.727472305E-1
3.037285100E1,-6.531894803E-1,2.685538232E-1,6.524913311E-1
3.039285100E1,-5.500056148E-1,6.548126340E-1,6.376560330E-1
3.041286194E1,-3.091327250E-1,9.245008826E-1,5.722236633E-1
3.043485100E1,1.135685742E-1,7.398625016E-1,3.351904750E-1
3.045485100E1,2.464579493E-1,5.694136620E-1,1.241103634E-1
3.047485100E1,-1.851794310E-2,5.658881068E-1,1.063778177E-1
3.049485100E1,-3.353126645E-1,3.141767085E-1,3.927165270E-1
3.051485100E1,-3.743556738E-1,-7.394959778E-2,7.131589651E-1
3.053485100E1,-2.614154220E-1,-3.776892424E-1,8.331154585E-1
3.055485100E1,-1.946391165E-1,-2.356718034E-1,8.295724392E-1
3.057485100E1,-1.582490057E-1,3.333578818E-3,7.833037376E-1
3.059485100E1,8.148942143E-2,1.677261442E-1,6.777113676E-1
3.061485100E1,3.825936317E-1,2.472957075E-1,4.980122447E-1
3.063485100E1,3.830125034E-1,3.524168730E-1,3.779859543E-1
3.065485100E1,1.222079545E-1,3.162885606E-1,3.089232743E-1
3.067485100E1,-1.011767387E-1,1.328893751E-1,2.708052993E-1
3.069485100E1,-1.463284045E-1,-8.056439459E-2,3.210009634E-1
3.071485100E1,-2.055125237E-1,-1.358040720E-1,4.797735512E-1
3.073685100E1,-3.959802985E-1,-2.434734255E-2,6.919183135E-1
3.075685100E1,-5.969724059E-1,6.747443229E-2,7.430040836E-1
3.077685100E1,-6.878691912E-1,1.551772207E-1,5.855579376E-1
3.079685100E1,-6.634520292E-1,3.326946497E-1,2.750289738E-1
3.081685100E1,-5.866749883E-1,4.705756605E-1,-6.913249195E-2
3.083685100E1,-4.785867333E-1,3.843215108E-1,-2.387086749E-1
3.085685100E1,-3.256959021E-1,2.152165473E-1,-2.719746530E-1
3.087685100E1,-2.243097126E-1,1.557357311E-1,-2.608045638E-1
3.089685100E1,-1.994562298E-1,1.422443390E-1,-1.873436421E-1
3.091685100E1,-1.343030781E-1,5.829399824E-2,-1.122246683E-1
3.093685100E1,8.290314116E-3,-1.148426626E-2,-1.697332710E-1
3.095685100E1,1.964891702E-1,-1.392772701E-2,-2.995159626E-1
3.097885100E1,4.100651145E-1,-1.596976258E-2,-4.616221189E-1
3.099885100E1,5.157796741E-1,-2.373647690E-2,-5.883330107E-1
3.101885100E1,4.036248326E-1,-4.094542563E-2,-6.616892219E-1
3.104085100E1,4.759512842E-2,1.202706397E-1,-5.712462664E-1
3.106085100E1,-4.607669264E-2,1.594358236E-1,-4.601909518E-1
3.108085100E1,2.122494876E-1,-6.141813472E-2,-5.234068036E-1
3.110085100E1,4.931078851E-1,-2.658834457E-1,-8.035146594E-1
3.112085100E1,3.980223238E-1,-2.465626597E-1,-1.129769087E0
3.114085100E1,-1.836086437E-2,2.116211653E-1,-1.310585141E0
3.116085100E1,-1.170417815E-1,4.524242580E-1,-1.270285487E0
3.118285256E1,2.652027905E-1,3.711093664E-1,-1.216651559E0
3.120485100E1,6.363470554E-1,2.932153177E-3,-1.251662850E0
3.122485100E1,5.891882181E-1,-2.245366126E-1,-1.294807434E0
3.124485100E1,2.700024247E-1,-2.347642332E-1,-1.255746961E0
3.126485100E1,2.160717547E-2,-3.979699612E-1,-1.110692620E0
3.128485100E1,-1.232376993E-1,-5.683315396E-1,-9.298765063E-1
3.130485100E1,-2.744879425E-1,-5.775818229E-1,-7.424979806E-1
3.132485100E1,-4.220729768E-1,-4.167846143E-1,-4.949579239E-1
3.134485100E1,-4.473627806E-1,-2.752733231E-1,-3.131818771E-1
3.136485100E1,-3.474775851E-1,-2.388308495E-1,-2.314132005E-1
3.138485100E1,-2.553591132E-1,-2.314655632E-1,-1.130275205E-1
3.140485256E1,-2.587799728E-1,-2.828305960E-1,2.665117756E-2
3.142485256E1,-2.635098100E-1,-2.996555865E-1,1.079835221E-1
3.144685100E1,-2.696359158E-1,-1.279500872E-1,1.727352291E-1
3.146685100E1,-2.605252862E-1,9.335765988E-2,2.651678622E-1
3.148685100E1,-8.740609139E-2,1.594358236E-1,2.811201811E-1
3.150685100E1,2.329141945E-1,-5.373868719E-2,2.140122652E-1
3.152685100E1,3.425033987E-1,-2.189515531E-1,7.974409312E-2
3.154885100E1,6.939429045E-2,-1.041263416E-1,-8.936085738E-3
3.157085100E1,-3.879343271E-1,-1.804321408E-1,2.187072039E-1
3.159085100E1,-5.880363584E-1,-4.775395393E-1,4.942772388E-1
3.161085100E1,-5.715080500E-1,-4.911356568E-1,6.621953845E-1
3.163086975E1,-4.680624008E-1,-6.473426521E-2,7.239800096E-1
3.165285100E1,-1.757546514E-1,4.026300013E-1,6.228032708E-1
3.167285100E1,2.694613934E-1,3.755075932E-1,3.754901290E-1
3.169285100E1,5.522745252E-1,7.763224840E-2,2.097711265E-1
3.171285100E1,5.112767220E-1,-1.575334221E-1,2.356194556E-1
3.173285569E1,2.745752037E-1,-2.381152660E-1,2.970899343E-1
3.175485100E1,-3.370230645E-2,-2.235417664E-1,2.923426628E-1
3.177485100E1,-2.212204784E-1,-1.531875432E-1,1.925447285E-1
3.179685100E1,-3.391000330E-1,1.115265395E-2,1.449146867E-1
3.181685100E1,-3.496069014E-1,4.691445082E-2,2.521128058E-1
3.183885100E1,-2.725855112E-1,-5.166174378E-3,3.047868609E-1
3.186085100E1,-2.468244582E-1,1.907644793E-2,2.407332659E-1
3.188085100E1,-2.480636388E-1,-3.857177682E-3,9.691813588E-2
3.190085100E1,-2.625673413E-1,6.002187356E-2,-6.635741889E-2
3.192085100E1,-2.539977729E-1,1.252273768E-1,-2.495297194E-1
3.194085100E1,-2.587276101E-1,5.710717291E-2,-3.519805372E-1
3.196285256E1,-3.063925505E-1,-4.776966199E-2,-3.736575246E-1
3.198485100E1,-3.117507100E-1,-2.528982051E-2,-3.379655480E-1
3.200485100E1,-1.966287941E-1,5.916666240E-2,-3.589095175E-1
3.202485100E1,3.885103017E-2,-9.142034501E-2,-4.815014303E-1
3.204485100E1,3.079109788E-1,-4.743979275E-1,-6.255958080E-1
3.206485100E1,3.050311804E-1,-6.125407815E-1,-6.273760796E-1
3.208485100E1,1.382998824E-1,-3.528881073E-1,-4.557578266E-1
3.210485100E1,2.601587772E-1,5.235987483E-4,-2.858151197E-1
3.212485100E1,7.186393142E-1,2.401573025E-2,-3.738146126E-1
3.214485100E1,9.830392599E-1,-8.011061698E-3,-7.467390895E-1
3.216485100E1,7.076786757E-1,8.895943314E-2,-1.082278609E0
3.218485100E1,1.721941829E-1,3.899065554E-1,-1.076152563E0
3.220485100E1,4.206243437E-3,3.112969100E-1,-8.403585553E-1
3.222485100E1,2.869670391E-1,-2.061233856E-2,-5.112069249E-1
3.224485100E1,7.119896412E-1,-2.869495749E-1,-3.656813800E-1
3.226485100E1,8.708145618E-1,-2.981545925E-1,-3.663969636E-1
3.228485100E1,7.913671732E-1,-2.224422097E-1,-4.011290073E-1
3.230485100E1,6.688101888E-1,-2.296504229E-1,-4.087037444E-1
3.232485100E1,6.435726881E-1,-4.059286714E-1,-3.782128394E-1
3.234485100E1,5.943718553E-1,-4.791277945E-1,-3.161664009E-1
3.236485100E1,4.154058099E-1,-3.587349653E-1,-1.953896135E-1
3.238485100E1,1.517738253E-1,-1.724210829E-1,1.548107062E-2
3.240485100E1,-4.803146049E-2,-9.372418374E-2,2.934247553E-1
3.242485100E1,-1.150346473E-1,-1.308647841E-1,5.100899339E-1
3.244485100E1,-1.283864230E-1,-2.451140434E-1,6.019117236E-1
3.246485100E1,-2.149721980E-1,-2.490933836E-1,5.780879259E-1
3.248485100E1,-3.345796168E-1,-3.619812801E-2,5.022359490E-1
3.250485100E1,-4.553389549E-1,1.246165112E-1,5.131267905E-1
3.252485100E1,-5.830795765E-1,2.571218908E-1,6.173927784E-1
3.254485100E1,-7.233517170E-1,4.252669215E-1,7.622202039E-1
3.256485100E1,-8.290662766E-1,4.825486243E-1,9.044470787E-1
3.258485100E1,-7.112740278E-1,3.564136922E-1,9.101542830E-1
3.260485100E1,-4.669104815E-1,1.226791963E-1,6.567673683E-1
3.262485100E1,-5.403713584E-1,1.884955540E-2,3.978478014E-1
3.264485100E1,-1.128093600E0,4.646241069E-1,4.749215543E-1
3.266685100E1,-1.825439811E0,8.267973661E-1,1.093937516E0
3.268685100E1,-1.575107336E0,2.392148226E-1,1.511472583E0
3.270685100E1,-6.498733163E-1,-5.038591027E-1,1.349488616E0
3.272685100E1,9.215338528E-2,-6.328912973E-1,8.537801504E-1
3.274685100E1,1.516342014E-1,-4.125958309E-2,4.020016789E-1
3.276685100E1,5.510004610E-2,3.667809367E-1,2.181661576E-1
3.278884944E1,2.945243120E-1,2.954842448E-1,1.604481190E-1
3.280885100E1,5.638809800E-1,1.432042718E-1,2.053379864E-1
3.282885100E1,6.167470217E-1,1.005833223E-1,2.923775613E-1
3.284885100E1,4.829325974E-1,7.930775732E-2,4.305378199E-1
3.287085100E1,3.169692457E-1,3.490658477E-3,5.768836737E-1
3.289085100E1,2.261248529E-1,-1.030267850E-1,5.995729566E-1
3.291086350E1,9.632471949E-2,-1.446354389E-1,5.348212123E-1
3.293086975E1,-3.605850041E-2,-1.068665087E-1,4.217064381E-1
3.295285100E1,-1.801354289E-1,-3.935717419E-2,2.485872507E-1
3.297285100E1,-2.993239760E-1,1.345648803E-2,1.400452256E-1
3.299285100E1,-3.775321543E-1,1.458048075E-1,7.400196046E-3
3.301285100E1,-4.129274487E-1,2.567553818E-1,-1.044928655E-1
3.303285100E1,-3.948632777E-1,2.275211215E-1,-2.278701812E-1
3.305285100E1,-3.157126009E-1,1.326624751E-1,-3.743905723E-1
3.307285725E1,-2.152339965E-1,2.464404888E-2,-4.794419408E-1
3.309285725E1,-1.119803265E-1,-3.914773464E-2,-5.408775210E-1
3.311485100E1,-4.721115530E-2,-8.419468254E-2,-5.807583332E-1
3.313485100E1,5.120795965E-2,-7.983136177E-2,-6.471157074E-1
3.315485100E1,1.972396523E-1,-1.269203424E-1,-7.934266925E-1
3.317485100E1,3.113667369E-1,-2.694962919E-1,-9.387253523E-1
3.319485100E1,3.013136387E-1,-2.970899343E-1,-1.000981212E0
3.321485100E1,2.169967890E-1,-2.967583239E-1,-8.762949109E-1
3.323685100E1,3.285407722E-1,-2.719571888E-1,-7.452905178E-1
3.325885100E1,7.926587462E-1,-2.587625086E-1,-8.856847882E-1
3.327885100E1,9.855524898E-1,-2.162288427E-1,-1.243075848E0
3.330085100E1,5.575628877E-1,1.472010612E-1,-1.545558810E0
3.332285725E1,-8.328711241E-2,5.411742330E-1,-1.400172949E0
3.334485100E1,-2.866877913E-1,5.268799663E-1,-9.907361269E-1
3.336485100E1,5.300565064E-2,-2.459168993E-2,-6.679375172E-1
3.338485100E1,5.873032808E-1,-3.312809467E-1,-6.543762684E-1
3.340485100E1,9.955009222E-1,-2.231054306E-1,-9.000663161E-1
3.342485100E1,1.141602397E0,-9.499827027E-2,-1.120518804E0
3.344485100E1,1.129611969E0,-2.433861643E-1,-1.152632833E0
3.346485100E1,9.865124226E-1,-4.666661322E-1,-1.047319770E0
3.348485100E1,7.195294499E-1,-5.371425152E-1,-8.208981752E-1
3.350485100E1,3.982143104E-1,-4.179888964E-1,-4.522322714E-1
3.352485100E1,1.446005255E-1,-2.771059275E-1,-5.394812673E-2
3.354485100E1,4.050909355E-2,-2.082003206E-1,1.928588748E-1
3.356485100E1,-4.569271952E-2,-7.213445753E-2,2.968106866E-1
3.358485100E1,-1.712866127E-1,6.572909653E-2,3.475125134E-1
3.360485100E1,-2.761285305E-1,9.817477316E-2,3.432713449E-1
3.362485100E1,-3.627492189E-1,8.578293025E-2,3.087661862E-1
3.364485100E1,-4.493350089E-1,2.898293734E-1,3.443185389E-1
3.366485100E1,-5.176297426E-1,6.555631161E-1,4.713261724E-1
3.368485100E1,-4.878369868E-1,8.259072304E-1,6.400296688E-1
3.370485100E1,-2.479938269E-1,5.408426523E-1,6.825633645E-1
3.372485100E1,-6.195918843E-2,3.310016990E-1,5.625720024E-1
3.374485100E1,-3.406708241E-1,5.299692154E-1,6.059783101E-1
3.376485100E1,-8.808153272E-1,5.556430221E-1,9.429839253E-1
3.378485100E1,-8.506385684E-1,-1.275312006E-1,1.136645675E0
3.380485100E1,-3.712489903E-1,-5.554859638E-1,9.603848457E-1
3.382485100E1,-2.886774577E-2,-4.179888964E-1,6.881484389E-1
3.384485100E1,-7.927285135E-2,5.654866621E-2,5.912652016E-1
3.386485100E1,-2.223898470E-1,3.279997110E-1,7.164925337E-1
3.388485100E1,-2.300867587E-1,2.888869047E-1,8.548622727E-1
3.390485100E1,-2.407681644E-1,1.784075499E-1,9.118996263E-1
3.392485100E1,-2.815565169E-1,-6.471680850E-2,9.010087848E-1
3.394485569E1,-2.605427504E-1,-2.181836069E-1,8.496960998E-1
3.396685100E1,-2.080432475E-1,-3.132342398E-1,8.094313741E-1
3.398685100E1,-2.075022012E-1,-2.668433785E-1,7.862184644E-1
3.400884944E1,-3.049962819E-1,-3.036872949E-3,7.952941656E-1
3.402885100E1,-4.354421794E-1,1.925796270E-1,7.673165202E-1
3.404885100E1,-5.499706864E-1,2.401223928E-1,6.670473814E-1
3.407085100E1,-6.788108945E-1,2.799333632E-1,5.062502027E-1
3.409085100E1,-7.318514585E-1,4.359658062E-1,3.091327250E-1
3.411285100E1,-6.424906254E-1,5.056044459E-1,1.439023912E-1
3.413285100E1,-3.972718418E-1,3.238283992E-1,-6.260495633E-2
3.415285100E1,-6.293657422E-2,6.794566661E-2,-3.841644228E-1
3.417285100E1,1.751612425E-1,-1.976410896E-1,-7.067536116E-1
3.419285413E1,2.459867001E-1,-3.488040566E-1,-9.018465281E-1
3.421485100E1,3.759090006E-1,-4.694237411E-1,-9.314996600E-1
3.423485100E1,5.216614604E-1,-4.636118114E-1,-9.194918275E-1
3.425485100E1,4.561766982E-1,-2.775422633E-1,-8.804662228E-1
3.427485100E1,3.978129029E-1,-1.276184767E-1,-7.416253090E-1
3.429485100E1,6.244264245E-1,-3.541273177E-1,-7.037516832E-1
3.431485569E1,9.223366976E-1,-7.141712904E-1,-1.035887837E0
3.433684944E1,7.597418427E-1,-8.226434588E-1,-1.601810813E0
3.435685100E1,6.979571283E-2,-3.044028878E-1,-1.886840582E0
3.437685100E1,-4.230678082E-1,3.604454100E-1,-1.786588788E0
3.439885100E1,-1.482482702E-1,6.203249097E-1,-1.507929564E0
3.441885100E1,5.671272874E-1,2.423564196E-1,-1.362020016E0
3.444085100E1,1.104426861E0,-3.539876640E-1,-1.281228781E0
3.446285100E1,1.151533365E0,-7.113263607E-1,-1.157118440E0
3.448286038E1,1.029185772E0,-8.237953782E-1,-1.052747726E0
3.450485100E1,9.250943065E-1,-1.043811560E0,-9.236980677E-1
3.452485100E1,8.276002407E-1,-1.007421494E0,-7.946309447E-1
3.454485100E1,8.521395326E-1,-6.221051812E-1,-5.899736285E-1
3.456485100E1,1.046185255E0,-3.032858670E-1,-2.883633077E-1
3.458485100E1,1.171185732E0,7.766715437E-2,-1.012639999E-1
3.460485100E1,1.025660157E0,1.987755448E-1,-9.471901506E-2
3.462485100E1,6.418972015E-1,8.367108554E-2,-7.503170520E-2
3.464485569E1,3.142814338E-1,-1.677610427E-1,2.391101047E-2
3.466685100E1,1.225919276E-1,-5.460262299E-1,2.092126161E-1
3.468685100E1,-4.005530477E-2,-4.925319254E-1,3.723834455E-1
3.470685100E1,-2.403318435E-1,-3.543018363E-3,5.219057798E-1
3.472884944E1,-4.297873378E-1,4.777315259E-1,6.679375172E-1
3.474884944E1,-5.636366010E-1,5.413662195E-1,7.336491346E-1
3.476885100E1,-6.909758449E-1,4.266457260E-1,7.560242414E-1
3.479085100E1,-8.189433813E-1,4.307472706E-1,8.499928117E-1
3.481085100E1,-9.334893227E-1,6.501526237E-1,9.956055880E-1
3.483086975E1,-1.018451929E0,7.588691711E-1,1.203125238E0
3.485285100E1,-8.206537962E-1,2.915397882E-1,1.284056187E0
3.487285569E1,-4.581838250E-1,-4.314279258E-1,1.097288489E0
3.489485100E1,-2.170840502E-1,-8.725773692E-1,7.190058231E-1
3.491485100E1,-3.811624646E-1,-3.723310828E-1,4.123863876E-1
3.493485100E1,-5.314003825E-1,4.928984344E-1,3.118205369E-1
3.495485100E1,-2.967059612E-1,7.350977659E-1,3.780906796E-1
3.497485100E1,4.419173673E-2,5.936388373E-1,3.523470759E-1
3.499485100E1,6.794566661E-2,3.938859105E-1,2.870543003E-1
3.501485100E1,-1.580395699E-1,3.237760365E-1,2.910336554E-1
3.503485100E1,-2.577851415E-1,2.464230359E-1,3.629237711E-1
3.505485100E1,-1.130100712E-1,7.738789916E-2,4.491779208E-1
3.507485100E1,2.981022373E-2,-5.407030135E-2,4.104839861E-1
3.509685100E1,-1.464331243E-2,-1.315978263E-2,1.990722567E-1
3.511885100E1,-2.071007639E-1,1.559975296E-1,2.146754973E-2
3.514084944E1,-3.640233278E-1,3.449468613E-1,-8.063421398E-2
3.516085100E1,-4.667882919E-1,4.633674622E-1,-9.972811490E-2
3.518285100E1,-4.672944546E-1,4.311835766E-1,-6.784094870E-2
3.520285412E1,-4.123165905E-1,3.286454976E-1,-2.830924094E-2
3.522485100E1,-3.208089769E-1,2.761459947E-1,-1.385616958E-1
3.524485100E1,-2.063153684E-1,2.790781558E-1,-2.625673413E-1
3.526485100E1,5.263913050E-2,2.468070090E-1,-3.756297529E-1
3.528485100E1,3.793123960E-1,1.574287005E-2,-5.295852423E-1
3.530485100E1,5.121668577E-1,-4.343251884E-1,-6.176370978E-1
3.532485100E1,2.777691483E-1,-5.749987364E-1,-6.462256312E-1
3.534485100E1,-4.014257342E-2,-9.642943740E-2,-6.151587367E-1
3.536485100E1,7.229153812E-2,1.587900519E-1,-5.201953650E-1
3.538485100E1,5.135631561E-1,-2.643301189E-1,-5.136852860E-1
3.540485100E1,7.995178699E-1,-6.614623070E-1,-7.949974537E-1
3.542485256E1,5.679301620E-1,-5.699023604E-1,-1.148618579E0
3.544685100E1,-1.045452245E-2,1.046150327E-1,-1.199512482E0
3.546685100E1,-1.969778538E-1,4.699648023E-1,-9.282708168E-1
3.548685100E1,8.068656921E-2,2.999173701E-1,-6.589839458E-1
3.550685100E1,5.740213394E-1,-1.859473735E-1,-6.174276471E-1
3.552685100E1,8.944987059E-1,-4.851317108E-1,-8.050680161E-1
3.554885100E1,7.141887546E-1,-3.285931349E-1,-9.725672603E-1
3.557085100E1,4.036946595E-1,-1.891413331E-1,-9.343445301E-1
3.559085100E1,4.761432707E-1,-3.952472508E-1,-8.209505081E-1
3.561285256E1,5.627465248E-1,-4.743106663E-1,-6.703984141E-1
3.563285256E1,3.701668680E-1,-2.340660989E-1,-5.239827633E-1
3.565285569E1,1.296256036E-1,-7.314674556E-2,-2.989749014E-1
3.567285569E1,-5.707226694E-3,-5.112069473E-2,-1.025729999E-1
3.569485100E1,-2.715732343E-2,-2.262295783E-1,3.881612420E-2
3.571485100E1,-4.396484420E-2,-3.257656991E-1,1.222254038E-1
3.573685100E1,-2.577851415E-1,-1.610764414E-1,2.447998822E-1
3.575685100E1,-5.465847850E-1,1.577079445E-1,3.968704045E-1
3.577685100E1,-7.050955892E-1,4.254763722E-1,5.731661320E-1
3.579685100E1,-8.517904878E-1,7.454475760E-1,7.381695509E-1
3.581685100E1,-9.506983161E-1,9.377130270E-1,9.778032303E-1
3.583685100E1,-6.820397377E-1,7.254810333E-1,1.039902091E0
3.585685100E1,-1.982519478E-1,4.663519859E-1,8.087506890E-1
3.587685100E1,-2.211332135E-2,3.407406211E-1,6.288945079E-1
3.589685100E1,-4.526686072E-1,6.281265616E-1,7.021459341E-1
3.591685100E1,-9.726719856E-1,8.091520667E-1,1.135842800E0
3.593685100E1,-8.172504306E-1,3.693465889E-1,1.503705859E0
3.595685100E1,-1.586853415E-1,-2.024931014E-1,1.482866645E0
3.597885100E1,2.403492928E-1,-9.829694033E-2,1.133975267E0
3.599885100E1,9.367182106E-2,2.873161137E-1,9.237155318E-1
3.601885100E1,-5.496041849E-2,4.471882582E-1,8.765218258E-1
3.604084944E1,2.420771681E-2,4.472057223E-1,8.785638213E-1
3.606084944E1,7.169812173E-2,3.403392136E-1,9.964782596E-1
3.608085100E1,5.918411538E-2,4.780456796E-2,1.172512174E0
3.610285100E1,6.888814270E-2,-4.199087620E-1,1.264194369E0
3.612286194E1,8.674286306E-2,-6.177592874E-1,1.232865691E0
3.614485100E1,4.028219730E-2,-4.429994822E-1,1.086729288E0
3.616485100E1,-8.700466156E-2,-2.024232894E-1,9.094387293E-1
3.618485100E1,-1.394343525E-1,-2.111499310E-1,7.610333562E-1
3.620485100E1,-8.332201838E-2,-2.373996824E-1,5.924171209E-1
3.622485100E1,1.494001877E-2,-2.295456976E-1,3.838677108E-1
3.624485100E1,3.769911081E-2,-1.054004356E-1,1.524894089E-1
3.626485100E1,-1.249655709E-2,4.984660447E-2,-3.724532574E-2
3.628485100E1,-2.373647690E-2,1.737649739E-1,-1.523148865E-1
3.630485100E1,2.129301662E-3,2.110277563E-1,-1.723861694E-1
3.632485100E1,7.770206034E-2,1.437802166E-1,-1.504822820E-1
3.634485100E1,1.223824844E-1,6.848672032E-2,-2.275385708E-1
3.636485100E1,9.171704948E-2,2.338741161E-2,-3.613704145E-1
3.638485100E1,3.988077492E-2,-1.395739764E-1,-4.365068376E-1
3.640485100E1,5.277875811E-2,-4.755847752E-1,-4.900884628E-1
3.642485256E1,-9.302604944E-3,-6.300464272E-1,-5.322730541E-1
3.644685100E1,-2.165080905E-1,-1.133416817E-1,-4.521799088E-1
3.646685100E1,-1.601165086E-1,2.824640870E-1,-2.328792810E-1
3.648685100E1,4.840321541E-1,-4.052654654E-2,-2.708925605E-1
3.650885100E1,1.162947774E0,-5.163207650E-1,-7.369478345E-1
3.652885100E1,1.131112933E0,-5.222548842E-1,-1.189825892E0
3.654885100E1,5.733755827E-1,-2.958333120E-2,-1.360309601E0
3.656885100E1,1.108458638E-1,3.970100582E-1,-1.137780190E0
3.658885100E1,9.688322991E-2,4.117929935E-1,-6.786538363E-1
3.660885100E1,5.431290269E-1,4.654793069E-2,-3.307922482E-1
3.662885100E1,9.921847582E-1,-4.441862926E-2,-3.221877813E-1
3.665085100E1,1.116888523E0,1.407433450E-1,-4.386710525E-1
3.667285725E1,1.075349689E0,2.752384171E-2,-4.703138769E-1
3.669485100E1,1.014524937E0,-4.086339474E-1,-4.132939577E-1
3.671485100E1,8.386481404E-1,-7.359879017E-1,-3.259227872E-1
3.673485100E1,5.186594725E-1,-6.329610944E-1,-1.692969352E-1
3.675485100E1,1.684417278E-1,-2.052856237E-1,8.948303014E-2
3.677485100E1,2.590068616E-2,9.752900153E-2,3.376339376E-1
3.679485100E1,-4.766494036E-2,1.998925656E-1,5.448045135E-1
3.681485100E1,-2.418328226E-1,2.529680133E-1,7.148519754E-1
3.683684944E1,-4.867548645E-1,2.315004766E-1,8.048585653E-1
3.685685100E1,-5.525887012E-1,1.198517606E-1,9.164723754E-1
3.687685100E1,-5.138947368E-1,2.119527906E-1,1.006566286E0
3.689685100E1,-5.495867133E-1,5.950350761E-1,1.121356606E0
3.691685100E1,-6.196442246E-1,9.102240801E-1,1.241993785E0
3.693884944E1,-5.250648260E-1,1.080393672E0,1.305611014E0
3.695885100E1,-3.283662498E-1,1.004978061E0,1.171185732E0
3.697885256E1,-4.819726646E-1,9.155124426E-1,1.040059209E0
3.700085100E1,-1.053410888E0,1.087235451E0,1.171674371E0
3.702085100E1,-1.375528932E0,9.103986621E-1,1.456215501E0
3.704285100E1,-1.089399576E0,2.087064683E-1,1.589820385E0
3.706285881E1,-5.149768591E-1,-2.691472173E-1,1.394971848E0
3.708485100E1,-1.857379377E-1,-1.060113013E-1,1.100883842E0
3.710485100E1,-1.535715163E-1,2.258805037E-1,9.699143767E-1
3.712485100E1,-6.403613091E-2,2.963918149E-1,8.857196569E-1
3.714485100E1,1.119105145E-1,1.921956539E-1,7.872481942E-1
3.716485100E1,1.347917765E-1,7.679449022E-2,7.504217625E-1
3.718485100E1,-4.827580601E-2,2.563888580E-2,7.493221760E-1
3.720485100E1,-2.368586361E-1,-7.051130291E-3,7.892553210E-1
3.722485100E1,-2.389530241E-1,-8.779006451E-2,8.131139874E-1
3.724485100E1,-1.463633180E-1,-1.529082954E-1,7.021808624E-1
3.726485100E1,-2.108706832E-1,-4.002039880E-2,5.294630527E-1
3.728485100E1,-4.508011043E-1,1.076519042E-1,4.543091953E-1
3.730485100E1,-6.004805565E-1,6.468190253E-2,3.873234689E-1
3.732485100E1,-5.721364021E-1,-1.570098251E-1,2.058441341E-1
3.734485100E1,-5.044525266E-1,-2.708401978E-1,1.576032303E-2
3.736485100E1,-4.976108074E-1,-2.099281996E-1,-1.075820923E-1
3.738485100E1,-3.325375915E-1,-1.450543106E-1,-3.296403289E-1
3.740485100E1,1.843067631E-2,-2.031563222E-1,-7.512420416E-1
3.742485100E1,2.725157142E-1,-2.733360231E-1,-1.091424227E0
3.744485100E1,2.978928089E-1,-2.747497261E-1,-1.260738611E0
3.746485100E1,1.637642384E-1,-1.045452207E-1,-1.256061077E0
3.748485100E1,7.435102481E-3,1.675515994E-2,-1.180802464E0
3.750485100E1,-6.298892945E-2,-7.902850956E-2,-1.164588451E0
3.752485100E1,-8.848819137E-2,-1.021366641E-1,-1.185759187E0
3.754485100E1,-1.609717160E-1,1.813047975E-1,-1.172040939E0
3.756485100E1,-1.707455665E-1,3.018372357E-1,-1.115684271E0
3.758485100E1,6.276203692E-2,1.751786917E-1,-1.110832214E0
3.760485100E1,5.021835566E-1,-1.415811032E-1,-1.309764862E0
3.762485100E1,8.769930601E-1,-2.998999357E-1,-1.618129611E0
3.764485100E1,9.590235353E-1,-1.795420200E-1,-1.779310822E0
3.766485100E1,7.786961198E-1,8.972737938E-2,-1.734525681E0
3.768485100E1,6.164328456E-1,1.600117832E-1,-1.519570947E0
3.770485100E1,6.441137791E-1,2.005383372E-2,-1.294126749E0
3.772485100E1,6.453529596E-1,-4.323180392E-2,-1.067722678E0
3.774485100E1,6.042329669E-1,-1.548107062E-2,-8.197462559E-1
3.776485100E1,6.607990861E-1,3.595378250E-2,-6.523866057E-1
3.778485100E1,7.712435126E-1,6.073745899E-3,-5.861862898E-1
3.780485100E1,8.274257183E-1,-1.497143358E-1,-6.228905320E-1
3.782485100E1,8.006174564E-1,-4.216017425E-1,-7.166147232E-1
3.784485100E1,6.296624541E-1,-5.487140417E-1,-7.067885399E-1
3.786485100E1,4.351803958E-1,-6.046693325E-1,-5.367410779E-1
3.788485100E1,2.499136925E-1,-5.657833815E-1,-3.136705756E-1
3.790485100E1,1.120152324E-1,-5.059884191E-1,-1.049466506E-1
3.792485100E1,-1.551597659E-2,-4.347091615E-1,1.258382350E-1
3.794485100E1,-6.977826357E-2,-3.983713984E-1,2.583436370E-1
3.796485100E1,-1.499063224E-1,-3.120648563E-1,2.892534137E-1
3.798485100E1,-3.210183978E-1,-1.287703961E-1,2.921157479E-1
3.800485100E1,-5.267578363E-1,-1.544616371E-2,3.332182467E-1
3.802485100E1,-6.927037239E-1,9.494590759E-2,4.922003150E-1
3.804485100E1,-7.198086977E-1,2.076592743E-1,5.805663466E-1
3.806485100E1,-6.518979073E-1,1.528035700E-1,5.534788370E-1
3.808485100E1,-7.153406739E-1,-1.558579039E-2,5.558000803E-1
3.810485100E1,-9.386380911E-1,4.220206290E-2,5.783148408E-1
3.812486038E1,-1.252081752E0,5.196543336E-1,6.817081571E-1
3.814685100E1,-1.428307652E0,6.917437911E-1,1.025450706E0
3.816685100E1,-1.194450974E0,1.719323844E-1,1.386245251E0
3.818885100E1,-6.667855978E-1,-4.892506897E-1,1.368442893E0
3.820885100E1,-3.078935444E-1,-4.715181589E-1,1.071702003E0
3.823086975E1,-2.206096202E-1,8.436921239E-2,7.294428945E-1
3.825285881E1,-1.241627261E-1,3.784048259E-1,5.544038415E-1
3.827485100E1,-2.082177810E-2,2.521651685E-1,5.308069587E-1
3.829485100E1,-1.438151300E-2,1.198343039E-1,5.758364797E-1
3.831685100E1,-9.916960448E-2,1.526813954E-1,7.050082684E-1
3.833685100E1,-2.911209129E-2,9.314822406E-2,8.035495877E-1
3.835685100E1,2.233148813E-1,-5.305800959E-2,7.796560526E-1
3.837685100E1,4.575904310E-1,-1.681450158E-1,6.030461788E-1
3.839685100E1,4.221078753E-1,-8.728391677E-2,3.420147300E-1
3.841685100E1,1.425061375E-1,2.940879762E-2,1.450717598E-1
3.843884944E1,-1.543918252E-1,1.584758982E-2,7.326892018E-2
3.845885100E1,-3.312111199E-1,-1.867502346E-3,4.049163684E-2
3.847885100E1,-5.272639394E-1,1.195201501E-1,6.291911751E-2
3.849885881E1,-6.491926908E-1,2.998475730E-1,9.780824929E-2
3.852085100E1,-5.201779008E-1,1.967684180E-1,8.290314116E-3
3.854285100E1,-2.431069165E-1,-4.747295380E-2,-3.574085236E-1
3.856285412E1,-1.042834222E-1,-1.360135078E-1,-7.725874186E-1
3.858485100E1,-7.813838869E-2,-7.787659019E-2,-1.020895481E0
3.860485100E1,-1.844812930E-2,1.233773232E-1,-1.102908492E0
3.862485100E1,9.628981352E-2,1.729621291E-1,-1.100988626E0
3.864485100E1,1.885479242E-1,-4.628613219E-2,-1.099033833E0
3.866485100E1,1.549154222E-1,-2.628291249E-1,-1.125510454E0
3.868485100E1,-1.418952644E-2,-2.579247653E-1,-1.070776939E0
3.870485256E1,-1.410749704E-1,3.338814899E-2,-9.008691311E-1
3.872685100E1,2.300343961E-1,1.982344985E-1,-9.125628471E-1
3.874685100E1,7.184123993E-1,1.550026834E-1,-1.242168307E0
3.876885100E1,7.456744909E-1,1.949707270E-1,-1.700893164E0
3.879085100E1,3.232349753E-1,4.752705991E-1,-1.844935179E0
3.881085100E1,7.110471278E-2,5.690646172E-1,-1.639893889E0
3.883086975E1,1.753183156E-1,2.405412793E-1,-1.280879736E0
3.885285569E1,6.128898263E-1,-3.511078954E-1,-9.068556428E-1
3.887485100E1,9.455844760E-1,-5.548750758E-1,-8.822115660E-1
3.889485100E1,1.046097994E0,-6.358932853E-1,-1.011383414E0
3.891485100E1,1.040844560E0,-6.209008694E-1,-1.134411693E0
3.893485100E1,1.003058195E0,-5.144183636E-1,-1.168375731E0
3.895485100E1,9.656208754E-1,-2.863387167E-1,-1.082261205E0
3.897485100E1,9.592503905E-1,4.485496320E-3,-9.173974395E-1
3.899485100E1,9.166992903E-1,1.299746633E-1,-6.305874586E-1
3.901485100E1,7.231248021E-1,-9.508553892E-2,-2.396511585E-1
3.903485100E1,4.600862563E-1,-3.605850339E-1,5.932373926E-2
3.905485100E1,2.464928478E-1,-4.396658838E-1,1.584409922E-1
3.907485100E1,4.438372329E-2,-3.181909621E-1,2.573837042E-1
3.909485100E1,-1.617745608E-1,-9.307841212E-2,4.109901190E-1
3.911485100E1,-3.931005001E-1,2.181137949E-1,5.965535641E-1
3.913485100E1,-5.525887012E-1,4.290368259E-1,7.309089899E-1
3.915485100E1,-5.778436065E-1,4.729143977E-1,7.857123017E-1
3.917485100E1,-4.774522781E-1,2.768964767E-1,7.773522139E-1
3.919485100E1,-3.526612222E-1,2.280447185E-1,7.281687856E-1
3.921485100E1,-4.213922918E-1,4.692492187E-1,7.127051950E-1
3.923485100E1,-7.260395288E-1,8.674111962E-1,8.578118682E-1
3.925485100E1,-1.080690384E0,9.869487882E-1,1.290234685E0
3.927485100E1,-1.032728791E0,3.996454775E-1,1.735782266E0
3.929485100E1,-5.889962316E-1,-4.252494574E-1,1.777687669E0
3.931485100E1,-2.949257493E-1,-5.536009669E-1,1.534109473E0
3.933684944E1,-3.652450442E-1,9.215338156E-3,1.426946282E0
3.935685100E1,-3.367263675E-1,3.831172287E-1,1.408271313E0
3.937685100E1,-1.891238838E-1,3.138450980E-1,1.355422735E0
3.939685100E1,-1.278279126E-1,2.356892675E-1,1.402180076E0
3.941885100E1,-1.864011586E-1,2.109579444E-1,1.450054407E0
3.944085100E1,-2.333854288E-1,1.541998386E-1,1.412756801E0
3.946285256E1,-1.830326766E-1,1.158025935E-1,1.316344738E0
3.948485100E1,-2.021789402E-1,1.879370511E-1,1.209635377E0
3.950485100E1,-2.616074085E-1,2.606823742E-1,1.088910937E0
3.952485100E1,-2.811550796E-1,2.500358820E-1,9.343619943E-1
3.954485100E1,-3.628015816E-1,7.756242901E-2,7.438069582E-1
3.956485100E1,-5.143485069E-1,-3.886848316E-2,6.098703742E-1
3.958485100E1,-6.043376923E-1,5.014330894E-2,5.304753780E-1
3.960485100E1,-5.558699369E-1,1.966636926E-1,3.768514991E-1
3.962485100E1,-4.994957745E-1,2.560048997E-1,2.072753012E-1
3.964485100E1,-3.792774975E-1,4.509930685E-2,9.274679422E-2
3.966485100E1,-1.863488108E-1,-2.223549485E-1,-6.784094870E-2
3.968485100E1,-1.577777602E-2,-2.958507538E-1,-3.328866363E-1
3.970485256E1,6.005677953E-2,-2.116211653E-1,-6.280567050E-1
3.972685100E1,9.941395372E-2,-8.552113175E-2,-8.696626425E-1
3.974685100E1,1.248434037E-1,-1.993165910E-2,-9.807702899E-1
3.976885100E1,1.688955128E-1,1.101128235E-1,-9.377828836E-1
3.979085100E1,4.007624984E-1,2.204350755E-2,-8.179136515E-1
3.981085100E1,7.978074551E-1,-3.208264112E-1,-9.851685166E-1
3.983086975E1,1.015642047E0,-4.560894370E-1,-1.374289751E0
3.985285100E1,8.119446039E-1,-1.134464052E-2,-1.656841040E0
3.987285100E1,5.443332791E-1,5.278050303E-1,-1.557409644E0
3.989285100E1,6.066415310E-1,6.146351695E-1,-1.298245668E0
3.991285412E1,9.644864202E-1,1.201135591E-1,-1.082121611E0
3.993285881E1,1.220054984E0,-5.231449604E-1,-1.016409993E0
3.995485100E1,1.017404795E0,-7.106282711E-1,-9.641722441E-1
3.997485100E1,7.482924461E-1,-6.084043384E-1,-8.697848320E-1
3.999485100E1,6.760183573E-1,-5.096710324E-1,-7.644367814E-1
4.001485100E1,7.585375309E-1,-5.880363584E-1,-6.576051712E-1
4.003485100E1,7.571063638E-1,-6.339559555E-1,-5.260946155E-1
4.005684944E1,6.770306826E-1,-4.468915462E-1,-3.250152171E-1
4.007685100E1,5.196892619E-1,-1.717403978E-1,-1.619490981E-1
4.009685100E1,2.586577833E-1,-9.808750823E-3,3.427826613E-2
4.011685100E1,-1.041961554E-2,5.927138031E-2,2.399478704E-1
4.013685100E1,-1.962971836E-1,8.883725852E-2,4.405734539E-1
4.015685100E1,-3.123092055E-1,6.030112505E-2,6.213023067E-1
4.017685100E1,-3.487167954E-1,3.717551241E-3,7.729015946E-1
4.019885100E1,-3.393792808E-1,1.793325841E-1,8.448615074E-1
4.021885100E1,-3.515442312E-1,4.734729230E-1,8.782497048E-1
4.023885100E1,-3.817733228E-1,7.356387973E-1,9.132609963E-1
4.025885100E1,-3.931703269E-1,6.404136419E-1,9.546601772E-1
4.027885100E1,-4.802098870E-1,3.721216619E-1,9.946456552E-1
4.029886350E1,-7.031058669E-1,3.177895546E-1,1.074826121E0
4.032085100E1,-1.037825108E0,5.818403959E-1,1.255240798E0
4.034285100E1,-1.016043425E0,5.404586792E-1,1.520670414E0
4.036285725E1,-6.402216554E-1,9.852383286E-2,1.571162820E0
4.038485100E1,-3.167597950E-1,-2.849250138E-1,1.325402975E0
4.040485100E1,-3.271445036E-1,-1.589471400E-1,1.100726843E0
4.042485100E1,-4.853935242E-1,1.463458538E-1,1.027789474E0
4.044485100E1,-4.493001103E-1,2.618342936E-1,1.068246245E0
4.046485100E1,-1.999798268E-1,2.426182181E-1,9.997420311E-1
4.048485100E1,3.361504152E-2,9.969320893E-2,8.471653461E-1
4.050485100E1,7.387978584E-2,3.986331820E-2,6.722484827E-1
4.052485100E1,3.764675185E-2,1.893682219E-2,5.103866458E-1
4.054485100E1,3.993313387E-2,2.876302600E-2,4.270820618E-1
4.056485100E1,-8.028514683E-3,6.831218302E-2,3.878121674E-1
4.058485100E1,-1.535191536E-1,1.601339579E-1,3.663795292E-1
4.060485100E1,-3.470587134E-1,2.036101073E-1,3.576354086E-1
4.062485100E1,-5.516985655E-1,8.185594343E-3,3.636218905E-1
4.064485100E1,-6.961594820E-1,2.844886621E-3,3.264812827E-1
4.066485100E1,-7.452905178E-1,2.667037547E-1,1.409178823E-1
