"Time (s)","Linear Acceleration x (m/s^2)","Linear Acceleration y (m/s^2)","Linear Acceleration z (m/s^2)"
1.000000000E-2,-8.139999956E-2,-2.329999954E-1,6.279999763E-2
3.002031300E-2,-3.942999840E-1,-4.843999743E-1,6.019999832E-2
6.000000000E-2,-8.576999903E-1,-1.026999950E-1,1.768599987E0
8.000000000E-2,-3.682999909E-1,-3.768000007E-1,1.313300014E0
1.000000000E-1,1.958999932E-1,3.219999745E-2,1.762000024E-1
1.200031250E-1,6.280999780E-1,1.913999915E-1,-8.167999983E-1
1.500000000E-1,9.097999930E-1,-8.749999851E-2,-8.106999993E-1
1.700000000E-1,9.223999977E-1,-2.768999934E-1,-6.976000071E-1
1.900000000E-1,1.039600015E0,-5.841999650E-1,-4.662999809E-1
2.100109380E-1,7.583000064E-1,-8.097999692E-1,-1.545999944E-1
2.300187500E-1,-1.119999960E-2,-9.302999973E-1,3.916999996E-1
2.600031250E-1,-4.147999883E-1,-1.467000008E0,1.568499923E0
2.899984380E-1,-4.057999849E-1,-1.478500009E0,7.935000062E-1
3.100078130E-1,-5.426999927E-1,-1.169399977E0,1.489999890E-1
3.300171880E-1,-7.572999597E-1,-1.023999929E0,2.299999893E-1
3.600031250E-1,-1.015699983E0,-8.535999656E-1,4.227999747E-1
3.900000000E-1,-5.044999719E-1,-1.255999923E0,5.889999866E-2
4.100187500E-1,-2.063999921E-1,-1.348899961E0,-3.237999976E-1
4.300187500E-1,-1.844999939E-1,-1.411299944E0,-2.289000005E-1
4.600078130E-1,-2.721000016E-1,-1.443099976E0,6.994999647E-1
4.900015630E-1,5.663999915E-1,-1.255900025E0,8.629999757E-1
5.100062500E-1,1.064299941E0,-1.057699919E0,-8.100000024E-2
5.300187500E-1,1.072199941E0,-7.651999593E-1,-2.330999970E-1
5.600000000E-1,7.443000078E-1,-7.274999619E-1,7.933999896E-1
5.800000000E-1,7.863999605E-1,-1.105199933E0,9.954999685E-1
6.000000000E-1,1.030599952E0,-1.598699927E0,8.931999803E-1
6.200000000E-1,1.452799916E0,-1.501599908E0,2.084999979E-1
6.400000000E-1,1.253199935E0,-1.180799961E0,-3.079999983E-1
6.600000000E-1,9.340999722E-1,-7.989999652E-1,-4.048999846E-1
6.800000000E-1,6.342999935E-1,-6.122999787E-1,-2.766999900E-1
7.000000000E-1,6.085999608E-1,-5.565999746E-1,-4.226000011E-1
7.200000000E-1,8.287999630E-1,-6.592999697E-1,-1.114400029E0
7.400000000E-1,1.049499989E0,-7.231000066E-1,-1.549799919E0
7.600000000E-1,1.093199968E0,-8.935999870E-1,-9.145999551E-1
7.800000000E-1,1.252599955E0,-1.072600007E0,-1.599999960E-3
8.000000000E-1,1.643299937E0,-1.246299982E0,1.056999937E-1
8.200000000E-1,1.710999966E0,-1.169799924E0,2.429999970E-2
8.400015630E-1,1.491400003E0,-7.919999957E-1,5.489999801E-2
8.700000000E-1,1.836499929E0,-6.682999730E-1,3.989999741E-2
8.900000000E-1,2.274499893E0,-8.184999824E-1,1.719999872E-2
9.100140630E-1,2.916100025E0,-1.060299993E0,2.480999976E-1
9.300203130E-1,3.213299990E0,-6.845999956E-1,4.253000021E-1
9.600000000E-1,3.061300039E0,1.063999981E-1,2.872999907E-1
9.800000000E-1,2.787799835E0,2.303999960E-1,1.518999934E-1
1.000000000E0,2.731099844E0,4.250000045E-2,5.022999644E-1
1.020000000E0,2.753499985E0,-3.009999990E-1,8.967999816E-1
1.040000000E0,2.594199896E0,-4.984999895E-1,1.081399918E0
1.060000000E0,2.330299854E0,-7.270999551E-1,1.820299983E0
1.080000000E0,2.558699846E0,-1.093099952E0,2.260599852E0
1.100000000E0,2.554100037E0,-1.132099986E0,1.718799949E0
1.120000000E0,2.232599974E0,-6.609999537E-1,5.403000116E-1
1.140000000E0,1.684299946E0,-1.920000017E-1,8.320000023E-2
1.170000000E0,9.025999904E-1,2.999999933E-2,-4.910000041E-2
1.200000000E0,1.929999888E-2,3.270999789E-1,1.675999910E-1
1.220000000E0,3.089999966E-2,4.813999832E-1,4.443999827E-1
1.249998438E0,2.991999984E-1,3.197000027E-1,8.493999839E-1
1.270000000E0,2.044999897E-1,2.897999883E-1,1.009999961E-1
1.299998438E0,9.449999779E-2,6.121000051E-1,-1.279699922E0
1.320000000E0,-2.651000023E-1,8.716999888E-1,-1.116699934E0
1.340000000E0,-8.838999867E-1,1.178799987E0,-9.189999700E-1
1.360000000E0,-1.196099997E0,1.153999925E0,-7.967000008E-1
1.390000000E0,-5.435999632E-1,2.985999882E-1,-3.718999922E-1
1.410012500E0,-1.941999942E-1,-1.806000024E-1,7.270000130E-2
1.430018750E0,-1.013000011E-1,-2.538000047E-1,7.689999789E-2
1.460000000E0,1.050999984E-1,-1.842999905E-1,-1.049999986E-2
1.480000000E0,6.992999911E-1,-4.180999994E-1,3.995999992E-1
1.500000000E0,1.021000028E0,-5.852999687E-1,2.149000019E-1
1.520000000E0,9.320999980E-1,-2.509000003E-1,1.710999906E-1
1.540000000E0,9.241999984E-1,-3.114999831E-1,3.932999969E-1
1.560000000E0,1.029699922E0,-1.030200005E0,1.603999972E0
1.580000000E0,1.008299947E0,-1.054000020E0,2.842099905E0
1.600000000E0,8.222000003E-1,-6.705999970E-1,2.343799829E0
1.620000000E0,-2.939999849E-2,-5.604999661E-1,1.305400014E0
1.640000000E0,-7.393999696E-1,-6.924999952E-1,1.804099917E0
1.670000000E0,-1.111999974E-1,-1.663899899E0,2.992399931E0
1.700000000E0,-2.912999988E-1,-1.944899917E0,9.874999523E-1
1.720000000E0,-1.221799970E0,-1.508399963E0,1.158000007E-1
1.750000000E0,-1.827099919E0,-9.294999838E-1,-2.162999958E-1
1.770001563E0,-1.709100008E0,-6.227999926E-1,-3.705999851E-1
1.800000000E0,-8.114999533E-1,-8.145999908E-1,-6.656999588E-1
1.820000000E0,-4.361999929E-1,-5.133999586E-1,-1.560999990E0
1.840001563E0,-2.239999920E-1,1.399999950E-2,-2.719599962E0
1.870000000E0,-3.109999895E-1,5.899999738E-1,-3.614699841E0
1.890000000E0,-1.255999953E-1,9.248999953E-1,-3.422899961E0
1.910012500E0,6.740000099E-2,7.195999622E-1,-2.585199833E0
1.930018750E0,1.536999941E-1,8.959999681E-1,-2.363800049E0
1.960000000E0,2.514999807E-1,1.340199947E0,-2.816999912E0
1.990000000E0,6.380000114E-1,1.194499969E0,-1.835899949E0
2.019998438E0,6.845999956E-1,1.254299998E0,-4.626999795E-1
2.040000000E0,4.974999726E-1,1.386799932E0,7.725999951E-1
2.060000000E0,3.923999965E-1,1.074699998E0,2.262399912E0
2.089998438E0,1.039600015E0,-5.453999639E-1,5.340399742E0
2.110000000E0,1.269999981E0,-1.146299958E0,5.536200047E0
2.130018750E0,8.057000041E-1,-6.703999639E-1,5.039599895E0
2.159998438E0,2.199999988E-3,3.080999851E-1,2.506399870E0
2.180000000E0,2.999999851E-4,4.506999850E-1,1.667999923E-1
2.200000000E0,-1.275999993E-1,1.033999994E-1,-8.039999753E-2
2.230018750E0,6.370999813E-1,-1.446599960E0,1.591099977E0
2.259998438E0,5.823999643E-1,-2.543299913E0,2.163599968E0
2.280000000E0,-7.598999739E-1,-2.289799929E0,3.379499912E0
2.300000000E0,-1.831900001E0,-1.711699963E0,3.215199947E0
2.320000000E0,-1.721499920E0,-1.434599996E0,1.937399983E0
2.340000000E0,-9.088999629E-1,-1.819399953E0,-2.189999968E-1
2.360000000E0,-4.069999754E-1,-1.726300001E0,-2.396600008E0
2.380000000E0,-4.566999972E-1,-1.357900023E0,-4.002599716E0
2.410012500E0,-1.377900004E0,-3.041000068E-1,-3.347599983E0
2.430018750E0,-1.050699949E0,-5.813999772E-1,-2.352599859E0
2.460000000E0,-3.377999961E-1,-1.675999999E0,-2.980499983E0
2.490000000E0,1.084999964E-1,-1.295300007E0,-3.557099819E0
2.510000000E0,4.609999806E-2,-9.371999502E-1,-2.539399862E0
2.530018750E0,1.045999974E-1,-5.062000155E-1,-2.566699982E0
2.560000000E0,-6.057999730E-1,8.889999986E-2,-2.373899937E0
2.580000000E0,-7.432000041E-1,1.107999980E-1,-5.356000066E-1
2.600000000E0,-5.704999566E-1,-5.475999713E-1,1.535399914E0
2.620000000E0,-1.239999980E-1,-1.115999937E0,2.130300045E0
2.640000000E0,3.986999989E-1,-1.419600010E0,1.502699971E0
2.670000000E0,1.657899976E0,-1.153200030E0,1.509199977E0
2.700000000E0,1.289199948E0,-7.278999686E-1,-5.648999810E-1
2.730018750E0,-1.498099923E0,-2.769999802E-1,1.144199967E0
2.759998438E0,-2.273200035E0,-7.260999680E-1,5.301399708E0
2.780000000E0,-1.060400009E0,-1.163900018E0,4.564899921E0
2.800000000E0,-8.949999511E-2,-1.220799923E0,1.650399923E0
2.820000000E0,4.025000036E-1,-5.708999634E-1,-1.596199989E0
2.840000000E0,4.533999860E-1,5.528999567E-1,-3.322299957E0
2.860000000E0,1.905999929E-1,8.283999562E-1,-2.721699953E0
2.889998438E0,-1.127999946E-1,8.700000048E-1,-1.719200015E0
2.910012500E0,-9.339999408E-2,1.005200028E0,-1.686199903E0
2.930018750E0,2.819999866E-2,8.723999858E-1,-1.208199978E0
2.959998438E0,5.631999969E-1,6.398999691E-1,-2.159999907E-1
2.979998438E0,1.075699925E0,5.763999820E-1,-8.125999570E-1
3.000000000E0,1.267099977E0,3.903999925E-1,-1.331200004E0
3.030018750E0,1.122499943E0,1.724999994E-1,-1.370000001E-2
3.060000000E0,6.469999552E-1,2.140000015E-1,7.985000014E-1
3.090000000E0,-6.909999996E-2,4.125999808E-1,1.267599940E0
3.119998438E0,-8.039999753E-2,2.193000019E-1,2.278499842E0
3.140000000E0,4.761999846E-1,-1.815999895E-1,1.989199996E0
3.170000000E0,7.037000060E-1,-9.569999576E-2,1.032400012E0
3.200000000E0,5.515999794E-1,4.335999787E-1,8.685999513E-1
3.230018750E0,8.173999786E-1,1.600999981E-1,1.318400025E0
3.260000000E0,1.182199955E0,-4.549999908E-2,9.843999743E-1
3.280000000E0,1.437699914E0,-1.086999997E-1,-5.959999934E-2
3.309998438E0,1.461799979E0,-5.988000035E-1,1.120299935E0
3.330018750E0,1.828999996E0,-9.957000017E-1,2.357499838E0
3.360000000E0,2.518299818E0,-1.600399971E0,8.180999756E-1
3.380000000E0,1.834800005E0,-1.439700007E0,1.370000001E-2
3.410012500E0,1.539999992E-2,-1.330199957E0,3.337000012E-1
3.430018750E0,-8.393999934E-1,-1.338699937E0,1.702799916E0
3.460000000E0,-1.165599942E0,-1.395699978E0,1.831200004E0
3.490000000E0,-2.556000054E-1,-1.523399949E0,-7.982999682E-1
3.510000000E0,-6.639999896E-2,-1.345399976E0,-2.251800060E0
3.530018750E0,-1.044999957E-1,-8.190000057E-1,-3.021600008E0
3.560000000E0,-1.094999984E-1,-3.091000021E-1,-3.144999981E0
3.589998438E0,-2.439999878E-1,-5.139999837E-2,-2.602599859E0
3.610000000E0,-2.167999893E-1,2.361999899E-1,-2.307299852E0
3.630018750E0,-4.095000029E-1,3.281999826E-1,-1.733999968E0
3.660000000E0,-8.349999785E-2,-6.999999881E-1,7.777999640E-1
3.680000000E0,1.485999972E-1,-1.054199934E0,1.923999906E0
3.700000000E0,-4.979999736E-2,-6.157000065E-1,2.183199883E0
3.730018750E0,-6.504999995E-1,7.215999961E-1,1.170400023E0
3.759998438E0,-5.906000137E-1,1.449499965E0,-3.990999758E-1
3.780000000E0,-1.805000007E-1,1.456900001E0,-8.808999658E-1
3.809998438E0,4.068000019E-1,8.282999992E-1,-6.782000065E-1
3.830017188E0,3.705999851E-1,5.974000096E-1,-2.671000063E-1
3.860000000E0,2.630999982E-1,9.098999500E-1,-2.035999894E-1
3.889998438E0,1.516000032E-1,7.866999507E-1,2.988999784E-1
3.910012500E0,-1.014999971E-1,6.381999850E-1,1.472000003E0
3.930018750E0,8.299999870E-3,2.939999849E-2,2.026200056E0
3.960000000E0,-3.711999953E-1,-4.280999899E-1,2.263599873E0
3.980000000E0,-8.707999587E-1,-6.935999990E-1,2.549599886E0
4.000000000E0,-7.206000090E-1,-9.731999636E-1,2.839399815E0
4.030018750E0,2.847000062E-1,-1.176900029E0,1.357199907E0
4.060000000E0,2.775999904E-1,-1.083599925E0,-8.779999614E-2
4.080000000E0,-2.888000011E-1,-1.268299937E0,-4.231999815E-1
4.100000000E0,-7.339000106E-1,-1.040400028E0,-4.741999805E-1
4.120000000E0,-8.391000032E-1,-7.235999703E-1,-6.636999846E-1
4.140000000E0,-5.160999894E-1,-6.704999804E-1,-1.002499938E0
4.169998438E0,7.519999892E-2,-6.747999787E-1,-1.480000019E0
4.189998438E0,3.488999903E-1,-6.592000127E-1,-1.870399952E0
4.210000000E0,6.123999953E-1,-5.249999762E-1,-2.524099827E0
4.230018750E0,6.286999583E-1,-2.190999985E-1,-3.137699842E0
4.259998438E0,5.286999941E-1,4.391999841E-1,-3.351899862E0
4.280000000E0,8.359000087E-1,5.288999677E-1,-3.228999853E0
4.309998438E0,9.849999547E-1,5.686999559E-1,-2.328899860E0
4.330018750E0,9.190999866E-1,7.838999629E-1,-1.916999936E0
4.360000000E0,3.919999897E-1,9.995999932E-1,-3.467999995E-1
4.390000000E0,5.393999815E-1,9.398999810E-1,1.409799933E0
4.410012500E0,7.542999983E-1,6.579999924E-1,2.419299841E0
4.430018750E0,1.064199924E0,9.224999547E-1,2.394199848E0
4.459998438E0,9.650999904E-1,1.574899912E0,1.137099981E0
4.479998438E0,9.515999556E-1,1.642799973E0,1.106599927E0
4.500000000E0,8.777999878E-1,1.318199992E0,2.212199926E0
4.530018750E0,4.982999861E-1,1.241500020E0,2.848199844E0
4.560000000E0,5.008999705E-1,9.872999787E-1,2.458199978E0
4.589998438E0,1.485899925E0,-4.657999873E-1,3.059000015E0
4.609998438E0,2.209100008E0,-9.528999925E-1,2.105000019E0
4.630018750E0,2.306499958E0,-9.615999460E-1,1.048099995E0
4.659998438E0,1.093999982E0,-8.066999912E-1,6.732000113E-1
4.679998438E0,-8.989999443E-2,-9.172999859E-1,2.151799917E0
4.700000000E0,-1.218999982E0,-7.678999901E-1,3.273900032E0
4.720000000E0,-1.534600019E0,-5.504999757E-1,1.897499919E0
4.750000000E0,-8.822999597E-1,-4.616999924E-1,-1.534999967E0
4.770000000E0,-5.112999678E-1,-7.583999634E-1,-1.532099962E0
4.790000000E0,-6.899999976E-1,-1.153699994E0,-4.217999876E-1
4.820000000E0,-1.051200032E0,-1.192499995E0,-1.529699922E0
4.850000000E0,-1.519199967E0,-4.476999938E-1,-3.591899872E0
4.870000000E0,-1.147499919E0,-4.858999848E-1,-3.135099888E0
4.890000000E0,-8.385999799E-1,-1.393999934E0,-1.887499928E0
4.910012500E0,-7.179999948E-1,-1.712000012E0,-1.540699959E0
4.930018750E0,-4.230999947E-1,-1.123399973E0,-2.138099909E0
4.960000000E0,-8.399999700E-3,-3.788999915E-1,-1.903800011E0
4.990000000E0,-2.182999998E-1,-5.275999904E-1,-3.608999848E-1
5.019998438E0,-5.494999886E-1,-1.000200033E0,-8.700000122E-3
5.040000000E0,-3.405999839E-1,-1.601400018E0,1.498600006E0
5.060000000E0,2.679999918E-2,-1.940799952E0,2.198299885E0
5.080000000E0,1.090999991E-1,-1.591099977E0,1.379400015E0
5.100000000E0,1.726000011E-1,-1.011899948E0,1.212199926E0
5.130018750E0,-8.021999598E-1,-6.176999807E-1,8.172999620E-1
5.159998438E0,-1.219499946E0,-4.948999882E-1,1.396399975E0
5.179998438E0,-7.924000025E-1,-6.338999867E-1,1.538900018E0
5.200000000E0,-3.418000042E-1,-6.653000116E-1,3.082999885E-1
5.230018750E0,-3.471999764E-1,-5.981999636E-1,-4.563999772E-1
5.260000000E0,-6.184999943E-1,-1.033900023E0,5.292999744E-1
5.280000000E0,-7.561999559E-1,-8.755999804E-1,4.187999964E-1
5.300000000E0,-5.546999574E-1,-5.044000149E-1,-3.322999775E-1
5.320000000E0,-1.404999942E-1,-4.880999923E-1,-6.992999911E-1
5.350000000E0,5.437999964E-1,-2.884999812E-1,-1.522399902E0
5.370000000E0,7.017999887E-1,9.619999677E-2,-2.185899973E0
5.390000000E0,6.821999550E-1,5.552999973E-1,-2.292399883E0
5.410012500E0,4.539999962E-1,9.182999730E-1,-2.107699871E0
5.430018750E0,3.400000036E-1,1.168200016E0,-2.042700052E0
5.459998438E0,3.925999999E-1,1.036299944E0,-1.378000021E0
5.480000000E0,3.536999822E-1,8.119999766E-1,-8.467999697E-1
5.500000000E0,2.741999924E-1,7.544999719E-1,-4.315999746E-1
5.530018750E0,4.439999908E-2,1.083699942E0,-3.402999938E-1
5.560000000E0,1.134999990E-1,1.238399982E0,-3.808999956E-1
5.589998438E0,2.440999895E-1,9.237999916E-1,1.090999991E-1
5.610000000E0,8.590000123E-2,9.775999784E-1,5.647999644E-1
5.630018750E0,1.548999995E-1,6.407999992E-1,1.060500026E0
5.659998438E0,4.081999958E-1,2.328999937E-1,2.019199848E0
5.680000000E0,1.055500031E0,3.535999954E-1,1.875399947E0
5.700001563E0,1.531299949E0,6.347000003E-1,8.136000037E-1
5.730018750E0,1.403800011E0,7.712999582E-1,-4.921000004E-1
5.760000000E0,9.158999920E-1,-6.757999659E-1,3.282599926E0
5.780000000E0,9.953999519E-1,-1.304600000E0,4.296799660E0
5.809998438E0,1.150000002E-2,-9.046999812E-1,1.944299936E0
5.830018750E0,-1.064599991E0,-5.631999969E-1,1.660200000E0
5.860000000E0,-1.592799902E0,-3.021999896E-1,2.479500055E0
5.889998438E0,-8.226999640E-1,-1.736699939E0,1.994300008E0
5.910012500E0,-1.081499934E0,-1.782099962E0,1.324299932E0
5.930018750E0,-1.258099914E0,-1.296599984E0,1.247200012E0
5.960000000E0,-7.967000008E-1,-7.375999689E-1,-1.394099951E0
5.990000000E0,-1.244199991E0,-1.264999956E-1,-3.944700003E0
6.019998438E0,-2.339599848E0,7.031999826E-1,-3.873999834E0
6.039998438E0,-2.627199888E0,8.348999619E-1,-2.653899908E0
6.060000000E0,-2.005199909E0,3.980999887E-1,-2.182699919E0
6.080000000E0,-1.087999940E0,-3.461999893E-1,-2.443300009E0
6.100000000E0,-5.605999827E-1,-6.937999725E-1,-2.260900021E0
6.120000000E0,-5.600999594E-1,-1.580999941E-1,-1.432899952E0
6.140000000E0,-8.639000058E-1,2.784000039E-1,-5.902999640E-1
6.169998438E0,-1.273299932E0,7.410999537E-1,8.147999644E-1
6.189998438E0,-1.204599977E0,6.815999746E-1,1.720199943E0
6.210000000E0,-5.460999608E-1,3.472999930E-1,2.244899988E0
6.230018750E0,2.870999873E-1,1.879999973E-2,2.506599903E0
6.260000000E0,7.111999989E-1,-1.442999989E-1,2.139699936E0
6.280000000E0,-2.034000009E-1,-2.298999876E-1,1.705799937E0
6.300000000E0,-1.176199913E0,-2.646999955E-1,2.875099897E0
6.320000000E0,-1.011199951E0,-8.695999980E-1,4.269700050E0
6.350000000E0,7.880000025E-2,-1.763299942E0,2.758999825E0
6.379998438E0,4.266999960E-1,-1.547599912E0,3.292999864E-1
6.399998438E0,4.777999818E-1,-7.100999951E-1,-8.696999550E-1
6.420000000E0,4.569000006E-1,2.899999917E-1,-2.147899866E0
6.440000000E0,5.896999836E-1,9.463999867E-1,-3.516700029E0
6.460000000E0,4.227999747E-1,1.261699915E0,-3.815199852E0
6.490000000E0,4.529999942E-2,9.394999743E-1,-2.168200016E0
6.510000000E0,3.267999887E-1,6.219999790E-1,-1.758599997E0
6.530018750E0,8.486999869E-1,8.760000020E-2,-1.520599961E0
6.560000000E0,1.573499918E0,-2.043000013E-1,-1.728599906E0
6.580000000E0,1.930899978E0,-1.879999973E-2,-2.032000065E0
6.610000000E0,1.700699925E0,7.366999984E-1,-2.267099857E0
6.630018750E0,1.242900014E0,1.142599940E0,-1.679299951E0
6.659998438E0,8.326999545E-1,1.299999952E0,6.527999640E-1
6.679998438E0,8.822999597E-1,1.074999928E0,1.948199987E0
6.700000000E0,9.396999478E-1,9.531999826E-1,2.794100046E0
6.730018750E0,1.037799954E0,8.758999705E-1,2.904000044E0
6.760000000E0,1.195999980E0,7.389000058E-1,3.303699970E0
6.780000000E0,1.826099992E0,3.167999983E-1,3.164599895E0
6.800000000E0,2.372999907E0,-1.349999942E-2,2.065700054E0
6.820000000E0,2.884399891E0,-2.019999921E-2,8.910999894E-1
6.840000000E0,3.476999998E0,-2.019999921E-1,7.684999704E-1
6.860000000E0,3.624599934E0,-3.798999786E-1,1.107499957E0
6.890000000E0,1.679199934E0,-8.922999501E-1,1.057899952E0
6.910012500E0,1.274999976E-1,-8.593999743E-1,2.619400024E0
6.930018750E0,-7.951999903E-1,-1.021099925E0,5.111000061E0
6.959998438E0,3.603999913E-1,-1.975099921E0,3.137899876E0
6.980000000E0,8.564999700E-1,-1.982299924E0,-7.791000009E-1
7.000000000E0,1.001399994E0,-1.317299962E0,-3.245599985E0
7.030018750E0,4.202999771E-1,-5.497999787E-1,-4.545499802E0
7.060000000E0,-4.120000079E-2,-3.019999899E-2,-5.362499714E0
7.080000000E0,-3.588999808E-1,-7.079999894E-2,-4.808399677E0
7.110000000E0,-5.181999803E-1,-4.745999873E-1,-3.232699871E0
7.130018750E0,-7.217999697E-1,-6.437999606E-1,-2.587599993E0
7.159998438E0,-5.837999582E-1,-8.585000038E-1,-1.639400005E0
7.180000000E0,-6.884999871E-1,-8.572999835E-1,-9.170999527E-1
7.200000000E0,-6.836000085E-1,-8.042999506E-1,2.569999918E-2
7.220000000E0,-7.904999852E-1,-8.359000087E-1,3.962000012E-1
7.240000000E0,-5.837999582E-1,-1.256899953E0,1.480000019E0
7.260000000E0,-3.551000059E-1,-1.644599915E0,2.388999939E0
7.280000000E0,-6.669999659E-2,-1.330899954E0,3.047499895E0
7.300000000E0,3.581999838E-1,-5.864999890E-1,1.963699937E0
7.320000000E0,-1.827999949E-1,2.054999918E-1,4.514999986E-1
7.350000000E0,-2.336099863E0,1.488000005E-1,3.653399944E0
7.379998438E0,-1.711300015E0,-1.196399927E0,5.841199875E0
7.399998438E0,-6.004999876E-1,-1.568599939E0,3.481499910E0
7.420000000E0,1.339000016E-1,-1.378499985E0,1.639999896E-1
7.440000000E0,4.077999890E-1,-6.340999603E-1,-1.546599984E0
7.460000000E0,2.991999984E-1,-4.768999815E-1,-6.104999781E-1
7.490000000E0,-4.369999841E-2,-3.445000052E-1,4.720000029E-1
7.520000000E0,1.196999997E-1,3.542999923E-1,-1.034299970E0
7.540000000E0,4.682999849E-1,9.174999595E-1,-2.429499865E0
7.560000000E0,7.787999511E-1,1.262699962E0,-3.654299974E0
7.589998438E0,1.342700005E0,1.771999955E0,-4.757599831E0
7.610000000E0,1.625100017E0,1.907399893E0,-4.499599934E0
7.630018750E0,1.968099952E0,1.613899946E0,-3.621099949E0
7.659998438E0,1.791599989E0,1.428099990E0,-1.699699998E0
7.680000000E0,1.556899905E0,1.045199990E0,3.709000051E-1
7.700000000E0,1.690199971E0,6.441000104E-1,1.478599906E0
7.720000000E0,1.871699929E0,3.568999767E-1,2.751099825E0
7.750000000E0,1.919600010E0,-8.700000122E-3,4.081599712E0
7.770000000E0,1.343799949E0,2.581999898E-1,4.227499962E0
7.790000000E0,7.884999514E-1,5.771999955E-1,4.119199753E0
7.820000000E0,7.387999892E-1,4.535000026E-1,3.513299942E0
7.840000000E0,1.026899934E0,4.336999953E-1,1.959699988E0
7.860000000E0,1.249099970E0,4.951999784E-1,8.105999827E-1
7.889998438E0,2.265300035E0,-3.903999925E-1,8.963999748E-1
7.910012500E0,2.512500048E0,-1.035699964E0,5.358999968E-1
7.930020313E0,1.574800014E0,-1.389599919E0,3.386999965E-1
7.960000000E0,-4.563999772E-1,-1.721199989E0,4.182099819E0
7.990000000E0,-1.240100026E0,-2.017600060E0,4.966799736E0
8.010000000E0,-9.513999820E-1,-2.024499893E0,1.325199962E0
8.030018750E0,-1.173399925E0,-1.406999946E0,-1.114899993E0
8.060000000E0,-2.463700056E0,-7.671999931E-1,4.491999745E-1
8.080000000E0,-2.592499971E0,-7.910999656E-1,7.499999553E-2
8.110000000E0,-2.942099810E0,-4.436999857E-1,-2.714399815E0
8.130018750E0,-2.878599882E0,-1.001999974E-1,-3.843899965E0
8.159998438E0,-2.578399897E0,-4.391999841E-1,-3.223199844E0
8.179998438E0,-2.058599949E0,-1.052699924E0,-3.062199831E0
8.200000000E0,-1.806199908E0,-1.422699928E0,-3.389999866E0
8.220000000E0,-1.796199918E0,-1.247200012E0,-3.605499983E0
8.249998438E0,-1.728899956E0,-1.078299999E0,-2.593999863E0
8.269998438E0,-1.817699909E0,-1.333999991E0,-1.526600003E0
8.290000000E0,-1.952799916E0,-1.375100017E0,-1.136699915E0
8.310000000E0,-1.864199996E0,-1.891099930E0,-3.276999891E-1
8.330018750E0,-1.306100011E0,-2.103499889E0,6.711999774E-1
8.360000000E0,-9.864999652E-1,-1.736599922E0,1.287199974E0
8.390000000E0,-1.494799972E0,-1.769299984E0,2.097599983E0
8.410015625E0,-1.705099940E0,-2.020200014E0,2.895900011E0
8.430018750E0,-1.462599993E0,-2.079299927E0,3.405799866E0
8.460000000E0,-1.144799948E0,-1.893999934E0,2.870199919E0
8.490000000E0,-7.762999535E-1,-1.786399961E0,1.994699955E0
8.510006250E0,-8.429999650E-2,-1.652899981E0,1.495899916E0
8.530018750E0,4.787999988E-1,-1.406799912E0,6.234999895E-1
8.560000000E0,1.052399993E0,-6.693999767E-1,-1.488299966E0
8.589998438E0,1.150699973E0,2.885999978E-1,-3.327499866E0
8.610000000E0,1.325699925E0,9.618999958E-1,-4.340499878E0
8.630018750E0,1.473399997E0,1.108699918E0,-4.100899696E0
8.659998438E0,1.977599978E0,1.551800013E0,-2.905699968E0
8.680000000E0,2.026399851E0,2.065099955E0,-2.215199947E0
8.700000000E0,2.366299868E0,1.920399904E0,-8.671000004E-1
8.720000000E0,2.521399975E0,9.449999928E-1,9.822999835E-1
8.750000000E0,1.767899990E0,-2.679999918E-2,4.187599659E0
8.780000000E0,1.373799920E0,3.229999915E-2,4.798099995E0
8.809998438E0,9.381999969E-1,9.462999701E-1,2.248999834E0
8.830018750E0,5.963000059E-1,1.311200023E0,1.141700029E0
8.860000000E0,8.635999560E-1,1.210899949E0,1.027599931E0
8.880000000E0,1.150300026E0,1.427099943E0,3.854999840E-1
8.900000000E0,1.088799953E0,1.331699967E0,6.358000040E-1
8.920000000E0,9.082999825E-1,6.902999878E-1,2.043400049E0
8.940000000E0,1.554700017E0,8.119999617E-2,2.686199903E0
8.960000000E0,2.450099945E0,-1.525999904E-1,1.363499999E0
8.980000000E0,2.650499821E0,-6.989999861E-2,-1.832000017E-1
9.000000000E0,1.936100006E0,1.022999957E-1,1.474999934E-1
9.030018750E0,9.879999757E-1,-7.680999637E-1,4.124899864E0
9.060000000E0,7.245999575E-1,-1.946299911E0,3.939699888E0
9.080000000E0,4.924999774E-1,-1.933799982E0,9.321999550E-1
9.100000000E0,-6.999999750E-4,-1.335999966E0,-8.649999499E-1
9.120000000E0,-5.259000063E-1,-7.639999986E-1,-5.595999956E-1
9.140000000E0,-3.711999953E-1,-1.101199985E0,-6.934999824E-1
9.169998438E0,-1.011999995E-1,-1.529899955E0,-2.808399916E0
9.190000000E0,-2.431999892E-1,-1.313899994E0,-3.931399822E0
9.210000000E0,-4.857999980E-1,-1.031999946E0,-4.353699684E0
9.230018750E0,-1.017099977E0,-7.335000038E-1,-4.445799828E0
9.259998438E0,-1.506500006E0,-4.702999890E-1,-4.354300022E0
9.280000000E0,-1.471799970E0,-7.522999644E-1,-3.448400021E0
9.300000000E0,-1.213799953E0,-1.135900021E0,-2.642999887E0
9.320000000E0,-9.966999888E-1,-1.455399990E0,-1.488399982E0
9.340000000E0,-6.784999967E-1,-1.664199948E0,-5.029999614E-1
9.360000000E0,-6.362999678E-1,-1.549899936E0,-2.414999902E-1
9.390000000E0,-1.300400019E0,-4.432999790E-1,-4.653999805E-1
9.410012500E0,-1.678599954E0,3.797999918E-1,-1.294000000E-1
9.430018750E0,-1.899299979E0,-1.147999987E-1,1.341599941E0
9.460000000E0,-1.188099980E0,-1.560199976E0,4.778500080E0
9.490000000E0,-7.472999692E-1,-1.454399943E0,3.698499918E0
9.510000000E0,-9.192000031E-1,-7.911999822E-1,1.772899985E0
9.530017188E0,-1.431299925E0,-3.495000005E-1,1.734099984E0
9.560000000E0,-1.399599910E0,-4.129000008E-1,3.298499823E0
9.580000000E0,-7.791999578E-1,-6.367999911E-1,2.374599934E0
9.600000000E0,-5.029999837E-2,-5.582999587E-1,3.240999877E-1
9.620000000E0,5.282999873E-1,-2.761999965E-1,-1.498099923E0
9.640000000E0,9.866999984E-1,6.129999831E-2,-2.672600031E0
9.660000000E0,1.044399977E0,1.447999924E-1,-2.737599850E0
9.690000000E0,1.350499988E0,5.586000085E-1,-3.253599882E0
9.710000000E0,1.404399991E0,8.759999871E-1,-3.822799921E0
9.730018750E0,1.450999975E0,1.092299938E0,-3.928699970E0
9.759998438E0,1.571299911E0,1.109899998E0,-2.971499920E0
9.780000000E0,1.753799915E0,9.898999929E-1,-2.036900043E0
9.800000000E0,2.036700010E0,1.126199961E0,-9.939000010E-1
9.820000000E0,2.303699970E0,1.316200018E0,2.472999990E-1
9.850000000E0,1.979200006E0,1.119699955E0,2.582799911E0
9.870000000E0,2.156100035E0,6.028999686E-1,3.768299818E0
9.900000000E0,2.413699865E0,1.542999893E-1,4.910199642E0
9.920000000E0,2.220999956E0,3.780999780E-1,4.679500103E0
9.940000000E0,2.188899994E0,5.485999584E-1,3.768899918E0
9.960000000E0,2.035500050E0,5.020999908E-1,3.042899847E0
9.990000000E0,2.636499882E0,2.655999959E-1,2.827499866E0
1.001000000E1,3.161299944E0,-2.417999953E-1,2.706199884E0
1.003001875E1,2.677599907E0,-4.482999742E-1,1.762699962E0
1.006000000E1,1.063699961E0,-5.166999698E-1,4.015100002E0
1.008000000E1,7.246999741E-1,-1.003000021E0,5.001899719E0
1.010000000E1,8.787999749E-1,-1.167299986E0,3.118799925E0
1.012000000E1,8.316999674E-1,-9.936999679E-1,4.375000000E-1
1.014000000E1,6.510999799E-1,-1.057500005E0,-1.035599947E0
1.016999844E1,1.820999980E-1,-1.224200010E0,-1.249400020E0
1.019000000E1,-1.542000026E-1,-1.059299946E0,-2.000200033E0
1.021000000E1,-5.798000097E-1,-9.217000008E-1,-2.807600021E0
1.023001875E1,-8.786000013E-1,-9.705999494E-1,-2.926299810E0
1.025999844E1,-1.268999934E0,-1.078400016E0,-2.334699869E0
1.028000000E1,-1.432500005E0,-1.441699982E0,-2.536900043E0
1.030000000E1,-1.501099944E0,-1.812599897E0,-2.778800011E0
1.032000000E1,-1.675799966E0,-1.874899983E0,-2.624599934E0
1.034000000E1,-1.890899897E0,-1.695500016E0,-2.228100061E0
1.036000000E1,-2.044699907E0,-1.526999950E0,-2.338799953E0
1.038000000E1,-2.132699966E0,-1.313599944E0,-2.261399984E0
1.040000000E1,-2.335999966E0,-1.817399979E0,-4.977999926E-1
1.042000000E1,-1.686899900E0,-2.745999813E0,2.189300060E0
1.044999844E1,-6.402999759E-1,-3.147799969E0,2.453299999E0
1.047000000E1,-1.685899973E0,-1.763099909E0,1.198799968E0
1.049000000E1,-3.054199934E0,-7.646999955E-1,1.818199992E0
1.051000000E1,-3.306499958E0,-1.084100008E0,2.908399820E0
1.053001875E1,-3.090999842E0,-1.922699928E0,3.494299889E0
1.056000000E1,-2.374399900E0,-2.926899910E0,4.111899853E0
1.058999844E1,-1.031299949E0,-2.419800043E0,1.300899982E0
1.061000000E1,-6.233999729E-1,-1.599699974E0,-1.327299953E0
1.063001875E1,-7.008999586E-1,-4.185999930E-1,-2.750099897E0
1.066000000E1,-2.254000008E-1,3.619999886E-1,-3.305299997E0
1.069000000E1,6.523999572E-1,9.285999537E-1,-4.496900082E0
1.071000000E1,1.006299973E0,1.463999987E0,-4.714999676E0
1.073001875E1,1.051699996E0,2.090800047E0,-4.296299934E0
1.075999844E1,1.964100003E0,1.772599936E0,-2.810299873E0
1.078000000E1,2.448899984E0,1.362399936E0,-1.419299960E0
1.080999844E1,1.730199933E0,1.446499944E0,7.670999765E-1
1.083001875E1,2.015799999E0,1.387599945E0,1.354399920E0
1.086000000E1,2.412699938E0,7.504999638E-1,2.147899866E0
1.089000000E1,1.300899982E0,6.991999745E-1,3.226999998E0
1.091001250E1,6.742999554E-1,6.969999671E-1,4.423099995E0
1.093001875E1,2.185999900E-1,6.054999828E-1,5.158400059E0
1.095999844E1,5.892999768E-1,6.028999686E-1,3.551599979E0
1.097999844E1,1.050300002E0,1.030399919E0,1.076900005E0
1.100000000E1,1.151199937E0,1.266199946E0,-4.649999738E-2
1.103001719E1,1.478899956E0,3.621999919E-1,1.191599965E0
1.106000000E1,1.223299980E0,-7.238999605E-1,1.663199902E0
1.108999844E1,-5.177999735E-1,-7.736999989E-1,3.035899878E0
1.111000000E1,-1.786399961E0,-1.089999914E0,5.449699879E0
1.113001875E1,-1.567099929E0,-1.506500006E0,5.300199986E0
1.116000000E1,-5.816000104E-1,-1.916499972E0,1.136199951E0
1.118000000E1,-5.424999595E-1,-1.565599918E0,-1.891899943E0
1.121000000E1,-1.463899970E0,-6.441000104E-1,-3.412899971E0
1.123001875E1,-1.640999913E0,-5.164999962E-1,-3.354300022E0
1.126000000E1,-1.389699936E0,-7.903999686E-1,-4.194799900E0
1.128000000E1,-1.319100022E0,-7.210999727E-1,-3.956499815E0
1.130000000E1,-1.255599976E0,-8.385999799E-1,-2.228199959E0
1.132000000E1,-1.085899949E0,-9.929999709E-1,-1.341799974E0
1.135000000E1,-1.235800028E0,-8.682000041E-1,-2.036000013E0
1.137000000E1,-1.197999954E0,-4.969999790E-1,-2.301399946E0
1.139000000E1,-1.106400013E0,-4.844999909E-1,-1.886699915E0
1.141001250E1,-1.171599984E0,-5.633000135E-1,-1.472800016E0
1.143001875E1,-1.263299942E0,-8.730999827E-1,-5.403999686E-1
1.146000312E1,-1.149899960E0,-1.599399924E0,2.044399977E0
1.149000000E1,-6.548999548E-1,-1.525699973E0,2.063099861E0
1.151000312E1,-5.834000111E-1,-1.209499955E0,1.119599938E0
1.153001875E1,-9.393000007E-1,-7.123999596E-1,1.151099920E0
1.156000000E1,-1.401399970E0,-7.741000056E-1,2.983999968E0
1.158000000E1,-5.128999949E-1,-1.079499960E0,1.888199925E0
1.161000000E1,1.314999908E-1,-1.245999932E0,-4.030000046E-2
1.163001875E1,-4.501999915E-1,-1.542799950E0,1.070699930E0
1.166000000E1,-6.657999754E-1,-1.721699953E0,3.372200012E0
1.168000000E1,-1.660999954E-1,-1.511299968E0,2.440599918E0
1.171000000E1,7.698999643E-1,-7.821999788E-1,-1.277799964E0
1.173001719E1,9.585999846E-1,-1.070999950E-1,-3.162199974E0
1.176000000E1,6.629999876E-1,7.519999743E-1,-3.908699989E0
1.178000000E1,6.121999621E-1,1.001999974E0,-3.596799850E0
1.180000000E1,7.446999550E-1,1.322499990E0,-3.756500006E0
1.182000000E1,6.758999825E-1,1.655799985E0,-3.746299982E0
1.185000000E1,1.177699924E0,1.598299980E0,-2.710000038E0
1.187999844E1,2.049799919E0,7.996000051E-1,-1.790499926E0
1.189999844E1,1.982499957E0,4.435999990E-1,-8.463000059E-1
1.192000000E1,1.594200015E0,4.855999947E-1,3.619999886E-1
1.194000000E1,1.039099932E0,7.173999548E-1,2.158200026E0
1.196000000E1,6.477000117E-1,4.506999850E-1,3.721199989E0
1.198000000E1,5.889999866E-1,2.070999891E-1,3.798399925E0
1.200000000E1,6.209999919E-1,2.471999973E-1,3.633899927E0
1.203001875E1,1.241899967E0,4.073999822E-1,3.531999826E0
1.206000000E1,7.802000046E-1,9.716999531E-1,2.942600012E0
1.208000000E1,9.939999580E-1,7.611999512E-1,2.910300016E0
1.210000000E1,2.212300062E0,-1.066999957E-1,2.808300018E0
1.213001875E1,2.845299959E0,-1.051599979E0,9.102999568E-1
1.216000000E1,6.628999710E-1,-7.784999609E-1,2.085700035E0
1.218000000E1,-4.677999914E-1,-9.863999486E-1,4.203199863E0
1.220000000E1,-2.620000020E-2,-2.147199869E0,4.678699970E0
1.222000000E1,7.226999998E-1,-3.261600018E0,2.509899855E0
1.225000000E1,8.679999411E-2,-2.850399971E0,-7.092999816E-1
1.228000000E1,-8.855999708E-1,-1.798999906E0,-1.518099904E0
1.230000000E1,-1.084800005E0,-1.375999928E0,-2.816200018E0
1.232000000E1,-9.983999729E-1,-8.890999556E-1,-4.601599693E0
1.235000000E1,-8.420999646E-1,-5.029000044E-1,-5.611999989E0
1.237999844E1,-1.092000008E0,-9.967999458E-1,-3.694399834E0
1.239999844E1,-1.028100014E0,-1.156499982E0,-2.478999853E0
1.242000000E1,-9.056999683E-1,-1.149999976E0,-1.910200000E0
1.244000000E1,-9.602999687E-1,-8.736000061E-1,-1.967999935E0
1.246999844E1,-1.166599989E0,-4.470999837E-1,-1.453299999E0
1.249000000E1,-1.211599946E0,-4.084999859E-1,-8.294000030E-1
1.251000000E1,-1.200799942E0,-4.456999898E-1,-1.585000008E-1
1.253001875E1,-1.077099919E0,-5.181999803E-1,3.236999810E-1
1.256000000E1,-5.609999895E-1,-4.436999857E-1,7.561999559E-1
1.258000000E1,2.389999852E-2,-1.670999974E-1,4.632000029E-1
1.261000000E1,-6.329999566E-1,2.644999921E-1,3.594000041E-1
1.263001875E1,-1.542099953E0,2.999999933E-2,2.774799824E0
1.266000000E1,-2.328999937E-1,-1.065599918E0,5.156499863E0
1.268000000E1,1.211199999E0,-1.222100019E0,2.858700037E0
1.271000000E1,1.546100020E0,-4.795999825E-1,-1.162999943E-1
1.273001719E1,9.569000006E-1,-5.720999837E-1,8.198999763E-1
1.276000000E1,4.594999850E-1,-1.627999991E-1,8.420999646E-1
1.278000000E1,2.215999961E-1,3.414999843E-1,3.396999836E-1
1.280000000E1,1.780999899E-1,7.069999576E-1,4.541999996E-1
1.283001875E1,9.722999930E-1,8.751999736E-1,-9.896000028E-1
1.286000000E1,1.639299989E0,6.456999779E-1,-2.401099920E0
1.289000000E1,1.374699950E0,2.450999916E-1,-1.705199957E0
1.291001250E1,8.866999745E-1,3.301999867E-1,-1.293900013E0
1.293001875E1,5.432000160E-1,5.830999613E-1,-1.186100006E0
1.295999844E1,1.539999992E-1,7.163000107E-1,-1.119899988E0
1.298000000E1,4.636999965E-1,4.792999923E-1,-7.899000049E-1
1.300000000E1,5.242999792E-1,1.275999993E-1,1.481999904E-1
1.303001875E1,-1.598999947E-1,4.895999730E-1,1.273199916E0
1.306000000E1,-1.090999991E-1,8.234999776E-1,1.459900022E0
1.309000000E1,5.409999937E-2,7.599999905E-1,1.699099898E0
1.311000000E1,2.449999899E-1,7.166000009E-1,1.957999945E0
1.313001875E1,6.879999638E-1,6.252999902E-1,2.218799829E0
1.316000000E1,1.354799986E0,1.132099986E0,1.009400010E0
1.318000000E1,1.113399982E0,1.104499936E0,3.245999813E-1
1.321000000E1,6.944999695E-1,4.820000008E-2,2.107800007E0
1.323001875E1,1.253799915E0,-7.718999982E-1,2.661999941E0
1.326000000E1,1.748699903E0,-1.181200027E0,-3.313999772E-1
1.328000000E1,1.081200004E0,-7.867999673E-1,-2.194999933E0
1.330000000E1,1.713999957E-1,-5.701000094E-1,-2.120899916E0
1.332000000E1,-1.507000029E-1,-1.018000007E0,-4.005999863E-1
1.335000000E1,-7.209999859E-2,-2.140499830E0,1.297899961E0
1.337000000E1,-2.289999872E-1,-2.203799963E0,9.734999537E-1
1.339000000E1,-5.593000054E-1,-1.813300014E0,8.634999990E-1
1.341001250E1,-8.059999943E-1,-1.105299950E0,-3.457999825E-1
1.343001875E1,-1.054600000E0,-1.644999981E-1,-2.383899927E0
1.345999844E1,-8.242999911E-1,7.827000022E-1,-3.206499815E0
1.347999844E1,-5.300999880E-1,6.723999977E-1,-2.364799976E0
1.350000000E1,-4.485999942E-1,1.750000007E-2,-1.506899953E0
1.353001719E1,-1.525999904E-1,-2.696999907E-1,-9.369999915E-2
1.356000000E1,6.453999877E-1,-5.263999701E-1,-7.199999876E-3
1.358000000E1,6.608999968E-1,-1.229999959E-2,-9.354999661E-1
1.360999844E1,2.945999801E-1,9.937999845E-1,-1.002300024E0
1.363001875E1,1.351999938E-1,9.207999706E-1,4.725999832E-1
1.365999844E1,4.680999815E-1,-1.058999971E-1,1.747299910E0
1.367999844E1,7.328999639E-1,1.523000002E-1,1.981699944E0
1.370000000E1,9.835000038E-1,7.655000091E-1,1.315400004E0
1.372000000E1,5.530999899E-1,8.619999886E-1,6.462000012E-1
1.375000000E1,-1.122399926E0,1.810999960E-1,2.847699881E0
1.378000000E1,-4.621999860E-1,-1.300799966E0,4.676199913E0
1.380000000E1,3.883000016E-1,-2.059299946E0,2.671099901E0
1.382000000E1,2.088999897E-1,-2.677199841E0,7.231999636E-1
1.384000000E1,-6.035000086E-1,-2.533799887E0,7.573999763E-1
1.386000000E1,-1.403499961E0,-1.696599960E0,1.417500019E0
1.389000000E1,-1.129999995E0,-7.696999907E-1,4.431999922E-1
1.391001250E1,-5.591999888E-1,-4.809999764E-1,-1.190099955E0
1.393001875E1,5.829999968E-2,-1.787000000E-1,-2.518800020E0
1.395999844E1,5.421000123E-1,5.223999619E-1,-3.297099829E0
1.398000000E1,7.023999691E-1,7.048999667E-1,-3.442799807E0
1.400000000E1,1.009400010E0,6.000999808E-1,-3.482100010E0
1.403001875E1,9.531999826E-1,3.962999880E-1,-2.945499897E0
1.406000000E1,9.229999781E-1,6.184999943E-1,-1.814299941E0
1.408000000E1,1.074800014E0,4.199000001E-1,-1.279999971E0
1.410000000E1,9.152999520E-1,3.968999982E-1,-8.041999936E-1
1.412000000E1,6.785999537E-1,4.499999881E-1,1.125999987E-1
1.414000000E1,6.827999949E-1,3.905999959E-1,9.419999719E-1
1.416999844E1,8.154000044E-1,4.378999770E-1,1.145099998E0
1.418999844E1,6.990999579E-1,8.897999525E-1,6.064000130E-1
1.421000000E1,2.237999886E-1,1.269099951E0,9.785999656E-1
1.423001875E1,-3.177999854E-1,1.025399923E0,1.819700003E0
1.426000000E1,-4.232999980E-1,7.620999813E-1,3.974999905E0
1.428000000E1,2.199999988E-3,1.316200018E0,3.017799854E0
1.430000000E1,-2.834999859E-1,1.421399951E0,1.297299981E0
1.432000000E1,-3.510999978E-1,7.070999742E-1,2.114399910E0
1.435000000E1,1.274399996E0,-8.050999641E-1,2.588099957E0
1.438000000E1,1.706299901E0,-1.028699994E0,-1.103999987E-1
1.440000000E1,6.956999898E-1,-9.101999998E-1,-1.002900004E0
1.442000000E1,-6.054999828E-1,-8.725000024E-1,5.738999844E-1
1.444000000E1,-1.529799938E0,-1.054999948E0,2.418999910E0
1.446999844E1,-1.041800022E0,-1.976599932E0,2.054499865E0
1.449000000E1,-4.638999999E-1,-2.050600052E0,-1.696999967E-1
1.451000000E1,-4.194999933E-1,-1.560400009E0,-1.572999954E0
1.453001875E1,-6.579999924E-1,-9.125999808E-1,-2.337699890E0
1.456000000E1,-1.104499936E0,-1.035999954E-1,-3.293399811E0
1.458000000E1,-1.481699944E0,2.944999933E-1,-3.517499924E0
1.460000000E1,-1.693699956E0,2.523999810E-1,-2.590399981E0
1.462000000E1,-1.499699950E0,-2.166000009E-1,-1.904599905E0
1.464000000E1,-1.034999967E0,-8.820999861E-1,-1.640999913E0
1.466999844E1,-5.435000062E-1,-1.248299956E0,-1.699499965E0
1.469000000E1,-9.251999855E-1,-7.336999774E-1,-1.494599938E0
1.471000000E1,-1.086400032E0,-1.253999919E-1,-1.265399933E0
1.473001875E1,-8.921999931E-1,-2.741999924E-1,-6.735999584E-1
1.475999844E1,-4.651999772E-1,-1.077499986E0,8.003000021E-1
1.478000000E1,-2.757000029E-1,-1.050699949E0,1.781199932E0
1.480000000E1,2.150999904E-1,-3.073000014E-1,1.515200019E0
1.482000000E1,5.639999732E-2,1.618999988E-1,4.677999914E-1
1.485000000E1,-1.579100013E0,4.298999906E-1,2.087300062E0
1.487999844E1,-1.201099992E0,-5.909999833E-2,3.605000019E0
1.490000000E1,-4.488999844E-1,-7.303000093E-1,2.416199923E0
1.492000000E1,9.769999981E-2,-1.143599987E0,1.621399999E0
1.494000000E1,2.832999825E-1,-1.051999927E0,1.457899928E0
1.496000000E1,1.439999975E-2,-5.223999619E-1,1.158699989E0
1.499000000E1,1.133999974E-1,-2.348999977E-1,1.615099907E0
1.501000000E1,3.831000030E-1,-2.499999944E-3,1.005699992E0
1.503001875E1,4.231999815E-1,4.217000008E-1,-3.966999948E-1
1.506000000E1,6.103000045E-1,1.067000031E0,-1.708799958E0
1.508000000E1,9.086999893E-1,8.925999999E-1,-2.363600016E0
1.511000000E1,1.246500015E0,7.462999821E-1,-2.359200001E0
1.513001875E1,1.103699923E0,7.536000013E-1,-1.874399900E0
1.516000000E1,1.011199951E0,9.572999477E-1,-1.975199938E0
1.518000000E1,1.380199909E0,1.143700004E0,-2.472100019E0
1.521000000E1,1.105999947E0,9.175999761E-1,-1.583699942E0
1.523001875E1,7.612999678E-1,7.569999695E-1,-6.485999823E-1
1.525999844E1,1.437899947E0,2.176999897E-1,-7.379999757E-2
1.528000000E1,1.934299946E0,3.251000047E-1,-7.325999737E-1
1.530000000E1,1.752999902E0,5.547999740E-1,-9.114999771E-1
1.532000000E1,1.303799987E0,7.250999808E-1,1.636999995E-1
1.534000000E1,1.194599986E0,7.200999856E-1,1.862800002E0
1.536000000E1,2.013299942E0,7.626000047E-1,2.699199915E0
1.538999844E1,1.930999994E0,2.118999958E-1,1.202899933E0
1.541001250E1,8.925999999E-1,-3.375999928E-1,2.889600039E0
1.543001875E1,1.453599930E0,-1.150900006E0,5.307600021E0
1.545999844E1,2.825799942E0,-9.998999834E-1,1.479599953E0
1.547999844E1,2.270499945E0,-4.285999835E-1,-1.380199909E0
1.550000000E1,8.797000051E-1,-3.933999836E-1,-9.223999977E-1
1.552000000E1,1.181999967E-1,-7.468999624E-1,8.971999884E-1
1.554000000E1,-4.809999838E-2,-1.561699986E0,1.854399920E0
1.556000000E1,-2.752999961E-1,-2.141299963E0,1.030799985E0
1.558000000E1,-4.694999754E-1,-2.151799917E0,6.171999574E-1
1.561000000E1,-5.819000006E-1,-1.777499914E0,1.116999984E-1
1.563001875E1,-5.647000074E-1,-1.249799967E0,-1.557599902E0
1.566000000E1,-8.780999780E-1,-5.465999842E-1,-3.633999825E0
1.568000000E1,-1.408399940E0,-2.291999906E-1,-3.717700005E0
1.570000000E1,-1.809199929E0,3.079999983E-2,-3.258299828E0
1.572000000E1,-2.202199936E0,3.576999903E-1,-3.075599909E0
1.575000000E1,-2.368399858E0,7.610999942E-1,-2.267999887E0
1.578000000E1,-1.489399910E0,1.688999981E-1,-1.799600005E0
1.580000000E1,-9.255999923E-1,-1.085999981E-1,-1.767899990E0
1.582000000E1,-5.243999958E-1,-3.883999884E-1,-6.194999814E-1
1.584000000E1,-3.518999815E-1,-6.955999732E-1,9.996999502E-1
1.586000000E1,-8.319000006E-1,-4.555999935E-1,2.278399944E0
1.588999844E1,-6.797999740E-1,1.871999949E-1,3.077199936E0
1.591001250E1,-9.187999964E-1,4.160000011E-2,1.664699912E0
1.593001875E1,-2.129799843E0,2.586999834E-1,1.919600010E0
1.595999844E1,-2.343699932E0,-5.433999896E-1,4.947299957E0
1.598000000E1,-7.743999958E-1,-1.385999918E0,4.336499691E0
1.600000000E1,-1.709999889E-1,-1.390900016E0,1.510699987E0
1.602000000E1,-9.294999838E-1,-6.844999790E-1,-4.296999872E-1
1.604000000E1,-1.812399983E0,1.087999940E-1,8.443999887E-1
1.606000000E1,-1.846599936E0,7.679999620E-2,2.020299911E0
1.608000000E1,-1.671000004E0,-1.928000003E-1,1.569700003E0
1.611000000E1,-9.472999573E-1,3.551000059E-1,-7.437999845E-1
1.613001719E1,-2.157999873E-1,6.856999993E-1,-1.567699909E0
1.615999844E1,2.687999904E-1,4.109999835E-1,-1.440599918E0
1.617999844E1,6.351999640E-1,6.082000136E-1,-2.608199835E0
1.619999844E1,6.036999822E-1,9.296000004E-1,-3.461699963E0
1.622000000E1,9.855999947E-1,1.106500030E0,-3.206699848E0
1.625000000E1,1.015499949E0,6.822999716E-1,-1.774500012E0
1.628000000E1,4.274999797E-1,1.358899951E0,-1.224099994E0
1.630000000E1,3.556999862E-1,1.468899965E0,-6.538999677E-1
1.632000000E1,4.432999790E-1,1.176900029E0,5.044000149E-1
1.634000000E1,2.606000006E-1,6.668999791E-1,1.710500002E0
1.636000000E1,5.889999866E-2,2.919999957E-1,2.464900017E0
1.638000000E1,3.077999949E-1,-1.950000040E-2,3.013900042E0
1.641001250E1,1.373299956E0,-4.181999862E-1,2.928400040E0
1.643001875E1,1.305499911E0,1.229999959E-2,1.177999973E0
1.646000000E1,-6.570000201E-2,-1.507000029E-1,1.820499897E0
1.649000000E1,1.169899940E0,-1.809999943E0,4.473499775E0
1.651000000E1,1.688699961E0,-1.993199944E0,1.878999949E0
1.653001875E1,1.420400023E0,-1.218299985E0,-3.161999881E-1
1.655999844E1,5.270000100E-1,-1.166899920E0,2.318999916E-1
1.658000000E1,6.435999870E-1,-1.592199922E0,6.990999579E-1
1.661000000E1,9.820000082E-2,-1.939199924E0,-4.536999762E-1
1.663001875E1,2.322999984E-1,-1.670799971E0,-2.585999966E-1
1.665999844E1,1.095099926E0,-2.297999859E0,3.145999908E-1
1.668000000E1,1.276099920E0,-2.298500061E0,-1.135900021E0
1.671000000E1,5.573999882E-1,-1.323899984E0,-3.876199961E0
1.673001875E1,1.445999891E-1,-6.349999905E-1,-4.653100014E0
1.676000000E1,-2.180999964E-1,-4.205999970E-1,-3.828499794E0
1.678000000E1,-4.937999845E-1,-5.857999921E-1,-3.395699978E0
1.680000000E1,-9.441999793E-1,-3.675999939E-1,-2.815599918E0
1.682000000E1,-1.172399998E0,-5.859999731E-2,-1.106199980E0
1.685000000E1,-8.526999950E-1,3.373999894E-1,-6.610000134E-2
1.687000000E1,-9.224999547E-1,1.842999905E-1,-2.412000000E-1
1.689000000E1,-9.785999656E-1,1.960999966E-1,3.099999856E-3
1.691001250E1,-8.473999500E-1,4.106999934E-1,1.247900009E0
1.693001875E1,-2.161999941E-1,3.953000009E-1,1.600099921E0
1.695999844E1,4.685999751E-1,5.979999900E-1,-2.963999808E-1
1.698000000E1,-8.959999681E-2,6.856999993E-1,-1.082899928E0
1.700000000E1,-1.102399945E0,3.432999849E-1,1.138800025E0
1.702000000E1,-1.693300009E0,-4.838999808E-1,4.239999771E0
1.704000000E1,-1.558699965E0,-1.172699928E0,5.707499981E0
1.706000000E1,-7.771999836E-1,-1.196799994E0,4.032999992E0
1.708000000E1,6.610000134E-2,-5.454999804E-1,1.939099908E0
1.710000000E1,3.238999844E-1,-5.753999949E-1,1.313300014E0
1.712000000E1,-3.359999880E-2,-7.793999910E-1,2.017899990E0
1.714000000E1,-1.988999993E-1,-3.376999795E-1,1.786000013E0
1.716999844E1,-2.463999987E-1,4.943999946E-1,6.753000021E-1
1.719000000E1,5.839999765E-2,7.651999593E-1,2.865999937E-1
1.721000000E1,7.142999768E-1,5.424999595E-1,-4.203999937E-1
1.723001875E1,1.209800005E0,4.052999914E-1,-1.444700003E0
1.726000000E1,1.403499961E0,6.570999622E-1,-2.617399931E0
1.728000000E1,1.286000013E0,9.202999473E-1,-2.785199881E0
1.730000000E1,1.131999969E0,1.142400026E0,-2.265499830E0
1.732000000E1,9.929999709E-1,9.447999597E-1,-1.598399997E0
1.735000000E1,9.126999974E-1,1.573999971E-1,-7.719999552E-2
1.737000000E1,7.912999988E-1,-2.287999988E-1,7.475000024E-1
1.740000000E1,5.873000026E-1,-4.154999852E-1,1.660899997E0
1.742000000E1,5.167999864E-1,-5.501999855E-1,1.396199942E0
1.744000000E1,3.057000041E-1,-3.080999851E-1,5.141999722E-1
1.747000000E1,3.199999779E-2,-3.420999944E-1,8.517000079E-1
1.749000000E1,-1.198999956E-1,-2.663999796E-1,1.367399931E0
1.751000000E1,3.026999831E-1,1.040999964E-1,1.347000003E0
1.753001875E1,7.729999721E-2,1.592999995E-1,2.825999856E-1
1.755999844E1,-1.127699971E0,-4.077999890E-1,1.770399928E0
1.758000000E1,-4.858999848E-1,-1.498999953E0,3.029700041E0
1.761000000E1,8.770999908E-1,-2.987999916E0,1.939899921E0
1.763001875E1,7.052999735E-1,-2.957099915E0,2.660000026E-1
1.766000000E1,-8.662999868E-1,-1.673599958E0,-2.008999884E-1
1.769000000E1,-1.907199979E0,-1.224099994E0,5.188999772E-1
1.771000000E1,-1.843199968E0,-1.302699924E0,2.979999781E-1
1.773001875E1,-1.353099942E0,-1.253099918E0,-1.279699922E0
1.776000000E1,-5.763999820E-1,-1.581299901E0,-2.213899851E0
1.778000000E1,-5.408999920E-1,-1.442899942E0,-2.374199867E0
1.780000000E1,-8.427000046E-1,-1.024500012E0,-2.793900013E0
1.782000000E1,-1.336300015E0,-4.025000036E-1,-3.743099928E0
1.785000000E1,-1.942199945E0,2.437999994E-1,-2.694900036E0
1.787000000E1,-1.667299986E0,3.130000085E-2,-1.062500000E0
1.790000000E1,-6.969000101E-1,-8.532999754E-1,-4.502999783E-1
1.792000000E1,-4.244000018E-1,-1.130999923E0,-1.807999909E-1
1.794000000E1,-2.538000047E-1,-1.101999998E0,9.450999498E-1
1.797000000E1,5.974999666E-1,-7.708999515E-1,1.062500000E0
1.799000156E1,4.227999747E-1,-1.225999966E-1,4.651999772E-1
1.802000000E1,-9.848999977E-1,3.547999859E-1,1.668699980E0
1.804000000E1,-8.580999970E-1,3.464999795E-1,2.623100042E0
1.807000000E1,9.099999443E-3,1.071999967E-1,8.899999782E-3
1.809000000E1,1.948999912E-1,1.173999980E-1,-1.258899927E0
1.812000000E1,4.054999948E-1,-2.179999948E-1,3.258999884E-1
1.814000000E1,6.539999694E-2,-2.852999866E-1,1.979200006E0
1.816000000E1,-2.804999948E-1,-2.164999992E-1,2.979599953E0
1.818999844E1,1.102999970E-1,-3.909999877E-2,1.959899902E0
1.821000000E1,5.213999748E-1,8.200000040E-3,1.433499932E0
1.823001875E1,6.229000092E-1,-6.199999712E-3,9.204999804E-1
1.825999844E1,6.462000012E-1,1.359999925E-2,-8.585999608E-1
1.828000000E1,6.473999619E-1,5.289999768E-2,-2.388700008E0
1.830000000E1,6.929999590E-1,2.565000057E-1,-2.840800047E0
1.833001875E1,6.082000136E-1,4.668999910E-1,-2.278100014E0
1.836000000E1,5.115999579E-1,4.436999857E-1,-1.477299929E0
1.838999844E1,4.985999763E-1,3.691999912E-1,-1.042599916E0
1.841001250E1,6.528999805E-1,1.556999981E-1,-1.762000024E-1
1.843001875E1,8.568999767E-1,1.017000005E-1,3.671999872E-1
1.845999844E1,7.678999901E-1,8.228999972E-1,0.000000000E0
1.847999844E1,7.213000059E-1,1.283299923E0,6.560000032E-2
1.850000000E1,7.770999670E-1,1.572299957E0,-6.480000168E-2
1.853001875E1,8.345999718E-1,1.669199944E0,-3.048000038E-1
1.855999844E1,6.548999548E-1,1.828199983E0,-4.289999977E-2
1.858000000E1,7.739999890E-1,1.760599971E0,4.459999800E-1
1.861000000E1,1.227900028E0,1.568599939E0,-3.529999778E-2
1.863001875E1,1.374300003E0,1.525200009E0,-2.802000046E-1
1.865999844E1,1.090399981E0,1.831599951E0,1.525999904E-1
1.868000000E1,1.306299925E0,1.898299932E0,7.310000062E-2
1.871000000E1,7.386999726E-1,1.392399907E0,6.979999691E-2
1.873001875E1,5.020000041E-2,6.337000132E-1,1.804999948E0
1.876000000E1,1.325999945E-1,-9.595999718E-1,5.276799679E0
1.878000000E1,7.802999616E-1,-1.811800003E0,4.625099659E0
1.880000000E1,1.534099936E0,-1.600299954E0,1.463499904E0
1.882000000E1,1.961799979E0,-5.365999937E-1,-1.179499984E0
1.885000000E1,1.533800006E0,6.759999692E-2,-2.787799835E0
1.887000000E1,5.248000026E-1,-3.021000028E-1,-1.058099985E0
1.890000000E1,-5.656999946E-1,-8.331999779E-1,2.179899931E0
1.892000000E1,-4.025000036E-1,-1.221799970E0,2.477499962E0
1.894000000E1,1.424999982E-1,-1.277999997E0,1.378799915E0
1.897000000E1,9.670999646E-1,-1.189599991E0,-4.092999995E-1
1.899000000E1,9.860000014E-1,-9.272999763E-1,-1.289299965E0
1.901000000E1,6.739999652E-1,-4.749999940E-1,-2.100199938E0
1.903001875E1,2.969999909E-1,-2.427999973E-1,-2.489799976E0
1.905999844E1,-3.808999956E-1,-8.089999855E-2,-1.675399899E0
1.908000000E1,-5.044999719E-1,-1.612000018E-1,-8.139999509E-1
1.910000000E1,-2.913999856E-1,-4.390999973E-1,-6.584999561E-1
1.913001875E1,-8.739999682E-2,-2.529999912E-1,-1.318799973E0
1.916000000E1,-3.666999936E-1,-6.631000042E-1,-2.056999952E-1
1.919000000E1,-2.595999837E-1,-8.090999722E-1,1.322299957E0
1.921000000E1,-2.764999866E-1,-9.253999591E-1,1.739099979E0
1.923001875E1,-5.088999867E-1,-9.995999932E-1,1.609499931E0
1.926000000E1,-9.842999578E-1,-4.222999811E-1,1.863199949E0
1.928000000E1,-7.943999767E-1,-3.949999809E-1,1.861799955E0
1.930000000E1,-6.312999725E-1,-7.791999578E-1,1.277300000E0
1.932000000E1,-9.587000012E-1,-7.899000049E-1,1.505699992E0
1.935000000E1,-1.269699931E0,-8.738999963E-1,2.054299831E0
1.937000000E1,-1.370399952E0,-5.242999792E-1,1.598099947E0
1.939000000E1,-1.126699924E0,-2.442999929E-1,6.216999888E-1
1.941001250E1,-6.973999739E-1,3.859999776E-2,-3.348000050E-1
1.943001875E1,-9.719999880E-2,1.747999936E-1,-1.251099944E0
1.945999844E1,-8.370000124E-2,1.860999912E-1,-1.088299990E0
1.947999844E1,-1.806000024E-1,2.744999826E-1,-5.418999791E-1
1.950000000E1,-2.010999918E-1,3.549000025E-1,-2.705000043E-1
1.953001875E1,1.963000000E-1,3.285999894E-1,-1.657799959E0
1.955999844E1,4.607999921E-1,3.418000042E-1,-2.432499886E0
1.958000000E1,7.466999888E-1,2.870000005E-1,-2.206199884E0
1.961000000E1,1.170300007E0,3.139999881E-2,-2.723799944E0
1.963001875E1,6.995999813E-1,4.585999846E-1,-2.603899956E0
1.965999844E1,1.929000020E-1,9.503999949E-1,-1.231799960E0
1.967999844E1,3.592000008E-1,5.871999860E-1,-3.229999840E-1
1.969999844E1,3.227999806E-1,4.473999739E-1,8.630000055E-2
1.972000000E1,8.269999921E-2,6.362999678E-1,8.201999664E-1
1.975000000E1,-2.545999885E-1,6.633999944E-1,2.516700029E0
1.978000000E1,-4.021999836E-1,7.529000044E-1,2.714799881E0
1.980000000E1,-2.494999915E-1,1.432399988E0,1.697299957E0
1.982000000E1,-5.216999650E-1,1.632900000E0,1.170599937E0
1.984000000E1,-1.000999928E0,9.916999936E-1,2.785099983E0
1.986000000E1,-7.286999822E-1,1.429999992E-2,4.488699913E0
1.988999844E1,9.595999718E-1,-4.384000003E-1,1.223299980E0
1.991001250E1,1.651499987E0,4.397999942E-1,-1.775200009E0
1.993001875E1,1.319199920E0,9.578999877E-1,-2.612200022E0
1.995999844E1,5.437999964E-1,-7.499999832E-3,4.017999768E-1
1.997999844E1,5.900000036E-2,-7.041999698E-1,2.005199909E0
2.000000000E1,1.190999970E-1,-1.188599944E0,1.852899909E0
2.003001875E1,2.685000002E-1,-1.736099958E0,1.484399915E0
2.005999844E1,4.629999772E-2,-1.623899937E0,6.360999942E-1
2.008000000E1,-1.739999950E-1,-9.788999557E-1,-1.038699985E0
2.011000000E1,-5.115999579E-1,-1.389999986E-1,-2.753899813E0
2.013001875E1,-1.063400030E0,-3.700000001E-3,-2.865700006E0
2.016000000E1,-1.531999946E0,-1.543999910E-1,-1.693399906E0
2.018000000E1,-1.492399931E0,-6.592999697E-1,-1.089900017E0
2.021000000E1,-1.107800007E0,-1.245100021E0,-8.968999982E-1
2.023001875E1,-1.074599981E0,-1.847299933E0,-1.379999984E-2
2.026000000E1,-6.183999777E-1,-2.277499914E0,1.208500028E0
2.028000000E1,-4.640999734E-1,-1.714499950E0,6.534999609E-1
2.030000000E1,-1.141899943E0,-8.806999922E-1,-3.489999771E-1
2.032000000E1,-2.060199976E0,-9.589999914E-2,2.303999960E-1
2.034000000E1,-1.882599950E0,-2.390999943E-1,1.272400022E0
2.036000000E1,-4.975999892E-1,-9.067999721E-1,9.246999621E-1
2.038999844E1,6.984999776E-1,-9.635999799E-1,-1.453400016E0
2.041001250E1,2.687000036E-1,-5.900999904E-1,-2.256500006E0
2.043001875E1,-2.516999841E-1,-5.044000149E-1,-1.395699978E0
2.045999844E1,-2.703999877E-1,-5.421000123E-1,-5.776999593E-1
2.048000000E1,-6.822999716E-1,-3.570999801E-1,-1.504199982E0
2.050000000E1,-1.090499997E0,5.368999839E-1,-1.319399953E0
2.053001875E1,-2.290000021E-2,5.252999663E-1,-1.562999934E-1
2.055999844E1,1.097499967E0,8.729999512E-2,-1.042899966E0
2.058000000E1,1.124899983E0,4.569999874E-1,-2.083999872E0
2.060000000E1,8.317999840E-1,1.175400019E0,-2.499899864E0
2.062000000E1,4.658999741E-1,1.479399920E0,-1.458999991E0
2.064000000E1,2.994999886E-1,1.243199944E0,-6.274999976E-1
2.066000000E1,2.291999906E-1,1.060299993E0,-1.151999980E-1
2.068000000E1,2.245000005E-1,1.027500033E0,7.499999553E-2
2.070000000E1,6.642999649E-1,7.688999772E-1,5.623999834E-1
2.072000000E1,9.285999537E-1,6.147999763E-1,1.080099940E0
2.075000000E1,4.578999877E-1,1.366099954E0,1.186900020E0
2.078000000E1,3.240000084E-2,2.137599945E0,1.166899920E0
2.080000000E1,3.348999918E-1,2.138000011E0,1.529999971E0
2.083001875E1,3.968999982E-1,1.513899922E0,1.814299941E0
2.086000000E1,2.089999989E-2,1.836199999E0,1.951699972E0
2.088999844E1,2.465999871E-1,1.606899977E0,1.422199965E0
2.091001250E1,3.330000043E-1,1.012699962E0,1.755399942E0
2.093001875E1,1.854999959E-1,1.282999963E-1,3.266000032E0
2.095999844E1,4.944999814E-1,-1.451399922E0,4.846799850E0
2.098000000E1,8.981999755E-1,-1.600499988E0,3.119799852E0
2.100000000E1,1.004299998E0,-9.469999671E-1,2.649999857E-1
2.102000000E1,9.002999663E-1,-1.479000002E-1,-1.898099899E0
2.104000000E1,7.325999737E-1,2.036999911E-1,-2.292000055E0
2.107000000E1,-1.232999936E-1,-3.705999851E-1,1.544999927E-1
2.109000000E1,-5.702999830E-1,-6.365000010E-1,1.617299914E0
2.111000000E1,-7.412999868E-1,-1.041800022E0,3.160300016E0
2.113001719E1,-5.903999805E-1,-1.614699960E0,3.294499874E0
2.116000000E1,8.579999954E-2,-1.700699925E0,6.744999886E-1
2.118000000E1,2.430000007E-1,-1.264299989E0,-1.429499984E0
2.121000000E1,-9.769999981E-2,-4.833000004E-1,-3.067899942E0
2.123001875E1,-3.902999759E-1,-2.453999966E-1,-3.284899950E0
2.126000000E1,-4.188999832E-1,-4.122999907E-1,-3.141599894E0
2.128000000E1,-3.968999982E-1,-6.635000110E-1,-3.090499878E0
2.130000000E1,-2.840999961E-1,-8.789999485E-1,-2.784699917E0
2.133001875E1,-3.455999792E-1,-7.832999825E-1,-2.290799856E0
2.136000000E1,-5.787999630E-1,1.376999915E-1,-2.415499926E0
2.138000000E1,-3.285000026E-1,3.542000055E-1,-2.163199902E0
2.140000000E1,-8.111000061E-1,5.935999751E-1,-1.630899906E0
2.142000000E1,-1.255299926E0,1.053399920E0,-1.249599934E0
2.144000000E1,-1.209900022E0,1.343899965E0,-7.641999722E-1
2.147000000E1,-4.974999726E-1,7.361999750E-1,5.058999658E-1
2.149000000E1,-1.085999981E-1,4.816999733E-1,1.814199924E0
2.151000000E1,9.759999812E-2,7.870000005E-1,2.234400034E0
2.153001875E1,3.249000013E-1,1.333299994E0,1.648599982E0
2.155999844E1,3.346999884E-1,9.649999738E-1,1.985599995E0
2.158000000E1,-3.746999800E-1,5.381000042E-1,3.959599972E0
2.160999844E1,-2.531000078E-1,-5.085999966E-1,6.411900043E0
2.163001875E1,3.233999908E-1,-1.342700005E0,5.683300018E0
2.166000000E1,3.984999955E-1,-1.148699999E0,2.067399979E0
2.168000000E1,1.939999871E-2,-4.649999738E-1,-2.639999986E-2
2.170000000E1,-6.838999987E-1,1.799999923E-2,-9.782999754E-1
2.172000000E1,-1.157999992E0,3.500999808E-1,-1.125000000E0
2.174000000E1,-1.252599955E0,3.740999997E-1,-1.440799952E0
2.176000000E1,-9.082999825E-1,7.899999619E-3,-1.631699920E0
2.178000000E1,-6.189000010E-1,-4.694999754E-1,-1.273199916E0
2.180999844E1,3.698999882E-1,-9.484999776E-1,-1.561199903E0
2.183001875E1,1.011999965E0,-1.056200027E0,-2.434099913E0
2.186000000E1,3.367999792E-1,-6.651999950E-1,-2.373699903E0
2.188999844E1,1.519999932E-2,7.469999790E-2,-1.861999989E0
2.191001250E1,-2.543999851E-1,2.022999972E-1,-1.279899955E0
2.193001875E1,-5.967000127E-1,5.239999890E-1,-1.849499941E0
2.195999844E1,-1.798999906E-1,1.381299973E0,-2.243299961E0
2.198000000E1,3.464999795E-1,1.428599954E0,-1.563199997E0
2.200000156E1,4.962999821E-1,1.371599913E0,-7.712999582E-1
2.203001875E1,6.577999592E-1,1.192199945E0,6.951000094E-1
2.206000000E1,3.367999792E-1,1.077099919E0,2.040199995E0
2.208000000E1,5.759999901E-2,1.466499925E0,2.047999859E0
2.211000000E1,-1.678999960E-1,1.944299936E0,1.563499928E0
2.213001875E1,-8.199999481E-2,1.982899904E0,1.633199930E0
2.215999844E1,1.613999903E-1,1.356899977E0,1.763599992E0
2.218000000E1,3.037999868E-1,2.931999862E-1,3.696499825E0
2.220000000E1,7.502999902E-1,-1.067799926E0,4.789499760E0
2.222000000E1,1.288299918E0,-1.818799973E0,3.691200018E0
2.224999844E1,9.337999821E-1,-7.853999734E-1,-6.764999628E-1
2.226999844E1,-3.477999866E-1,3.474999964E-1,-1.464599967E0
2.229000000E1,-1.263800025E0,4.387999773E-1,1.547999978E-1
2.231000000E1,-1.076399922E0,-3.673999906E-1,1.963299990E0
2.233001875E1,-3.291999996E-1,-1.408800006E0,2.135999918E0
2.236000000E1,3.111000061E-1,-1.615899920E0,-1.077799916E0
2.238999844E1,-3.409000039E-1,-1.133999944E0,-1.662799954E0
2.241001250E1,-7.141999602E-1,-8.889999986E-1,-1.796700001E0
2.243001875E1,-7.547000051E-1,-7.366999984E-1,-2.233299971E0
2.245999844E1,-7.985999584E-1,-6.607999802E-1,-3.319799900E0
2.248000000E1,-1.202099919E0,-4.535000026E-1,-3.368599892E0
2.250000000E1,-1.236099958E0,-5.156999826E-1,-2.477200031E0
2.253001875E1,-1.389999986E-1,-1.294600010E0,-1.699299932E0
2.255999844E1,1.669999957E-2,-7.967999578E-1,-1.805799961E0
2.258000000E1,-7.092999816E-1,-3.139999807E-1,-1.580999970E0
2.261000000E1,-1.699099898E0,-1.701999903E-1,1.409000009E-1
2.263001875E1,-2.049999952E0,-2.276999950E-1,1.214399934E0
2.266000000E1,-1.271099925E0,-1.259000003E-1,1.042599916E0
2.268000000E1,-2.644999921E-1,6.539999694E-2,2.552999854E-1
2.271000000E1,7.544999719E-1,9.319999814E-1,-2.474000007E-1
2.273001875E1,6.721999645E-1,1.411399961E0,-4.267999828E-1
2.276000000E1,-6.861999631E-1,1.155399919E0,1.862899899E0
2.278000000E1,-4.755999744E-1,2.116999924E-1,4.464900017E0
2.280000000E1,9.603999853E-1,-7.178999782E-1,4.468100071E0
2.283001875E1,2.594899893E0,-7.342999578E-1,1.373399973E0
2.286000000E1,2.071699858E0,-5.131999850E-1,5.798000097E-1
2.288999844E1,1.193400025E0,-6.136999726E-1,2.519399881E0
2.291001250E1,8.729999661E-1,-5.868999958E-1,2.052399874E0
2.293001875E1,7.189999521E-2,2.041999996E-1,1.210299969E0
2.296000000E1,-3.346999884E-1,6.056999564E-1,9.422999620E-1
2.298000000E1,3.043999970E-1,1.398999989E-1,-4.203999937E-1
2.300000000E1,5.821999907E-1,2.421999872E-1,-2.480499983E0
2.302000000E1,7.627999783E-1,5.767999887E-1,-3.972299814E0
2.304000000E1,7.297999859E-1,6.606000066E-1,-4.398499966E0
2.307000000E1,5.712000132E-1,4.400999844E-1,-3.222299814E0
2.309000000E1,4.452999830E-1,5.629000068E-1,-3.247799873E0
2.311000000E1,4.824000001E-1,9.576999545E-1,-3.315299988E0
2.313001719E1,5.514999628E-1,1.348999977E0,-2.866600037E0
2.316000000E1,6.383999586E-1,1.040099978E0,-9.186999798E-1
2.318000000E1,6.911999583E-1,8.790999651E-1,-2.709999867E-2
2.321000000E1,3.091000021E-1,8.558999896E-1,-1.233999953E-1
2.323001875E1,4.979999736E-2,9.487999678E-1,9.593999982E-1
2.325999844E1,-2.511000037E-1,7.112999558E-1,2.977099895E0
2.328000000E1,-1.066999957E-1,3.691000044E-1,3.190899849E0
2.330000000E1,-3.099999949E-2,5.170999765E-1,3.182999849E0
2.333001875E1,-3.689000010E-1,7.387999892E-1,2.775699854E0
2.336000000E1,6.114999652E-1,-1.040499926E0,3.748699903E0
2.338999844E1,1.183300018E0,-2.045799971E0,2.172699928E0
2.341001250E1,4.096999764E-1,-1.157799959E0,1.427999973E0
2.343001875E1,-6.177999973E-1,-6.484999657E-1,1.573199987E0
2.345999844E1,-6.736999750E-1,-1.121699929E0,2.851999998E0
2.348000000E1,-9.109999985E-2,-1.599499941E0,2.262899876E0
2.350000000E1,5.020000041E-2,-1.470899940E0,2.588000000E-1
2.352000000E1,1.552999914E-1,-1.184599996E0,-1.961899996E0
2.354000000E1,2.463999987E-1,-1.022099972E0,-3.028999805E0
2.357000000E1,1.512999982E-1,-9.411999583E-1,-3.491699934E0
2.359000000E1,-7.782999873E-1,-8.698999882E-1,-2.650899887E0
2.361000000E1,-1.469599962E0,-2.732000053E-1,-2.271100044E0
2.363001875E1,-1.194299936E0,-3.975999951E-1,-2.300099850E0
2.366000000E1,-3.340999782E-1,-1.192099929E0,-1.513599992E0
2.369000000E1,-2.021999955E-1,-2.994000018E-1,-2.890499830E0
2.371000000E1,-4.140999913E-1,3.125000000E-1,-3.071699858E0
2.373001875E1,-2.558999956E-1,-7.639999688E-2,-1.119300008E0
2.376000000E1,-8.069999516E-2,-2.547999918E-1,4.789999872E-2
2.378000000E1,-2.296999991E-1,2.408999950E-1,-4.472000003E-1
2.381000000E1,-1.377999932E-1,4.755999744E-1,4.657000005E-1
2.383001875E1,2.830999792E-1,1.737999916E-1,1.408599973E0
2.386000000E1,8.578999639E-1,2.049999870E-2,2.000299931E0
2.388000000E1,7.980999947E-1,7.060999870E-1,8.418999910E-1
2.390000000E1,1.612000018E-1,7.157999873E-1,-1.335999966E-1
2.392000000E1,-6.374999881E-1,1.671999991E-1,1.365099907E0
2.394000000E1,-1.182899952E0,-2.838000059E-1,3.755499840E0
2.397000000E1,-3.393999934E-1,-1.018599987E0,3.852499962E0
2.400000000E1,-4.360000044E-2,-7.329999804E-1,5.748000145E-1
2.402000000E1,-4.555999935E-1,-3.445000052E-1,-5.712999701E-1
2.404000000E1,-1.225299954E0,-2.236999869E-1,2.811999917E-1
2.407000000E1,-1.793399930E0,2.292999923E-1,1.427299976E0
2.409000000E1,-1.137699962E0,3.513000011E-1,9.167999625E-1
2.411000000E1,-1.371999979E-1,3.449999914E-2,-2.308999896E-1
2.413001875E1,4.713999927E-1,-1.850000024E-1,-1.240999937E0
2.416000000E1,4.839999974E-1,2.337999940E-1,-2.229899883E0
2.418999844E1,-7.339999825E-2,1.027899981E0,-2.452899933E0
2.421000000E1,-4.169999808E-2,1.189700007E0,-2.441499949E0
2.423001719E1,3.716999888E-1,8.679999709E-1,-1.979699969E0
2.426000000E1,1.996999979E-1,6.528999805E-1,-1.184599996E0
2.428000000E1,-4.999999655E-4,9.656999707E-1,-8.112999797E-1
2.430000000E1,-1.059999987E-1,7.807999849E-1,-1.048999950E-1
2.433001875E1,-7.312999964E-1,1.126199961E0,4.461999834E-1
2.436000000E1,-9.490999579E-1,1.896399975E0,2.942000031E-1
2.439000000E1,-2.028999925E-1,1.624499917E0,-2.985000014E-1
2.441001250E1,1.740000024E-2,1.518199921E0,-2.357999980E-1
2.443001875E1,-2.358999997E-1,1.099699974E0,7.778999805E-1
2.445999844E1,-3.980000019E-1,6.686999798E-1,2.205899954E0
2.447999844E1,-3.152000010E-1,9.265999794E-1,1.888999939E0
2.450000000E1,-2.099999972E-2,1.137300014E0,8.560999632E-1
2.452000000E1,-6.279999763E-2,6.492999792E-1,1.592000008E0
2.454000000E1,-1.172999963E-1,-5.965999961E-1,3.829999924E0
2.457000000E1,8.460999727E-1,-1.696099997E0,3.312700033E0
2.459000000E1,9.646999836E-1,-1.572699904E0,5.462999940E-1
2.461000000E1,3.141999841E-1,-9.712999463E-1,-1.422199965E0
2.463001875E1,-4.504999816E-1,-4.879999757E-1,-1.189899921E0
2.465999844E1,-8.711999655E-1,-8.086000085E-1,4.501999915E-1
2.467999844E1,-7.526999712E-1,-9.760999680E-1,4.738999903E-1
2.470000000E1,-4.754000008E-1,-8.928999901E-1,-5.292999744E-1
2.472000000E1,-2.879999876E-1,-5.588999987E-1,-1.354599953E0
2.474999844E1,-1.859000027E-1,-1.939999908E-1,-2.736899853E0
2.476999844E1,-5.733000040E-1,2.445999980E-1,-3.235299826E0
2.479000000E1,-7.912999988E-1,5.360000134E-1,-2.941999912E0
2.481999844E1,-5.417999625E-1,4.739999771E-2,-2.083099842E0
2.484000000E1,-5.744000077E-1,-1.692000031E-1,-1.871199965E0
2.486000000E1,-8.241999745E-1,1.010999978E-1,-1.736199975E0
2.488000000E1,-1.046999931E0,4.111000001E-1,-1.268499970E0
2.490000000E1,-8.908999562E-1,3.201999962E-1,-4.578000009E-1
2.492000000E1,-6.642000079E-1,2.545999885E-1,-5.199999809E-1
2.494000000E1,-6.310999990E-1,4.643999934E-1,-7.472999692E-1
2.497000000E1,-6.827999949E-1,5.055999756E-1,4.460999966E-1
2.499000000E1,-5.491999984E-1,2.533999979E-1,1.405099988E0
2.501000000E1,-2.267999947E-1,4.650999904E-1,1.874599934E0
2.503001875E1,1.551999897E-1,6.004999876E-1,1.648599982E0
2.505999844E1,-2.662000060E-1,3.775999844E-1,1.030599952E0
2.508000000E1,-1.440699935E0,1.200999990E-1,2.767499924E0
2.510000000E1,-1.893099904E0,-4.887000024E-1,6.066299915E0
2.512000000E1,-8.614999652E-1,-1.154999971E0,6.073400021E0
2.514000000E1,8.739999682E-2,-1.357800007E0,2.993999958E0
2.516000000E1,7.140000165E-2,-9.378999472E-1,2.588000000E-1
2.519000000E1,-6.832000017E-1,-3.134000003E-1,2.958999872E-1
2.521000000E1,-7.917000055E-1,-2.448999882E-1,9.430999756E-1
2.523001875E1,-7.433999777E-1,-1.784999967E-1,6.059999764E-2
2.526000000E1,-1.768999994E-1,2.495999932E-1,-1.410200000E0
2.528000156E1,1.578999907E-1,3.874000013E-1,-2.635399818E0
2.530999844E1,3.810999990E-1,4.757999778E-1,-4.152199745E0
2.533001875E1,3.382999897E-1,6.699999571E-1,-4.571799755E0
2.536000000E1,1.709999889E-2,4.876999855E-1,-3.316399813E0
2.538999844E1,4.270000011E-2,5.347999930E-1,-2.620800018E0
2.541001250E1,5.099999718E-3,6.699000001E-1,-1.964599967E0
2.543001875E1,-5.169999972E-2,5.487999916E-1,-9.363999963E-1
2.545999844E1,3.900000080E-2,1.112999991E-1,1.983299971E0
2.548000000E1,2.282999903E-1,-2.060000040E-2,2.855899811E0
2.550000000E1,2.289999872E-1,4.359999895E-1,1.954599977E0
2.552000000E1,2.097999901E-1,1.026299953E0,1.242299914E0
2.554000000E1,2.705000043E-1,1.456699967E0,1.041000009E0
2.557000000E1,5.368999839E-1,1.099499941E0,9.429999590E-1
2.560000000E1,2.210999876E-1,1.162199974E0,3.346000016E-1
2.562000000E1,-3.732999861E-1,1.287199974E0,9.042999744E-1
2.564000000E1,-1.457999945E-1,5.661999583E-1,2.927399874E0
2.567000000E1,1.485599995E0,-4.104999900E-1,2.453699827E0
2.569000000E1,2.217099905E0,-3.495999873E-1,-2.348999977E-1
2.571000000E1,1.924199939E0,-1.140999943E-1,-1.822899938E0
2.573001875E1,8.014999628E-1,8.150000125E-2,-9.961999655E-1
2.576000000E1,-3.668999970E-1,9.999999747E-5,2.924799919E0
2.578000000E1,-2.096000016E-1,-7.454999685E-1,3.627599955E0
2.580000000E1,3.007999957E-1,-1.138599992E0,1.903800011E0
2.583001875E1,8.176999688E-1,-1.005200028E0,-6.367999911E-1
2.586000000E1,1.053099990E0,-9.136999846E-1,-2.018499851E0
2.588000000E1,1.071799994E0,-7.677999735E-1,-2.894699812E0
2.590000000E1,8.166999817E-1,-4.479999840E-1,-3.212699890E0
2.593001875E1,-1.766999960E-1,-1.999999862E-3,-3.339900017E0
2.595999844E1,-1.476999968E-1,5.199999735E-2,-2.295099974E0
2.598000000E1,6.970999837E-1,1.561999917E-1,-1.773899913E0
2.600000000E1,1.011500001E0,6.402999759E-1,-2.223000050E0
2.602000000E1,5.981999636E-1,1.032199979E0,-2.302599907E0
2.604000000E1,5.615999699E-1,9.235999584E-1,-1.389299989E0
2.607000000E1,8.414999843E-1,2.070000023E-2,1.424199939E0
2.609000000E1,9.018999934E-1,-1.705999970E-1,1.952799916E0
2.611000000E1,1.417400002E0,-6.870000064E-2,1.894899964E0
2.613001875E1,2.372200012E0,6.815999746E-1,1.809899926E0
2.616000000E1,2.506199837E0,1.336399913E0,-2.080000006E-2
2.619000000E1,3.457999825E-1,7.978999615E-1,2.020200014E0
2.621000000E1,-6.028999686E-1,-3.209999800E-1,4.876899719E0
2.623001875E1,-4.378999770E-1,-1.788299918E0,6.257499695E0
2.626000000E1,-1.745999902E-1,-2.558399916E0,2.962699890E0
2.628000000E1,-5.119000077E-1,-2.397399902E0,5.181999803E-1
2.630000000E1,-7.626999617E-1,-2.005699873E0,-4.258999825E-1
2.632000000E1,-1.341699958E0,-1.209999919E0,-1.590999961E-1
2.634000000E1,-1.755399942E0,-3.865999877E-1,-1.120999977E-1
2.636000000E1,-1.661999941E0,5.419999734E-2,-9.185000062E-1
2.638999844E1,-6.897000074E-1,2.551999986E-1,-1.068599939E0
2.641001250E1,3.849999979E-2,-2.008000016E-1,-8.158999681E-1
2.643001875E1,5.216000080E-1,-1.300999969E-1,-1.278100014E0
2.645999844E1,4.271999896E-1,6.014999747E-1,-2.288899899E0
2.647999844E1,1.974999905E-1,9.393000007E-1,-2.563799858E0
2.650000000E1,2.511999905E-1,1.050099969E0,-2.877799988E0
2.652000000E1,5.295999646E-1,1.021600008E0,-3.397599936E0
2.654000000E1,1.019699931E0,7.371000051E-1,-3.309599876E0
2.657000000E1,1.400900006E0,4.540999830E-1,-2.320099831E0
2.660000000E1,1.142799973E0,9.320999980E-1,-1.281599998E0
2.663001719E1,1.258399963E0,8.919999599E-1,8.567000031E-1
2.665999844E1,1.293599963E0,4.763000011E-1,2.801899910E0
2.667999844E1,7.838999629E-1,4.570999742E-1,3.549799919E0
2.670000000E1,3.261999786E-1,8.000999689E-1,3.776199818E0
2.672000000E1,3.761000037E-1,1.033599973E0,3.500799894E0
2.674000000E1,9.617999792E-1,6.455999613E-1,2.646299839E0
2.676000000E1,1.119099975E0,1.640999913E-1,1.929499984E0
2.678000000E1,7.106999755E-1,3.931999803E-1,3.175999880E0
2.680000000E1,7.019000053E-1,1.379999984E-2,4.072599888E0
2.683001875E1,1.294099927E0,-7.444999814E-1,1.216599941E0
2.686000000E1,1.426899910E0,-9.615999460E-1,-1.286299944E0
2.688999844E1,1.182999983E-1,-1.383499980E0,2.372099876E0
2.691001250E1,-8.819999695E-1,-1.620399952E0,4.351699829E0
2.693001875E1,-1.322199941E0,-1.402199984E0,3.317699909E0
2.695999844E1,-1.344599962E0,-6.987999678E-1,-1.077299953E0
2.698000000E1,-1.069399953E0,-1.611000001E-1,-2.902400017E0
2.700000000E1,-5.888999701E-1,2.730000019E-2,-3.890699863E0
2.702000000E1,-1.968999952E-1,-3.023000062E-1,-4.251699924E0
2.704000000E1,-4.226000011E-1,-3.683999777E-1,-4.157199860E0
2.706000000E1,-8.757999539E-1,-1.878999919E-1,-4.020699978E0
2.708000000E1,-1.341300011E0,1.294000000E-1,-3.496299982E0
2.710000000E1,-1.661599994E0,2.928999960E-1,-2.971599817E0
2.712000000E1,-1.296399951E0,2.700999975E-1,-2.237099886E0
2.714000000E1,-8.082000017E-1,-1.581999958E-1,-1.981599927E0
2.716999844E1,-4.167999923E-1,2.369999886E-1,-2.523399830E0
2.719000000E1,-3.041000068E-1,2.617999911E-1,-1.393999934E0
2.721000000E1,-4.244999886E-1,-3.328999877E-1,1.939999908E-1
2.723001875E1,-7.458999753E-1,-6.800000072E-1,2.065599918E0
2.726000000E1,-6.949999928E-1,-1.004899979E0,3.477299929E0
2.728000000E1,-4.515999854E-1,-4.514999986E-1,2.581099987E0
2.730000000E1,-6.233999729E-1,1.055999994E-1,1.647699952E0
2.733001875E1,-1.926799893E0,3.793999851E-1,3.256599903E0
2.736000000E1,-1.413399935E0,-7.957999706E-1,4.623300076E0
2.738000000E1,-7.379999757E-2,-1.417999983E0,2.504899979E0
2.740000000E1,6.132000089E-1,-1.395299911E0,1.061000004E-1
2.743001875E1,2.757999897E-1,-1.260800004E0,3.579999804E-1
2.745999844E1,-5.734999776E-1,-5.098999739E-1,9.459999800E-1
2.747999844E1,-4.711000025E-1,2.919999883E-2,-1.481999904E-1
2.750000000E1,-3.023000062E-1,2.331999987E-1,-1.096199989E0
2.752000000E1,-1.732999980E-1,1.666999906E-1,-1.791799903E0
2.754000000E1,1.542000026E-1,3.801999986E-1,-2.302799940E0
2.757000000E1,8.506999612E-1,8.682999611E-1,-3.793999910E0
2.759000000E1,1.396099925E0,9.418999553E-1,-4.549599648E0
2.761999844E1,2.037899971E0,5.684999824E-1,-3.565500021E0
2.764000000E1,2.166300058E0,1.609999985E-1,-2.188799858E0
2.766000000E1,1.821999907E0,-3.969999775E-2,-4.184999764E-1
2.769000000E1,8.398999572E-1,2.080999911E-1,1.429899931E0
2.771000000E1,1.204100013E0,2.078999877E-1,1.476999998E0
2.773001875E1,1.805199981E0,-1.269999985E-2,1.094399929E0
2.776000000E1,1.607399940E0,1.234999970E-1,1.019699931E0
2.778000000E1,8.287999630E-1,6.019999981E-1,1.268700004E0
2.780000000E1,3.129999936E-1,1.119899988E0,1.842399955E0
2.783001875E1,-1.181999967E-1,9.529999495E-1,1.904399991E0
2.786000000E1,-2.215999961E-1,1.206000000E-1,3.702799797E0
2.788000000E1,7.580999732E-1,-1.032299995E0,4.178299904E0
2.790000000E1,1.883099914E0,-1.676199913E0,2.267099857E0
2.793002031E1,2.536200047E0,-6.674000025E-1,-2.031899929E0
2.795999844E1,1.663699985E0,-4.349999875E-2,-1.920599937E0
2.798000000E1,6.035000086E-1,-3.992999792E-1,-1.686999947E-1
2.800000156E1,-1.477999985E-1,-4.136999846E-1,9.512999654E-1
2.803001875E1,5.853999853E-1,-8.930999637E-1,1.773299932E0
2.805999844E1,1.493699908E0,-1.226199985E0,1.014500022E0
2.808000000E1,1.538800001E0,-9.533999562E-1,-8.651999831E-1
2.810000000E1,1.204999924E0,-3.369999826E-1,-1.949099898E0
2.812000000E1,8.549999595E-1,-8.150000125E-2,-1.857499957E0
2.814000000E1,7.588999867E-1,-3.667999804E-1,-1.305599928E0
2.816000000E1,4.023999870E-1,-6.226999760E-1,-1.153800011E0
2.819000000E1,-3.053999841E-1,-4.307999909E-1,-1.126199961E0
2.821000156E1,9.849999845E-2,-4.892999828E-1,-1.765999913E0
2.823001875E1,2.190999985E-1,-6.250999570E-1,-2.267299891E0
2.826000000E1,-1.158399940E0,-6.633999944E-1,-7.408999801E-1
2.829000000E1,-1.647199988E0,-1.205099940E0,1.773599982E0
2.831000000E1,-1.086899996E0,-1.573899984E0,2.312899828E0
2.833001875E1,-9.538999796E-1,-1.157099962E0,1.006699920E0
2.836000000E1,-1.284099936E0,-1.122999936E-1,-5.123000145E-1
2.838000000E1,-1.457799911E0,-4.710000008E-2,1.283999979E-1
2.840000000E1,-1.308399916E0,-4.901999831E-1,1.398999929E0
2.843001875E1,-7.918999791E-1,-1.052799940E0,1.555799961E0
2.845999844E1,-1.087299943E0,-1.642799973E0,2.649299860E0
2.847999844E1,-1.061800003E0,-1.931299925E0,4.213799953E0
2.850000000E1,-5.882999897E-1,-1.932899952E0,3.874399900E0
2.852000000E1,-2.709999867E-2,-7.548999786E-1,7.035999894E-1
2.854000000E1,3.520999849E-1,5.672000051E-1,-2.304899931E0
2.857000000E1,6.839999557E-1,1.493699908E0,-3.413899899E0
2.859000000E1,4.782999754E-1,1.152099967E0,-2.022799969E0
2.861000000E1,-1.900999993E-1,1.228999972E0,-1.537999958E-1
2.863001875E1,-6.624999642E-1,1.133999944E0,1.695599914E0
2.866000000E1,-4.773999751E-1,5.414999723E-1,2.726699829E0
2.869000000E1,-1.566599965E0,1.554000020E0,2.302799940E0
2.871000000E1,-1.968499899E0,2.024600029E0,1.248299956E0
2.873001875E1,-1.940299988E0,1.633199930E0,4.179999828E-1
2.876000000E1,-2.045099974E0,1.281000018E0,5.649999902E-2
2.879000000E1,-1.969599962E0,1.877999902E-1,2.589099884E0
2.881999844E1,-7.971999645E-1,-1.705199957E0,4.563600063E0
2.884000000E1,-3.330000043E-1,-1.986899972E0,1.845600009E0
2.886000000E1,5.112000108E-1,-1.591499925E0,-8.439999819E-1
2.888000000E1,7.938999534E-1,-1.742599964E0,-7.789999843E-1
2.890000000E1,3.370999992E-1,-2.030999899E0,3.752000034E-1
2.892000000E1,7.656999826E-1,-1.779299974E0,-8.158999681E-1
2.894000000E1,1.013599992E0,-1.046199918E0,-3.151499987E0
2.897000000E1,1.067899942E0,2.879999951E-2,-3.237099886E0
2.900000000E1,3.201999962E-1,-7.198999524E-1,-1.328199983E0
2.903001875E1,2.449999936E-2,-1.412999988E0,-9.299999475E-1
2.905999844E1,-2.201999873E-1,-1.375299931E0,9.200000018E-2
2.908000000E1,-2.222999930E-1,-1.123600006E0,-4.991999865E-1
2.910000000E1,9.030000120E-2,-8.059999943E-1,-1.580599904E0
2.912000000E1,2.238999903E-1,-6.358000040E-1,-1.653199911E0
2.914000000E1,4.009999931E-1,-5.076000094E-1,-1.853899956E0
2.916000000E1,3.920999765E-1,-4.529999793E-1,-2.188699961E0
2.919000000E1,5.029999614E-1,-1.466999948E-1,-1.603999972E0
2.921000000E1,6.150000095E-1,1.206000000E-1,-1.200799942E0
2.923001875E1,2.593999803E-1,4.492999911E-1,-1.384699941E0
2.926000000E1,-1.620000005E-1,8.238999844E-1,-1.425599933E0
2.929000000E1,7.989999652E-1,3.298999965E-1,-4.500999749E-1
2.931999844E1,7.034999728E-1,1.858000010E-1,-6.972999573E-1
2.933999844E1,-1.802999973E-1,-3.940000013E-2,2.996999919E-1
2.936000000E1,-2.561999857E-1,-4.939999878E-1,2.404999971E0
2.938000000E1,7.287999988E-1,-2.985999882E-1,2.676899910E0
2.940000000E1,6.340000033E-2,-4.473999739E-1,1.304000020E-1
2.943001875E1,-1.431399941E0,-4.074999988E-1,1.450899959E0
2.945999844E1,-1.115800023E0,-9.610999823E-1,1.253299952E0
2.948000000E1,-6.430000067E-1,-9.519000053E-1,1.163100004E0
2.950000000E1,-1.061200023E0,-6.627999544E-1,2.002199888E0
2.952000000E1,-1.237999916E0,-3.136000037E-1,2.648399830E0
2.954000000E1,-1.054799914E0,2.300000051E-3,1.207799911E0
2.956000000E1,-7.760999799E-1,2.485999912E-1,-5.015999675E-1
2.958000000E1,-3.728999794E-1,2.560999990E-1,-1.384199977E0
2.960999844E1,4.290999770E-1,3.370000049E-2,-1.899899960E0
2.963001875E1,8.375999928E-1,-1.599999964E-1,-2.565099955E0
2.965999844E1,7.716000080E-1,-2.037999928E-1,-3.024999857E0
2.967999844E1,3.741999865E-1,2.379999869E-2,-1.805299997E0
2.970000000E1,6.340000033E-2,2.172999978E-1,-9.908999801E-1
2.972000000E1,-1.137999967E-1,2.413999885E-1,-1.190199971E0
2.974000000E1,7.220000029E-2,3.461000025E-1,-1.492900014E0
2.976000000E1,4.329999909E-2,5.307999849E-1,-9.325000048E-1
2.979000000E1,-4.673999846E-1,4.494999945E-1,5.370000005E-1
2.981000000E1,-9.688999653E-1,5.849999785E-1,1.318799973E0
2.983001875E1,-1.583899975E0,6.273999810E-1,2.052199841E0
2.986000000E1,-1.919699907E0,3.596999943E-1,3.923999786E0
2.988000000E1,-1.230000019E0,9.959999472E-2,4.625999928E0
2.990000000E1,-3.828999996E-1,1.865999997E-1,3.139499903E0
2.992000000E1,9.769999981E-2,5.137000084E-1,1.362699986E0
2.994000000E1,3.686999977E-1,8.851999640E-1,2.404999882E-1
2.996000000E1,5.763999820E-1,8.037999868E-1,4.849999771E-2
2.998000000E1,5.866000056E-1,5.504999757E-1,7.719999552E-2
3.000000000E1,6.799999624E-3,1.141999960E-1,1.117200017E0
3.002000000E1,-4.126999974E-1,-4.465000033E-1,2.425600052E0
3.005000000E1,-5.266999602E-1,-1.411700010E0,3.338999987E0
3.007001719E1,-1.301999986E-1,-1.747999907E0,1.738999963E0
3.010000000E1,2.225999981E-1,-1.518199921E0,-1.898000002E0
3.013001875E1,-2.840999961E-1,-9.700999856E-1,-3.253099918E0
3.016000000E1,-7.245999575E-1,-4.580999911E-1,-2.694700003E0
3.018999844E1,-7.705000043E-1,-2.892999947E-1,-3.591399908E0
3.021000000E1,-1.008599997E0,2.469999902E-2,-3.933300018E0
3.023001875E1,-1.042699933E0,2.459999919E-1,-3.099799871E0
3.026000000E1,-4.254999757E-1,-2.969000041E-1,-1.781199932E0
3.028000000E1,-6.889999658E-2,-3.486000001E-1,-2.243499994E0
3.030000000E1,-3.439999819E-1,-1.004000008E-1,-2.310499907E0
3.033001875E1,-9.933999777E-1,4.728999734E-1,-2.806999981E-1
3.036000000E1,-4.574999809E-1,6.807999611E-1,6.626999974E-1
3.038000000E1,-2.712000012E-1,2.768000066E-1,9.743999839E-1
3.040000000E1,-3.831000030E-1,-1.363999993E-1,1.848099947E0
3.043001875E1,2.273999900E-1,-4.052999914E-1,3.589399815E0
3.045999844E1,1.054999977E-1,4.560999870E-1,1.902099967E0
3.047999844E1,-8.637999892E-1,1.080999970E0,2.231999874E0
3.050000000E1,-1.344200015E0,9.854999781E-1,3.455299854E0
3.052000000E1,-8.226000071E-1,3.294999897E-1,3.789799929E0
3.054999844E1,-1.389999986E-1,-6.969999671E-1,1.844799995E0
3.057000000E1,-2.410999984E-1,-1.095899940E0,1.358799934E0
3.059999844E1,1.467999965E-1,-1.370599985E0,1.248600006E0
3.062000000E1,3.014000058E-1,-9.536999464E-1,-3.625999987E-1
3.064000000E1,4.509999752E-1,-3.209999800E-1,-1.645499945E0
3.066000000E1,5.333999991E-1,8.229999989E-2,-2.196599960E0
3.068000000E1,4.481000006E-1,3.671000004E-1,-2.214499950E0
3.071000000E1,2.022999972E-1,9.520999789E-1,-3.210399866E0
3.073001875E1,3.622999787E-1,9.598000050E-1,-3.922499895E0
3.076000000E1,1.326699972E0,1.396999955E-1,-3.271699905E0
3.079000000E1,1.956599951E0,-6.395999789E-1,-1.937299967E0
3.081000000E1,1.631500006E0,-4.691999853E-1,-8.258999586E-1
3.083001875E1,9.070999622E-1,2.072999924E-1,6.013000011E-1
3.086000000E1,2.667999864E-1,8.606999516E-1,1.658599973E0
3.088000000E1,-1.080999970E-1,1.170300007E0,1.619199991E0
3.090000000E1,-2.624999881E-1,1.430299997E0,2.129400015E0
3.093002031E1,7.759999484E-2,1.184099913E0,2.678499937E0
3.096000000E1,5.959999561E-1,1.153299928E0,2.168900013E0
3.098000000E1,9.204999804E-1,1.432600021E0,1.592099905E0
3.100000000E1,1.244899988E0,1.646299958E0,6.843000054E-1
3.102000000E1,1.334200025E0,1.722899914E0,-9.569999576E-2
3.104000000E1,1.241699934E0,1.383799911E0,-2.329999954E-2
3.106000000E1,1.588299990E0,3.716999888E-1,1.635800004E0
3.108000000E1,2.373999834E0,-5.737000108E-1,2.412499905E0
3.110000000E1,3.002399921E0,-9.402999878E-1,1.365199924E0
3.112000000E1,2.703799963E0,-1.054499984E0,-4.068000019E-1
3.114000000E1,1.639099956E0,-7.886999846E-1,-7.277999520E-1
3.116000000E1,9.830999970E-1,-8.310999870E-1,1.226799965E0
3.119000000E1,7.962999940E-1,-1.251799941E0,2.238299847E0
3.122000000E1,7.050999999E-1,-1.093799949E0,-5.593999624E-1
3.124000000E1,2.939999998E-1,-7.263999581E-1,-2.024499893E0
3.126000000E1,-1.899999916E-3,-3.003999889E-1,-1.994599938E0
3.129000000E1,-3.720999956E-1,-6.000000052E-3,-2.499300003E0
3.132000000E1,-7.552999854E-1,2.078999877E-1,-2.841599941E0
3.134000000E1,-7.515999675E-1,-2.126999944E-1,-2.048399925E0
3.136000000E1,-8.651999831E-1,-5.942999721E-1,-1.392199993E0
3.138000000E1,-1.150099993E0,-4.822999835E-1,-1.231799960E0
3.140000000E1,-1.130499959E0,-2.287999988E-1,-1.139699936E0
3.142000000E1,-9.157999754E-1,-2.908000052E-1,-9.287999868E-1
3.144000000E1,-8.905999660E-1,-2.153999954E-1,-8.751999736E-1
3.147000000E1,-9.052000046E-1,-4.964999855E-1,6.800000072E-1
3.149000000E1,-6.714999676E-1,-7.809999585E-1,2.179999828E0
3.151000000E1,-3.709999919E-1,-8.878999949E-1,2.494799852E0
3.153001875E1,-2.170999944E-1,-7.791000009E-1,1.554700017E0
3.155999844E1,-1.519099951E0,-3.308999836E-1,1.624199986E0
3.158000000E1,-2.048099995E0,-3.304999769E-1,2.875900030E0
3.161000000E1,-1.579399943E0,-1.068599939E0,2.495199919E0
3.163001875E1,-1.402599931E0,-1.834800005E0,2.089900017E0
3.166000000E1,-1.087800026E0,-2.118399858E0,3.668200016E0
3.169000000E1,-1.284199953E0,-9.274999499E-1,1.846499920E0
3.172000000E1,-7.164999843E-1,5.573999882E-1,-1.945699930E0
3.174000000E1,-1.140000001E-1,8.180999756E-1,-3.366299868E0
3.176000000E1,4.460999966E-1,8.208000064E-1,-3.866499901E0
3.178000000E1,5.830999613E-1,9.483999610E-1,-4.112999916E0
3.180000000E1,2.542999983E-1,1.229399920E0,-3.791199923E0
3.183001875E1,2.251999974E-1,9.626999497E-1,-2.734200001E0
3.186000000E1,1.039799929E0,6.856999993E-1,-2.431399822E0
3.188000000E1,1.297599912E0,5.480999947E-1,-1.921700001E0
3.190000000E1,1.396699905E0,5.920999646E-1,-1.490299940E0
3.192000000E1,1.267699957E0,6.297000051E-1,-5.386999846E-1
3.194000000E1,8.563999534E-1,9.786999822E-1,3.639999926E-1
3.197000000E1,3.673000038E-1,1.178099990E0,1.512599945E0
3.199000000E1,3.172999918E-1,9.239999652E-1,2.710500002E0
3.201000000E1,2.423999906E-1,5.436999798E-1,4.026099682E0
3.203001719E1,1.828999966E-1,5.690000057E-1,4.879799843E0
3.206000000E1,2.210999876E-1,1.455799937E0,2.621799946E0
3.208000000E1,3.152000010E-1,1.410599947E0,1.513000011E0
3.210000000E1,8.421999812E-1,3.340999782E-1,2.288300037E0
3.212000000E1,1.741899967E0,-9.829999804E-1,3.042599916E0
3.214000000E1,2.402799845E0,-1.773399949E0,1.806399941E0
3.216000000E1,1.766199946E0,-1.514499903E0,3.283999860E-1
3.219000000E1,-2.210000008E-1,-5.988000035E-1,1.558200002E0
3.222000000E1,-9.499999881E-1,-5.371999741E-1,3.891999960E0
3.224000000E1,-5.397999883E-1,-1.138199925E0,2.747400045E0
3.226000000E1,-2.588000000E-1,-1.311900020E0,2.058999985E-1
3.229000000E1,-2.951000035E-1,-1.176199913E0,-2.116499901E0
3.231000000E1,-5.162000060E-1,-9.944999814E-1,-2.252399921E0
3.233001875E1,-6.776999831E-1,-7.599999905E-1,-3.021899939E0
3.236000000E1,-1.015100002E0,-2.644000053E-1,-4.474899769E0
3.238000000E1,-1.454599977E0,6.300000008E-3,-4.521299839E0
3.240000000E1,-1.814899921E0,-9.299999475E-2,-3.671899796E0
3.242000000E1,-1.740899920E0,-4.950999916E-1,-2.946499825E0
3.244000000E1,-1.452799916E0,-9.455999732E-1,-2.654199839E0
3.246000000E1,-1.049499989E0,-1.191200018E0,-2.900199890E0
3.248000000E1,-8.903999925E-1,-1.077499986E0,-2.756399870E0
3.250000000E1,-1.189599991E0,-6.291999817E-1,-2.106899977E0
3.252000000E1,-1.400599957E0,-3.076999784E-1,-1.414600015E0
3.255000000E1,-1.698300004E0,-2.726999819E-1,-3.493999839E-1
3.257000000E1,-1.423999906E0,-5.906000137E-1,9.850999713E-1
3.259000000E1,-3.411999941E-1,-8.575999737E-1,2.048699856E0
3.262000000E1,6.718999743E-1,9.179999679E-2,5.665000081E-1
3.264000000E1,-1.141999960E-1,1.112800002E0,-7.915999889E-1
3.266000000E1,-1.748099923E0,9.850999713E-1,1.740899920E0
3.269000000E1,-5.429999828E-1,-1.172699928E0,7.628899574E0
3.272000000E1,1.796499968E0,-2.238100052E0,4.920599937E0
3.274999844E1,1.457700014E0,-1.056499958E0,1.342000008E0
3.277000000E1,4.817999899E-1,-4.628999829E-1,2.496999979E0
3.279000000E1,-4.939999804E-2,1.342999935E-1,2.513099909E0
3.282000000E1,-1.224999949E-1,1.105899930E0,2.498999983E-1
3.284000000E1,-2.143999934E-1,1.463400006E0,-1.001899958E0
3.286000000E1,-5.790000036E-2,1.591599941E0,-1.682099938E0
3.289000000E1,4.655999839E-1,1.072399974E0,-2.498299837E0
3.291001250E1,8.172000051E-1,9.160999656E-1,-3.175599813E0
3.293001875E1,1.181800008E0,7.463999987E-1,-3.450199842E0
3.296000000E1,1.309399962E0,8.768000007E-1,-3.547499895E0
3.298000000E1,1.456499934E0,8.114999533E-1,-3.261899948E0
3.300000156E1,1.505800009E0,7.152000070E-1,-2.504999876E0
3.303001875E1,1.266899943E0,5.803999901E-1,-7.752999663E-1
3.305999844E1,1.143100023E0,6.189999580E-1,4.851000011E-1
3.308000000E1,9.944999814E-1,8.305000067E-1,1.155099988E0
3.310000000E1,8.095999956E-1,8.470999599E-1,1.646999955E0
3.312000000E1,8.265999556E-1,7.644999623E-1,2.246099949E0
3.314000000E1,8.324999809E-1,4.217999876E-1,2.922899961E0
3.316000000E1,6.581999660E-1,4.439999759E-1,3.284099817E0
3.319000000E1,4.053999782E-1,1.033900023E0,2.456199884E0
3.322000000E1,2.813999951E-1,1.030499935E0,2.316699982E0
3.324000000E1,1.106699944E0,-5.199999735E-2,2.659600019E0
3.326000000E1,2.120100021E0,-9.361000061E-1,2.049700022E0
3.329000000E1,2.090999842E0,-8.525999784E-1,-7.554000020E-1
3.331000000E1,5.024999976E-1,-1.674999893E-1,-7.447999716E-1
3.333001875E1,-7.845000029E-1,-2.950000018E-2,1.380499959E0
3.336000000E1,-1.150399923E0,-8.039000034E-1,4.728899956E0
3.338999844E1,3.112999797E-1,-2.323999882E0,1.994699955E0
3.341001250E1,3.932999969E-1,-2.398200035E0,-2.157000005E-1
3.343001875E1,-2.612999976E-1,-1.737399936E0,-1.272300005E0
3.345999844E1,-1.067600012E0,-7.619000077E-1,-2.943099976E0
3.347999844E1,-1.584499955E0,-1.067999974E-1,-3.957000017E0
3.350000000E1,-1.836399913E0,4.296000004E-1,-4.457499981E0
3.352000000E1,-1.764999986E0,5.776999593E-1,-4.029999733E0
3.354999844E1,-1.390200019E0,-3.939999938E-1,-3.305299997E0
3.357000000E1,-1.245199919E0,-7.831999660E-1,-3.068399906E0
3.359000000E1,-1.193699956E0,-1.031199932E0,-2.375399828E0
3.361000000E1,-1.127200007E0,-1.100600004E0,-1.666599989E0
3.363001875E1,-1.292899966E0,-9.487999678E-1,-1.382699966E0
3.366000000E1,-1.740299940E0,-5.430999994E-1,-5.001000166E-1
3.369000000E1,-1.821599960E0,-8.761999607E-1,2.623299837E0
3.371000000E1,-1.046999931E0,-1.061299920E0,3.356999874E0
3.373001875E1,-8.224999905E-1,-8.669999838E-1,1.881999969E0
3.376000000E1,-2.010200024E0,-4.870999753E-1,2.755199909E0
3.379000000E1,-7.515000105E-1,-1.847899914E0,5.199199677E0
3.381000000E1,1.057999954E-1,-2.096299887E0,3.262899876E0
3.383001875E1,-2.572000027E-1,-1.500800014E0,6.055999994E-1
3.386000000E1,-9.948999882E-1,-8.999999845E-4,-2.209999971E-2
3.388000000E1,-9.702999592E-1,1.665999889E-1,2.399999946E-1
3.390000000E1,-6.688999534E-1,2.779999971E-1,-3.890999854E-1
3.393001875E1,-4.959999770E-2,6.480000019E-1,-1.410699964E0
3.395999844E1,3.452999890E-1,1.262099981E0,-2.852699995E0
3.397999844E1,5.487999916E-1,1.570099950E0,-3.871899843E0
3.400000000E1,8.119999766E-1,1.760899901E0,-4.645699978E0
3.402000000E1,1.042299986E0,1.655900002E0,-4.507999897E0
3.405000000E1,1.445500016E0,1.351199985E0,-3.418599844E0
3.407000000E1,1.697999954E0,1.045699954E0,-2.318099976E0
3.409000000E1,1.713199973E0,9.373999834E-1,-8.226999640E-1
3.412000000E1,1.485899925E0,5.482999682E-1,2.583199978E0
3.415000000E1,1.787799954E0,-3.059999831E-2,4.839200020E0
3.417000000E1,1.658800006E0,3.191999793E-1,4.967199802E0
3.420000000E1,9.347999692E-1,1.192499995E0,4.539499760E0
3.422000000E1,1.114300013E0,1.650099993E0,4.143000126E0
3.424000000E1,1.319899917E0,1.361699939E0,2.754199982E0
3.426000000E1,1.168200016E0,6.331999898E-1,2.141999960E0
3.429000000E1,1.811199903E0,-1.277899981E0,3.402699947E0
3.431000000E1,2.970499992E0,-2.366299868E0,2.165799856E0
3.433001875E1,3.273299932E0,-2.151200056E0,-6.351999640E-1
3.436000000E1,1.641199946E0,-3.242999911E-1,-2.534199953E0
3.439000000E1,-4.145999849E-1,-2.892999947E-1,2.413800001E0
3.441001250E1,-1.185400009E0,-8.188999891E-1,4.652100086E0
3.443001875E1,-1.654500008E0,-1.072600007E0,4.042099953E0
3.445999844E1,-1.696599960E0,-6.855999827E-1,2.333999872E-1
3.447999844E1,-1.550799966E0,-5.910999775E-1,-1.515900016E0
3.450000000E1,-1.587099910E0,-3.405999839E-1,-2.391000032E0
3.452000000E1,-1.621399999E0,-1.627999991E-1,-3.574599981E0
3.454999844E1,-2.014299870E0,1.349999942E-2,-2.934000015E0
3.457000000E1,-1.871699929E0,-4.648999870E-1,-2.853999853E0
3.459000000E1,-1.702199936E0,-1.216799974E0,-2.586699963E0
3.461000000E1,-2.116999865E0,-1.609699965E0,-2.164299965E0
3.463001875E1,-2.508199930E0,-1.529799938E0,-1.466099977E0
3.466000000E1,-2.794800043E0,-1.228600025E0,-8.490999937E-1
3.469000000E1,-2.101099968E0,-7.075999975E-1,-2.438400030E0
3.472000000E1,-1.664899945E0,-3.856999874E-1,-1.993099928E0
3.474999844E1,-1.122499943E0,-4.147999883E-1,-1.709000021E-1
3.477000000E1,-5.342999697E-1,-9.709999710E-2,3.725999892E-1
3.479000000E1,-2.229999937E-2,3.880999982E-1,8.240999579E-1
3.481000000E1,3.899999894E-3,2.714000046E-1,1.185199976E0
3.483001875E1,-1.699000001E-1,-3.430999815E-1,2.825399876E0
3.486000000E1,7.134999633E-1,-1.534399986E0,4.856999874E0
3.488000000E1,1.770999908E0,-1.722000003E0,3.542399883E0
3.490000000E1,2.293400049E0,-1.340199947E0,6.503999829E-1
3.492000000E1,1.801899910E0,-6.876999736E-1,-9.332000017E-1
3.494000000E1,5.830999613E-1,-4.564999938E-1,1.194499969E0
3.496000000E1,2.908999920E-1,-3.231000006E-1,2.423599958E0
3.498000000E1,2.016000003E-1,-2.139999904E-2,1.426999927E0
3.500000156E1,1.109999977E-2,6.213999987E-1,-6.319999695E-1
3.503001875E1,-2.492999882E-1,1.213899970E0,-1.389299989E0
3.505999844E1,1.142999977E-1,1.070199966E0,-1.947199941E0
3.508000000E1,8.308999538E-1,7.275999784E-1,-3.251099825E0
3.510000000E1,1.203199983E0,7.770000100E-1,-4.132800102E0
3.513001875E1,1.186800003E0,1.267099977E0,-3.862199783E0
3.516000000E1,7.558999658E-1,1.437999964E0,-2.346199989E0
3.518999844E1,5.679999590E-1,1.428099990E0,-1.917999983E-1
3.520999844E1,1.096799970E0,1.061100006E0,1.037199974E0
3.523001875E1,1.183399916E0,7.375999689E-1,2.269099951E0
3.526000000E1,1.044000030E0,4.541999996E-1,4.304999828E0
3.529000000E1,1.183599949E0,4.560999870E-1,4.665499687E0
3.531000000E1,1.332499981E0,1.001999974E0,2.952100039E0
3.533001875E1,1.509099960E0,1.082099915E0,1.036999941E0
3.536000000E1,1.284199953E0,7.360000163E-2,3.158399820E0
3.538000000E1,1.682599902E0,-9.953999519E-1,4.412899971E0
3.540000000E1,2.645499945E0,-1.776699901E0,2.605999947E0
3.542000000E1,2.787899971E0,-1.421700001E0,-2.409999967E-1
3.544000000E1,1.644500017E0,-6.079999804E-1,-9.328999519E-1
3.546999844E1,-4.456999898E-1,-1.114099979E0,3.201099873E0
3.549000000E1,-8.655999899E-1,-2.033200026E0,4.742599964E0
3.551000000E1,-4.524999857E-1,-2.673599958E0,3.107299805E0
3.553001875E1,-1.833999902E-1,-2.521899939E0,-5.045999885E-1
3.555999844E1,-8.068999648E-1,-1.448099971E0,-3.165999889E0
3.558000000E1,-1.456200004E0,-1.236999989E0,-2.123699903E0
3.560999844E1,-1.754199982E0,-8.258000016E-1,-3.554799795E0
3.563001875E1,-1.994399905E0,-4.303999841E-1,-4.521800041E0
3.565999844E1,-2.580299854E0,-5.018999577E-1,-3.660799980E0
3.567999844E1,-2.632799864E0,-6.581999660E-1,-2.844899893E0
3.570000000E1,-2.479500055E0,-7.421000004E-1,-2.764899969E0
3.572000000E1,-2.253900051E0,-5.478999615E-1,-3.719999790E0
3.574000000E1,-2.197599888E0,-1.808999926E-1,-4.032099724E0
3.576999844E1,-2.062000036E0,1.999999955E-2,-2.534499884E0
3.579000000E1,-2.289799929E0,-6.279999763E-2,-1.707999945E0
3.581000000E1,-2.565399885E0,-3.493999839E-1,1.700000018E-1
3.583001875E1,-1.993999958E0,-1.258499980E0,2.988399982E0
3.586000000E1,-2.424999923E-1,-1.275499940E0,3.340999842E0
3.588000000E1,-9.399999864E-3,-2.444999963E-1,1.433099985E0
3.591001250E1,-1.611799955E0,3.428999782E-1,2.273399830E0
3.593001875E1,-1.492499948E0,-7.925999761E-1,5.660199642E0
3.595999844E1,4.561999738E-1,-2.333799839E0,5.269999981E0
3.598000000E1,8.628000021E-1,-1.975999951E0,2.554499865E0
3.600000156E1,4.104999900E-1,-1.145099998E0,1.506299973E0
3.603001875E1,-4.395999908E-1,-5.995000005E-1,2.318199873E0
3.605999844E1,-1.082000017E0,2.795000076E-1,1.572499990E0
3.608000000E1,-9.305999875E-1,4.988999963E-1,8.865999579E-1
3.611000000E1,1.999999949E-4,4.219000041E-1,-1.329199910E0
3.613001875E1,7.250999808E-1,3.580999970E-1,-3.250200033E0
3.616000000E1,1.326300025E0,4.954999983E-1,-4.403699875E0
3.619000000E1,1.489899993E0,4.637999833E-1,-3.333899975E0
3.622000000E1,1.930699944E0,4.905999899E-1,-2.968999863E0
3.624999844E1,1.905099988E0,6.243999600E-1,-2.946799994E0
3.626999844E1,1.489699960E0,8.477999568E-1,-2.005100012E0
3.629000000E1,9.016999602E-1,1.037500024E0,-6.337000132E-1
3.631999844E1,3.509999812E-1,1.064199924E0,1.256500006E0
3.634000000E1,3.079999983E-1,7.059999704E-1,1.883499980E0
3.636000000E1,4.989999905E-2,6.096000075E-1,2.511299849E0
3.638000000E1,-3.361999989E-1,8.855999708E-1,3.266799927E0
3.640000000E1,-1.696999967E-1,1.451399922E0,3.523299932E0
3.642000000E1,2.391999960E-1,1.919499993E0,2.477799892E0
3.644000000E1,2.994000018E-1,2.034100056E0,1.356899977E0
3.646000000E1,1.425999999E-1,1.280799985E0,3.485100031E0
3.648000000E1,7.394999862E-1,-6.132000089E-1,5.697199821E0
3.650000000E1,1.929099917E0,-1.721799970E0,4.406399727E0
3.652000000E1,2.292999983E0,-1.485700011E0,9.905999899E-1
3.655000000E1,7.251999974E-1,-1.296000034E-1,-1.635800004E0
3.657000000E1,-8.729999661E-1,-5.700000003E-2,5.275999904E-1
3.659000000E1,-1.483799934E0,-5.216000080E-1,3.063799858E0
3.661999844E1,-4.657999873E-1,-2.236099958E0,2.375200033E0
3.663999844E1,-2.708999813E-1,-2.636800051E0,8.720000088E-2
3.665999844E1,-7.131999731E-1,-2.333699942E0,-8.456999660E-1
3.667999844E1,-1.066200018E0,-1.943499923E0,-1.443899989E0
3.669999844E1,-1.280900002E0,-1.491599917E0,-2.632599831E0
3.672000000E1,-1.411499977E0,-1.036800027E0,-4.426499844E0
3.674999844E1,-1.906499982E0,-6.269999743E-1,-5.388000011E0
3.676999844E1,-2.236899853E0,-9.850999713E-1,-4.159800053E0
3.679000000E1,-2.320799828E0,-1.239199996E0,-3.336599827E0
3.681999844E1,-2.246299982E0,-1.622799993E0,-2.405799866E0
3.684000000E1,-2.160699844E0,-1.561100006E0,-1.242399931E0
3.686000000E1,-1.927999973E0,-1.378000021E0,-6.603999734E-1
3.688000000E1,-1.648699999E0,-1.075600028E0,-1.223699927E0
3.691001250E1,-1.620199919E0,-9.098999500E-1,-5.853999853E-1
3.693001875E1,-1.394500017E0,-1.335799932E0,7.545999885E-1
3.695999844E1,-1.731999964E-1,-1.283499956E0,1.587199926E0
3.698000000E1,-1.627999991E-1,-3.260999918E-1,8.088999987E-1
3.700000000E1,-9.143999815E-1,4.600000009E-2,1.317299962E0
3.702000000E1,-1.301599979E0,-3.037000000E-1,4.372699738E0
3.705000000E1,1.820999980E-1,-1.023699999E0,6.104099751E0
3.708000156E1,1.048200011E0,-7.849000096E-1,2.001399994E0
3.710999844E1,9.941999912E-1,8.429999650E-2,6.157000065E-1
3.713001875E1,8.052999973E-1,2.101999968E-1,2.725999951E-1
3.716000000E1,8.428999782E-1,1.052399993E0,-1.705099940E0
3.718000000E1,8.776999712E-1,1.419999957E0,-3.017599821E0
3.720999844E1,1.065999985E0,1.570099950E0,-2.970199823E0
3.723001875E1,1.647799969E0,1.243299961E0,-2.522099972E0
3.725999844E1,2.133899927E0,1.290199995E0,-3.231899977E0
3.727999844E1,1.937299967E0,1.636600018E0,-2.724200010E0
3.730000000E1,1.934299946E0,1.328799963E0,-9.422000051E-1
3.733001875E1,1.862899899E0,6.969000101E-1,8.675999641E-1
3.736000000E1,1.806199908E0,7.906999588E-1,1.178200006E0
3.738000000E1,2.044399977E0,2.398999929E-1,2.138999939E0
3.741001250E1,2.012099981E0,1.868999898E-1,1.952899933E0
3.743001875E1,1.479499936E0,1.002799988E0,5.988000035E-1
3.746000000E1,8.442999721E-1,1.803299904E0,-5.587999821E-1
3.748000000E1,6.162999868E-1,1.698799968E0,1.864999980E-1
3.750000000E1,6.082999706E-1,1.303300023E0,1.441799998E0
3.752000000E1,7.081999779E-1,9.029999971E-1,1.745899916E0
3.755000000E1,5.910999775E-1,4.232999980E-1,2.334399939E0
3.758000000E1,8.180999756E-1,-4.619999826E-1,4.432899952E0
3.760000000E1,1.236999989E0,-1.363699913E0,4.648499966E0
3.762000000E1,1.567299962E0,-1.587499976E0,2.912600040E0
3.765000000E1,9.031999707E-1,-6.638999581E-1,-4.799999762E-3
3.767999844E1,-2.622999847E-1,-3.264999986E-1,3.985999823E-1
3.770000000E1,-4.835999906E-1,-5.845999718E-1,9.840999842E-1
3.772000000E1,-6.351999640E-1,-6.449999809E-1,6.513999701E-1
3.774000000E1,-5.573999882E-1,-7.572000027E-1,3.377999961E-1
3.776000000E1,-2.874000072E-1,-1.211099982E0,3.608999848E-1
3.779000000E1,-5.819999799E-2,-1.761699915E0,-2.502999902E-1
3.781000000E1,-1.441999972E-1,-1.971599936E0,-9.368000031E-1
3.783001875E1,-4.206999838E-1,-1.787599921E0,-2.069799900E0
3.786000000E1,-1.059299946E0,-9.608999491E-1,-2.910799980E0
3.788000000E1,-1.489199996E0,-8.357999921E-1,-3.186699867E0
3.791001250E1,-1.868499994E0,-7.560999990E-1,-3.015199900E0
3.793001875E1,-1.753299952E0,-8.434000015E-1,-2.725699902E0
3.795999844E1,-1.166000009E0,-1.076799989E0,-2.782099962E0
3.798000000E1,-9.602999687E-1,-9.156999588E-1,-2.833600044E0
3.800000000E1,-1.277499914E0,-6.596999764E-1,-2.246500015E0
3.802000000E1,-1.546399951E0,-4.020999968E-1,-1.421999931E0
3.805000000E1,-1.199100018E0,-9.172999859E-1,3.583999872E-1
3.808000000E1,-9.869999886E-1,-2.868999839E-1,4.239999950E-1
3.810999844E1,-9.885999560E-1,2.483999878E-1,-6.717000008E-1
3.813001875E1,-1.662299991E0,8.535999656E-1,6.090999842E-1
3.816000000E1,-2.167399883E0,4.826999903E-1,4.938600063E0
3.819000000E1,-2.999999851E-4,-8.190000057E-1,4.352999687E0
3.821000000E1,9.729999900E-1,-6.970999837E-1,1.994899988E0
3.823001875E1,1.164199948E0,-1.457999945E-1,1.027699947E0
3.826000000E1,2.635999918E-1,7.008000016E-1,2.015399933E0
3.829000000E1,2.439999953E-2,1.319299936E0,8.247999549E-1
3.831000000E1,-1.601999998E-1,1.454100013E0,-4.849999771E-2
3.833001875E1,-4.979999736E-2,1.231299996E0,3.037000000E-1
3.836000000E1,7.215999961E-1,4.364999831E-1,-5.109999776E-1
3.838000000E1,1.268399954E0,1.748999953E-1,-2.384799957E0
3.841001250E1,1.433099985E0,6.647999883E-1,-4.248399734E0
3.843001875E1,1.173599958E0,9.186999798E-1,-3.983999968E0
3.845999844E1,9.435999990E-1,1.086400032E0,-3.316999912E0
3.848000000E1,8.230999708E-1,1.028100014E0,-2.404299974E0
3.850000000E1,9.149999619E-1,6.013000011E-1,-4.025999904E-1
3.852000000E1,1.234099984E0,-1.061999947E-1,1.669199944E0
3.855000000E1,1.784299970E0,-7.005000114E-1,2.183899879E0
3.858000000E1,1.190999985E0,3.680999875E-1,1.608099937E0
3.860000000E1,7.540000081E-1,8.971999884E-1,1.805499911E0
3.862000000E1,3.740999997E-1,1.196900010E0,2.559999943E0
3.864000000E1,1.886999905E-1,1.265399933E0,2.920599937E0
3.866000000E1,3.005999923E-1,1.270999908E0,2.262099981E0
3.869000000E1,6.539999843E-1,1.366099954E0,1.292400002E0
3.871000000E1,1.345199943E0,3.580999970E-1,2.363299847E0
3.873001875E1,2.347300053E0,-9.786999822E-1,3.264499903E0
3.876000000E1,2.986199856E0,-1.415300012E0,1.265299916E0
3.879000000E1,1.096599936E0,-4.553999901E-1,3.280999959E-1
3.881000000E1,-2.899999917E-1,-2.981999815E-1,2.326200008E0
3.883001875E1,-1.200699925E0,-3.367999792E-1,4.089999676E0
3.886000000E1,-4.087999761E-1,-1.475399971E0,2.963099957E0
3.888000000E1,8.500000089E-2,-1.941399932E0,9.881999493E-1
3.891001250E1,2.109999955E-1,-1.703599930E0,-1.521600008E0
3.893001875E1,-5.869999900E-2,-1.210899949E0,-2.579599857E0
3.896000000E1,-7.903999686E-1,-8.617999554E-1,-3.346899986E0
3.898000000E1,-1.413699985E0,-6.675999761E-1,-3.086199999E0
3.900000000E1,-2.029199839E0,-3.983999789E-1,-2.510699987E0
3.902000000E1,-2.148999929E0,-5.686999559E-1,-2.219799995E0
3.905000000E1,-1.526600003E0,-1.354699969E0,-2.679800034E0
3.907000000E1,-1.575500011E0,-1.194199920E0,-3.076999903E0
3.909000000E1,-1.691699982E0,-9.725999832E-1,-3.129199982E0
3.911000000E1,-1.788699985E0,-9.479999542E-1,-2.662899971E0
3.913001875E1,-1.789299965E0,-1.373499990E0,-1.337000012E0
3.916000000E1,-1.896099925E0,-1.574299932E0,6.913999915E-1
3.919000000E1,-1.141600013E0,-1.161100030E0,8.687999845E-1
3.922000000E1,-1.365399957E0,-3.734000027E-1,-1.305000037E-1
3.924999844E1,-3.139299870E0,-8.909999579E-2,2.098199844E0
3.927000000E1,-3.286799908E0,-9.200999737E-1,4.974299908E0
3.929000000E1,-2.000499964E0,-2.044600010E0,5.034800053E0
3.931000000E1,-6.915000081E-1,-2.086999893E0,2.029700041E0
3.933001875E1,-2.818999887E-1,-1.016899943E0,4.859999940E-2
3.936000000E1,-4.982999861E-1,-7.786999941E-1,7.975999713E-1
3.938000000E1,-5.981999636E-1,-3.057000041E-1,5.677999854E-1
3.941001250E1,-1.658999920E-1,4.781999886E-1,-1.072700024E0
3.943001875E1,3.305999935E-1,6.650999784E-1,-1.554999948E0
3.945999844E1,1.077999949E0,9.684000015E-1,-2.322000027E0
3.948000000E1,1.473099947E0,1.233199954E0,-2.999500036E0
3.950000000E1,1.781099916E0,1.243299961E0,-3.059000015E0
3.952000000E1,2.111500025E0,1.184299946E0,-2.569200039E0
3.955000000E1,2.102400064E0,1.263499975E0,-2.313899994E0
3.958000000E1,2.170799971E0,1.630599976E0,-1.723199964E0
3.960999844E1,2.279799938E0,1.018399954E0,8.299999870E-3
3.963001875E1,1.912400007E0,1.041999936E0,1.602100015E0
3.966000000E1,1.990299940E0,6.523999572E-1,2.922899961E0
3.969000000E1,2.474999905E0,3.115999997E-1,2.581599951E0
3.972000156E1,1.950399995E0,4.133999944E-1,2.992199898E0
3.974999844E1,1.020399928E0,8.245999813E-1,3.637699842E0
3.977000000E1,6.326000094E-1,8.355999589E-1,4.204800129E0
3.979000000E1,1.109699965E0,-8.449999988E-2,5.005599976E0
3.981000000E1,2.142899990E0,-1.106899977E0,4.158800125E0
3.983001875E1,2.523799896E0,-1.248999953E0,1.701599956E0
3.986000000E1,1.233399987E0,-2.994999886E-1,-1.638000011E-1
3.988000000E1,-1.298999935E-1,-3.671000004E-1,1.816599965E0
3.991001250E1,-8.644999862E-1,-1.249300003E0,3.997099876E0
3.993001875E1,-6.159999967E-1,-1.603999972E0,2.103399992E0
3.996000000E1,-5.511999726E-1,-1.308200002E0,-1.411199927E0
3.998000000E1,-7.516999841E-1,-1.325299978E0,-1.904199958E0
4.000000000E1,-1.121299982E0,-1.496399999E0,-1.707700014E0
4.002000000E1,-1.455500007E0,-1.352499962E0,-2.354799986E0
4.005000000E1,-1.740000010E0,-1.013299942E0,-3.931199789E0
4.007001719E1,-1.796499968E0,-8.299999833E-1,-4.390999794E0
4.010000000E1,-2.085099936E0,-5.421999693E-1,-3.922899961E0
4.012000000E1,-2.250299931E0,-7.001999617E-1,-3.212899923E0
4.015000000E1,-2.473799944E0,-8.712999821E-1,-2.064300060E0
4.017000000E1,-2.285899878E0,-9.235000014E-1,-1.575699925E0
4.019000000E1,-1.721499920E0,-9.641000032E-1,-1.558099985E0
4.021000000E1,-1.367999911E0,-1.025499940E0,-1.366599917E0
4.023001875E1,-1.227900028E0,-9.924999475E-1,-7.246999741E-1
4.026000000E1,-1.149999976E0,-6.600999832E-1,7.272999883E-1
4.028000000E1,-7.756999731E-1,-1.995999962E-1,7.391999960E-1
4.030000000E1,-6.319999695E-1,1.743000001E-1,2.152999938E-1
4.032000000E1,-1.076699972E0,5.150000006E-2,1.154199958E0
4.035000000E1,-8.589999676E-1,-7.567999959E-1,4.526199818E0
4.037000000E1,1.377999932E-1,-1.235199928E0,4.241300106E0
4.040000000E1,9.246000051E-1,-6.225999594E-1,1.158299923E0
4.043001875E1,4.649999738E-1,3.709999844E-2,1.125599980E0
4.045999844E1,6.211999655E-1,-2.335999906E-1,2.091500044E0
4.048000000E1,8.204999566E-1,-1.568999887E-1,1.413699985E0
4.051000000E1,1.095299959E0,3.723999858E-1,-9.006999731E-1
4.053001875E1,1.148699999E0,8.047999740E-1,-1.871499896E0
4.056000000E1,1.135499954E0,1.325199962E0,-3.146299839E0
4.058000000E1,1.128399968E0,1.407599926E0,-3.832999945E0
4.060000000E1,1.124899983E0,1.395499945E0,-3.853299856E0
4.062000000E1,9.524999857E-1,1.291299939E0,-3.451799870E0
4.065000000E1,1.688499928E0,8.306999803E-1,-3.215299845E0
4.067000000E1,1.827799916E0,6.405000091E-1,-2.309799910E0
4.070000000E1,1.544099927E0,6.010000110E-1,3.384999931E-1
4.072000000E1,1.794799924E0,1.271999925E-1,1.662799954E0
4.074000000E1,1.937299967E0,-1.353999972E-1,2.592900038E0
4.077000000E1,1.332799911E0,7.321000099E-1,2.560299873E0
4.079000000E1,5.825999975E-1,1.322899938E0,2.472100019E0
4.081999844E1,-2.447999865E-1,1.851599932E0,2.882799864E0
4.084000000E1,-1.385999918E-1,1.885699987E0,3.381999969E0
4.086000000E1,1.696999967E-1,1.613399982E0,3.202699900E0
4.088999844E1,1.454899907E0,2.387999892E-1,3.648399830E0
4.091001250E1,2.340899944E0,-4.745000005E-1,3.258499861E0
4.093001875E1,2.933099985E0,-5.311999917E-1,1.562600017E0
4.096000000E1,2.292599916E0,4.332999885E-1,-9.596999884E-1
4.098000000E1,9.860999584E-1,7.447999716E-1,6.929999590E-2
4.101000000E1,2.594999969E-1,-3.348000050E-1,3.660899878E0
4.103001875E1,5.367000103E-1,-1.546700001E0,4.603899956E0
4.106000000E1,7.681999803E-1,-1.945699930E0,1.162099957E0
4.108000000E1,9.951999784E-1,-2.116899967E0,-7.374999523E-1
4.110000000E1,7.403999567E-1,-2.510399818E0,-1.340399981E0
4.112000000E1,1.476999968E-1,-2.406299829E0,-1.330699921E0
4.115000000E1,-1.048399925E0,-1.862999916E0,-1.967999935E0
4.117000000E1,-1.462199926E0,-1.297699928E0,-3.167299986E0
4.120000000E1,-1.605999947E0,-6.299999952E-1,-4.544199944E0
4.122000000E1,-1.714699984E0,-5.891000032E-1,-5.053100109E0
4.124000000E1,-1.996399999E0,-6.890000105E-1,-4.716700077E0
4.126000000E1,-2.326200008E0,-5.105000138E-1,-3.467199802E0
4.129000000E1,-2.128700018E0,-9.538999796E-1,-1.483699918E0
4.131000000E1,-1.515999913E0,-1.392399907E0,-1.989899993E0
4.133001875E1,-2.051199913E0,-9.844999909E-1,-1.822699904E0
4.136000000E1,-2.664499998E0,1.542000026E-1,7.628999949E-1
4.138000000E1,-2.001600027E0,1.828999966E-1,1.398899913E0
4.141001250E1,-7.260999680E-1,2.678999901E-1,4.783999920E-1
4.143001875E1,-9.991999865E-1,4.632999897E-1,9.153999686E-1
4.145999844E1,-1.565199971E0,-9.377999902E-1,5.247699738E0
4.148000000E1,-6.294999719E-1,-1.850099921E0,6.756000042E0
4.150000000E1,2.820000052E-1,-1.718799949E0,4.564099789E0
4.152000000E1,5.224999785E-1,-5.630999804E-1,1.103799939E0
4.154999844E1,-1.168999970E-1,8.897999525E-1,-1.677799940E0
4.156999844E1,-1.027199984E0,1.436999917E0,-5.871999860E-1
4.159000000E1,-1.069499969E0,9.775999784E-1,1.946299911E0
4.161000000E1,8.799999952E-3,7.739999890E-2,2.628700018E0
4.163001875E1,1.071300030E0,-2.750999928E-1,1.432600021E0
4.166000000E1,1.688899994E0,9.979999810E-2,-6.448999643E-1
4.169000000E1,1.663800001E0,6.369000077E-1,-2.450700045E0
4.172000000E1,1.166299939E0,1.176499963E0,-3.606499910E0
4.174000000E1,1.010299921E0,1.458799958E0,-3.462100029E0
4.177000000E1,1.207299948E0,1.389500022E0,-2.658999920E0
4.179000000E1,1.567999959E0,9.030999541E-1,-2.246799946E0
4.181000000E1,1.525299907E0,6.969000101E-1,-1.628499985E0
4.183001875E1,1.073300004E0,7.744999528E-1,-9.314000010E-1
4.186000000E1,1.905999929E-1,7.066000104E-1,1.240499973E0
4.188000000E1,-1.877999902E-1,4.726999998E-1,3.049199820E0
4.191001250E1,3.689999878E-2,-1.919999905E-2,4.778999805E0
4.193001875E1,2.187999934E-1,-3.399999812E-3,4.562900066E0
4.195999844E1,1.752000004E-1,2.110999972E-1,3.143800020E0
4.198000000E1,6.409999728E-2,3.335999846E-1,2.152299881E0
4.200000000E1,1.571999937E-1,1.098999977E-1,2.161599874E0
4.202000000E1,9.614999890E-1,-7.914999723E-1,2.802199841E0
4.205000000E1,2.003499985E0,-1.942499995E0,9.689999819E-1
4.208000000E1,6.747999787E-1,-1.101799965E0,-3.962999880E-1
4.210999844E1,-9.703999758E-1,-8.251999617E-1,3.226899862E0
4.213001719E1,-8.640999794E-1,-1.152599931E0,3.857699871E0
4.216000000E1,-3.612999916E-1,-5.406000018E-1,-7.348999977E-1
4.219000000E1,-8.876000047E-1,2.348999977E-1,-2.819700003E0
4.222000000E1,-1.079200029E0,-2.145999968E-1,-2.423399925E0
4.224000000E1,-1.008599997E0,-2.784000039E-1,-3.215600014E0
4.226999844E1,-1.321200013E0,-3.999999899E-4,-3.920099974E0
4.229000000E1,-1.302500010E0,-2.052000016E-1,-3.130699873E0
4.231999844E1,-1.203799963E0,-7.080000043E-1,-2.519999981E0
4.234000000E1,-1.621699929E0,-5.115999579E-1,-2.440599918E0
4.236000000E1,-2.206899881E0,-1.820999980E-1,-2.253399849E0
4.238000000E1,-1.838299990E0,-1.674000025E-1,-1.580500007E0
4.240000000E1,-1.400799990E0,-1.440999955E-1,-1.803900003E0
4.242000000E1,-1.034899950E0,-1.232999936E-1,-1.874699950E0
4.244000000E1,-7.749999762E-1,-3.669999838E-1,-1.083099961E0
4.246000000E1,-4.012999833E-1,-4.050999880E-1,3.307999969E-1
4.248000000E1,1.943999976E-1,-4.970999956E-1,8.484999537E-1
4.251000000E1,3.786000013E-1,4.535000026E-1,-2.030999959E-1
4.253001719E1,-4.047999978E-1,1.121799946E0,7.279999852E-1
4.256000000E1,-1.195099950E0,-2.267999947E-1,6.114199638E0
4.258000313E1,-3.549999744E-2,-1.710199952E0,7.682999611E0
4.260999844E1,1.865599990E0,-2.168099880E0,3.500499964E0
4.263001875E1,2.390300035E0,-1.060199976E0,1.299999934E-2
4.266000000E1,5.855999589E-1,-5.386999846E-1,1.213099957E0
4.269000000E1,-8.671999574E-1,7.919999957E-2,2.945400000E0
4.271000000E1,-8.572999835E-1,6.299999952E-1,1.499099970E0
4.273001875E1,-3.783999979E-1,7.110999823E-1,1.358999908E-1
4.275999844E1,4.562999904E-1,2.666999996E-1,-1.398499966E0
4.277999844E1,6.883999705E-1,3.507999778E-1,-2.844799995E0
4.280000000E1,6.728999615E-1,8.453999758E-1,-4.014199734E0
4.282000000E1,5.278999805E-1,1.090799928E0,-3.999199867E0
4.284000000E1,4.104999900E-1,1.079900026E0,-3.552799940E0
4.286000000E1,4.195999801E-1,7.987999916E-1,-2.999399900E0
4.288000000E1,6.456999779E-1,4.675000012E-1,-2.317800045E0
4.290000000E1,8.381999731E-1,4.035999775E-1,-2.057600021E0
4.292000000E1,8.822999597E-1,5.274999738E-1,-1.816899896E0
4.294000000E1,6.349999905E-1,7.051999569E-1,-8.341999650E-1
4.296000000E1,3.440999985E-1,9.241999984E-1,2.660000026E-1
4.298000000E1,-3.000000026E-3,9.161999822E-1,1.406799912E0
4.301000000E1,-3.940000013E-2,8.314999938E-1,2.747099876E0
4.303001875E1,2.025000006E-1,1.003000021E0,2.167500019E0
4.306000000E1,4.624999762E-1,7.883999944E-1,1.357699990E0
4.308000000E1,-1.261999905E-1,9.239999652E-1,1.126699924E0
4.310000000E1,-5.701000094E-1,1.237100005E0,1.692600012E0
4.312000000E1,7.549999654E-2,1.307999939E-1,3.339900017E0
4.315000000E1,2.391599894E0,-2.528499842E0,3.090299845E0
4.317000000E1,3.059799910E0,-2.954399824E0,8.471999764E-1
4.319000000E1,2.026000023E0,-1.662400007E0,-7.811999917E-1
4.322000000E1,-2.883000076E-1,-5.411999822E-1,1.408100009E0
4.324000000E1,-8.279999495E-1,-8.283999562E-1,3.115099907E0
4.327000000E1,-2.908000052E-1,-1.243099928E0,1.689000010E0
4.329000000E1,-1.841000021E-1,-1.116299987E0,-7.257999778E-1
4.331000000E1,-4.016999900E-1,-6.154999733E-1,-2.104500055E0
4.333001875E1,-7.213999629E-1,-1.467999965E-1,-2.763799906E0
4.336000000E1,-9.247999787E-1,4.979999736E-2,-3.435199976E0
4.338000000E1,-1.094099998E0,-1.454999894E-1,-2.985599995E0
4.341001250E1,-1.067399979E0,-6.389999986E-1,-1.669799924E0
4.343001875E1,-1.257499933E0,-8.323000073E-1,-1.520099998E0
4.345999844E1,-9.606999755E-1,-8.576999903E-1,-1.705999970E0
4.348000000E1,-6.638999581E-1,-3.574000001E-1,-2.010099888E0
4.351000000E1,-6.547999978E-1,2.842999995E-1,-2.150300026E0
4.353001719E1,-6.940999627E-1,6.615999937E-1,-2.415699959E0
4.356000000E1,-1.057399988E0,8.288999796E-1,-1.680999994E0
4.358000000E1,-9.206999540E-1,4.364999831E-1,-2.963999808E-1
4.360000000E1,-3.818999827E-1,3.229999915E-2,1.174199939E0
4.362000000E1,3.366999924E-1,-6.949999928E-2,1.656899929E0
4.364000000E1,1.070199966E0,4.062999785E-1,1.308300018E0
4.366000000E1,8.097999692E-1,5.888999701E-1,1.023299932E0
4.369000000E1,-3.822000027E-1,-2.173999995E-1,3.374499798E0
4.372000000E1,5.022000074E-1,-1.497499943E0,7.078399658E0
4.375000000E1,2.282599926E0,-1.772099972E0,3.274600029E0
4.377999844E1,1.390599966E0,-3.123999834E-1,-1.171599984E0
4.380000000E1,5.184000134E-1,-2.168999910E-1,3.438999951E-1
4.383001875E1,1.217999980E-1,-7.610999942E-1,2.011499882E0
4.386000000E1,-6.564999819E-1,9.999999747E-5,2.620299816E0
4.388000000E1,-7.653999925E-1,6.227999926E-1,1.821299911E0
4.391001250E1,-3.269999847E-2,9.041999578E-1,-9.912999868E-1
4.393001719E1,3.278000057E-1,9.610999823E-1,-2.933699846E0
4.395999844E1,6.626999974E-1,1.203499913E0,-4.304699898E0
4.398000000E1,9.235000014E-1,1.011099935E0,-4.273699760E0
4.400000000E1,1.281999946E0,4.350000024E-1,-3.557299852E0
4.403001875E1,1.489799976E0,8.999999613E-3,-2.518800020E0
4.405999844E1,6.359999776E-1,6.510999799E-1,-1.382799983E0
4.408000000E1,1.375000030E-1,1.182099938E0,-8.342999816E-1
4.410000000E1,2.043000013E-1,1.132799983E0,-4.717999995E-1
4.412000000E1,9.769999981E-2,7.879999876E-1,-4.715999961E-1
4.415000000E1,-9.018999934E-1,5.667999983E-1,8.118000031E-1
4.417000000E1,-9.207999706E-1,2.529999986E-2,2.751099825E0
4.419000000E1,-3.842999935E-1,-6.281999946E-1,4.083699703E0
4.422000000E1,-6.316999793E-1,-2.967999876E-1,3.251299858E0
4.424999844E1,-4.142999947E-1,8.829999715E-2,3.094399929E0
4.427000000E1,5.990999937E-1,-7.620999813E-1,3.006299973E0
4.429000000E1,1.361799955E0,-9.915999770E-1,1.715099931E0
4.431000000E1,1.396099925E0,-7.569999695E-1,-2.000999898E-1
4.433001875E1,5.893999934E-1,-3.685999811E-1,-2.793000042E-1
4.436000000E1,2.899999963E-3,-8.998000026E-1,1.815999985E0
4.438000000E1,1.845999956E-1,-1.451799989E0,1.758099914E0
4.441001250E1,4.333999753E-1,-1.877299905E0,6.159999967E-1
4.443001875E1,5.891000032E-1,-1.817399979E0,-1.129999980E-1
4.445999844E1,8.789999485E-1,-1.660300016E0,-1.762799978E0
4.448000000E1,4.623000026E-1,-8.016999960E-1,-2.591399908E0
4.450000000E1,-1.771000028E-1,-4.629999772E-2,-2.254499912E0
4.452000000E1,-4.429000020E-1,2.728999853E-1,-1.659599900E0
4.455000000E1,-3.955999911E-1,-8.579999954E-2,-1.865899920E0
4.458000000E1,-6.797999740E-1,-4.203999937E-1,-9.964999557E-1
4.460000000E1,-8.413999677E-1,-4.043999910E-1,-3.199000061E-1
4.462000000E1,-9.916999936E-1,-6.539999694E-2,-4.043000042E-1
4.465000000E1,-7.243999839E-1,5.386999846E-1,-1.201599956E0
4.468000000E1,-3.179999888E-1,5.320000052E-1,-1.240000010E0
4.470000000E1,-1.490999907E-1,-8.060000092E-2,-2.784999907E-1
4.472000000E1,-2.637999952E-1,-6.118999720E-1,8.780999780E-1
4.474999844E1,-9.023999572E-1,-5.672000051E-1,3.481899977E0
4.477000000E1,-1.364099979E0,-1.620000042E-2,3.095499992E0
4.479000000E1,-1.407400012E0,5.462999940E-1,2.170899868E0
4.481000000E1,-1.140499949E0,-1.806000024E-1,2.572799921E0
4.483001875E1,-8.855999708E-1,-8.305000067E-1,2.991199970E0
4.486000000E1,-6.820999980E-1,-7.670999765E-1,1.401899934E0
4.488000000E1,-6.909999847E-1,-5.415999889E-1,7.274999619E-1
4.490000000E1,-6.334999800E-1,-5.924999714E-1,3.734999895E-1
4.492000000E1,-4.463000000E-1,-8.089999557E-1,-2.258999944E-1
4.494000000E1,-3.106999993E-1,-8.542000055E-1,-6.024000049E-1
4.496000000E1,-2.022999972E-1,-6.020999551E-1,-7.416999936E-1
4.498000000E1,2.838999927E-1,-5.077999830E-1,-1.027300000E0
4.500000000E1,7.708999515E-1,-3.899999857E-1,-2.108799934E0
4.502000000E1,1.232299924E0,-9.380000085E-2,-3.012799978E0
4.505000000E1,1.332399964E0,2.459999919E-1,-2.752899885E0
4.507001719E1,1.280599952E0,1.963000000E-1,-2.361599922E0
4.510000000E1,1.052500010E0,4.199000001E-1,-2.134399891E0
4.512000000E1,1.068300009E0,4.073999822E-1,-1.579199910E0
4.515000000E1,1.143499970E0,1.252000034E-1,-1.240700006E0
4.517000000E1,6.736999750E-1,3.305999935E-1,-1.100600004E0
4.520000000E1,3.319999948E-2,6.583999991E-1,4.349999875E-2
4.522000000E1,8.439999819E-2,1.913999915E-1,1.156499982E0
4.524999844E1,-2.709999867E-2,-1.221999973E-1,1.339100003E0
4.527000000E1,-1.671999991E-1,8.009999990E-2,1.232499957E0
4.529000000E1,-3.030999899E-1,4.292999804E-1,1.288200021E0
4.531000000E1,-2.533999979E-1,7.973999977E-1,1.143700004E0
4.533001875E1,-3.861999810E-1,8.798999786E-1,9.013999701E-1
4.536000000E1,-5.590000004E-2,4.237999916E-1,1.181999922E0
4.538000000E1,5.110999942E-1,2.175000012E-1,9.878999591E-1
4.541001250E1,-2.899999963E-3,3.893999755E-1,5.433999896E-1
4.543001719E1,-6.603999734E-1,-4.820000008E-2,1.432199955E0
4.546000000E1,-8.998999596E-1,-8.840000033E-1,2.791299820E0
4.548000000E1,-7.716999650E-1,-9.469999671E-1,1.856599927E0
4.551000000E1,8.179999888E-2,-1.137099981E0,1.096699953E0
4.553001875E1,6.426999569E-1,-1.150499940E0,-5.469999835E-2
4.556000000E1,6.290999651E-1,-4.917999804E-1,-1.360499978E0
4.558000000E1,7.759999484E-2,6.359999627E-2,-7.673999667E-1
4.560000000E1,-1.590999961E-1,1.147999987E-1,-1.024999991E-1
4.562000000E1,-2.454999983E-1,4.179999828E-1,1.441999972E-1
4.565000000E1,-6.861999631E-1,9.316999912E-1,-1.013999954E-1
4.567999844E1,-1.072099924E0,4.602999985E-1,2.679999918E-2
4.570000000E1,-1.011199951E0,-3.310999870E-1,1.940999925E-1
4.572000000E1,-8.327999711E-1,-9.540999532E-1,7.616999745E-1
4.574999844E1,-1.700000018E-1,-1.621699929E0,-1.384000033E-1
4.577000000E1,3.143999875E-1,-1.803999901E0,-1.107299924E0
4.579000156E1,8.010999560E-1,-1.723599911E0,-1.989599943E0
4.582000000E1,9.969999790E-1,-1.041599989E0,-3.400300026E0
4.584000000E1,6.460999846E-1,-2.088999897E-1,-2.961400032E0
4.587000000E1,-4.969999939E-2,4.118999839E-1,-1.061599970E0
4.589000000E1,-8.060000092E-2,1.112200022E0,-7.080000043E-1
4.591001250E1,-6.150999665E-1,1.564999938E0,-1.057699919E0
4.593001719E1,-1.592899919E0,1.480399966E0,-6.704999804E-1
4.595999844E1,-2.541399956E0,-8.439999819E-2,1.439299941E0
4.598000000E1,-1.814999938E0,-9.677999616E-1,2.634599924E0
4.601000000E1,-9.448999763E-1,-8.867999911E-1,1.705599904E0
4.603001875E1,-1.189000010E0,7.859999686E-2,-6.589999795E-2
4.605999844E1,-1.696200013E0,1.680999994E-1,-2.770999968E-1
4.608000000E1,-2.062500000E0,-3.904999793E-1,1.216499925E0
4.610000000E1,-2.393199921E0,-5.593999624E-1,1.945499897E0
4.612000000E1,-2.113999844E0,-4.977999926E-1,7.049999833E-1
4.614000000E1,-1.281499982E0,-5.357999802E-1,-6.022999883E-1
4.616000000E1,-6.606999636E-1,-7.482999563E-1,-1.345600009E0
4.618999844E1,-6.819999963E-2,-8.823999763E-1,-2.324199915E0
4.620999844E1,4.028999805E-1,-9.144999981E-1,-2.719099998E0
4.623001875E1,5.309000015E-1,-1.024299979E0,-2.156599998E0
4.625999844E1,6.560999751E-1,-6.272000074E-1,-1.445500016E0
4.628000000E1,6.929000020E-1,-4.222999811E-1,-1.713599920E0
4.630000000E1,7.638999820E-1,-8.500000089E-2,-1.800499916E0
4.633001875E1,3.472999930E-1,4.703999758E-1,-1.578799963E0
4.635999844E1,8.219999820E-2,1.278100014E0,-1.341799974E0
4.638000000E1,4.115999937E-1,1.390299916E0,-5.588999987E-1
4.640000000E1,5.755000114E-1,1.391399980E0,-4.145999849E-1
4.643001875E1,-3.177999854E-1,1.895299911E0,9.730999470E-1
4.646000000E1,-4.794999957E-1,1.353199959E0,2.502799988E0
4.648000000E1,2.730999887E-1,9.627999663E-1,2.316400051E0
4.650000000E1,7.842999697E-1,1.392499924E0,1.516600013E0
4.652000000E1,8.157999516E-1,1.789499998E0,5.349999666E-1
4.655000000E1,2.942000031E-1,1.709599972E0,2.419999987E-1
4.658000000E1,8.563999534E-1,1.359699965E0,5.263000131E-1
4.660999844E1,2.121299982E0,1.107699990E0,1.180000007E-1
4.663001875E1,2.500000000E0,1.063400030E0,-7.364000082E-1
4.666000000E1,1.044799924E0,4.805999994E-1,1.995999962E-1
4.668999844E1,-5.559999868E-2,-7.048000097E-1,3.162099838E0
4.671000000E1,4.100999832E-1,-1.965499997E0,3.384699821E0
4.673001875E1,9.861999750E-1,-2.623100042E0,1.522099972E0
4.675999844E1,1.513899922E0,-2.511100054E0,-9.409999847E-2
4.677999844E1,1.620399952E0,-2.526299953E0,-5.099999905E-1
4.680000000E1,1.475999951E0,-2.249599934E0,-1.263499975E0
4.682000000E1,9.867999554E-1,-1.566100001E0,-1.761099935E0
4.684999844E1,2.255999893E-1,-5.751000047E-1,-2.080600023E0
4.687000000E1,-1.793999970E-1,-2.109999955E-1,-2.549799919E0
4.689000000E1,-5.279999971E-1,8.669999987E-2,-2.318300009E0
4.691001250E1,-4.448999763E-1,1.815999895E-1,-1.937699914E0
4.693001875E1,1.519999932E-2,2.237999886E-1,-2.179499865E0
4.696000000E1,6.341999769E-1,-3.917999864E-1,-1.340899944E0
4.698000000E1,4.930000007E-2,-4.912000000E-1,-7.559999824E-2
4.700000000E1,-3.194999993E-1,2.955999970E-1,7.716999650E-1
4.702000000E1,-4.742999971E-1,9.214999676E-1,3.245999813E-1
4.704000000E1,-1.510999948E-1,1.477599978E0,9.389999509E-2
4.706000000E1,2.930999994E-1,2.123899937E0,2.974999845E-1
4.708000000E1,-3.504999876E-1,2.449499846E0,4.127999842E-1
4.710000000E1,-1.544899940E0,1.969599962E0,1.244099975E0
4.712000000E1,-2.300899982E0,9.761999846E-1,3.984399796E0
4.715000000E1,-1.131099939E0,-3.874999881E-1,5.226099968E0
4.717999844E1,1.525999904E-1,-1.560999900E-1,1.517599940E0
4.719999844E1,2.193999887E-1,3.678999841E-1,6.107000113E-1
4.722000000E1,-2.150999904E-1,-9.989999980E-2,1.554099917E0
4.724000000E1,-6.625999808E-1,-6.356999874E-1,1.477800012E0
4.727000000E1,-6.561999917E-1,-3.247999847E-1,-4.055999815E-1
4.729000000E1,-1.065999940E-1,-2.879999876E-1,-9.594999552E-1
4.731000000E1,6.254999638E-1,-8.014000058E-1,-1.602899909E0
4.733001875E1,1.328799963E0,-1.154899955E0,-2.689999819E0
4.735999844E1,1.369199991E0,-1.100399971E0,-3.179499865E0
4.738000000E1,1.228999972E0,-5.587999821E-1,-2.519000053E0
4.741001250E1,1.534299970E0,-2.866999805E-1,-2.696399927E0
4.743001875E1,1.496199965E0,-3.585000038E-1,-2.484999895E0
4.745999844E1,4.272999763E-1,4.345999956E-1,-2.035699844E0
4.748000000E1,-1.465999931E-1,8.254999518E-1,-1.446699977E0
4.751000000E1,-4.864999950E-1,3.540999889E-1,-2.388999909E-1
4.753001875E1,-6.207000017E-1,1.769999973E-2,2.900999784E-1
4.756000000E1,-9.296999574E-1,1.114999950E-1,5.780000091E-1
4.758000000E1,-1.097999930E0,7.209999859E-2,1.507699966E0
4.760000000E1,-1.541399956E0,-1.488000005E-1,2.320400000E0
4.762000000E1,-1.648599982E0,-2.070000023E-2,3.154399872E0
4.764000000E1,-1.135499954E0,7.123999596E-1,2.404500008E0
4.766000000E1,-4.650999904E-1,1.340099931E0,1.182099938E0
4.768999844E1,-1.095600009E0,1.311800003E0,1.568899989E0
4.771000000E1,-1.116999984E0,3.398000002E-1,2.807600021E0
4.773001875E1,-4.139999747E-1,-2.639999986E-2,2.373499870E0
4.776000000E1,2.129999921E-2,7.425999641E-1,2.089999914E-1
4.779000000E1,-3.093000054E-1,-4.791999757E-1,1.488600016E0
4.781000000E1,-5.615999699E-1,-1.394899964E0,2.413100004E0
