"Time (s)","Acceleration x (m/s^2)","Acceleration y (m/s^2)","Acceleration z (m/s^2)"
0.000000000E0,-4.443471432E0,5.085047245E0,9.201001167E0
2.045890600E-2,-3.770789385E0,5.152046204E0,8.521140099E0
4.091786400E-2,-2.279163599E0,4.661218643E0,8.221738815E0
6.137677000E-2,-1.639980793E0,4.682754040E0,9.799506187E0
8.183572900E-2,-2.650350094E0,4.433900356E0,1.079073238E1
1.022946350E-1,-2.420340061E0,4.275674820E0,9.514760017E0
1.227535930E-1,-1.716551185E0,4.967798710E0,9.605687141E0
1.432125000E-1,8.282157183E-1,4.337888241E0,8.743673325E0
1.636714580E-1,9.577272534E-1,3.267997503E0,8.025527000E0
1.841303640E-1,-9.768698215E-1,3.468994617E0,9.536295891E0
2.045893230E-1,-6.870391965E-1,3.813561201E0,1.026640511E1
2.250482290E-1,1.864906192E0,6.248557091E0,6.890730858E0
2.455071870E-1,9.337990284E-1,5.257330418E0,5.964110374E0
2.659660930E-1,3.113660514E-1,3.493520916E-1,1.462134266E1
2.864250520E-1,-3.828516230E-2,-1.328913927E0,9.387641907E0
3.068839580E-1,3.646063566E0,2.681157827E0,7.529913902E0
3.273429160E-1,3.430709362E0,1.254437327E0,8.461319923E0
3.478018230E-1,2.015953064E0,1.797907114E0,7.182954311E0
3.682607810E-1,9.936196208E-1,2.303091764E0,6.792625427E0
3.887196870E-1,5.024927482E-2,8.712865710E-1,6.677769661E0
4.091786450E-1,4.980062246E-1,3.804588020E-1,4.886742115E0
4.296376040E-1,-3.734897137E0,2.440679073E-1,8.714959145E0
4.500965100E-1,-2.647957325E0,1.934298038E0,9.186644554E0
4.705554680E-1,1.206580877E0,2.097009897E0,8.413463593E0
4.910143750E-1,8.979067206E-1,2.918346405E0,6.991229534E0
5.114733330E-1,1.295115232E0,2.492124796E0,7.144370079E0
5.319322390E-1,5.283651352E0,2.468196630E0,6.163013935E0
5.523911980E-1,1.649552107E0,1.946262121E0,6.545865536E0
5.728501560E-1,-1.146760225E0,3.162414312E0,1.329482174E1
5.933090620E-1,8.774480820E0,2.714956284E0,2.037668037E1
6.137680200E-1,5.405984402E0,3.971786499E0,5.394319534E0
6.342269790E-1,4.100998878E0,1.041476011E0,9.787542343E0
6.546858850E-1,3.492922783E0,3.471387386E0,1.116431236E1
6.751448430E-1,-2.413161755E0,2.944667339E0,1.126002502E1
6.956037500E-1,-8.452646136E-1,5.089832783E0,9.957432747E0
7.160627080E-1,-9.481559992E-1,5.487041473E0,1.059930706E1
7.365216660E-1,1.086939692E0,4.175176620E0,8.892327309E0
7.569805730E-1,-1.017547846E0,3.784847260E0,9.653543472E0
7.774395310E-1,7.731808424E-1,6.188736439E0,8.707780838E0
7.978984370E-1,-4.980062246E-1,5.551946640E0,9.538688660E0
8.183573950E-1,-1.218544960E0,6.090631008E0,8.178668022E0
8.388163540E-1,-5.530411601E-1,4.953442097E0,1.010847950E1
8.592753120E-1,3.711866140E-1,5.178367138E0,1.043390274E1
8.797342180E-1,1.354935765E0,4.445864677E0,1.033819008E1
9.001931770E-1,9.529415965E-1,5.393721104E0,9.450154305E0
9.206521350E-1,1.220937729E0,6.076273918E0,9.821041107E0
9.411110410E-1,1.678265929E0,4.902893543E0,9.639186859E0
9.615700000E-1,1.864906192E0,4.371387959E0,8.166703224E0
9.820289580E-1,2.518445730E0,2.829811811E0,7.848458290E0
1.002487916E0,3.964607954E0,2.774776936E0,8.413463593E0
1.022946823E0,3.768396616E0,2.056331873E0,8.145168304E0
1.043405781E0,2.963809967E0,5.195416212E-1,9.445367813E0
1.063864739E0,2.714956284E0,1.728515267E0,7.980063438E0
1.084323698E0,3.200998545E0,3.078665495E0,8.841778755E0
1.104782656E0,6.284449577E0,2.465803623E0,1.314646626E1
1.125241562E0,5.985346794E0,2.947060108E0,1.142512989E1
1.145700520E0,2.848954439E0,1.769193292E0,8.966505051E0
1.166159479E0,1.441376567E0,3.306282759E0,1.063280678E1
1.186618437E0,-4.067798331E-2,3.179163933E0,1.103240776E1
1.207077395E0,1.711765528E0,1.007677436E0,1.162612724E1
1.227536302E0,2.023131609E0,4.194318771E0,6.907480717E0
1.247995260E0,1.922333837E0,6.636493683E0,1.256231880E1
1.268454218E0,2.197807550E0,5.956333637E0,1.029751205E1
1.288913177E0,7.779664397E-1,2.801098108E0,1.058255768E1
1.309372135E0,2.164308071E0,1.007677436E0,1.219113255E1
1.329831093E0,1.831406593E0,1.115653515E0,8.559425354E0
1.350290000E0,3.885644913E0,8.353942037E-1,1.077876854E1
1.370748958E0,7.683951855E-1,2.640479803E0,8.216354847E-1
1.391207916E0,1.032323551E1,2.956631422E0,8.425427437E0
1.411666875E0,3.550350666E0,2.717349291E0,1.046740246E1
1.432125833E0,5.839085579E0,6.699903309E-2,9.296713829E0
1.452584791E0,4.426722050E0,-1.479661703E0,-2.222333997E-1
1.473043750E0,2.664707184E0,2.216950178E0,8.762815475E0
1.493502708E0,3.531208038E0,2.587837696E0,1.239242840E1
1.513961666E0,1.544267893E0,2.535195589E0,1.143948650E1
1.534420625E0,6.107380867E0,1.884048700E0,4.812564373E0
1.554879583E0,2.848954439E0,5.269294739E0,4.058526516E0
1.575338541E0,4.091427803E0,7.773682594E0,1.478884029E1
1.595797500E0,3.945465326E0,-3.107678413E0,1.110927773E1
1.616256458E0,7.206284523E0,3.109772205E0,1.505952835E1
1.636715416E0,6.011667728E0,-7.417750359E-2,2.004287958E0
1.657174323E0,5.693123341E0,3.746562004E0,6.909873486E0
1.677633281E0,6.466603279E0,2.666800737E0,4.884349346E0
1.698092291E0,1.671087503E0,1.278365493E0,1.198774242E1
1.718551198E0,4.790730000E0,1.433898926E0,8.861220360E0
1.739010208E0,7.277171612E-1,1.671087503E0,8.748458862E0
1.759469166E0,-7.037889361E-1,2.228914261E0,9.751649857E0
1.779928125E0,1.491625786E0,2.458625317E0,1.176042461E1
1.800387083E0,3.921537161E0,2.008475542E0,8.185846329E0
1.820846041E0,3.883252144E0,1.309472203E0,1.232542896E1
1.841305000E0,5.449055195E0,3.182454109E-1,5.990431309E0
1.861763958E0,3.401995659E0,3.449851990E0,8.952147484E0
1.882222916E0,5.413163185E0,2.437089920E0,9.632008553E0
1.902681875E0,6.437590122E0,2.262413740E0,8.513961792E0
1.923140833E0,4.960620403E0,3.354139090E0,7.767102242E0
1.943599791E0,4.486542225E0,4.266103745E0,7.659126282E0
1.964058750E0,3.828217030E0,5.630909920E0,8.619246483E0
1.984516487E0,3.751646757E0,5.638088226E0,8.894720078E0
2.004975445E0,3.653541088E0,5.946762562E0,9.871291161E0
2.025434456E0,2.961417198E0,5.731408596E0,1.048654556E1
2.045893414E0,3.483351469E0,4.740181446E0,9.696614265E0
2.066352372E0,2.865704298E0,3.667598963E0,8.645566940E0
2.086811331E0,2.061416626E0,3.452244759E0,7.010372162E0
2.107270289E0,2.374876499E0,3.203092098E0,6.569793701E0
2.127729247E0,3.018844843E0,2.190629244E0,7.065407276E0
2.148188206E0,4.323830605E0,1.091725349E0,6.957729816E0
2.168647164E0,4.608576298E0,1.077368379E0,6.574579239E0
2.189106174E0,7.447959423E0,9.119645357E-1,6.933801651E0
2.209565133E0,3.847359657E0,4.331009090E-1,8.928219795E0
2.230024091E0,1.045753193E1,8.569296002E-1,1.444158173E1
2.250483049E0,6.296413898E0,2.331805706E0,9.169894218E0
2.270942060E0,-1.919941068E0,3.052344322E0,9.897611618E0
2.291401018E0,-6.439684033E-1,4.606183529E0,1.123370457E1
2.311859977E0,-1.357328653E0,1.773978829E0,8.425427437E0
2.332318935E0,-6.939185411E-2,2.010868311E0,9.334999084E0
2.352777893E0,4.072285175E0,1.745265007E0,9.821041107E0
2.373236904E0,6.988238335E0,-1.778764486E0,8.216953278E0
2.393695862E0,5.257330418E0,1.584945917E0,6.785446644E0
2.414154820E0,7.208677292E0,2.027618170E0,9.268000603E0
2.434613779E0,4.033999920E0,1.101296663E0,6.967301369E0
2.455072789E0,2.307877541E0,9.693922997E-1,9.464510918E0
2.475531747E0,1.082154036E0,-3.589234129E-2,6.493223190E0
2.495990706E0,4.773980141E0,1.357328653E0,1.024247742E1
2.516449716E0,3.260818958E0,9.095717072E-1,7.826922894E0
2.536908674E0,4.644468784E0,1.383649707E0,9.754042625E0
2.557367633E0,3.995714664E0,2.022832394E0,7.587341309E0
2.577826643E0,3.162713289E0,1.829013824E0,1.210020542E1
2.598285602E0,4.010071754E0,1.079761267E0,9.828220367E0
2.618744560E0,6.045167446E0,1.503290772E0,9.904789925E0
2.639203570E0,3.045166016E0,1.390828133E0,9.145966530E0
2.659662529E0,9.553344250E-1,1.996511340E0,7.108478069E0
2.680121539E0,6.061916828E0,1.039083242E0,8.954540253E0
2.700580497E0,3.555136204E0,1.405185103E0,1.190160084E1
2.721039456E0,1.968096614E0,1.173081279E0,8.446963310E0
2.741498466E0,5.051547527E0,7.420741320E-1,1.214327621E1
2.761957424E0,4.441078663E0,-6.777670383E-1,9.095717430E0
2.782416435E0,3.691826344E0,-9.720842242E-1,9.553045273E0
2.802875393E0,4.520041943E0,-6.415755749E-1,6.548258305E0
2.823334352E0,5.604588985E0,-6.945167780E-1,1.066152000E1
2.843793362E0,2.518445730E0,-7.710871100E-1,6.668198586E0
2.864252320E0,6.198307991E0,5.554339290E-1,8.691030502E0
2.884711331E0,2.908775091E0,2.511267424E0,5.107180595E0
2.905170289E0,3.485744476E0,1.374078393E0,1.028315544E1
2.925629299E0,5.604588985E0,8.330013752E-1,9.323035240E0
2.946088258E0,3.332603693E0,1.479362607E0,9.940682411E0
2.966547268E0,3.351746321E0,2.137687922E0,8.368000031E0
2.987006227E0,3.256033421E0,2.561516523E0,9.746864319E0
3.007465237E0,5.223830700E0,9.430712461E-1,1.165753269E1
3.027924195E0,4.201497555E0,9.023932219E-1,1.404198074E1
3.048383206E0,3.217748165E0,2.370090723E0,1.040518951E1
3.068842164E0,3.428316593E0,1.917548299E0,8.992825508E0
3.089301174E0,4.158426762E0,2.336591244E0,8.312965393E0
3.109760133E0,4.381258488E0,1.027119160E0,9.550652504E0
3.130219143E0,1.489233017E0,2.606980324E0,9.234500885E0
3.150678154E0,3.380460262E0,1.797907114E0,7.074978352E0
3.171137112E0,3.179463148E0,1.893620014E0,9.186644554E0
3.191596122E0,4.232903481E0,1.122832060E0,6.986443996E0
3.212055133E0,6.861418724E0,3.876372576E-1,7.228417873E0
3.232514091E0,7.941180229E0,8.186444640E-1,8.190631866E0
3.252973102E0,5.257330418E0,1.716551185E0,6.287440777E0
3.273432060E0,4.718646049E0,4.115654826E-1,1.074048328E1
3.293891070E0,4.333401680E0,3.195913792E0,8.805886269E0
3.314350081E0,3.476173162E0,1.888834357E0,1.144666576E1
3.334809039E0,5.894419670E0,-2.219342947E0,6.347260952E0
3.355268049E0,3.751646757E0,1.065404296E0,8.092526436E0
3.375727060E0,2.576172590E0,3.238984585E0,5.078466892E0
3.396186018E0,1.243011570E1,1.000499010E0,1.345543957E1
3.416645029E0,9.099904060E0,1.007677436E0,9.251250267E0
3.437104039E0,2.465803623E0,3.188735247E0,4.283451557E0
3.457562997E0,7.707880139E-1,4.196712017E0,6.153442383E0
3.478022008E0,2.499303341E0,2.884846687E0,1.182742310E1
3.498481018E0,5.403591633E0,3.847359657E0,1.513609886E1
3.518940029E0,1.635195136E0,2.722134829E0,1.332114315E1
3.539398987E0,3.990929127E0,1.534397483E0,9.416654587E0
3.559857997E0,1.448554993E0,2.425125837E0,9.766006470E0
3.580317008E0,1.778764486E0,2.056331873E0,8.777172089E0
3.600776018E0,3.049951553E0,2.487339020E0,9.996016502E0
3.621234977E0,1.435693540E-2,2.358126640E0,8.798707962E0
3.641693987E0,3.648755312E0,1.407577872E0,8.597710609E0
3.662152997E0,4.278367043E0,1.850549221E0,8.501997948E0
3.682612008E0,3.622135162E0,2.128116608E0,7.649554729E0
3.703070966E0,4.208974838E0,2.365305185E0,7.139584541E0
3.723529977E0,3.730111361E0,1.730908036E0,7.503592491E0
3.743988987E0,3.078665495E0,2.094617128E0,7.671090126E0
3.764447997E0,5.161617756E0,7.971090674E-1,9.639186859E0
3.784907008E0,2.633600473E0,-1.663909078E0,7.197311401E0
3.805365966E0,2.336591244E0,-3.903291821E-1,1.050568771E1
3.825824977E0,3.155534744E0,9.502496719E-1,6.917052269E0
3.846283987E0,4.488935471E0,6.320042610E-1,1.123609734E1
3.866742997E0,4.620540619E0,2.751746178E-1,9.011968613E0
3.887202008E0,4.203890324E0,1.051047325E0,9.844969749E0
3.907661018E0,4.302295208E0,5.817549825E-1,9.160323143E0
3.928120029E0,4.124927044E0,1.280758262E0,1.130070305E1
3.948579039E0,4.002892971E0,9.287142754E-1,1.272024536E1
3.969038049E0,1.754836321E0,1.879263043E0,7.211668491E0
3.989497060E0,1.208973646E0,3.186342478E0,7.628019333E0
4.009956018E0,2.652743101E0,2.942274570E0,1.029511929E1
4.030415029E0,3.871287823E0,2.370090723E0,1.076201916E1
4.050874039E0,4.378865242E0,1.785943031E0,9.308678627E0
4.071333049E0,3.488137245E0,5.961119533E-1,4.357629299E0
4.091792060E0,5.513661385E0,1.148554832E-1,7.110870838E0
4.112251070E0,8.082356453E0,-2.631207705E0,1.242114258E1
4.132710081E0,4.675575256E0,-8.596215248E-1,5.334498882E0
4.153169091E0,6.394519329E0,-1.738086581E0,7.034300327E0
4.173628102E0,3.061915636E0,1.192223907E0,5.928217888E0
4.194087112E0,4.024428368E0,1.132403374E0,6.304190159E0
4.214546122E0,8.369794846E0,6.128616929E-1,1.654128456E1
4.235005133E0,2.228914261E0,3.186342478E0,6.244369984E0
4.255464143E0,1.561017632E0,4.462614059E0,8.559425354E0
4.275923154E0,3.425923824E0,3.593421459E0,9.040681839E0
4.296382164E0,3.203391314E0,4.215854168E0,1.241396427E1
4.316841174E0,3.133999348E0,3.495315790E0,7.941778183E0
4.337300185E0,2.102094650E0,3.741776466E0,9.088538170E0
4.357759247E0,3.626920938E0,3.602992773E0,9.991230965E0
4.378218206E0,2.109273195E0,4.290031910E0,7.735995770E0
4.398677268E0,3.473780155E0,1.467398524E0,1.103001499E1
4.419136279E0,-4.501497746E-1,1.819442511E0,4.896313190E0
4.439595289E0,4.199104786E0,1.309472203E0,1.340040493E1
4.460054299E0,2.190629244E0,4.692923427E-1,5.226821899E0
4.480513310E0,5.030012131E0,1.012463093E0,1.132702446E1
4.500972320E0,5.247759342E0,-1.063011408E0,8.015955925E0
4.521431331E0,5.966204166E0,9.550353289E-1,1.234457207E1
4.541890341E0,2.317448616E0,1.261615753E0,1.860718727E0
4.562349404E0,6.744170666E0,-1.441376567E0,1.405873013E1
4.582808414E0,3.672683716E0,-2.748456001E0,7.970492363E0
4.603267424E0,5.075774789E-1,-2.994019389E-1,4.561318398E0
4.623726435E0,2.875275612E0,-7.495517135E-1,1.108744240E1
4.644185445E0,4.567898273E0,1.244267747E-1,1.280668545E1
4.664644508E0,2.464607358E-1,1.421934843E0,4.326522350E0
4.685103518E0,9.358628273E0,-8.835497499E-1,1.195184994E1
4.705562529E0,4.630111694E0,2.286342144E0,7.202096939E0
4.726021539E0,2.271985054E0,3.332603693E0,8.171489716E0
4.746480549E0,4.989334106E0,1.769193292E0,1.789891243E1
4.766939612E0,2.336591244E0,1.055832982E0,9.655936241E0
4.787398622E0,1.747657895E0,2.542374134E0,9.756435394E0
4.807857633E0,3.263211966E0,-4.238287210E-1,1.150409317E1
4.828316643E0,2.980559587E0,8.665009141E-1,9.952646255E0
4.848775706E0,1.862513304E0,1.476969719E0,8.281558990E0
4.869234716E0,5.068297386E0,3.828516230E-2,1.414008617E1
4.889693727E0,2.154736757E0,1.113260746E0,6.064908028E0
4.910152789E0,5.295615673E0,7.372884750E-1,9.565009117E0
4.930611799E0,6.133701801E0,-3.065803945E-1,1.059212875E1
4.951070810E0,1.513161182E0,1.543968797E0,7.551449299E0
4.971529872E0,2.856132984E0,1.467398524E0,8.913862228E0
4.991988883E0,3.480958700E0,2.967100143E-1,1.082183933E1
5.012447893E0,2.913560629E0,1.687837243E0,9.718150139E0
5.032906956E0,1.797907114E0,6.463612318E-1,1.075484085E1
5.053365966E0,4.862514496E0,-2.300100774E-1,7.479664326E0
5.073824977E0,3.017947674E-1,7.540382147E-1,7.477271557E0
5.094284039E0,1.699801445E0,9.358927608E-1,9.964611053E0
5.114743049E0,3.102892876E0,9.454640746E-1,8.772386551E0
5.135202112E0,2.267199516E0,1.814656854E0,9.452547073E0
5.155661122E0,3.952643871E0,5.099703074E-1,1.066152000E1
5.176120185E0,3.842574120E0,4.522434771E-1,7.417450905E0
5.196579195E0,2.545065880E0,1.460219979E0,6.646663189E0
5.217038206E0,3.619742393E0,-3.376871049E-1,7.467700481E0
5.237497268E0,6.042774677E0,-2.392822690E-2,1.220788193E1
5.257956279E0,1.055832982E0,9.885348678E-1,7.364809036E0
5.278415341E0,6.291627884E0,-9.194421172E-1,9.797113419E0
5.298874352E0,1.809871197E0,3.828516230E-2,7.953742504E0
5.319333414E0,3.224926710E0,1.931905150E0,7.795815945E0
5.339792424E0,4.319045067E0,1.096511006E0,1.235175037E1
5.360251487E0,1.637588024E0,3.021237612E0,9.852148056E0
5.380710497E0,3.602992773E0,3.030808926E0,9.045467377E0
5.401169560E0,3.840181351E0,4.421936035E0,9.541081429E0
5.421628570E0,2.063809633E0,4.546362877E0,8.482855797E0
5.442087633E0,2.470589399E0,4.431507587E0,5.949753284E0
5.462546643E0,4.213760853E0,5.085047245E0,1.238764286E1
5.483005706E0,4.369294167E0,3.394817114E0,1.188724422E1
5.503464716E0,1.769193292E0,2.061117649E0,7.156334400E0
5.523923779E0,1.240080357E0,1.757229090E0,7.503592491E0
5.544382841E0,4.383651257E0,1.683051586E0,1.212891865E1
5.564842007E0,2.621636391E0,5.721837282E-1,6.687341213E0
5.585301069E0,3.535993576E0,2.461018085E0,6.653841496E0
5.605760079E0,6.983452797E0,2.584248483E-1,1.056580734E1
5.626219142E0,2.982952595E0,9.358927608E-1,6.670591354E0
5.646678204E0,3.275176048E0,2.032403708E0,6.538686752E0
5.667137215E0,8.099106789E0,1.627119333E-1,1.519831181E1
5.687596277E0,3.329014480E-1,1.067797065E0,5.379962444E0
5.708055340E0,3.215355396E0,1.338186026E0,8.731708527E0
5.728514350E0,4.694717884E0,1.019641519E0,1.067348480E1
5.748973413E0,2.429911375E0,1.113260746E0,8.485248566E0
5.769432475E0,3.559921980E0,4.594219327E-1,1.112124157E1
5.789891486E0,3.492922783E0,5.889334679E-1,8.027919769E0
5.810350548E0,2.047059774E0,1.149153113E0,6.833303452E0
5.830809611E0,7.433602810E0,-4.716851711E-1,1.296461201E1
5.851268621E0,6.583253145E-1,1.398006678E0,6.340082645E0
5.871727684E0,1.482054472E0,1.680658817E0,7.051050186E0
5.892186746E0,7.361817837E0,-4.860421121E-1,1.672583008E1
5.912645809E0,1.369292736E0,3.038884699E-1,3.309273720E0
5.933104819E0,4.431507587E0,1.120439172E0,1.254317665E1
5.953563882E0,2.472982168E0,1.115653515E0,3.917349815E0
5.974022944E0,3.746861219E0,2.377269268E0,1.241874981E1
5.994482007E0,6.846463680E-1,1.398006678E0,5.236393452E0
6.014941069E0,3.988536358E0,5.697908998E-1,1.581356621E1
6.035400079E0,1.709372640E0,7.923234105E-1,5.492724419E0
6.055859142E0,2.743670225E0,4.980062246E-1,1.063519955E1
6.076318204E0,1.517946839E0,1.347757339E0,5.717649937E0
6.096777267E0,4.146462440E0,1.491326690E0,1.368515110E1
6.117236329E0,4.067499161E0,5.889334679E-1,5.324927807E0
6.137695340E0,3.978965044E0,1.175474167E0,1.251206970E1
6.158154402E0,4.357329845E0,1.395613790E0,4.391427994E0
6.178613465E0,3.423531055E0,1.017248750E0,9.837791443E0
6.199072527E0,5.247759342E0,1.998904228E0,6.962515831E0
6.219531590E0,4.536791801E0,4.479363918E0,1.391516113E1
6.239990652E0,5.738586903E0,2.520838737E0,8.178668022E0
6.260449715E0,3.404388428E0,1.582553029E0,9.768399239E0
6.280908725E0,3.902394533E0,3.186342478E0,1.015633583E1
6.301367788E0,4.115355968E0,1.465005636E0,1.097976589E1
6.321826850E0,2.475374937E0,6.320042610E-1,8.003992081E0
6.342285913E0,3.636492252E0,-1.867598057E0,6.835696220E0
6.362744975E0,5.228616714E0,4.290031910E0,8.449356079E0
6.383204038E0,5.451447964E0,4.299602985E0,5.588437080E0
6.403663100E0,4.867300510E0,4.469792843E0,7.034300327E0
6.424122163E0,4.307080746E0,2.449054003E0,5.784648895E0
6.444581225E0,5.994917870E0,3.856930971E0,4.673780918E0
6.465040288E0,6.782455921E0,6.066403389E0,7.297810078E0
6.485499350E0,2.281556368E0,4.878965378E0,8.044670105E0
6.505958413E0,1.788335800E0,3.131307602E0,6.244369984E0
6.526417475E0,1.515554070E0,6.655636311E0,7.867600918E0
6.546876538E0,1.766800404E0,6.789634228E0,6.785446644E0
6.567335600E0,2.559422970E0,4.093820572E0,7.022336483E0
6.587794663E0,2.767598391E0,4.086641788E0,7.805387497E0
6.608253725E0,5.183153152E0,2.580659151E0,7.522735119E0
6.628712788E0,5.302793980E0,3.689134359E0,8.216953278E0
6.649171850E0,4.713860512E0,4.917250633E0,9.196215630E0
6.669630913E0,4.879264355E0,5.362614632E0,8.844171524E0
6.690089975E0,6.088238239E0,5.333900928E0,8.638388634E0
6.710549038E0,7.194320202E0,6.155237198E0,7.295417309E0
6.731008100E0,5.927918911E0,4.642076015E0,6.783053875E0
6.751467163E0,5.834300041E0,6.317949295E0,4.985146999E0
6.771926225E0,6.859025955E0,6.997809887E0,3.529413462E0
6.792385340E0,8.487042427E0,5.999404430E0,3.883850336E0
6.812844402E0,7.936394691E0,5.161617756E0,4.302594185E0
6.833303465E0,6.641279221E0,5.666802406E0,3.677768469E0
6.853762527E0,6.150451660E0,5.025226593E0,4.451248169E0
6.874221590E0,5.034798145E0,4.740181446E0,4.970789909E0
6.894680652E0,4.848157883E0,3.272783279E0,4.985146999E0
6.915139767E0,6.212665081E0,2.176272154E0,4.573282242E0
6.935598829E0,6.811169624E0,2.614158630E0,4.735994339E0
6.956057892E0,7.079464912E0,2.937488794E0,4.774279594E0
6.976516954E0,7.881359577E0,8.625826836E0,9.665508270E0
6.996976017E0,8.772088051E0,5.436792374E0,7.348059177E0
7.017435132E0,6.600601196E0,5.259723186E0,8.909076691E0
7.037894194E0,5.137689114E0,2.760420084E0,8.482855797E0
7.058353257E0,6.066702843E0,4.220640182E0,1.025444126E1
7.078812319E0,4.565505505E0,3.234198809E0,6.751947403E0
7.099271434E0,4.864907742E0,3.164807081E0,8.003992081E0
7.119730496E0,5.269294739E0,2.746062994E0,6.795018196E0
7.140189559E0,5.075475693E0,3.045166016E0,8.650353432E0
7.160648621E0,3.550350666E0,2.975774050E0,4.954040051E0
7.181107736E0,4.503292084E0,4.091427803E0,6.409474373E0
7.201566798E0,4.096213341E0,5.525625706E0,8.499605179E0
7.222025861E0,6.363412857E0,4.165605068E0,6.912266254E0
7.242484975E0,4.357329845E0,4.378566265E0,4.405784607E0
7.262944038E0,4.120141506E0,3.607778311E0,6.383153439E0
7.283403100E0,4.579862595E0,3.461816072E0,6.569793701E0
7.303862215E0,8.673683167E0,1.314257860E0,8.904291153E0
7.324321277E0,1.561017632E0,3.866502285E0,2.780160904E0
7.344780340E0,6.605386734E0,1.840977907E0,6.206084728E0
7.365239454E0,4.577469826E0,2.712563515E0,3.749552965E0
7.385698517E0,8.451150894E0,1.620838284E0,8.482855797E0
7.406157632E0,7.285247803E0,2.171486616E0,4.831707001E0
7.426616694E0,6.770491600E0,2.877668381E0,5.933003902E0
7.447075757E0,4.527220249E0,3.803989887E0,4.350450516E0
7.467534871E0,8.697610855E0,3.212663412E0,9.390034676E0
7.487993934E0,6.332305908E0,3.131307602E0,4.405784607E0
7.508453048E0,7.689933777E0,3.835395575E0,7.223632336E0
7.528912111E0,8.341080666E0,4.261318207E0,8.564210892E0
7.549371225E0,7.950751305E0,4.764110088E0,7.226025105E0
7.569830288E0,7.266105175E0,4.424329281E0,7.113263607E0
7.590289350E0,7.301997185E0,4.898108006E0,6.232405663E0
7.610748465E0,7.156035423E0,4.599005222E0,5.765506268E0
7.631207579E0,6.660421848E0,5.087440014E0,5.152644634E0
7.651666642E0,5.597410202E0,5.039583683E0,4.197309971E0
7.672125704E0,5.197509766E0,5.621338367E0,3.620340586E0
7.692584819E0,6.832705021E0,5.094618320E0,2.114357948E0
7.713043934E0,7.898109436E0,4.065106392E0,2.217548370E0
7.733502996E0,6.559923172E0,5.575874805E0,-1.699203134E0
7.753962111E0,5.537590027E0,5.357829094E0,-3.923331738E0
7.774421173E0,6.114559174E0,4.857429981E0,-4.940879822E0
7.794880288E0,6.880561352E0,2.956631422E0,-6.295815468E0
7.815339402E0,7.462316513E0,2.327019930E0,-5.237888813E0
7.835798465E0,5.544768333E0,2.736491680E0,-4.993521690E0
7.856257579E0,4.718646049E0,2.609373093E0,-4.569693089E0
7.876716642E0,6.042774677E0,1.733300924E0,-4.948058128E0
7.897175757E0,8.436793327E0,8.114659786E-1,-4.790132046E0
7.917634871E0,9.176474571E0,6.176473498E-1,-4.093521118E0
7.938093934E0,8.867800713E0,1.402792215E0,-3.372683525E0
7.958553048E0,7.625327587E0,-2.252244353E-1,-5.283352375E0
7.979012163E0,9.973882675E0,2.463410854E0,-4.124628067E0
7.999471225E0,1.576989746E1,-1.103689432E0,-5.802894115E0
8.019930340E0,1.180050373E1,1.436291814E0,-5.192425251E0
8.040389454E0,1.218604755E1,-1.125224829E0,-4.775774956E0
8.060848517E0,9.224330902E0,-1.015334511E1,-7.191329479E0
8.081307632E0,8.748159409E0,8.135596663E-2,-2.743072033E0
8.101766746E0,8.752944946E0,-6.753742099E-1,-2.139781713E0
8.122225861E0,1.006959629E1,1.311864972E0,-2.836392164E0
8.142684923E0,9.071190834E0,-8.739784956E-1,-3.114258766E0
8.163144038E0,6.899703979E0,-1.654038578E-1,-1.725524187E0
8.183603152E0,9.303593636E0,1.890329868E-1,-2.252244234E0
8.204062267E0,9.533304214E0,4.980062246E-1,-2.482254505E0
8.224521382E0,9.751050949E0,-5.024927482E-2,-2.094317913E0
8.244980444E0,8.625826836E0,9.550353289E-1,-4.440480709E0
8.265439559E0,9.356235504E0,-7.064808607E-1,-3.485146284E0
8.285898673E0,1.040489006E1,2.775674164E-1,-4.054936886E0
8.306357788E0,1.075663471E1,-5.291129351E-1,-3.602693558E0
8.326816902E0,1.101535892E1,-2.347957194E-1,-1.321137190E0
8.347276017E0,1.090977573E1,1.266401410E0,-1.416850090E0
8.367735132E0,1.017966557E1,2.871387079E-2,-1.359422326E0
8.388194246E0,9.952347755E0,-1.086939692E0,-1.835893154E0
8.408653309E0,9.152546883E0,-5.697908998E-1,-4.488337040E0
8.429112423E0,9.384949684E0,7.013961077E-1,-2.676073074E0
8.449571538E0,7.179963589E0,-3.224926710E0,-4.215555191E0
8.470030652E0,1.026819992E1,-1.568196177E0,-4.196412563E0
8.490489767E0,8.281260490E0,7.683951855E-1,-1.857428551E0
8.510948882E0,9.131011009E0,1.204187989E0,-3.815654755E0
8.531407996E0,1.051496029E1,-1.055832982E0,-1.115055323E0
8.551867111E0,1.207597733E1,6.798607111E-1,-5.843572140E0
8.572326225E0,8.721838951E0,2.415554523E0,-4.179663181E0
8.592785340E0,8.788837433E0,3.224627733E0,-4.325624943E0
8.613244454E0,1.044556808E1,2.415554523E0,-3.650550127E0
8.633703569E0,1.137189007E1,1.340578914E0,-5.309075117E-1
8.654162684E0,8.731410027E0,3.057130098E0,-1.550848126E0
8.674621798E0,8.152048111E0,-6.248258352E-1,-3.016152859E0
8.695080913E0,9.289237022E0,4.196712017E0,-2.170888424E0
8.715540027E0,9.308379173E0,3.935894251E0,-1.823929071E0
8.735999142E0,9.813264847E0,3.140878916E0,-2.391327143E0
8.756458257E0,8.448758125E0,1.797907114E0,-2.688037157E0
8.776917371E0,1.025145054E1,1.692622900E0,-2.788535595E0
8.797376486E0,1.010548782E1,3.315854073E0,-2.556432009E0
8.817835600E0,9.272486687E0,1.637588024E0,-2.633002281E0
8.838294715E0,8.843872070E0,1.888834357E0,-1.766202211E0
8.858753829E0,8.551649094E0,1.914258115E-2,-3.578765392E0
8.879212996E0,9.777372360E0,6.726822853E-1,-2.793321371E0
8.899672111E0,9.722337723E0,1.587338686E0,-1.505384564E0
8.920131225E0,1.154925728E1,3.878466368E0,-1.983051747E-1
8.940590340E0,8.721838951E0,2.279163599E0,-9.930213690E-1
8.961049454E0,8.549256325E0,-2.012962103E-1,-2.170888424E0
8.981508621E0,9.794121742E0,1.522433400E0,-1.589133382E0
9.001967736E0,9.691230774E0,-1.199402362E-1,-8.494520187E-1
9.022426850E0,1.323709488E1,8.401798606E-1,-3.355933666E0
9.042885965E0,1.407727432E1,5.889334679E-1,-3.276970625E0
9.063345132E0,1.661037636E1,2.358126640E0,-1.129412293E0
9.083804246E0,1.431924915E1,4.041178226E0,1.573580027E0
9.104263361E0,1.339502144E1,6.736992359E0,1.307677627E0
9.124722475E0,1.301665592E1,7.560422421E0,2.629113913E0
9.145181642E0,1.243490124E1,8.750253677E0,4.925326347E0
9.165640757E0,1.103689480E1,7.696813107E0,4.767100811E0
9.186099871E0,8.853444099E0,7.071987152E0,5.116752148E0
9.206559038E0,7.644470215E0,5.781657696E0,4.949254513E0
9.227018152E0,6.164808273E0,4.426722050E0,4.654638290E0
9.247477267E0,5.254937649E0,3.631706476E0,4.111168385E0
9.267936434E0,4.290330887E0,2.808276415E0,3.457628727E0
9.288395548E0,3.294318676E0,2.484946251E0,3.225225925E0
9.308854663E0,3.189034462E0,2.810669184E0,2.902194738E0
9.329313829E0,2.963809967E0,3.313461065E0,2.904587507E0
9.349772944E0,2.710170746E0,3.715455294E0,2.708376169E0
9.370232111E0,2.621636391E0,4.278067589E0,3.043371201E0
9.390691225E0,2.295913219E0,4.730610371E0,3.318845034E0
9.411150340E0,2.154736757E0,5.221437931E0,3.771088600E0
9.431609507E0,2.126022816E0,5.805585861E0,4.759922504E0
9.452068621E0,2.020738840E0,6.404090881E0,5.473282814E0
9.472527788E0,2.238485575E0,6.339484692E0,5.763113499E0
9.492986902E0,1.996810555E0,6.289235115E0,5.980860233E0
9.513446069E0,1.876870275E0,6.564409733E0,6.292226315E0
9.533905184E0,1.678265929E0,6.619444847E0,6.675376892E0
9.554364350E0,1.680658817E0,6.631408691E0,7.340880871E0
9.574823465E0,1.192223907E0,6.506981850E0,6.902695179E0
9.595282579E0,1.254437327E0,6.518946171E0,7.182954311E0
9.615741746E0,1.876870275E0,6.552445889E0,6.902695179E0
9.636200913E0,1.339980662E-1,5.683551788E0,6.225227356E0
9.656660027E0,2.446661234E0,6.428019047E0,7.458128929E0
9.677119194E0,2.401197433E0,5.108975410E0,5.913861275E0
9.697578309E0,2.619243383E0,5.678766251E0,6.447759628E0
9.718037475E0,2.425125837E0,6.411269188E0,6.974479675E0
9.738496642E0,2.348555326E0,6.530910492E0,6.586543560E0
9.758955757E0,3.105285645E0,6.772884369E0,5.229214668E0
9.779414923E0,4.086641788E0,5.376971722E0,5.968895912E0
9.799874038E0,3.777967930E0,5.583053589E0,6.876374245E0
9.820333204E0,4.610969067E0,7.644171238E0,6.354439735E0
9.840792371E0,3.030808926E0,3.689134359E0,6.380760670E0
9.861251486E0,5.860620975E0,3.595814228E0,4.144668102E0
9.881710652E0,7.024429798E0,4.508078098E0,3.874279022E0
9.902169819E0,6.734599113E0,4.232604027E0,4.716851711E0
9.922628986E0,2.439482689E0,7.682456017E0,5.035396099E0
9.943088100E0,1.180259824E0,7.476673603E0,3.658625841E0
9.963547267E0,6.531209469E0,7.002595425E0,2.092822552E0
9.984006434E0,8.999405861E0,7.266105175E0,7.689933777E-1
1.000446560E1,8.434400558E0,8.685647011E0,4.060919285E0
1.002492472E1,7.258926392E0,7.500601768E0,2.976372242E0
1.004538388E1,8.393722534E0,7.278069019E0,2.411366940E0
1.006584305E1,8.477471352E0,7.874181271E0,2.854338408E0
1.008630222E1,7.986643791E0,6.490232468E0,9.891330600E-1
1.010676138E1,9.255437851E0,8.365009308E0,2.213360928E-2
1.012722055E1,8.577970505E0,8.965906143E0,1.472782373E0
1.014767966E1,7.053143978E0,6.186343670E0,1.446461320E0
1.016813883E1,7.285247803E0,6.835097790E0,6.828517914E-1
1.018859800E1,9.023334503E0,6.509375095E0,8.575277925E-1
1.020905716E1,8.613862038E0,6.140880108E0,3.403790295E-1
1.022951633E1,7.486244678E0,5.796014786E0,-2.270190418E-1
1.024997550E1,9.559625626E0,4.610969067E0,1.178465188E-1
1.027043466E1,8.101499557E0,5.494219780E0,-4.758726060E-1
1.029089383E1,1.079731274E1,4.081856251E0,-2.916252613E-1
1.031135300E1,9.286844254E0,4.680361271E0,1.037288666E0
1.033181216E1,8.927620888E0,4.201497555E0,-4.088735580E-1
1.035227133E1,7.929215908E0,3.605385542E0,-1.656132340E0
1.037273050E1,7.955537319E0,3.037987471E0,-2.024926186E0
1.039318966E1,7.826324463E0,2.748456001E0,-1.359422326E0
1.041364883E1,7.816753387E0,3.078665495E0,-2.333600283E0
1.043410800E1,8.350651741E0,3.358924866E0,-1.148554921E0
1.045456716E1,7.447959423E0,3.727419376E0,-3.131008387E0
1.047502633E1,8.161619186E0,2.726920605E0,-2.778964281E0
1.049548550E1,9.428020477E0,3.741776466E0,-2.046461582E0
1.051594466E1,6.658029079E0,1.120678520E1,7.999206066E0
1.053640383E1,1.358644676E1,8.506185532E0,1.235892892E0
1.055686300E1,1.197278690E1,4.074677944E0,-1.440778375E0
1.057732216E1,1.159232807E1,5.499005318E0,1.441675574E-1
1.059778138E1,1.051017475E1,3.023630619E0,-3.729812205E-1
1.061824055E1,8.927620888E0,2.240878344E0,-6.457630396E-1
1.063869972E1,7.991429329E0,7.731808424E-1,-1.467099428E0
1.065915888E1,7.622934818E0,4.096213341E0,1.434497118E0
1.067961805E1,7.816753387E0,-3.664009571E-1,1.571187139E0
1.070007722E1,8.108677864E0,-3.879363835E-1,-2.093719877E-2
1.072053643E1,8.432007790E0,7.827520967E-1,8.958129883E-1
1.074099560E1,9.729516029E0,5.650052428E-1,1.049252748E0
1.076145477E1,1.108235836E1,1.357328653E0,-1.165304661E0
1.078191393E1,1.428305721E1,1.831406593E0,1.211964726E0
1.080237315E1,1.302622700E1,2.461018085E0,2.088036776E0
1.082283232E1,9.767801285E0,2.255235434E0,1.106680512E0
1.084329149E1,8.779266357E0,1.170688510E0,-1.797308922E0
1.086375065E1,8.913264275E0,-7.136593461E-1,4.422534466E0
1.088420987E1,9.372985840E0,4.980062246E-1,1.788933992E0
1.090466904E1,1.104407310E1,1.323829174E0,4.422534466E0
1.092512820E1,8.851051331E0,5.482555032E-1,6.948158741E-1
1.094558742E1,8.477471352E0,6.320042610E-1,-9.595218897E-1
1.096604659E1,8.168797493E0,-5.024927482E-2,-2.376970291E0
1.098650581E1,1.061306572E1,2.751746178E-1,-2.185245275E0
1.100696498E1,1.003609657E1,-7.974081635E-1,-1.450349569E0
1.102742414E1,9.416056633E0,-8.069794178E-1,-1.290030479E0
1.104788336E1,9.028120041E0,-1.460519075E0,-1.201196909E0
1.106834253E1,6.325127602E0,-6.056832075E-1,-1.950748682E0
1.108880175E1,1.573400497E1,-2.149951220E0,1.872682810E0
1.110926091E1,9.978668213E0,-1.441376567E0,-1.797308922E0
1.112972008E1,9.382556915E0,7.181459069E-1,-4.557728767E0
1.115017930E1,1.354816151E1,-1.197009563E0,-2.294118702E-1
1.117063847E1,1.155643559E1,-1.132403374E0,4.261916161E0
1.119109768E1,6.559923172E0,-1.927418590E0,-3.798905134E0
1.121155685E1,7.136892796E0,7.731808424E-1,-2.900998354E0
1.123201607E1,1.072792149E1,1.938186288E-1,-4.320839405E0
1.125247524E1,9.748658180E0,8.425726891E-1,-1.917249203E0
1.127293445E1,9.648159981E0,1.563111424E0,-3.037688255E0
1.129339362E1,1.339262867E1,1.520040631E0,6.900302172E-1
1.131385284E1,9.339486122E0,1.089332461E0,3.450450182E0
1.133431201E1,9.923633575E0,-1.151545867E-1,1.223928809E0
1.135477122E1,8.879764557E0,-9.146564603E-1,2.502294302E0
1.137523039E1,1.077817059E1,-3.855435550E-1,1.970788598E0
1.139568961E1,8.920442581E0,1.115653515E0,-2.222333997E-1
1.141614878E1,9.712766647E0,6.439684033E-1,-4.047758579E0
1.143660800E1,1.074945641E1,5.697908998E-1,-1.826321840E0
1.145706716E1,9.456734657E0,2.293520451E0,-1.380957723E0
1.147752638E1,1.229851055E1,2.027618170E0,-9.020941257E-1
1.149798560E1,8.762516975E0,2.575873613E0,-3.530908823E0
1.151844477E1,1.030409241E1,1.146760225E0,2.083251238E0
1.153890399E1,8.927620888E0,-1.046261668E0,2.828017235E0
1.155936315E1,8.252546310E0,4.450650215E-1,9.173483849E-1
1.157982237E1,1.054367352E1,6.439684033E-1,-1.273280740E0
1.160028159E1,9.349057198E0,1.074975610E0,-1.361815214E0
1.162074076E1,8.415258408E0,2.823530734E-1,-7.680960894E-1
1.164119998E1,8.372187614E0,1.750050664E0,-1.086341500E0
1.166165919E1,1.030409241E1,2.089831591E0,4.411766827E-1
1.168211836E1,1.095793152E1,-6.559324861E-1,2.121835470E0
1.170257758E1,8.877371788E0,-5.003990531E-1,1.211964726E0
1.172303680E1,1.064417267E1,-3.640081584E-1,2.638086975E-1
1.174349602E1,9.827920914E0,6.056832075E-1,4.818546474E-1
1.176395518E1,1.108953667E1,8.856434822E-1,1.539781332E0
1.178441440E1,9.109476089E0,1.869691849E0,-6.218347549E-1
1.180487362E1,1.040967560E1,2.434697151E0,-1.349851131E0
1.182533284E1,1.007677460E1,1.500898004E0,-6.400800496E-2
1.184579201E1,9.921240807E0,1.493719578E0,-1.263709426E0
1.186625123E1,9.296415329E0,9.789635539E-1,4.025924206E-1
1.188671044E1,1.128096199E1,6.726822853E-1,1.049252748E0
1.190716966E1,9.380164146E0,9.693922997E-1,1.788933992E0
1.192762883E1,1.112782192E1,-4.501497746E-1,8.575277925E-1
1.194808805E1,1.074227810E1,-3.975076675E-1,2.215155602E0
1.196854727E1,1.170000553E1,-3.879363835E-1,3.656233072E0
1.198900649E1,1.260718441E1,1.433898926E0,1.204786181E0
1.200946570E1,1.193689442E1,2.125723839E0,1.607079506E0
1.202992492E1,1.384756374E1,4.010071754E0,3.337987661E0
1.205038414E1,1.173829079E1,3.471387386E0,4.764708042E0
1.207084331E1,1.104885864E1,4.589433670E0,4.623531342E0
1.209130253E1,9.095118523E0,5.568696499E0,4.671388149E0
1.211176175E1,7.730611801E0,6.222236156E0,4.053740501E0
1.213222096E1,6.073881149E0,5.590231895E0,4.077668667E0
1.215268018E1,3.334996462E0,4.797609329E0,3.495913982E0
1.217313940E1,1.520339727E0,4.244568348E0,4.645066738E0
1.219359862E1,9.242277741E-1,4.668396950E0,5.068895817E0
1.221405784E1,2.536391914E-1,4.144069672E0,5.420640469E0
1.223451701E1,-3.589234129E-2,3.833002806E0,4.862813950E0
1.225497622E1,5.291129351E-1,3.399602890E0,5.351248741E0
1.227543544E1,1.010369420E0,5.798407555E0,9.598508835E0
1.229589466E1,-1.034297585E0,4.716253281E0,7.376772881E0
1.231635388E1,-1.472483277E0,2.690729141E0,7.774280548E0
1.233681310E1,2.044667006E0,4.072285175E0,8.707780838E0
1.235727232E1,4.036392689E0,4.038785458E0,8.822636604E0
1.237773154E1,3.375674486E0,3.052344322E0,8.147561073E0
1.239819076E1,-4.153641224E0,1.541576028E0,1.178674507E1
1.241864998E1,3.413959742E0,3.167199850E0,8.683852196E0
1.243910919E1,1.903191328E0,1.764407635E0,9.500403404E0
1.245956841E1,2.547458887E0,2.164308071E0,8.291429520E0
1.248002763E1,2.355733871E0,2.382055044E0,7.994420528E0
1.250048685E1,3.835395575E0,2.614158630E0,7.735995770E0
1.252094607E1,2.691028118E0,1.819442511E0,8.916254997E0
1.254140529E1,2.791526794E0,2.633301258E0,8.039883614E0
1.256186451E1,3.061915636E0,1.864906192E0,8.152346611E0
1.258232372E1,3.102892876E0,2.583052158E0,7.115656376E0
1.260278294E1,4.931906700E0,2.348555326E0,9.339784622E0
1.262324216E1,5.528018475E0,1.953440547E0,9.426225662E0
1.264370143E1,4.599005222E0,1.316650629E0,8.695816994E0
1.266416065E1,5.492125988E0,4.067798331E-2,8.595317841E0
1.268461987E1,5.288437366E0,1.287936807E0,8.341678619E0
1.270507909E1,2.915953398E0,5.315057039E-1,1.013001442E1
1.272553831E1,1.637588024E0,-1.558325738E-1,9.526723862E0
1.274599753E1,2.274377823E0,-4.956133962E-1,9.694221497E0
1.276645680E1,3.138785124E0,-3.711866140E-1,8.885149002E0
1.278691602E1,2.523231506E0,-3.903291821E-1,1.008215809E1
1.280737524E1,3.234498024E0,-5.554339290E-1,8.585746765E0
1.282783445E1,4.606183529E0,-1.079761237E-1,1.578963852E1
1.284829367E1,2.202593327E0,-2.324029058E-1,7.711768150E0
1.286875294E1,-8.614161611E-2,1.991725802E0,9.011968613E0
1.288921216E1,1.058225870E0,4.112963200E0,1.071894836E1
1.290967138E1,1.606481314E0,2.458625317E0,1.026879883E1
1.293013060E1,1.943869352E0,2.348555326E0,1.025204849E1
1.295058987E1,1.465304732E0,-7.178468257E-2,1.308425331E1
1.297104909E1,6.822535396E-1,-1.446162224E0,7.836493969E0
1.299150831E1,-2.656033039E-1,1.347757339E0,8.219346046E0
1.301196753E1,1.151545882E0,1.953440547E0,1.033101177E1
1.303242680E1,1.984846354E0,5.219344497E-1,1.029751205E1
1.305288602E1,3.129213810E0,5.503492057E-2,8.832207680E0
1.307334524E1,2.319841623E0,3.589234054E-1,8.851349831E0
1.309380451E1,3.021237612E0,2.009970993E-1,1.010369396E1
1.311426372E1,1.589731574E0,-3.687937856E-1,1.038365364E1
1.313472294E1,2.841775894E0,-6.825526357E-1,8.624032021E0
1.315518222E1,3.708575964E0,1.036690354E0,1.002712345E1
1.317564143E1,2.860918522E0,1.024726272E0,7.584948540E0
1.319610070E1,1.522732496E0,1.240080357E0,6.227620125E0
1.321655992E1,4.386044025E0,1.218544960E0,1.344108295E1
1.323701914E1,3.579064369E0,1.891227245E0,1.106351471E1
1.325747841E1,3.442673683E0,6.583253145E-1,1.028794098E1
1.327793763E1,6.343970895E-1,2.386840582E0,4.482355118E0
1.329839690E1,1.558624864E0,3.500101328E0,1.118584728E1
1.331885612E1,2.183450699E0,2.695514679E0,1.069980526E1
1.333931534E1,2.370090723E0,3.081058264E0,1.190638638E1
1.335977461E1,2.090130568E0,3.188735247E0,9.416654587E0
1.338023383E1,2.027917147E0,3.344567776E0,8.559425354E0
1.340069310E1,9.218349457E-1,3.171985626E0,9.442975044E0
1.342115232E1,4.462614059E0,1.082154036E0,1.124088287E1
1.344161159E1,2.153540403E-1,1.527219057E0,5.650650501E0
1.346207081E1,2.377269268E0,2.037189484E0,9.598508835E0
1.348253008E1,3.950251102E0,1.024726272E0,1.175324535E1
1.350298930E1,3.150749207E0,1.220339537E-1,1.039083195E1
1.352344857E1,3.198605776E0,2.225325108E-1,6.141478539E0
1.354390779E1,4.225724697E0,8.186444640E-1,9.385248184E0
1.356436706E1,2.994916677E0,7.564310431E-1,8.075776100E0
1.358482633E1,2.875275612E0,1.601695657E0,8.583353996E0
1.360528555E1,2.982952595E0,1.695015788E0,9.201001167E0
1.362574482E1,2.765205622E0,9.598209858E-1,1.004387283E1
1.364620404E1,4.369294167E0,4.378865361E-1,1.093430233E1
1.366666331E1,3.512065411E0,1.388435364E0,9.172286987E0
1.368712253E1,2.508874655E0,1.230509043E0,9.177073479E0
1.370758180E1,1.364507079E0,9.191430211E-1,8.080561638E0
1.372804107E1,9.290133715E-1,3.493520916E-1,1.207388401E1
1.374850029E1,1.692622900E0,1.958226204E0,9.414261818E0
1.376895956E1,2.092523336E0,1.206580877E0,8.482855797E0
1.378941878E1,2.025524378E0,1.335793257E0,9.991230965E0
1.380987805E1,2.061416626E0,1.529611826E0,8.480463028E0
1.383033732E1,2.020738840E0,1.616052628E0,9.284749985E0
1.385079659E1,1.328614831E0,1.393221021E0,6.375975132E0
1.387125581E1,2.011167526E0,1.534397483E0,1.211695480E1
1.389171508E1,3.789932013E0,1.333400369E0,9.648757935E0
1.391217435E1,9.936196208E-1,7.205387354E-1,6.797410965E0
1.393263357E1,4.429712892E-1,6.822535396E-1,1.184656620E1
1.395309284E1,2.013560295E0,5.482555032E-1,1.230389404E1
1.397355211E1,1.024726272E0,2.895315289E-1,6.052944183E0
1.399401133E1,1.819442511E0,7.229315639E-1,1.273220921E1
1.401447060E1,5.238187790E0,2.081755698E-1,9.967003822E0
1.403492987E1,3.346960783E0,7.109674215E-1,8.109275818E0
1.405538909E1,3.476173162E0,-2.300100774E-1,7.819744587E0
1.407584836E1,5.331807137E0,-1.271187067E-1,1.007737255E1
1.409630763E1,3.165106058E0,7.417750359E-2,7.764709473E0
1.411676690E1,1.840977907E0,1.378864050E0,6.244369984E0
1.413722612E1,3.768396616E0,1.046261668E0,1.658435440E1
1.415768539E1,2.779562712E0,1.924726725E0,7.441379547E0
1.417814466E1,3.679862022E0,2.125723839E0,5.286642551E0
1.419860393E1,3.172284603E0,2.499303341E0,9.677472115E0
1.421906315E1,2.963809967E0,1.342971683E0,9.519545555E0
1.423952242E1,2.966202736E0,1.960619092E0,7.556234837E0
1.425998169E1,3.382853031E0,1.378864050E0,7.132406235E0
1.428044096E1,3.454637766E0,1.783550143E0,1.232542896E1
1.430090024E1,6.023632050E0,2.368894368E-1,1.407308769E1
1.432135945E1,1.096511006E0,2.847459018E-1,1.045304585E1
1.434181873E1,4.956133962E-1,-2.180459648E-1,6.581758022E0
1.436227800E1,3.301496983E0,1.192223907E0,1.259103298E1
1.438273727E1,2.508874655E0,2.252842426E0,1.068544865E1
1.440319654E1,2.283949137E0,2.623729944E0,8.722137451E0
1.442365581E1,4.043570995E0,2.513660192E0,1.026401234E1
1.444411503E1,8.234301209E-1,3.104986429E0,6.091228962E0
1.446457430E1,2.262413740E0,3.061915636E0,8.056633949E0
1.448503357E1,2.020738840E0,3.392424345E0,9.303893089E0
1.450549284E1,2.846561670E0,2.791526794E0,1.154477119E1
1.452595211E1,2.410768747E0,2.999702215E0,9.088538170E0
1.454641138E1,1.604088426E0,4.127319813E0,9.660722733E0
1.456687065E1,1.316650629E0,3.457030535E0,6.682555676E0
1.458732992E1,2.444268227E0,3.739383698E0,1.205234814E1
1.460778914E1,2.743670225E0,1.785943031E0,1.082423210E1
1.462824841E1,1.017547846E0,1.939083695E0,7.281060219E0
1.464870768E1,1.132403374E0,3.595814228E0,7.010372162E0
1.466916695E1,5.906383514E0,1.852941990E0,1.163569832E1
1.468962623E1,1.785943031E0,-2.635096014E-1,6.828517437E0
1.471008550E1,4.395615101E0,1.405185103E0,5.609972477E0
1.473054477E1,4.867300510E0,1.896012783E0,1.055384350E1
1.475100404E1,2.513660192E0,1.089332461E0,6.390331745E0
1.477146331E1,5.008476734E0,1.316650629E0,1.053709316E1
1.479192258E1,3.766003847E0,8.114659786E-1,9.014361382E0
1.481238185E1,2.592922449E0,1.280758262E0,5.593223095E0
1.483284112E1,3.440280676E0,1.259222865E0,1.059930706E1
1.485330039E1,5.008476734E0,1.414756417E0,1.260538960E1
1.487375966E1,8.306085467E-1,2.085045815E0,6.986443996E0
1.489421893E1,2.116451740E0,6.798607111E-1,7.489235878E0
1.491467820E1,3.153141975E0,1.328614831E0,9.859326363E0
1.493513748E1,2.035095692E0,1.706979871E0,1.036929703E1
1.495559675E1,2.494517565E0,1.632802367E0,8.535497665E0
1.497605602E1,3.512065411E0,1.335793257E0,8.640781403E0
1.499651529E1,3.311068296E0,2.943171859E-1,9.866504669E0
1.501697456E1,3.911965847E0,-3.616153300E-1,6.194120407E0
1.503743383E1,4.543970108E0,5.503492057E-2,1.111645603E1
1.505789310E1,3.689433336E0,3.086741269E-1,4.973182678E0
1.507835237E1,5.504090309E0,-5.291129351E-1,1.104676437E1
1.509881164E1,2.420340061E0,-5.985047817E-1,8.066205025E0
1.511927091E1,5.496912003E0,-5.003990531E-1,8.781958580E0
1.513973024E1,5.906383514E0,3.302095234E-1,8.051848412E0
1.516018951E1,2.260020971E0,-5.554339290E-1,9.045467377E0
1.518064878E1,2.731706142E0,-4.046861231E-1,9.318249702E0
1.520110805E1,3.086143017E0,1.172483116E-1,8.899505615E0
1.522156732E1,2.545065880E0,1.929512382E0,1.027358437E1
1.524202659E1,1.795514345E0,2.135295153E0,9.433403969E0
1.526248586E1,3.461816072E0,1.931905150E0,1.377847099E1
1.528294513E1,1.704586983E0,2.408375978E0,9.134002686E0
1.530340440E1,2.595315218E0,1.493719578E0,1.028794098E1
1.532386372E1,5.745765567E-1,2.346162558E0,1.178913784E1
1.534432300E1,1.321436286E0,2.065903187E0,1.016590691E1
1.536478227E1,2.712563515E0,1.505683661E0,1.168146133E1
1.538524154E1,2.951845884E0,9.406784177E-1,1.100608730E1
1.540570081E1,1.450947881E0,1.836192250E0,1.017547798E1
1.542616008E1,1.096511006E0,1.469791293E0,1.079312611E1
1.544661940E1,3.631706476E0,8.712865710E-1,1.003669453E1
1.546707867E1,1.826620936E0,1.555334777E-1,8.669495583E0
1.548753794E1,3.006880760E0,4.259224236E-1,9.945467949E0
1.550799722E1,2.468196630E0,1.189831018E0,1.095105171E1
1.552845649E1,4.079463482E0,-2.632104978E-2,1.285932827E1
1.554891576E1,-7.178468257E-2,1.412363529E0,2.751446962E0
1.556937508E1,8.691928387E-1,7.277171612E-1,8.262416840E0
1.558983435E1,4.247260094E0,7.612167001E-1,1.325892925E1
1.561029362E1,-2.826521695E-1,1.644766450E0,7.108478069E0
1.563075289E1,3.244069338E0,1.917548299E0,1.187049389E1
1.565121216E1,3.124428272E0,1.273579836E0,9.763613701E0
1.567167149E1,2.655135870E0,8.832506537E-1,9.083752632E0
1.569213076E1,3.792324781E0,6.699903309E-2,8.312965393E0
1.571259003E1,1.216152072E0,2.573480844E0,7.958528042E0
1.573304930E1,1.165902853E0,1.836192250E0,8.940183640E0
1.575350857E1,3.696611881E0,1.151545882E0,1.123370457E1
1.577396789E1,2.959024191E0,2.281556368E0,7.632805347E0
1.579442716E1,3.030808926E0,1.795514345E0,8.568997383E0
1.581488643E1,2.396411896E0,1.831406593E0,9.409176826E0
1.583534570E1,2.990130901E0,1.378864050E0,1.045543861E1
1.585580498E1,6.090631008E0,2.608176768E-1,1.101326561E1
1.587626430E1,1.836192250E0,1.340578914E0,5.602794170E0
1.589672357E1,3.339782238E0,2.009970993E-1,8.394320488E0
1.591718284E1,3.480958700E0,2.149951220E0,9.268000603E0
1.593764211E1,8.357830048E0,-1.079761237E-1,1.350090313E1
1.595810143E1,1.572981834E0,2.439482689E0,4.106382847E0
1.597856070E1,1.003190875E0,1.151545882E0,8.368000031E0
1.599901998E1,6.648457527E0,1.450648785E0,1.291197014E1
1.601947925E1,2.705385208E0,1.635195136E0,7.321738243E0
1.603993857E1,1.953440547E0,7.540382147E-1,8.283951759E0
1.606039784E1,7.122535706E0,9.571290575E-3,1.261735344E1
1.608085711E1,2.094916344E0,1.869691849E0,7.326523781E0
1.610131638E1,2.980559587E0,1.014855862E0,7.920242786E0
1.612177565E1,2.200200319E0,2.693121910E0,9.459725380E0
1.614223498E1,7.851449251E-1,2.271985054E0,7.972885132E0
1.616269425E1,3.696611881E0,1.319043517E0,8.590532303E0
1.618315352E1,3.174677372E0,3.775275946E0,1.103719330E1
1.620361284E1,3.448655605E-1,2.190629244E0,1.020658493E1
1.622407211E1,-1.244267747E-1,5.434698462E-1,9.967003822E0
1.624453138E1,1.903191328E0,-4.546362907E-2,1.075005436E1
1.626499065E1,1.225723386E0,8.880363107E-1,9.651150703E0
1.628544992E1,3.257229924E-1,8.665009141E-1,9.009575844E0
1.630590925E1,3.330210924E0,1.546361685E0,1.074766159E1
1.632636852E1,4.555934429E0,4.474578202E-1,1.026640511E1
1.634682779E1,3.014059305E0,7.277171612E-1,7.297810078E0
1.636728706E1,2.420340061E0,2.099402666E0,8.190631866E0
1.638774638E1,2.774776936E0,1.137188911E0,1.096540928E1
1.640820565E1,1.522732496E0,9.669994712E-1,8.094919205E0
1.642866492E1,2.221735716E0,1.951047778E0,8.552247047E0
1.644912425E1,1.427019596E0,1.884048700E0,8.068597794E0
1.646958352E1,4.565505505E0,9.000003934E-1,1.499940872E1
1.649004279E1,2.624029160E0,1.299900889E0,7.180561543E0
1.651050206E1,1.994417667E0,1.709372640E0,9.878469467E0
1.653096138E1,8.979067206E-1,2.257628202E0,9.806684494E0
1.655142065E1,1.594517231E0,1.582553029E0,9.809077263E0
1.657187992E1,1.919941068E0,2.606980324E0,7.173383236E0
1.659233919E1,4.084249020E0,3.049951553E0,1.072851944E1
1.661279852E1,4.625326157E0,1.876870275E0,9.337391853E0
1.663325779E1,2.784348249E0,7.612167001E-1,1.014676476E1
1.665371706E1,2.312663078E0,3.038884699E-1,5.123930454E0
1.667417638E1,2.698206663E0,7.037889361E-1,1.154716396E1
1.669463565E1,3.483351469E0,4.932205677E-1,8.274380684E0
1.671509492E1,3.035594702E0,1.675873160E0,8.655138969E0
1.673555419E1,3.023630619E0,1.592124343E0,6.038288116E0
1.675601352E1,2.815454960E0,1.558325768E0,7.247560501E0
1.677647279E1,1.038574791E1,-5.506483316E-1,1.019940662E1
1.679693206E1,3.562314749E0,2.245664120E0,7.793423176E0
1.681739138E1,1.692622900E0,9.810572863E-2,7.604091167E0
1.683785065E1,2.604886532E0,1.364507079E0,1.062562847E1
1.685830992E1,1.881655931E0,1.022333503E0,1.107547855E1
1.687876919E1,3.935894251E0,1.733300924E0,1.227996540E1
1.689922852E1,1.132403374E0,2.896811008E0,5.648257732E0
1.691968779E1,4.481756687E0,3.658027649E0,1.140359497E1
1.694014706E1,2.915953398E0,3.840181351E0,9.035896301E0
1.696060638E1,2.032702923E0,4.520041943E0,7.108478069E0
1.698106565E1,1.028255749E1,3.698705673E0,1.283539963E1
1.700152492E1,6.822535396E-1,3.193521023E0,6.297011852E0
1.702198425E1,1.723729610E0,2.583052158E0,6.562615395E0
1.704244352E1,3.018844843E0,3.097808123E0,8.023134232E0
1.706290279E1,1.697408557E0,1.809871197E0,1.086730289E1
1.708336211E1,1.907976985E0,2.987738132E0,9.378069878E0
1.710382138E1,1.053440213E0,2.094617128E0,1.021137047E1
1.712428065E1,3.181855917E0,1.357328653E0,1.235175037E1
1.714473992E1,1.508375525E0,2.034796476E0,8.961718559E0
1.716519925E1,2.880061150E0,1.819442511E0,1.064237785E1
1.718565852E1,4.266402721E0,3.124129057E0,1.404198074E1
1.720611779E1,2.746062994E0,3.076272726E0,7.237989426E0
1.722657711E1,3.919144392E0,2.408375978E0,1.052004433E1
1.724703638E1,3.777967930E0,1.261615753E0,1.039801121E1
1.726749565E1,3.478565931E0,1.024726272E0,7.324131012E0
1.728795498E1,2.444268227E0,1.472184181E0,5.854040623E0
1.730841425E1,4.302295208E0,1.228116274E0,8.652746201E0
1.732887352E1,8.353942037E-1,2.492124796E0,6.270690918E0
1.734933284E1,2.489732027E0,1.886441588E0,9.062217712E0
1.736979211E1,3.437887907E0,2.472982168E0,5.760720730E0
1.739025138E1,2.705385208E0,1.086939692E0,1.347936821E1
1.741071070E1,1.034297585E0,-7.178468257E-2,4.103990078E0
1.743116998E1,2.798705101E0,1.654337764E0,8.209774017E0
1.745162925E1,3.581457376E0,2.712563515E0,6.682555676E0
1.747208857E1,7.540382147E-1,2.281556368E0,1.714936066E1
1.749254784E1,1.232901812E0,7.205387354E-1,4.029812336E0
1.751300711E1,3.504886866E0,2.171486616E0,9.775577545E0
1.753346643E1,3.691826344E0,2.420340061E0,6.253941059E0
1.755392570E1,1.977667928E0,7.205387354E-1,1.166710377E1
1.757438498E1,2.781955481E0,-1.677966863E-1,9.143573761E0
1.759484430E1,1.053440213E0,8.210372925E-1,6.593721867E0
1.761530357E1,2.927917719E0,1.582553029E0,1.028076267E1
1.763576284E1,7.223034382E0,6.415755749E-1,8.758029938E0
1.765622216E1,3.037987471E0,1.697408557E0,6.249155521E0
1.767668143E1,3.935894251E0,2.536391914E-1,9.847362518E0
1.769714076E1,3.430709362E0,2.145165443E0,1.191356468E1
1.771760003E1,3.433102369E0,4.956133962E-1,9.557830811E0
1.773805930E1,3.040380239E0,1.771586061E0,7.546663284E0
1.775851862E1,4.728217602E0,1.137188911E0,9.265607834E0
1.777897789E1,2.743670225E0,2.058724880E0,9.260822296E0
1.779943716E1,3.090928555E0,2.288734913E0,8.027919769E0
1.781989649E1,5.374877930E0,9.765707254E-1,1.306989670E1
1.784035576E1,1.287936807E0,1.094118118E0,5.753541946E0
1.786081508E1,4.017250061E0,4.860421121E-1,9.861719131E0
1.788127435E1,3.030808926E0,1.051047325E0,1.173171043E1
1.790173362E1,1.874477386E0,1.046261668E0,1.157827091E1
1.792219294E1,2.169093609E0,1.642373681E0,9.888040543E0
1.794265222E1,2.037488461E0,1.244866014E0,7.206882477E0
1.796311149E1,3.655933857E0,1.953440547E0,1.431954765E1
1.798357081E1,2.152343988E0,1.429113269E0,9.667901039E0
1.800403008E1,1.537089467E0,1.977368832E0,7.130013466E0
1.802448940E1,4.019642830E0,1.130010486E0,9.327820778E0
1.804494867E1,2.362912416E0,1.927119493E0,1.153520012E1
1.806540794E1,2.367697954E0,2.679961324E-1,8.995218277E0
1.808586727E1,3.852145433E0,1.730908036E0,7.584948540E0
1.810632654E1,2.360519648E0,2.099402666E0,6.885945320E0
1.812678581E1,3.457030535E0,2.403590441E0,7.125227451E0
1.814724513E1,5.319543839E0,2.848954439E0,9.227322578E0
1.816770440E1,2.343769789E0,2.492124796E0,9.284749985E0
1.818816373E1,2.056631088E0,1.484148264E0,1.058973598E1
1.820862300E1,2.863311291E0,1.996511340E0,7.992027760E0
1.822908227E1,2.738884687E0,2.420340061E0,1.294307709E1
1.824954159E1,2.118844509E0,2.250449657E0,7.086942673E0
1.827000086E1,2.683849812E0,2.413161755E0,1.096540928E1
1.829046013E1,2.073380709E0,2.398804665E0,1.121695423E1
1.831091945E1,1.745265007E0,2.813062191E0,1.175085258E1
1.833137872E1,2.652743101E0,2.379662037E0,1.027836990E1
1.835183805E1,1.338186026E0,1.594517231E0,8.169096947E0
1.837229732E1,2.616850615E0,2.195414782E0,1.057059288E1
1.839275659E1,3.203391314E0,2.207378864E0,1.195663548E1
1.841321591E1,3.998107433E0,5.338985324E-1,9.134002686E0
1.843367518E1,4.565505505E0,8.832506537E-1,6.749554634E0
1.845413451E1,2.832204819E0,3.445664644E-1,9.162715912E0
1.847459378E1,1.098903775E0,6.699903309E-2,5.004289627E0
1.849505305E1,3.040380239E0,2.092224360E0,9.576973915E0
1.851551237E1,2.252842426E0,1.795514345E0,1.050808048E1
1.853597164E1,3.208176851E0,1.177866936E0,1.115952682E1
1.855643096E1,2.501696110E0,1.970190287E0,7.350451946E0
1.857689024E1,1.726122379E0,1.745265007E0,1.204277706E1
1.859734951E1,1.785943031E0,8.952147961E-1,8.712566376E0
1.861780883E1,2.884846687E0,1.563111424E0,1.497787380E1
1.863826810E1,4.190430641E-1,2.101795673E0,3.594019651E0
1.865872737E1,3.037987471E0,5.147559643E-1,1.273699474E1
1.867918669E1,3.358924866E0,2.128116608E0,9.821041107E0
1.869964597E1,3.385245800E0,6.415755749E-1,1.040040398E1
1.872010529E1,2.224128723E0,1.972583175E0,7.561020374E0
1.874056456E1,3.382853031E0,4.546362907E-2,1.231107235E1
1.876102383E1,4.644468784E0,-2.300100774E-1,1.206909847E1
1.878148315E1,2.784348249E0,-9.912267923E-1,9.498010635E0
1.880194242E1,9.505487680E-1,7.205387354E-1,6.972086906E0
1.882240169E1,2.750848770E0,2.488535494E-1,9.344570160E0
1.884286102E1,1.378864050E0,1.235294700E0,9.639186859E0
1.886332029E1,3.787539244E0,2.116152525E0,1.105633640E1
1.888377961E1,8.859425783E-1,2.722134829E0,8.063812256E0
1.890423888E1,4.951049328E0,1.235294700E0,1.298614788E1
1.892469815E1,2.913560629E0,7.947162390E-1,7.654340744E0
1.894515748E1,1.601695657E0,1.524826288E0,7.249953270E0
1.896561675E1,4.407579422E0,1.295115232E0,1.063759232E1
1.898607602E1,4.610969067E0,3.110669553E-1,8.308178902E0
1.900653534E1,2.808276415E0,1.134796143E0,3.699303865E0
1.902699461E1,4.718646049E0,1.067797065E0,1.175563812E1
1.904745388E1,5.161617756E0,3.972085714E-1,8.781958580E0
1.906791320E1,4.630111694E0,-5.982056633E-2,9.981659889E0
1.908837248E1,4.548755646E0,8.018946648E-1,1.019462109E1
1.910883180E1,3.488137245E0,9.571290575E-3,7.824530125E0
1.912929107E1,2.676671267E0,3.158525825E-1,7.240382195E0
1.914975034E1,3.655933857E0,1.572682738E0,8.169096947E0
1.917020966E1,2.429911375E0,1.532004714E0,9.923933029E0
1.919066893E1,2.240878344E0,2.240878344E0,1.187527943E1
1.921112820E1,1.326221943E0,3.373281717E0,1.089362431E1
1.923158753E1,1.000798106E0,3.916751623E0,1.204277706E1
1.925204680E1,2.650350094E0,2.492124796E0,7.884350777E0
1.927250607E1,4.117748737E0,2.746062994E0,9.356534958E0
1.929296539E1,4.007678986E0,1.984547257E0,7.534699440E0
1.931342466E1,2.647957325E0,2.856132984E0,6.371189594E0
1.933388393E1,3.485744476E0,4.383351803E0,9.440582275E0
1.935434326E1,4.295116425E0,3.157628536E0,1.295025539E1
1.937480253E1,2.667099953E0,2.343769789E0,9.153144836E0
1.939526180E1,1.970489502E0,2.606980324E0,7.702197075E0
1.941572112E1,3.971786499E0,2.374876499E0,9.404391289E0
1.943618039E1,3.943072557E0,2.010868311E0,1.080748272E1
1.945663966E1,3.363710403E0,1.388435364E0,8.671888351E0
1.947709899E1,3.236890793E0,1.051047325E0,8.073383331E0
1.949755826E1,3.730111361E0,1.192223907E0,8.339285851E0
1.951801758E1,4.285545349E0,1.125224829E0,8.408678055E0
1.953847685E1,3.868895054E0,7.325028181E-1,7.618448257E0
1.955893612E1,3.952643871E0,1.230509043E0,7.247560501E0
1.957939544E1,6.339484692E0,-3.879363835E-1,1.108265686E1
1.959985472E1,1.747657895E0,3.852444589E-1,3.486342669E0
1.962031399E1,5.961418629E0,-3.855435550E-1,9.967003822E0
1.964077331E1,2.070987940E0,3.038884699E-1,4.901099205E0
1.966123258E1,5.542375565E0,-3.544368446E-1,1.121216869E1
1.968169185E1,2.803490877E0,3.054737091E0,7.503592491E0
1.970215117E1,5.152046204E0,1.055832982E0,1.080987549E1
1.972261044E1,1.931905150E0,2.774776936E0,5.810969830E0
1.974306972E1,7.187141895E0,4.692923427E-1,1.277049446E1
1.976352904E1,2.813062191E0,1.079761267E0,8.717351913E0
1.978398831E1,5.161617756E0,-1.797607988E-1,1.019940662E1
1.980444758E1,2.257628202E0,1.845763564E0,6.988836765E0
1.982490690E1,2.679064035E0,1.326221943E0,9.888040543E0
1.984536617E1,4.893621445E0,3.780659735E-1,1.240917778E1
1.986582544E1,2.343769789E0,1.604088426E0,8.171489716E0
1.988628472E1,3.023630619E0,7.420741320E-1,7.711768150E0
1.990674404E1,4.651647091E0,-5.434698462E-1,9.979267120E0
1.992720331E1,3.406781197E0,1.010070205E0,9.009575844E0
1.994766263E1,6.136094570E0,-4.022932947E-1,1.217677498E1
1.996812190E1,3.617349625E0,1.486541033E0,7.929814339E0
1.998858117E1,1.501197100E0,2.245664120E0,5.279464245E0
2.000904044E1,9.001798630E0,-6.559324861E-1,1.593799305E1
2.002949977E1,4.067798331E-2,1.939083695E0,5.562116146E0
2.004995904E1,1.730908036E0,3.006880760E0,1.020179939E1
2.007041831E1,5.544768333E0,4.764707983E-1,1.406112289E1
2.009087763E1,2.037488461E0,1.996511340E0,1.099412251E1
2.011133690E1,6.248258352E-1,1.326221943E0,4.891527653E0
2.013179617E1,9.083154678E0,-2.384746790E0,1.405633736E1
2.015225544E1,3.718147278E0,2.336591244E0,5.602794170E0
2.017271477E1,2.765205622E0,2.177468538E-1,7.434200764E0
2.019317404E1,3.311068296E0,1.730908036E0,8.080561638E0
2.021363331E1,3.342175007E0,1.762014747E0,1.089601707E1
2.023409263E1,1.594517231E0,9.669994712E-1,8.779565811E0
2.025455190E1,2.657528639E0,9.622138143E-1,1.173410320E1
2.027501117E1,4.292723656E0,4.163511395E-1,1.319910908E1
2.029547050E1,1.728515267E0,2.580659151E0,5.253142834E0
2.031592977E1,5.075774789E-1,3.579064369E0,5.463711262E0
2.033638904E1,6.610172749E0,2.212164640E0,1.964178467E1
2.035684831E1,1.268794179E0,1.587338686E0,5.842076302E0
2.037730763E1,-2.751746178E-1,4.728217602E0,3.486342669E0
2.039776690E1,2.808276415E0,5.379364491E0,1.213848972E1
2.041822617E1,9.423234940E0,-1.381555915E0,2.543301201E1
2.043868550E1,-5.776872158E0,3.418745279E0,-4.521836758E0
2.045914477E1,3.057130098E0,4.936393261E0,4.743172646E0
2.047960404E1,1.122592735E1,9.765707254E-1,2.438196564E1
2.050006336E1,-1.316052526E-1,2.082653046E0,4.920241356E0
2.052052263E1,5.659623623E0,2.871387079E-2,5.667400360E0
2.054098190E1,5.281258583E0,-5.985047817E-1,1.332353592E1
2.056144117E1,2.647957325E0,-1.821536273E-1,8.621639252E0
2.058190050E1,6.813562393E0,-1.364806175E0,8.856434822E0
2.060235977E1,1.939083695E0,1.503290772E0,7.479664326E0
2.062281904E1,4.864907742E0,1.052841991E-1,8.248059273E0
2.064327836E1,6.121737480E0,-2.682952285E-1,8.188239098E0
2.066373763E1,4.536791801E0,-8.135596663E-2,1.035494041E1
2.068419690E1,2.889632463E0,1.781157374E0,8.966505051E0
2.070465622E1,1.307079315E0,3.413959742E0,5.672185898E0
2.072511550E1,9.744769931E-1,-1.072582722E0,6.196513176E0
2.074557477E1,5.714658737E0,-1.271486163E0,8.774779320E0
2.076603404E1,4.555934429E0,4.697110653E0,1.333549976E1
2.078649336E1,3.270390272E0,2.736491680E0,1.216959667E1
2.080695263E1,1.721336842E0,-2.473281384E0,5.564508915E0
2.082741190E1,2.973381281E0,3.033201694E0,8.446963310E0
2.084787123E1,5.959025860E0,2.255235434E0,1.664896011E1
2.086833050E1,1.395613790E0,-1.022333503E0,5.245964527E0
2.088878977E1,3.452244759E0,1.240080357E0,8.978468895E0
2.090924909E1,3.014059305E0,2.070688963E0,1.110927773E1
2.092970836E1,3.090928555E0,1.891227245E0,6.696912289E0
2.095016768E1,4.043570995E0,-2.109273195E0,1.617039680E1
2.097062695E1,-1.953440547E0,4.122534275E0,6.344868183E0
2.099108622E1,1.638754463E1,-1.647159338E0,1.106590748E1
2.101154555E1,4.527220249E0,-1.438684613E-1,6.584150791E0
2.103200482E1,-1.812264085E0,5.276473045E0,1.273699474E1
2.105246409E1,1.255932808E1,-3.496512175E-1,1.857159424E1
2.107292341E1,-8.596215248E-1,6.439684033E-1,-3.418745399E-1
2.109338268E1,2.810669184E0,3.978965044E0,1.534906006E1
2.111384201E1,1.270080376E1,-3.885644913E0,1.821237183E1
2.113430128E1,1.953440547E0,1.412363529E0,2.239083767E0
2.115476055E1,-5.721837282E-1,1.168295622E0,8.389534950E0
2.117521987E1,7.022037029E0,-2.348854542E0,1.475534058E1
2.119567914E1,5.171487927E-1,3.765704632E0,1.019940662E1
2.121613846E1,1.642373681E0,1.972583175E0,6.244369984E0
2.123659774E1,4.220939159E0,1.812264085E0,1.005344391E1
2.125705701E1,4.335794449E0,5.865406394E-1,8.736495018E0
2.127751633E1,4.951049328E0,-7.256234884E-1,9.222537041E0
2.129797560E1,-1.039083242E0,2.707777977E0,4.910670280E0
2.131843492E1,4.958227634E0,2.841775894E0,1.557159233E1
2.133889419E1,6.571887493E0,-5.458626747E0,9.232108116E0
2.135935352E1,-3.424727321E-1,4.230211258E0,1.336391449E0
2.137981279E1,7.644470215E0,3.069094181E0,1.813101578E1
2.140027211E1,5.697908998E-1,-3.514757395E0,4.249952316E0
2.142073138E1,4.836492836E-1,1.974975944E0,3.802494287E0
2.144119070E1,7.709076405E0,4.764707983E-1,1.253599739E1
2.146164998E1,4.089034557E0,9.885348678E-1,1.085055351E1
2.148210930E1,1.386042476E0,1.833799481E0,6.637091637E0
2.150256857E1,4.888835907E0,2.392822653E-1,1.140838051E1
2.152302789E1,5.092225552E0,-1.103689447E-1,1.199013519E1
2.154348716E1,2.633600473E0,2.201396823E-1,8.518747330E0
2.156394649E1,1.623231053E0,1.027119160E0,6.883552551E0
2.158440581E1,3.593421459E0,1.584945917E0,1.036451149E1
2.160486508E1,3.849752426E0,2.434697151E0,1.064716339E1
2.162532440E1,4.268795490E0,2.422732830E0,9.131608963E0
2.164578367E1,2.133201361E0,3.466601849E0,6.984051228E0
2.166624300E1,5.190331459E0,2.207378864E0,1.362532997E1
2.168670227E1,3.385245800E0,9.023932219E-1,7.697411537E0
2.170716159E1,6.822535396E-1,2.683550596E0,5.231607437E0
2.172762086E1,2.880061150E0,2.336591244E0,9.315856934E0
2.174808018E1,2.992523909E0,1.817049742E0,1.044347477E1
2.176853951E1,2.188236237E0,1.527219057E0,9.667901039E0
2.178899878E1,3.052344322E0,8.545367718E-1,7.264310360E0
2.180945810E1,5.008476734E0,2.584248483E-1,9.859326363E0
2.182991742E1,3.296711445E0,1.716551185E0,7.211668491E0
2.185037669E1,6.847062111E0,3.565305769E-1,9.761220932E0
2.187083602E1,3.574278831E0,2.252842426E0,5.348855972E0
2.189129534E1,6.171987057E0,6.699903309E-2,9.813862801E0
2.191175461E1,3.742075443E0,1.982154489E0,5.672185898E0
2.193221393E1,4.943870544E0,4.836492836E-1,9.212965012E0
2.195267326E1,2.884846687E0,1.216152072E0,5.693721294E0
2.197313253E1,5.867799282E0,6.942176819E-1,1.095344448E1
2.199359185E1,3.586242914E0,2.037189484E0,7.438986301E0
2.201405117E1,4.295116425E0,1.139581800E0,9.557830811E0
2.203451044E1,2.547458887E0,2.518445730E0,7.877171993E0
2.205496977E1,4.424329281E0,6.870391965E-1,1.214088345E1
2.207542909E1,4.749752998E0,-3.664009571E-1,1.015394306E1
2.209588836E1,3.349353552E0,1.363908947E-1,8.956933022E0
2.211634768E1,1.843370795E0,1.004985496E-1,8.743673325E0
2.213680701E1,3.229712248E0,7.229315639E-1,9.892826080E0
2.215726633E1,3.189034462E0,2.221735716E0,1.120738316E1
2.217772560E1,3.066701412E0,2.513660192E0,1.002233791E1
2.219818492E1,2.540280342E0,2.506481647E0,9.076574326E0
2.221864425E1,2.702992201E0,2.441875458E0,8.887541771E0
2.223910357E1,3.334996462E0,1.414756417E0,1.052483082E1
2.225956284E1,3.969393730E0,1.536790371E0,1.159262753E1
2.228002216E1,1.039083242E0,2.753241539E0,6.716054916E0
2.230048149E1,3.122035265E0,1.630409479E0,1.185374451E1
2.232094081E1,5.386841893E-1,1.656730533E0,8.691030502E0
2.234140008E1,1.608874083E0,1.323829174E0,1.030469036E1
2.236185940E1,2.384447813E0,1.572682738E0,9.095717430E0
2.238231872E1,3.263211966E0,3.876372576E-1,1.028554821E1
2.240277805E1,2.822633505E0,5.793621540E-1,7.690232754E0
2.242323732E1,2.853740215E0,5.913262963E-1,8.128418922E0
2.244369664E1,3.526422262E0,1.579262912E-1,9.859326363E0
2.246415596E1,4.067499161E0,-4.214358926E-1,1.145623684E1
2.248461529E1,3.339782238E0,2.416750938E-1,6.651448727E0
2.250507461E1,5.434698582E0,-1.022333503E0,8.346464157E0
2.252553388E1,4.646861553E0,6.460621208E-2,6.809374809E0
2.254599320E1,3.682255030E0,-2.970091105E-1,8.161917686E0
2.256645253E1,2.542673111E0,8.258228898E-1,6.730412006E0
2.258691185E1,4.196712017E0,1.698904037E-1,1.072851944E1
2.260737117E1,3.131606579E0,1.491326690E0,9.394820213E0
2.262783044E1,2.963809967E0,1.333400369E0,7.575377464E0
2.264828977E1,5.554339409E0,7.013961077E-1,1.237807178E1
2.266874909E1,2.109273195E0,2.611765862E0,7.791030407E0
2.268920841E1,4.896014214E0,5.123631358E-1,1.041954613E1
2.270966774E1,4.146462440E0,3.038884699E-1,9.519545555E0
2.273012706E1,1.625623941E0,1.208973646E0,8.356036186E0
2.275058633E1,2.935096025E0,3.182454109E-1,9.624830246E0
2.277104565E1,3.334996462E0,5.889334679E-1,1.111645603E1
2.279150498E1,2.760420084E0,1.907976985E0,7.110870838E0
2.281196430E1,4.838586330E0,6.966105103E-1,9.895218849E0
2.283242362E1,2.892025232E0,2.403590441E0,7.180561543E0
2.285288294E1,4.630111694E0,1.431506157E0,9.950253487E0
2.287334227E1,2.588136673E0,2.750848770E0,8.442177773E0
2.289380159E1,4.124927044E0,1.695015788E0,1.061844921E1
2.291426086E1,4.163212299E0,1.695015788E0,1.343390465E1
2.293472018E1,1.400399446E0,1.982154489E0,6.442974091E0
2.295517951E1,1.903191328E0,1.821835399E0,8.810671806E0
2.297563883E1,1.977667928E0,9.526425004E-1,7.824530125E0
2.299609815E1,1.656730533E0,2.829811811E0,7.113263607E0
2.301655748E1,4.381258488E0,3.231806040E0,1.093430233E1
2.303701680E1,3.593421459E0,2.487339020E0,9.399605751E0
2.305747607E1,3.928715706E0,2.508874655E0,7.415058136E0
2.307793539E1,5.128118038E0,1.695015788E0,7.800601959E0
2.309839472E1,6.138487339E0,7.013961077E-1,1.142273712E1
2.311885404E1,3.054737091E0,1.029511929E0,4.850849628E0
2.313931336E1,5.506483078E0,1.031904817E0,8.698209763E0
2.315977268E1,5.166403294E0,1.153938770E0,9.775577545E0
2.318023201E1,3.069094181E0,1.237687469E0,8.762815475E0
2.320069133E1,3.744468451E0,1.103689432E0,8.348856926E0
2.322115065E1,3.629313707E0,2.437089920E0,1.022094154E1
2.324160998E1,3.583850145E0,2.568695068E0,1.182503033E1
2.326206930E1,2.298306227E0,2.719742060E0,8.995218277E0
2.328252862E1,2.918346405E0,2.956631422E0,7.178168774E0
2.330298794E1,4.517649174E0,2.623729944E0,1.266281700E1
2.332344722E1,2.458625317E0,1.809871197E0,7.386344433E0
2.334390654E1,3.423531055E0,1.797907114E0,8.940183640E0
2.336436586E1,2.705385208E0,7.372884750E-1,6.682555676E0
2.338482518E1,3.346960783E0,1.271187067E0,8.988039970E0
2.340528451E1,3.093321562E0,3.541377485E-1,8.753244400E0
2.342574383E1,4.170390606E0,4.788636267E-1,8.925827026E0
2.344620315E1,3.619742393E0,1.220339537E-1,1.065434170E1
2.346666248E1,1.498804331E0,5.123631358E-1,5.916254044E0
2.348712180E1,3.088535786E0,4.785645287E-3,1.105633640E1
2.350758112E1,1.390828133E0,4.067798331E-2,4.432105541E0
2.352804044E1,5.156831741E0,2.536391914E-1,1.167667580E1
2.354849977E1,1.905584097E0,-1.558325738E-1,6.237191200E0
2.356895909E1,1.989632010E0,4.645066857E-1,9.553045273E0
2.358941841E1,3.248854876E0,5.650052428E-1,8.873184204E0
2.360987774E1,2.358126640E0,1.821835399E0,9.660722733E0
2.363033706E1,3.600599766E0,7.516453862E-1,1.016590691E1
2.365079638E1,2.791526794E0,1.852941990E0,7.898707390E0
2.367125576E1,3.473780155E0,1.359721422E0,1.161655617E1
2.369171508E1,2.255235434E0,1.149153113E0,8.968897820E0
2.371217440E1,2.681456804E0,1.027119160E0,9.167501450E0
2.373263373E1,1.726122379E0,9.957132936E-1,9.258428574E0
2.375309305E1,4.441078663E0,-1.701895148E-1,1.278515053E1
2.377355237E1,2.018345833E0,1.421934843E0,8.688637733E0
2.379401169E1,2.439482689E0,9.239286184E-1,7.407879829E0
2.381447102E1,3.943072557E0,7.683951855E-1,9.751649857E0
2.383493034E1,2.590529680E0,6.008976102E-1,1.098215866E1
2.385538966E1,1.235294700E0,1.738086581E0,9.928718567E0
2.387584899E1,3.267997503E0,1.718943954E0,1.423340607E1
2.389630831E1,7.657032460E-2,2.973381281E0,8.109275818E0
2.391676763E1,1.076770201E-1,3.397209883E0,1.047936630E1
2.393722695E1,1.204187989E0,2.980559587E0,1.142752266E1
2.395768628E1,6.152545214E-1,3.277568817E0,9.344570160E0
2.397814565E1,2.781955481E0,2.276770830E0,1.195902824E1
2.399860498E1,2.078166485E0,1.125224829E0,9.639186859E0
2.401906430E1,2.260020971E0,1.146760225E0,8.583353996E0
2.403952362E1,1.843370795E0,2.512463629E-1,5.849255085E0
2.405998294E1,3.595814228E0,2.536391914E-1,1.016829967E1
2.408044227E1,3.478565931E0,-1.010369420E0,6.883552551E0
2.410090159E1,4.022035599E0,-8.835497499E-1,1.009651470E1
2.412136096E1,2.212164640E0,3.326023519E-1,6.251548290E0
2.414182029E1,4.089034557E0,8.641080856E-1,5.921039581E0
2.416227961E1,6.116951942E0,8.401798606E-1,1.023051357E1
2.418273893E1,4.768895626E0,6.463612318E-1,7.745566845E0
2.420319826E1,2.552244425E0,2.484946251E0,4.826921463E0
2.422365763E1,4.838586330E0,1.986940145E0,1.394148159E1
2.424411695E1,2.707777977E0,2.461018085E0,6.816553593E0
2.426457628E1,3.153141975E0,2.583052158E0,1.051765156E1
2.428503560E1,2.312663078E0,3.452244759E0,6.239583969E0
2.430549492E1,4.237689018E0,4.177569389E0,9.033503532E0
2.432595425E1,3.806681633E0,3.337389469E0,6.354439735E0
2.434641362E1,4.347758770E0,2.846561670E0,9.684650421E0
2.436687294E1,3.943072557E0,2.611765862E0,6.842874527E0
2.438733227E1,4.505684853E0,1.077368379E0,1.287847042E1
2.440779159E1,4.050749779E0,2.703889608E-1,4.838885784E0
2.442825096E1,4.939085007E0,5.243272781E-1,7.616055489E0
2.444871029E1,2.985345364E0,4.187439680E-1,9.775577545E0
2.446916961E1,4.788337231E0,1.084546804E0,1.018026352E1
2.448962893E1,4.400400639E0,3.110669553E-1,7.082156658E0
2.451008831E1,5.367699623E0,1.536790371E0,7.549056530E0
2.453054763E1,5.635695457E0,-4.785645381E-2,1.010130119E1
2.455100695E1,2.911167860E0,8.712865710E-1,4.860421181E0
2.457146628E1,5.530411243E0,1.100698411E-1,1.228475189E1
2.459192565E1,2.963809967E0,1.866401732E-1,5.310570717E0
2.461238498E1,2.966202736E0,3.589234054E-1,6.677769661E0
2.463284430E1,4.479363918E0,1.316052526E-1,1.175803185E1
2.465330367E1,3.830610037E0,3.062812984E-1,1.009172916E1
2.467376300E1,2.257628202E0,9.693922997E-1,5.712863922E0
2.469422232E1,3.971786499E0,1.697408557E0,9.952646255E0
2.471468169E1,5.152046204E0,1.034297585E0,1.280668545E1
2.473514102E1,1.003190875E0,2.358126640E0,3.555734396E0
2.475560034E1,5.204688549E0,5.195416212E-1,1.111645603E1
2.477605966E1,2.427518606E0,5.913262963E-1,6.725626469E0
2.479651904E1,4.134498596E0,1.627119333E-1,1.186570835E1
2.481697836E1,3.758825302E0,6.176473498E-1,9.239286423E0
2.483743768E1,3.363710403E0,1.697408557E0,9.572187424E0
2.485789706E1,3.602992773E0,8.425726891E-1,8.193024635E0
2.487835638E1,4.524827480E0,1.268794179E0,1.085294628E1
2.489881576E1,3.423531055E0,1.014855862E0,1.076201916E1
2.491927508E1,1.237687469E0,1.912762642E0,7.599305630E0
2.493973440E1,3.921537161E0,1.039083242E0,1.162852001E1
2.496019372E1,4.038785458E0,1.098903775E0,1.235653591E1
2.498065310E1,4.429712892E-1,1.659123421E0,7.647161961E0
2.500111242E1,2.781955481E0,7.372884750E-1,1.155434227E1
2.502157175E1,2.439482689E0,1.041476011E0,1.141077328E1
2.504203112E1,5.219344497E-1,1.237687469E0,6.531508446E0
2.506249044E1,4.347758770E0,1.842473447E-1,1.026640511E1
2.508294977E1,1.872084618E0,1.941476464E0,8.181060791E0
2.510340914E1,4.033999920E0,6.032904387E-1,1.008933640E1
2.512386846E1,1.333400369E0,2.327019930E0,7.039085865E0
2.514432784E1,5.130510807E0,-2.132603228E-1,1.249532032E1
2.516478716E1,3.547957659E0,4.354937077E-1,9.689435959E0
2.518524649E1,1.723729610E0,2.392822653E-1,7.513164043E0
2.520570586E1,1.900798440E0,4.331009090E-1,7.541877747E0
2.522616518E1,4.618147850E0,-4.453641176E-1,1.163091278E1
2.524662451E1,3.437887907E0,-4.214358926E-1,8.911469460E0
2.526708388E1,3.502494097E0,1.842473447E-1,7.235596657E0
2.528754320E1,5.748157978E0,-5.506483316E-1,1.034536839E1
2.530800258E1,2.901596546E0,5.123631358E-1,9.088538170E0
2.532846190E1,3.279961586E0,1.319043517E0,9.777970314E0
2.534892122E1,4.426722050E0,6.200401783E-1,1.189920807E1
2.536938060E1,4.907978535E0,1.180259824E0,1.027358437E1
2.538983992E1,1.395613790E0,2.422732830E0,7.151548862E0
2.541029930E1,3.667897940E0,1.378864050E0,1.034297562E1
2.543075862E1,2.600100994E0,2.463410854E0,1.038843918E1
2.545121794E1,4.335794449E0,8.497511148E-1,9.703793526E0
2.547167732E1,1.055832982E0,3.339782238E0,7.321738243E0
2.549213664E1,3.634099483E0,1.687837243E0,1.118345451E1
2.551259602E1,1.587338686E0,2.489732027E0,6.713662148E0
2.553305534E1,3.440280676E0,1.893620014E0,1.331396389E1
2.555351466E1,1.606481314E0,1.072582722E0,6.747161865E0
2.557397404E1,2.765205622E0,1.407577872E0,8.755637169E0
2.559443336E1,6.121737480E0,-1.027119160E0,7.594520092E0
2.561489274E1,4.045963764E0,4.259224236E-1,8.051848412E0
2.563535206E1,4.433900356E0,2.703889608E-1,8.051848412E0
2.565581138E1,6.753741741E0,-3.017947674E-1,1.091276646E1
2.567627076E1,3.220141172E0,5.554339290E-1,6.474080563E0
2.569673008E1,3.325425386E0,2.847459018E-1,8.356036186E0
2.571718945E1,2.298306227E0,1.168295622E0,8.080561638E0
2.573764878E1,3.646063566E0,2.504088879E0,1.248096275E1
2.575810815E1,3.483351469E0,2.520838737E0,9.086145401E0
2.577856748E1,3.308675528E0,2.676372051E0,7.000801086E0
2.579902685E1,3.806681633E0,2.760420084E0,7.936992645E0
2.581948617E1,4.546362877E0,1.630409479E0,9.689435959E0
2.583994550E1,1.723729610E0,2.200200319E0,8.042277336E0
2.586040487E1,3.638885021E0,3.397808075E-1,1.184895897E1
2.588086419E1,1.943869352E0,3.110669367E-2,7.994420528E0
2.590132357E1,3.258426189E0,-5.075774789E-1,7.503592491E0
2.592178289E1,4.879264355E0,3.589234054E-1,1.096301651E1
2.594224227E1,3.598206997E0,1.531406492E-1,1.068544865E1
2.596270159E1,3.744468451E0,1.266401410E0,1.166949654E1
2.598316097E1,2.820240498E0,2.056331873E0,8.348856926E0
2.600362029E1,3.626920938E0,1.287936807E0,6.706483841E0
2.602407966E1,3.900001764E0,2.264806747E0,9.902397156E0
2.604453899E1,4.136891365E0,1.496112347E0,1.093430233E1
2.606499836E1,2.884846687E0,1.067797065E0,9.517152786E0
2.608545768E1,6.629314899E0,-5.410770178E-1,1.261735344E1
2.610591706E1,2.578565598E0,1.453041553E0,7.252346516E0
2.612637638E1,3.076272726E0,7.851449251E-1,9.131608963E0
2.614683576E1,2.484946251E0,1.402792215E0,7.326523781E0
2.616729508E1,1.412662625E0,2.726920605E0,7.891529083E0
2.618775445E1,4.529613495E0,1.242473125E0,1.343629742E1
2.620821378E1,3.047558784E0,1.247258782E0,1.015394306E1
2.622867315E1,1.484447360E0,1.907976985E0,8.358428955E0
2.624913253E1,3.507279873E0,2.185843468E0,1.001994514E1
2.626959185E1,3.926322937E0,2.386840582E0,1.199252796E1
2.629005123E1,3.809074640E0,1.029511929E0,8.600103378E0
2.631051055E1,2.949453115E0,1.273579836E0,7.223632336E0
2.633096992E1,2.951845884E0,7.516453862E-1,8.949754715E0
2.635142925E1,4.773980141E0,-9.571290761E-2,1.221266747E1
2.637188862E1,1.668694735E0,1.407577872E0,6.842874527E0
2.639234794E1,3.859323740E0,-1.749751568E-1,9.560223579E0
2.641280732E1,2.750848770E0,4.331009090E-1,5.880361557E0
2.643326669E1,2.726920605E0,-3.664009571E-1,7.257132053E0
2.645372602E1,5.908776283E0,-3.017947674E-1,1.096062279E1
2.647418539E1,3.512065411E0,1.543968797E0,7.467700481E0
2.649464477E1,4.247260094E0,1.366899967E0,7.829315662E0
2.651510409E1,6.296413898E0,4.836492836E-1,1.033819008E1
2.653556347E1,4.328616142E0,2.727817893E-1,6.979265213E0
2.655602279E1,3.614956856E0,8.234301209E-1,1.095823002E1
2.657648216E1,2.870489836E0,4.788636267E-1,1.049372387E1
2.659694154E1,2.231307030E0,7.417750359E-2,9.033503532E0
2.661740086E1,4.187140465E0,9.669994712E-1,7.364809036E0
2.663786024E1,3.914358854E0,1.201795220E0,9.512367249E0
2.665831961E1,4.793122768E0,-5.264209956E-2,9.672686577E0
2.667877893E1,2.935096025E0,1.098903775E0,6.873981476E0
2.669923831E1,4.838586330E0,8.904291391E-1,1.158544922E1
2.671969763E1,3.406781197E0,8.401798606E-1,9.191430092E0
2.674015701E1,4.790730000E0,3.613162339E-1,1.135573769E1
2.676061638E1,1.323829174E0,2.719742060E0,8.166703224E0
2.678107570E1,3.497708559E0,1.864906192E0,1.116670513E1
2.680153508E1,3.399602890E0,2.848954439E0,1.016351414E1
2.682199445E1,4.536791801E0,2.504088879E0,1.213131142E1
2.684245378E1,3.883252144E0,2.789133787E0,8.494819641E0
2.686291315E1,1.024726272E0,2.808276415E0,6.581758022E0
2.688337253E1,4.187140465E0,1.979761600E0,1.128395367E1
2.690383190E1,2.825026274E0,1.005284667E0,1.018265629E1
2.692429122E1,2.360519648E0,6.248258352E-1,6.675376892E0
2.694475060E1,4.041178226E0,1.553540111E0,8.686244965E0
2.696520998E1,5.757729530E0,-4.022932947E-1,9.840184212E0
2.698566930E1,3.136392355E0,7.109674215E-1,5.545366287E0
2.700612867E1,5.743372440E0,-3.352942765E-1,9.299106598E0
2.702658805E1,3.828217030E0,1.149153113E0,8.011170387E0
2.704704742E1,4.829015255E0,-3.831507266E-1,1.153041458E1
2.706750675E1,1.185045362E0,2.087438583E0,6.332904339E0
2.708796612E1,5.185545921E0,1.268195957E-1,1.048893833E1
2.710842550E1,2.501696110E0,2.140080690E0,7.881958008E0
2.712888487E1,4.457828522E0,6.870391965E-1,9.071788788E0
2.714934419E1,4.527220249E0,1.096511006E0,1.025683403E1
2.716980357E1,3.361317635E0,4.067798555E-1,6.450152397E0
2.719026294E1,5.358128071E0,1.866401732E-1,1.080269718E1
2.721072232E1,2.133201361E0,1.483550072E-1,7.202096939E0
2.723118164E1,4.172783375E0,-8.979067206E-1,1.180828094E1
2.725164102E1,2.238485575E0,9.574281573E-1,1.048654556E1
2.727210039E1,3.509672642E0,3.756731451E-1,1.114995575E1
2.729255972E1,2.185843468E0,1.417149186E0,9.474081993E0
2.731301909E1,1.125224829E0,1.833799481E0,6.720840454E0
2.733347847E1,2.099701881E0,2.267199516E0,7.110870838E0
2.735393784E1,5.068297386E0,1.307079315E0,1.368036556E1
2.737439722E1,3.126821041E0,1.874477386E0,9.797113419E0
2.739485654E1,1.187438250E0,2.224128723E0,4.264308929E0
2.741531591E1,6.176772594E0,2.632104978E-2,1.628285980E1
2.743577529E1,1.565803289E0,1.481755376E0,5.983253002E0
2.745623466E1,2.305484533E0,5.075774789E-1,8.848957062E0
2.747669404E1,3.720540047E0,4.980062246E-1,8.772386551E0
2.749715336E1,1.848156333E0,9.861420393E-1,7.448557854E0
2.751761274E1,2.422732830E0,1.359721422E0,1.025444126E1
2.753807211E1,2.341377020E0,1.970190287E0,1.172213936E1
2.755853149E1,2.243271112E0,3.183949709E0,9.038289070E0
2.757899086E1,5.563910961E0,3.589234054E-1,1.047936630E1
2.759945018E1,2.997309446E0,-4.932205677E-1,5.875576019E0
2.761990956E1,2.295913219E0,-1.424626827E0,6.285048008E0
2.764036893E1,2.477767944E0,-4.597210586E-1,9.433403969E0
2.766082831E1,3.842574120E0,3.373879790E-1,1.311536026E1
2.768128768E1,1.532303810E0,1.307079315E0,4.484747887E0
2.770174701E1,3.471387386E0,1.323829174E0,9.038289070E0
2.772220638E1,4.445864677E0,1.441077471E0,1.006540871E1
2.774266576E1,5.999703884E0,-4.956133962E-1,1.208584785E1
2.776312513E1,1.261615753E0,9.813563824E-1,4.192524433E0
2.778358451E1,5.729015827E0,-7.304090858E-1,1.238525009E1
2.780404383E1,4.455435753E0,-9.332008660E-2,1.153998566E1
2.782450320E1,4.206283092E0,-1.725823283E-1,6.802196503E0
2.784496258E1,5.020441055E0,3.541377485E-1,9.825826645E0
2.786542195E1,5.513661385E0,-2.036890239E-1,9.095717430E0
2.788588133E1,9.768698215E-1,1.867298961E0,2.432902336E0
2.790634065E1,5.561518192E0,1.161117196E0,8.887541771E0
2.792680003E1,8.843872070E0,-1.211366415E0,2.268934250E1
2.794725940E1,9.194421172E-1,1.764407635E0,5.608177781E-1
2.796771878E1,5.578267574E-1,3.614956856E0,7.039085865E0
2.798817815E1,6.021239281E0,1.517647743E0,1.467877007E1
2.800863753E1,3.179463148E0,8.952147961E-1,1.217438221E1
2.802909685E1,7.396813035E-1,3.217449188E0,6.754340172E0
2.804955623E1,2.219342947E0,2.204986095E0,8.291429520E0
2.807001560E1,3.040380239E0,1.718943954E0,1.232542896E1
2.809047498E1,2.202593327E0,4.029214382E0,8.142775536E0
2.811093435E1,4.256831646E0,2.638087034E0,9.186644554E0
2.813139373E1,2.932703257E0,1.735693693E0,8.592925072E0
2.815185305E1,2.741277456E0,1.579861164E0,8.267202377E0
2.817231242E1,4.256831646E0,1.175474167E0,1.029751205E1
2.819277180E1,3.823431492E0,5.147559643E-1,8.822636604E0
2.821323117E1,3.256033421E0,1.726122379E0,3.009871721E0
2.823369055E1,6.526423931E0,1.165902853E0,1.687657738E1
2.825414992E1,5.702694416E0,-4.240081787E0,1.280907917E1
2.827460925E1,-3.974179268E0,3.717848301E0,-1.279352570E1
2.829506862E1,5.216652393E0,1.931905150E0,1.105633640E1
2.831552800E1,6.457031727E0,-2.018345833E0,1.644078445E1
2.833598737E1,3.921537161E0,-1.196411345E-2,4.439284325E0
2.835644675E1,5.846263885E0,-7.399803996E-1,7.561020374E0
2.837690607E1,5.705087185E0,1.685444474E0,8.018348694E0
2.839736544E1,6.516852379E0,-9.984052777E-1,1.062562847E1
2.841782482E1,3.967000723E0,-9.092725813E-2,5.339284420E0
2.843828419E1,5.623731613E0,-6.945167780E-1,8.461319923E0
2.845874357E1,4.572684288E0,1.113260746E0,8.140382767E0
2.847920294E1,3.828217030E0,-1.674975827E-2,9.258428574E0
2.849966232E1,3.203391314E0,-3.424727321E-1,7.400701523E0
2.852012164E1,3.342175007E0,2.153540403E-1,1.161176968E1
2.854058102E1,2.963809967E0,-4.118646085E-1,1.112124157E1
2.856104039E1,2.944667339E0,7.827520967E-1,1.122173977E1
2.858149977E1,1.982453585E0,1.613659739E0,9.718150139E0
2.860195914E1,1.939083695E0,3.097808123E0,8.856434822E0
2.862241847E1,4.424329281E0,2.860918522E0,1.157827091E1
2.864287784E1,9.314061999E-1,5.386841893E-1,9.569794655E0
2.866333722E1,2.116451740E0,1.005284667E0,5.607579708E0
2.868379659E1,4.438685894E0,1.022333503E0,1.200449181E1
2.870425596E1,6.104688644E-1,1.776371717E0,6.622735023E0
2.872471534E1,4.036392689E0,1.507478207E-1,1.220548916E1
2.874517466E1,5.099703074E-1,1.089332461E0,5.260321617E0
2.876563404E1,3.504886866E0,-7.178467698E-3,1.239482117E1
2.878609341E1,4.191926003E0,-4.046861231E-1,1.167906857E1
2.880655279E1,2.978166819E0,2.392822644E-3,8.437391281E0
2.882701216E1,3.363710403E0,3.565305769E-1,6.569793701E0
2.884747154E1,4.167997837E0,-6.463612318E-1,1.436979771E1
2.886793086E1,2.844168901E0,-4.190430641E-1,1.010847950E1
2.888839024E1,-5.338985324E-1,1.443470240E0,7.920242786E0
2.890884961E1,7.127321243E0,-1.223330572E-1,1.314168072E1
2.892930899E1,1.268195957E-1,2.003689766E0,6.203691959E0
2.894976836E1,1.627119333E-1,1.460219979E0,1.032383347E1
2.897022774E1,2.545065880E0,8.784649968E-1,1.006301594E1
2.899068706E1,2.152343988E0,2.281556368E0,1.390798283E1
2.901114643E1,4.761716843E0,1.794617027E-1,1.104197884E1
2.903160581E1,-4.573282301E-1,2.161915302E0,1.111466169E0
2.905206518E1,4.474578381E0,1.225723386E0,8.356036186E0
2.907252456E1,4.285545349E0,3.924229145E-1,7.494021416E0
2.909298388E1,9.475876808E0,-2.480459690E0,1.661546135E1
2.911344326E1,-2.221735716E0,8.760721684E-1,-1.855035782E0
2.913390263E1,2.858525753E0,7.683951855E-1,7.829315662E0
2.915436201E1,4.297509670E0,7.301099896E-1,1.112602711E1
2.917482138E1,4.682754040E0,-5.697908998E-1,1.223450184E1
2.919528076E1,5.851049423E0,-4.310071766E-1,7.836493969E0
2.921574013E1,-6.990033388E-1,3.030808926E0,5.396712303E0
2.923619945E1,5.480162144E0,-9.337990284E-1,1.040997505E1
2.925665883E1,4.218546391E0,2.145165443E0,9.536295891E0
2.927711820E1,2.417947292E0,3.758526087E0,9.143573761E0
2.929757758E1,3.165106058E0,2.805883646E0,5.621936798E0
2.931803695E1,4.917549610E0,3.064308405E0,1.038843918E1
2.933849633E1,4.323830605E0,2.595016241E0,1.105633640E1
2.935895565E1,2.729313374E0,3.011666298E0,6.555436611E0
2.937941503E1,5.437091351E0,1.307079315E0,1.051286602E1
2.939987440E1,3.500101328E0,1.218544960E0,5.507081509E0
2.942033378E1,3.610171080E0,1.173081279E0,9.134002686E0
2.944079315E1,4.287938118E0,1.596910000E0,9.083752632E0
2.946125253E1,4.127319813E0,1.359721422E0,9.342177391E0
2.948171190E1,5.326722145E0,-7.351947427E-1,7.015157700E0
2.950217122E1,4.105784416E0,3.254238665E-1,6.644270420E0
2.952263060E1,2.681456804E0,1.220937729E0,6.615556240E0
2.954308998E1,3.117249727E0,1.776371717E0,9.770792007E0
2.956354935E1,5.456233978E0,-2.036890239E-1,1.155194950E1
2.958400872E1,2.621636391E0,1.445863128E0,6.938587666E0
2.960446810E1,4.737788677E0,9.526425004E-1,1.495633793E1
2.962492748E1,6.583851337E0,-9.601200819E-1,9.498010635E0
2.964538685E1,1.004985496E-1,2.022832394E0,5.202893734E0
2.966584623E1,4.872086048E0,-7.896314561E-2,1.121456146E1
2.968630555E1,2.331805706E0,1.606481314E0,7.953742504E0
2.970676492E1,3.727718592E0,-2.467598319E-1,9.562616348E0
2.972722430E1,3.626920938E0,3.852444589E-1,6.153442383E0
2.974768367E1,3.507279873E0,7.683951855E-1,9.323035240E0
2.976814305E1,6.006882191E0,-9.314061999E-1,1.169581795E1
2.978860242E1,1.371685624E0,1.031904817E0,5.753541946E0
2.980906180E1,4.366901398E0,2.153540403E-1,1.176281738E1
2.982952117E1,5.116153717E0,1.230509043E0,1.035733318E1
2.984998055E1,6.471388817E0,-1.371984720E0,1.386939812E1
2.987043992E1,-3.301496983E0,2.271985054E0,-2.836392164E0
2.989089930E1,2.396411896E0,1.076770201E-1,1.083380318E1
2.991135867E1,6.856633186E0,-2.635096014E-1,1.741047668E1
2.993181805E1,4.304687977E0,1.223330617E0,1.122173977E1
2.995227737E1,4.658825874E0,5.742774159E-2,4.597210407E0
2.997273675E1,1.752443433E0,1.814656854E0,9.775577545E0
2.999319612E1,4.335794449E0,-1.441376567E0,1.105155087E1
3.001365550E1,9.571290761E-2,7.851449251E-1,5.021039009E0
3.003411487E1,5.834300041E0,-9.337990284E-1,1.244267750E1
3.005457425E1,2.033899277E-1,1.606481314E0,8.545068741E0
3.007503362E1,4.388436794E0,3.948157430E-1,9.734899521E0
3.009549300E1,1.639980793E0,7.157530785E-1,7.604091167E0
3.011595237E1,3.114856958E0,8.114659786E-1,8.257631302E0
3.013641175E1,4.692325115E0,5.003990531E-1,1.387896919E1
3.015687112E1,2.560320199E-1,1.039083242E0,4.537389755E0
3.017733050E1,2.164308071E0,2.358126640E0,7.407879829E0
3.019778987E1,7.749754429E0,6.176473498E-1,1.524856186E1
3.021824925E1,1.821835399E0,-5.745765567E-1,6.230012894E0
3.023870862E1,4.673182487E0,-2.722134829E0,6.500401974E0
3.025916800E1,3.885644913E0,-4.785645381E-2,1.167188931E1
3.027962737E1,2.271985054E0,4.307080805E-2,9.749257088E0
3.030008675E1,2.030309916E0,2.978166819E0,7.233203888E0
3.032054612E1,1.096271706E1,3.589234129E-2,1.803769493E1
3.034100550E1,3.485744476E0,-2.871387079E-2,1.884646893E0
3.036146487E1,4.218546391E0,1.273579836E0,1.027597713E1
3.038192425E1,4.474578381E0,-5.171487927E-1,1.301486111E1
3.040238362E1,1.398006678E0,-4.716851711E-1,1.110927773E1
3.042284300E1,3.612564087E0,6.224330068E-1,6.818946362E0
3.044330237E1,1.869691849E0,3.193521023E0,8.377571106E0
3.046376175E1,5.606981754E0,1.366899967E0,1.177956676E1
3.048422112E1,2.669492722E0,1.817049742E0,1.261735344E1
3.050468050E1,2.415554523E0,2.248056889E0,8.647959709E0
3.052513987E1,2.319841623E0,6.678966284E-1,8.597710609E0
3.054559925E1,2.832204819E0,2.080260277E0,7.110870838E0
3.056605862E1,2.741277456E0,2.082653046E0,9.474081993E0
3.058651800E1,7.225427151E0,-6.699903309E-2,1.457587910E1
3.060697737E1,2.762812853E0,8.952147961E-1,4.776672363E0
3.062743675E1,4.366901398E0,1.848156333E0,8.375178337E0
3.064789612E1,7.055536747E0,9.023932219E-1,1.060169983E1
3.066835555E1,3.464209080E0,8.880363107E-1,6.802196503E0
3.068881492E1,1.635195136E0,2.283949137E0,5.755934715E0
3.070927430E1,6.863811970E0,7.417750359E-2,1.421426392E1
3.072973367E1,9.337990284E-1,7.564310431E-1,5.708078384E0
3.075019305E1,7.445566654E0,-9.936196208E-1,1.210738373E1
3.077065242E1,9.810572863E-2,1.718943954E0,4.472783566E0
3.079111180E1,3.770789385E0,6.391827464E-1,1.041236782E1
3.081157117E1,7.397710323E0,2.009970993E-1,1.401805210E1
3.083203055E1,2.592922449E0,1.998904228E0,5.894718647E0
3.085248992E1,3.490530014E0,1.474576950E0,8.454141617E0
3.087294930E1,6.916453838E0,1.051047325E0,1.176999569E1
3.089340867E1,1.601695657E0,1.249651670E0,5.722435474E0
3.091386810E1,3.955036640E0,5.195416212E-1,8.866005898E0
3.093432748E1,4.730610371E0,1.400399446E0,9.612865448E0
3.095478685E1,3.093321562E0,1.124626622E-1,9.856933594E0
3.097524623E1,1.793121457E0,7.301099896E-1,4.846064091E0
3.099570560E1,5.032404900E0,7.205387354E-1,1.075962639E1
3.101616498E1,2.453839540E0,1.534397483E0,8.135597229E0
3.103662435E1,6.396912098E0,1.746760458E-1,1.100369358E1
3.105708378E1,3.198605776E0,1.309472203E0,7.249953270E0
3.107754315E1,5.650052428E-1,1.558325768E0,8.121239662E0
3.109800253E1,2.765205622E0,8.736793399E-1,1.087687397E1
3.111846190E1,2.226521492E0,1.855334878E0,9.224929810E0
3.113892128E1,4.079463482E0,-1.366899908E-1,1.005344391E1
3.115938065E1,3.540779352E0,1.316650629E0,1.058495045E1
3.117984008E1,1.628016710E0,1.362114310E0,6.653841496E0
3.120029945E1,2.513660192E0,1.206580877E0,1.038365364E1
3.122075883E1,3.346960783E0,1.173081279E0,1.126481056E1
3.124121820E1,3.568296731E-1,1.436291814E0,5.300999641E0
3.126167763E1,5.669195175E0,-6.272186637E-1,1.165753269E1
3.128213701E1,2.683849812E0,2.177468538E-1,9.574581146E0
3.130259638E1,2.027917147E0,8.282157183E-1,8.130811691E0
3.132305576E1,4.098606110E0,7.420741320E-1,9.236893654E0
3.134351513E1,5.575874805E0,-7.639086246E-1,1.054187965E1
3.136397456E1,1.041476011E0,1.407577872E0,5.906682491E0
3.138443393E1,4.472185612E0,1.316052526E-1,1.190160084E1
3.140489331E1,1.249651670E0,2.245664120E0,5.356034279E0
3.142535268E1,3.739682674E0,5.650052428E-1,1.249532032E1
3.144581211E1,2.683849812E0,7.540382147E-1,6.143871307E0
3.146627149E1,3.315854073E0,1.794617027E-1,6.988836765E0
3.148673086E1,5.415555954E0,-2.036890239E-1,7.098906517E0
3.150719024E1,4.532006264E0,1.275972724E0,8.918647766E0
3.152764966E1,5.331807137E0,1.244267747E-1,8.159524918E0
3.154810904E1,3.943072557E0,7.875377536E-1,7.074978352E0
3.156856841E1,5.190331459E0,4.836492836E-1,1.143470097E1
3.158902779E1,4.335794449E0,6.918248534E-1,9.945467949E0
3.160948722E1,3.466601849E0,1.132403374E0,9.246464729E0
3.162994659E1,4.254438877E0,8.306085467E-1,7.031907558E0
3.165040596E1,4.079463482E0,1.388435364E0,9.419047356E0
3.167086539E1,4.014857292E0,1.891227245E0,1.098933697E1
3.169132477E1,3.876073599E0,2.027618170E0,1.048176003E1
3.171178414E1,3.660719633E0,1.663909078E0,7.740781307E0
3.173224357E1,2.441875458E0,2.123331070E0,7.204489708E0
3.175270294E1,4.850550652E0,1.488933921E0,1.219352531E1
3.177316232E1,4.287938118E0,1.864906192E0,8.530712128E0
3.179362169E1,8.258228898E-1,2.286342144E0,4.800600529E0
3.181408112E1,5.082654476E0,1.800299883E0,1.230389404E1
3.183454050E1,1.582553029E0,2.298306227E0,8.372785568E0
3.185499987E1,5.461019516E0,8.374879509E-2,9.308678627E0
3.187545930E1,2.990130901E0,1.699801445E0,4.889134884E0
3.189591867E1,4.191926003E0,1.216152072E0,8.178668022E0
3.191637805E1,5.044369221E0,7.325028181E-1,7.872386456E0
3.193683748E1,4.438685894E0,1.304686546E0,1.020419216E1
3.195729685E1,4.805087090E0,1.216152072E0,1.053709316E1
3.197775628E1,7.476673603E0,-6.415755749E-1,1.040279675E1
3.199821565E1,4.453641176E-1,1.642373681E0,3.342773199E0
3.201867503E1,3.162713289E0,1.091725349E0,9.612865448E0
3.203913445E1,6.107380867E0,1.172483116E-1,1.260060406E1
3.205959383E1,2.779562712E0,1.934298038E0,5.116752148E0
3.208005326E1,5.013262749E0,2.101795673E0,8.681459427E0
3.210051263E1,5.559125423E0,2.132902384E0,9.785149574E0
3.212097201E1,3.571886063E0,1.436291814E0,8.772386551E0
3.214143143E1,3.734897137E0,8.808578253E-1,9.725328445E0
3.216189081E1,3.691826344E0,4.884349108E-1,1.096062279E1
3.218235018E1,2.441875458E0,6.774678826E-1,6.701697826E0
3.220280961E1,3.746861219E0,-2.874378264E-1,8.779565811E0
3.222326899E1,1.970489502E0,2.908775091E0,6.605985165E0
3.224372841E1,5.757729530E0,7.037889361E-1,1.255514050E1
3.226418779E1,1.668694735E0,1.553540111E0,5.894718647E0
3.228464722E1,4.625326157E0,1.196411345E-2,9.414261818E0
3.230510659E1,3.394817114E0,1.314257860E0,1.010847950E1
3.232556596E1,2.635993242E0,9.047860503E-1,8.351249695E0
3.234602539E1,4.141676903E0,1.292722464E0,6.706483841E0
3.236648477E1,4.491328239E0,9.430712461E-1,9.334999084E0
3.238694419E1,3.514458179E0,3.086741269E-1,6.759125710E0
3.240740357E1,5.123332500E0,-3.568296731E-1,9.600901604E0
3.242786300E1,3.198605776E0,3.661018610E-1,6.708876610E0
3.244832237E1,3.289532900E0,-4.980062246E-1,1.034536839E1
3.246878180E1,4.170390606E0,7.109674215E-1,9.777970314E0
3.248924117E1,5.903990746E0,-1.240379453E0,1.248096275E1
3.250970055E1,2.523231506E0,1.089332461E0,3.512663603E0
3.253015998E1,5.228616714E0,-9.194421172E-1,1.035254669E1
3.255061935E1,2.920739174E0,-9.332008660E-2,6.797410965E0
3.257107878E1,2.288734913E0,4.668995142E-1,9.622437477E0
3.259153815E1,3.624528170E0,-2.706880569E-1,8.702995300E0
3.261199758E1,3.488137245E0,2.153540403E-1,8.992825508E0
3.263245695E1,4.165605068E0,-6.104688644E-1,1.275853062E1
3.265291633E1,3.059522867E0,9.119645357E-1,1.236850071E1
3.267337576E1,1.695015788E0,6.966105103E-1,9.962218285E0
3.269383513E1,5.228616714E0,-1.390828192E-1,1.230867958E1
3.271429456E1,1.914258152E-1,2.578266382E0,5.669793129E0
3.273475393E1,1.527518153E0,9.358927608E-1,4.654638290E0
3.275521336E1,4.771587372E0,1.465005636E0,1.332114315E1
3.277567274E1,3.186641455E0,1.884048700E0,1.175085258E1
3.279613216E1,3.042773008E0,1.884048700E0,1.361097336E1
3.281659154E1,1.592124343E0,2.219342947E0,8.389534950E0
3.283705096E1,5.609374523E0,-5.051847100E-1,1.313689518E1
3.285751034E1,-7.037889361E-1,2.317448616E0,6.680162430E0
3.287796977E1,3.856930971E0,8.952147961E-1,1.165005493E1
3.289842914E1,2.631207705E0,9.071788788E-1,7.214061260E0
3.291888852E1,4.426722050E0,-7.926225066E-1,8.528319359E0
3.293934794E1,2.274377823E0,2.321037948E-1,7.606483936E0
3.295980732E1,4.287938118E0,-5.742774159E-2,9.433403969E0
3.298026675E1,2.331805706E0,4.259224236E-1,1.057777119E1
3.300072612E1,1.896012783E0,1.479362607E0,1.110209846E1
3.302118555E1,2.501696110E0,1.527219057E0,1.009172916E1
3.304164492E1,3.718147278E0,3.637090325E-1,8.796315193E0
3.306210435E1,4.829015255E0,-7.256234884E-1,1.108265686E1
3.308256372E1,2.238485575E0,1.046261668E0,1.350748420E0
3.310302310E1,7.400103092E0,-1.161117196E0,1.467159176E1
3.312348253E1,3.086143017E0,8.282157183E-1,2.648256540E0
3.314394190E1,4.160819530E0,1.991725802E0,8.137989998E0
3.316440133E1,6.322734833E0,1.867298961E0,1.231825066E1
3.318486070E1,4.110570431E0,1.639980793E0,9.514760017E0
3.320532013E1,3.409173965E0,3.876073599E0,8.928219795E0
3.322577951E1,6.851847649E0,5.530411601E-1,1.525574017E1
3.324623888E1,3.272783279E0,7.779664397E-1,5.004289627E0
3.326669831E1,1.388435364E0,1.000499010E0,7.750352383E0
3.328715768E1,3.602992773E0,-4.477569461E-1,1.244267750E1
3.330761711E1,2.707777977E0,5.503492057E-2,9.509974480E0
3.332807649E1,1.857727647E0,1.316650629E0,5.980860233E0
3.334853591E1,3.366103172E0,2.188236237E0,9.143573761E0
3.336899529E1,5.135296345E0,6.080760360E-1,1.333310699E1
3.338945466E1,-7.396813035E-1,2.571087837E0,3.318845034E0
3.340991409E1,3.416352510E0,1.630409479E0,1.000558758E1
3.343037346E1,5.740979671E0,6.655037999E-1,1.145384407E1
3.345083289E1,4.814658165E0,-6.221338734E-2,8.753244400E0
3.347129227E1,2.018345833E0,8.138588071E-1,4.862813950E0
3.349175164E1,5.791228771E0,-4.501497746E-1,1.259103298E1
3.351221107E1,2.614457846E0,8.665009141E-1,6.431009769E0
3.353267044E1,1.907976985E0,2.895315289E-1,9.938289642E0
3.355312987E1,2.518445730E0,7.540382147E-1,8.995218277E0
3.357358925E1,4.328616142E0,1.017248750E0,1.231825066E1
3.359404862E1,5.018048286E0,3.876372576E-1,1.218634701E1
3.361450805E1,6.583253145E-1,1.709372640E0,2.904587507E0
3.363496742E1,4.261617184E0,-2.395813614E-1,1.352004623E1
3.365542680E1,3.382853031E0,4.091726840E-1,1.031426239E1
3.367588622E1,2.688635349E0,-2.228316069E-1,1.065912724E1
3.369634560E1,2.980559587E0,1.141974568E0,6.984051228E0
3.371680498E1,3.768396616E0,2.499303341E0,1.114038372E1
3.373726440E1,4.730610371E0,8.353942037E-1,1.104676437E1
3.375772378E1,1.261615753E0,3.254238665E-1,8.399106979E0
3.377818315E1,2.683849812E0,8.712865710E-1,6.955337048E0
3.379864258E1,4.074677944E0,9.215358496E-1,1.239003563E1
3.381910195E1,9.810572863E-2,1.821835399E0,5.988038540E0
3.383956133E1,3.648755312E0,1.421934843E0,1.420947838E1
3.386002076E1,3.320639610E0,1.465005636E0,1.201167011E1
3.388048013E1,2.310270309E0,5.386841893E-1,6.526722908E0
3.390093951E1,1.814656854E0,1.122832060E0,5.743970871E0
3.392139893E1,5.065904617E0,1.196411345E-2,1.232064342E1
3.394185831E1,1.864906192E0,1.448255897E0,7.508378506E0
3.396231768E1,3.354139090E0,1.400399446E0,8.008777618E0
3.398277711E1,4.108177185E0,8.880363107E-1,1.064237785E1
3.400323649E1,2.504088879E0,-6.705885530E-1,8.643174171E0
3.402369586E1,4.498506546E0,-9.337990284E-1,1.169342518E1
3.404415529E1,4.012464523E0,-4.788636267E-1,9.351749420E0
3.406461466E1,3.313461065E0,-5.697908998E-1,8.286344528E0
3.408507404E1,3.437887907E0,4.307080805E-2,6.728019238E0
3.410553341E1,4.074677944E0,3.924229145E-1,1.174845982E1
3.412599284E1,2.262413740E0,8.904291391E-1,8.161917686E0
3.414645222E1,1.000798106E0,3.023630619E0,4.917848587E0
3.416691159E1,1.288505077E1,-2.949752092E0,2.323041916E1
3.418737102E1,-2.440679073E-1,1.319043517E0,-1.510170221E0
3.420783039E1,-3.413959742E0,5.805585861E0,8.571390152E0
3.422828977E1,7.938787460E0,-8.907282352E-1,1.851416588E1
3.424874914E1,-1.052841991E-1,2.382055044E0,7.206882477E0
3.426920857E1,5.300401211E0,3.267997503E0,1.005823040E1
3.428966794E1,6.367899179E-1,3.871287823E0,6.060122490E0
3.431012732E1,4.963013172E0,1.879263043E0,1.285693550E1
3.433058675E1,2.403590441E0,1.271187067E0,9.299106598E0
3.435104612E1,2.525923491E0,9.430712461E-1,6.464509487E0
3.437150550E1,5.130510807E0,1.522433400E0,1.066630650E1
3.439196487E1,3.351746321E0,-9.792626500E-1,8.039883614E0
3.441242430E1,3.634099483E0,3.541377485E-1,7.980063438E0
3.443288367E1,6.215057850E0,-6.801598072E-1,9.991230965E0
3.445334305E1,3.756432533E0,4.067798331E-2,5.753541946E0
3.447380242E1,5.120939732E0,-2.515454888E-1,8.262416840E0
3.449426185E1,5.429912567E0,2.536391914E-1,5.956932068E0
3.451472122E1,5.003691196E0,-7.208378315E-1,8.166703224E0
3.453518060E1,3.919144392E0,2.116152525E0,6.088836193E0
3.455563998E1,8.039285660E0,6.726822853E-1,1.352483177E1
3.457609940E1,5.144867897E0,5.721837282E-1,9.117252350E0
3.459655878E1,2.525923491E0,1.465005636E0,7.929814339E0
3.461701815E1,3.818645954E0,1.843370795E0,1.021137047E1
3.463747753E1,4.946263313E0,3.086741269E-1,1.090319538E1
3.465793695E1,3.933501244E0,4.331009090E-1,8.935398102E0
3.467839633E1,3.684647799E0,5.171487927E-1,8.068597794E0
3.469885570E1,4.721039295E0,3.110669553E-1,8.741280556E0
3.471931508E1,5.350949764E0,-3.735794425E-1,1.073569775E1
3.473977451E1,1.821835399E0,-5.817549825E-1,8.271987915E0
3.476023388E1,1.730908036E0,-3.828516230E-2,9.514760017E0
3.478069326E1,1.781157374E0,1.642373681E0,9.059824944E0
3.480115263E1,-5.410770178E-1,3.490530014E0,9.639186859E0
3.482161206E1,5.705087185E0,1.726122379E0,1.126959610E1
3.484207143E1,2.499303341E0,3.476173162E0,7.364809036E0
3.486253081E1,5.575874805E0,1.919941068E0,8.446963310E0
3.488299018E1,3.761218071E0,2.183450699E0,5.703292847E0
3.490344961E1,4.515256405E0,2.225325108E-1,8.714959145E0
3.492390899E1,6.387341022E0,-5.602195859E-1,9.667901039E0
3.494436836E1,2.288734913E0,9.167501926E-1,9.100502968E0
3.496482774E1,1.410269856E0,-3.233301640E-1,8.135597229E0
3.498528716E1,2.444268227E0,6.894320250E-1,1.239003563E1
3.500574654E1,3.641277790E0,5.578267574E-1,9.033503532E0
3.502620591E1,2.090130568E0,1.316650629E0,1.193988609E1
3.504666529E1,2.157129526E0,6.272186637E-1,6.179763794E0
3.506712466E1,3.995714664E0,-4.908277392E-1,1.103001499E1
3.508758409E1,4.254438877E0,1.275972724E0,8.375178337E0
3.510804346E1,3.718147278E0,-2.132603228E-1,8.228917122E0
3.512850284E1,5.329114914E0,-9.577272534E-1,1.026640511E1
3.514896227E1,4.374079704E0,-9.266205430E-1,8.396714211E0
3.516942164E1,1.625623941E0,-3.735794425E-1,6.661019802E0
3.518988102E1,2.734098911E0,4.426721931E-1,8.808279037E0
3.521034039E1,2.939881802E0,3.541377485E-1,1.007737255E1
3.523079982E1,3.131606579E0,1.510469317E0,1.022812080E1
3.525125919E1,3.315854073E0,9.574281573E-1,8.365607262E0
3.527171857E1,4.266402721E0,4.067798555E-1,1.078594685E1
3.529217794E1,2.482553482E0,1.414756417E0,8.169096947E0
3.531263732E1,3.169891834E0,7.803592682E-1,1.066391277E1
3.533309675E1,4.872086048E0,8.114659786E-1,1.120738316E1
3.535355612E1,3.459423304E0,3.062812984E-1,9.538688660E0
3.537401550E1,2.825026274E0,1.498505235E0,9.655936241E0
3.539447487E1,2.762812853E0,1.189831018E0,1.004626560E1
3.541493430E1,2.456232548E0,9.358927608E-1,9.419047356E0
3.543539367E1,2.554637194E0,9.598209858E-1,8.909076691E0
3.545585305E1,2.638386011E0,1.951047778E0,9.493225098E0
3.547631242E1,3.866502285E0,1.419542074E0,1.022572803E1
3.549677180E1,3.602992773E0,1.338186026E0,9.102895737E0
3.551723122E1,3.287140131E0,1.204187989E0,9.541081429E0
3.553769060E1,3.756432533E0,1.278365493E0,8.729315758E0
3.555814998E1,4.321437836E0,7.971090674E-1,7.953742504E0
3.557860935E1,4.228117466E0,6.104688644E-1,7.223632336E0
3.559906872E1,3.547957659E0,1.709372640E0,7.379166126E0
3.561952815E1,5.312365532E0,1.185045362E0,1.115713406E1
3.563998753E1,3.634099483E0,2.504088879E0,5.439783096E0
3.566044690E1,4.646861553E0,2.094617128E0,7.683054447E0
3.568090628E1,6.636493683E0,1.046261668E0,1.161894894E1
3.570136570E1,4.472185612E0,2.379662037E0,7.192525864E0
3.572182508E1,5.726622581E0,1.915155411E0,7.345666409E0
3.574228445E1,4.783551693E0,2.081755698E-1,8.056633949E0
3.576274383E1,3.449851990E0,4.067798555E-1,5.940182209E0
3.578320326E1,5.006083965E0,-1.000798106E0,1.177478123E1
3.580366263E1,1.335793257E0,1.531406492E-1,6.021538258E0
3.582412201E1,2.197807550E0,2.440679073E-1,8.947361946E0
3.584458138E1,4.259224415E0,-8.853443712E-2,1.158544922E1
3.586504076E1,2.791526794E0,-6.272186637E-1,1.195663548E1
3.588550018E1,-1.746760458E-1,8.066803217E-1,4.728815556E0
3.590595956E1,3.943072557E0,-6.559324861E-1,9.481260300E0
3.592641893E1,8.216653824E0,-3.813860178E0,2.142054749E1
3.594687831E1,-1.041476011E0,2.774776936E0,-2.652144909E0
3.596733774E1,5.046761990E0,-2.317448616E0,7.575377464E0
3.598779711E1,4.718646049E0,1.411765367E-1,1.297896957E1
3.600825649E1,4.017250061E0,-1.004985496E-1,9.555438042E0
3.602871586E1,2.283949137E0,1.505683661E0,6.440581322E0
3.604917529E1,3.210569859E0,1.168295622E0,9.090931892E0
3.606963466E1,6.301199436E0,-5.075774789E-1,1.624696732E1
3.609009404E1,-2.751746178E-1,2.575873613E0,4.893920422E0
3.611055341E1,1.551446438E0,5.937191248E-1,9.110074043E0
3.613101279E1,2.106880426E0,2.370090723E0,1.123609734E1
3.615147222E1,6.066702843E0,-1.438983679E0,1.671147346E1
3.617193159E1,7.707880139E-1,8.880363107E-1,1.642971873E0
3.619239096E1,4.768895626E0,-7.351947427E-1,1.181067371E1
3.621285034E1,4.539184570E0,1.448255897E0,1.042433167E1
3.623330977E1,3.978965044E0,-1.642373681E0,1.097737312E1
3.625376914E1,1.292722464E0,-2.826521695E-1,5.327320576E0
3.627422852E1,3.081058264E0,9.478568435E-1,1.083858967E1
3.629468789E1,4.898406982E0,-1.218544960E0,1.312971687E1
3.631514732E1,2.825026274E0,-1.220937729E0,7.086942673E0
3.633560669E1,3.931108475E0,-3.017947674E-1,1.011805058E1
3.635606607E1,4.182354927E0,3.876372576E-1,1.075962639E1
3.637652550E1,2.126022816E0,7.657032460E-2,7.410272598E0
3.639698487E1,4.139284134E0,-4.836492836E-1,9.512367249E0
3.641744425E1,4.577469826E0,2.101795673E0,1.134377384E1
3.643790362E1,3.706183195E0,8.353942037E-1,7.917850018E0
3.645836300E1,4.496113777E0,4.139583111E-1,7.628019333E0
3.647882242E1,4.900799751E0,4.932205677E-1,6.517151356E0
3.649928180E1,4.776372910E0,-1.182652593E0,1.214806175E1
3.651974117E1,3.504886866E0,-2.874378264E-1,7.606483936E0
3.654020060E1,4.424329281E0,4.546362907E-2,8.121239662E0
3.656065998E1,4.280759811E0,1.848156333E0,9.789935112E0
3.658111935E1,3.801896095E0,-1.295115203E-1,1.067827034E1
3.660157878E1,3.114856958E0,1.271187067E0,1.097498035E1
3.662203815E1,4.254438877E0,-2.850449979E-1,1.067827034E1
3.664249753E1,2.032702923E0,1.855334878E0,7.903493404E0
3.666295690E1,3.344567776E0,9.669994712E-1,8.774779320E0
3.668341633E1,4.570291042E0,1.651047617E-1,1.222253799E1
3.670387570E1,3.735794425E-1,2.611765862E0,7.170990467E0
3.672433508E1,4.572684288E0,5.051847100E-1,1.158305645E1
3.674479445E1,2.188236237E0,2.520838737E0,7.831708431E0
3.676525388E1,6.540780544E0,-6.248258352E-1,1.449452305E1
3.678571326E1,1.204187989E0,2.111366987E0,5.437390327E0
3.680617263E1,2.956631422E0,1.426720500E0,6.890730858E0
3.682663206E1,3.354139090E0,1.951047778E0,8.207381248E0
3.684709143E1,6.176772594E0,3.302095234E-1,1.549023628E1
3.686755081E1,3.088535786E0,8.928219676E-1,7.608876705E0
3.688801024E1,4.735395908E0,-5.769693851E-1,9.442975044E0
3.690846961E1,3.725325823E0,6.942176819E-1,4.484747887E0
3.692892899E1,6.004489422E0,8.593224287E-1,1.018505001E1
3.694938841E1,6.083452702E0,1.417149186E0,8.454141617E0
3.696984779E1,5.671587944E0,3.278166950E-1,8.866005898E0
3.699030716E1,2.734098911E0,1.685444474E0,4.982754230E0
3.701076654E1,3.047558784E0,1.704586983E0,9.361320496E0
3.703122597E1,4.596612453E0,1.383649707E0,1.201406384E1
3.705168534E1,2.779562712E0,1.695015788E0,7.714160919E0
3.707214472E1,3.334996462E0,1.230509043E0,9.339784622E0
3.709260414E1,3.904787540E0,9.885348678E-1,1.061844921E1
3.711306352E1,2.908775091E0,-2.371885478E-1,1.039561844E1
3.713352289E1,2.901596546E0,-1.338485122E0,9.507581711E0
3.715398232E1,4.237689018E0,-1.407876968E0,1.337169075E1
3.717444169E1,6.008976102E-1,-9.194421172E-1,4.647459984E0
3.719490107E1,4.800301552E0,-1.360020518E0,1.079791164E1
3.721536050E1,4.295116425E0,1.019641519E0,1.204995537E1
3.723581987E1,2.801098108E0,4.211367965E-1,8.719744682E0
3.725627925E1,4.864907742E0,2.129612118E-1,9.911968231E0
3.727673862E1,2.518445730E0,2.991028428E-1,5.753541946E0
3.729719805E1,3.785146236E0,-1.836491346E0,1.032622623E1
3.731765742E1,1.843370795E0,9.167501926E-1,5.923432350E0
3.733811680E1,2.602493763E0,-9.810572863E-2,8.836993217E0
3.735857622E1,5.386841774E0,4.740779996E-1,1.173410320E1
3.737903560E1,3.236890793E0,-2.204387933E-1,9.811470032E0
3.739949498E1,1.819442511E0,-7.088736892E-1,6.483652115E0
3.741995440E1,2.475374937E0,7.492526174E-1,8.729315758E0
3.744041378E1,3.761218071E0,-1.086939692E0,1.202842045E1
3.746087315E1,2.561815739E0,2.321037948E-1,1.036929703E1
3.748133258E1,2.932703257E0,4.283152521E-1,1.170060349E1
3.750179195E1,1.436590910E0,3.589234054E-1,6.625127792E0
3.752225133E1,3.792324781E0,-7.591229677E-1,1.489412498E1
3.754271070E1,2.865704298E0,4.785645381E-2,1.106112194E1
3.756317013E1,2.405983210E0,3.972085714E-1,1.059930706E1
3.758362951E1,3.622135162E0,3.661018610E-1,9.260822296E0
3.760408888E1,1.448554993E0,1.912762642E0,8.674281120E0
3.762454831E1,1.666301847E0,1.675873160E0,7.798209190E0
3.764500768E1,6.602993965E0,6.870391965E-1,1.362772274E1
3.766546706E1,1.256830096E0,1.778764486E0,6.069693565E0
3.768592649E1,3.737289906E0,-4.573282301E-1,1.030947590E1
3.770638586E1,2.602493763E0,1.259222865E0,9.112466812E0
3.772684524E1,2.133201361E0,-2.392822690E-2,8.501997948E0
3.774730461E1,2.212164640E0,1.278365493E0,8.894720078E0
3.776776404E1,9.265308380E0,-2.245664120E0,1.899781609E1
3.778822341E1,1.527518153E0,4.570291340E-1,3.419343472E0
3.780868279E1,2.147558212E0,3.110669367E-2,6.352046967E0
3.782914216E1,4.314259052E0,2.293520451E0,1.115713406E1
3.784960159E1,4.139284134E0,-8.739784956E-1,8.365607262E0
3.787006096E1,3.900001764E0,-7.567301393E-1,6.038288116E0
3.789052034E1,5.492125988E0,9.981061220E-1,1.126481056E1
3.791097972E1,3.349353552E0,7.444669604E-1,6.222834587E0
3.793143914E1,7.218248844E0,-3.016751051E0,1.533230972E1
3.795189852E1,-3.334996462E0,3.349353552E0,-9.791430473E0
3.797235789E1,4.285545349E0,-5.003990531E-1,7.051050186E0
3.799281727E1,8.166404724E0,2.344966233E-1,2.689113998E1
3.801327669E1,-3.368496180E0,3.607778311E0,-3.133401155E0
3.803373607E1,8.697610855E0,-8.428717852E-1,8.710173607E0
3.805419544E1,6.133701801E0,1.275972724E0,1.505474281E1
3.807465482E1,1.666301847E0,-1.884347796E0,3.895814419E0
3.809511425E1,3.739682674E0,6.008976102E-1,5.346463203E0
3.811557362E1,5.065904617E0,-3.041875660E-1,1.294786263E1
3.813603300E1,-2.003988981E0,3.815953970E0,-2.393719912E0
3.815649237E1,6.097809315E0,9.332008660E-2,1.049372387E1
3.817695180E1,3.821038723E0,2.427518606E0,9.998409271E0
3.819741117E1,6.231807709E0,-5.482555032E-1,1.251924801E1
3.821787055E1,5.518447399E0,1.113260746E0,1.314885998E1
3.823832992E1,2.384447813E0,1.934298038E0,8.420641899E0
3.825878930E1,6.504888535E0,7.683951855E-1,1.847348785E1
3.827924867E1,2.219342947E0,4.124927044E0,1.070698357E1
3.829970810E1,1.209272766E1,-2.035095692E0,1.800898170E1
3.832016748E1,5.173581600E0,-9.571290575E-3,7.913064480E0
3.834062685E1,2.727817893E-1,1.635195136E0,4.032205105E0
3.836108622E1,2.549851656E0,2.595016241E0,6.981658459E0
3.838154560E1,5.494519234E0,-1.572981834E0,1.717807388E1
3.840200498E1,3.263211966E0,-6.463612318E-1,6.055336952E0
3.842246440E1,5.482554913E0,1.000499010E0,1.483908939E1
3.844292378E1,5.245366573E0,8.449655175E-1,1.165484047E1
3.846338315E1,4.316651821E0,8.617152572E-1,9.208179474E0
3.848384253E1,4.781158924E0,1.185045362E0,9.821041107E0
3.850430190E1,4.812564552E-1,7.277171612E-1,3.838386536E0
3.852476128E1,3.143570662E0,1.065404296E0,9.732506752E0
3.854522070E1,4.984548569E0,8.760721684E-1,1.268196011E1
3.856568008E1,4.951049328E0,-3.041875660E-1,1.050090218E1
3.858613945E1,3.131606579E0,2.350948334E0,5.123930454E0
3.860659883E1,3.744468451E0,2.145165443E0,6.620342255E0
3.862705820E1,8.350651741E0,-2.499602318E0,1.871037674E1
3.864751758E1,1.094118118E0,-7.178467698E-3,4.745565414E0
3.866797695E1,1.632802367E0,1.144367456E0,8.758029938E0
3.868843633E1,2.973381281E0,1.759621978E0,1.492283821E1
3.870889570E1,1.558624864E0,5.003990531E-1,7.297810078E0
3.872935508E1,5.250152111E0,7.899305820E-1,1.048654556E1
3.874981451E1,2.152343988E0,2.528017044E0,7.491628647E0
3.877027388E1,9.590732574E0,-6.921239495E-1,2.208605194E1
3.879073326E1,-3.927220106E-1,1.860120535E0,-4.445266247E0
3.881119263E1,2.616850615E0,1.053440213E0,8.952147484E0
3.883165201E1,-2.109273195E0,3.844966888E0,1.154536903E-1
3.885211138E1,5.860620975E0,5.362913609E-1,1.533230972E1
3.887257076E1,3.076272726E0,1.986940145E0,7.706982613E0
3.889303013E1,-1.252044439E0,2.068295956E0,1.307677627E0
3.891348951E1,1.025862885E1,-1.735693693E0,1.578963852E1
3.893394888E1,-1.108475089E0,3.354139090E0,-3.162115097E0
3.895440826E1,5.405984402E0,-1.999203324E0,1.344108295E1
3.897486763E1,2.341377020E0,-6.343970895E-1,4.800600529E0
3.899532701E1,6.822535396E-1,3.464209080E0,1.007019424E1
3.901578638E1,6.416054726E0,1.052841991E-1,1.658435440E1
3.903624576E1,4.005286217E0,-6.873382926E-1,9.457332611E0
3.905670513E1,2.260020971E0,1.041476011E0,4.743172646E0
3.907716451E1,4.694717884E0,2.153540403E-1,8.456534386E0
3.909762393E1,6.610172749E0,4.211367965E-1,1.587338734E1
3.911808326E1,3.282354355E0,2.105683982E-1,5.545366287E0
3.913854263E1,4.441078663E0,3.023630619E0,1.159023476E1
3.915900201E1,3.928715706E0,-9.960124493E-1,1.079791164E1
3.917946138E1,-2.236092806E0,9.167501926E-1,-1.076770186E0
3.919992076E1,1.156840038E1,-3.382853031E0,2.276351929E1
3.922038013E1,-6.990033388E-1,2.207378864E0,7.905287743E-1
3.924083951E1,4.689932346E0,1.048654556E0,1.112124157E1
3.926129888E1,4.539184570E0,2.499303341E0,1.254556942E1
3.928175826E1,4.970191956E0,3.140878916E0,1.095344448E1
3.930221763E1,3.624528170E0,1.647159338E0,6.689733982E0
3.932267701E1,4.876871586E0,4.498506486E-1,8.997611046E0
3.934313638E1,4.041178226E0,-4.645066857E-1,5.425426006E0
3.936359576E1,6.121737480E0,-2.204387933E-1,1.316321659E1
3.938405513E1,4.060320854E0,8.425726891E-1,1.093430233E1
3.940451451E1,3.267997503E0,1.378864050E0,8.356036186E0
3.942497388E1,3.739682674E0,1.139581800E0,9.543474197E0
3.944543326E1,3.153141975E0,4.546363056E-1,5.621936798E0
3.946589263E1,5.973382473E0,9.502496719E-1,1.266281700E1
3.948635201E1,2.999702215E0,2.889632463E0,8.590532303E0
3.950681138E1,5.082654476E0,9.000003934E-1,1.013719273E1
3.952727076E1,4.644468784E0,9.957132936E-1,8.269595146E0
3.954773013E1,6.760920525E0,8.135596663E-2,1.268913841E1
3.956818951E1,2.389233351E0,1.455434322E0,7.089335442E0
3.958864883E1,4.271188259E0,8.545367718E-1,9.500403404E0
3.960910820E1,5.309972763E0,3.014956415E-1,1.250489140E1
3.962956758E1,4.338187218E0,-1.723729610E0,9.825826645E0
3.965002695E1,3.768396616E0,-4.307080805E-2,6.711269379E0
3.967048633E1,4.352544308E0,2.799602449E-1,9.876076698E0
3.969094570E1,5.154438972E0,-5.267201066E-1,1.180349541E1
3.971140508E1,2.877668381E0,9.023932219E-1,8.109275818E0
3.973186445E1,3.766003847E0,1.079761267E0,8.760422707E0
3.975232383E1,3.447459221E0,1.161117196E0,6.163013935E0
3.977278320E1,3.607778311E0,2.149951220E0,1.115713406E1
3.979324258E1,4.151247978E0,2.662015200E0,1.017547798E1
3.981370195E1,3.409173965E0,6.774678826E-1,9.816255569E0
3.983416128E1,4.510470867E0,-2.491526604E-1,7.101299286E0
3.985462065E1,3.368496180E0,3.924229145E-1,9.313464165E0
3.987508003E1,2.796312332E0,8.617152572E-1,8.006384850E0
3.989553940E1,4.900799751E0,-1.196411345E-2,1.174128151E1
3.991599878E1,2.844168901E0,-4.214358926E-1,5.205286503E0
3.993645815E1,4.441078663E0,-8.285148144E-1,1.029511929E1
3.995691753E1,5.233402252E0,-2.826521695E-1,8.992825508E0
3.997737690E1,1.278365493E0,1.180259824E0,5.593223095E0
3.999783628E1,4.077070713E0,3.565305769E-1,1.153998566E1
4.001829560E1,4.649254322E0,9.669994712E-1,1.044108200E1
4.003875498E1,4.354937077E0,4.043870270E-1,9.557830811E0
4.005921435E1,2.758027315E0,7.923234105E-1,6.466902256E0
4.007967372E1,3.895216227E0,1.196411327E-1,1.063519955E1
4.010013310E1,2.999702215E0,4.570291340E-1,1.017308521E1
4.012059248E1,2.841775894E0,3.445664644E-1,8.997611046E0
4.014105185E1,4.108177185E0,4.546363056E-1,1.065434170E1
4.016151117E1,3.641277790E0,3.206382394E-1,1.035254669E1
4.018197055E1,8.306085467E-1,2.120938063E0,5.755934715E0
4.020242992E1,3.363710403E0,1.754836321E0,9.959825516E0
4.022288930E1,3.852145433E0,7.636095285E-1,1.242832088E1
4.024334867E1,2.432304144E0,9.406784177E-1,9.888040543E0
4.026380805E1,2.310270309E0,1.637588024E0,8.245666504E0
4.028426742E1,2.458625317E0,1.400399446E0,8.506783485E0
4.030472675E1,3.086143017E0,5.982056633E-2,9.038289070E0
4.032518612E1,3.155534744E0,-5.410770178E-1,8.360821724E0
4.034564550E1,3.978965044E0,3.876372576E-1,9.406784058E0
4.036610487E1,4.376472473E0,-5.410770178E-1,9.318249702E0
4.038656425E1,3.579064369E0,-1.022333503E0,9.710971832E0
4.040702362E1,3.141177893E0,2.632104978E-2,6.234798431E0
4.042748300E1,5.269294739E0,4.570291340E-1,7.544270515E0
4.044794232E1,5.360520840E0,3.900300860E-1,7.642376423E0
4.046840169E1,4.235296249E0,1.185045362E0,7.709375381E0
4.048886107E1,4.639683247E0,3.302095234E-1,8.769993782E0
4.050932044E1,4.536791801E0,-3.975076675E-1,9.710971832E0
4.052977982E1,4.223331928E0,-2.871387079E-2,9.165108681E0
4.055023919E1,4.007678986E0,5.291129351E-1,8.774779320E0
4.057069852E1,3.876073599E0,1.189831018E0,1.081226826E1
4.059115789E1,1.503589988E0,1.546361685E0,7.460521698E0
4.061161727E1,4.283152580E0,6.655037999E-1,9.694221497E0
4.063207664E1,2.655135870E0,2.209771633E0,8.877969742E0
4.065253602E1,2.760420084E0,2.018046856E0,9.548259735E0
4.067299534E1,2.018345833E0,3.344567776E0,1.083619690E1
4.069345472E1,4.800301552E0,1.342971683E0,1.015155029E1
4.071391409E1,3.521636724E0,2.181057930E0,9.031110764E0
4.073437347E1,3.988536358E0,1.206580877E0,8.681459427E0
4.075483279E1,2.480160713E0,1.457827210E0,7.917850018E0
4.077529216E1,4.065106392E0,1.592124343E0,7.070192814E0
4.079575154E1,3.337389469E0,1.644766450E0,7.718946934E0
4.081621091E1,4.067499161E0,5.841478109E-1,9.268000603E0
4.083667029E1,4.043570995E0,2.153540403E-2,9.313464165E0
4.085712961E1,3.524029493E0,9.571290761E-2,1.152084255E1
4.087758899E1,1.175474167E0,1.228116274E0,6.588936329E0
4.089804836E1,2.001596212E0,1.481755376E0,5.607579708E0
4.091850774E1,7.709076405E0,-1.264307618E0,1.320868015E1
4.093896706E1,4.939085007E0,-3.376871049E-1,8.693424225E0
4.095942643E1,3.150749207E0,-9.571290575E-3,7.498806953E0
4.097988581E1,5.199902534E0,-4.860421121E-1,7.702197075E0
4.100034518E1,4.007678986E0,2.177468538E-1,6.677769661E0
4.102080451E1,3.576671600E0,8.856434822E-1,9.088538170E0
4.104126388E1,3.777967930E0,1.362114310E0,1.101087284E1
4.106172326E1,4.931906700E0,-1.271187067E-1,1.134138107E1
4.108218263E1,1.446162224E0,9.454640746E-1,5.351248741E0
4.110264195E1,2.834597588E0,5.769693851E-1,7.132406235E0
4.112310133E1,4.151247978E0,7.348956466E-1,1.028794098E1
4.114356070E1,3.052344322E0,3.278166950E-1,8.501997948E0
4.116402008E1,2.461018085E0,2.123331070E0,8.616853714E0
4.118447940E1,4.122534275E0,1.503290772E0,1.216002560E1
4.120493878E1,4.898406982E0,-3.349951655E-2,6.332904339E0
4.122539815E1,4.589433670E0,-9.170492887E-1,9.715757370E0
4.124585748E1,7.516453862E-1,8.138588071E-1,5.889933109E0
4.126631685E1,3.150749207E0,3.254238665E-1,1.354636765E1
4.128677623E1,3.789932013E0,-4.932205677E-1,1.034776115E1
4.130723560E1,4.955834866E0,-1.254736423E0,8.518747330E0
4.132769492E1,3.485744476E0,-4.692923427E-1,4.791028976E0
4.134815430E1,5.635695457E0,-8.452646136E-1,1.131505966E1
4.136861367E1,3.356531858E0,-1.266700506E0,7.307381153E0
4.138907300E1,5.422734261E0,-1.027119160E0,1.093669510E1
4.140953237E1,4.773980141E0,-1.357627749E0,8.152346611E0
4.142999175E1,2.994916677E0,3.397808075E-1,6.984051228E0
4.145045107E1,3.916751623E0,2.440679073E-1,1.046740246E1
4.147091044E1,2.959024191E0,2.145165443E0,9.318249702E0
4.149136982E1,4.910371304E0,8.042874932E-1,9.052646637E0
4.151182914E1,2.310270309E0,7.612167001E-1,3.419343472E0
4.153228852E1,7.072286606E0,-6.221338734E-2,1.524856186E1
4.155274784E1,1.170688510E0,7.229315639E-1,4.566103935E0
4.157320722E1,3.086143017E0,2.560320199E-1,9.837791443E0
4.159366659E1,1.948654890E0,1.311864972E0,6.610770702E0
4.161412591E1,3.559921980E0,-6.221338734E-2,1.038365364E1
4.163458529E1,2.547458887E0,6.152545214E-1,7.269095898E0
4.165504466E1,5.097011566E0,-1.170688510E0,1.129113197E1
4.167550399E1,4.364508629E0,-6.873382926E-1,8.726922989E0
4.169596336E1,2.564208508E0,-1.472483277E0,6.878767014E0
4.171642268E1,4.357329845E0,-1.400698543E0,9.940682411E0
4.173688206E1,5.530411243E0,-1.869990945E0,1.100130081E1
4.175734143E1,3.028416157E0,4.668995142E-1,5.281857014E0
4.177780076E1,6.155237198E0,-7.878368497E-1,1.113559818E1
4.179826013E1,4.115355968E0,1.316052526E-1,8.528319359E0
4.181871945E1,4.781158924E0,2.297109663E-1,9.315856934E0
4.183917883E1,4.761716843E0,1.280758262E0,1.040279675E1
4.185963820E1,5.650052547E0,1.124626622E-1,1.119302654E1
4.188009753E1,2.805883646E0,8.808578253E-1,8.140382767E0
4.190055690E1,3.289532900E0,8.042874932E-1,1.235892868E1
4.192101622E1,2.097309113E0,1.053440213E0,7.252346516E0
4.194147560E1,5.731408596E0,-7.615157962E-1,1.436022568E1
4.196193492E1,8.739784956E-1,3.565305769E-1,4.700101852E0
4.198239430E1,3.957429647E0,2.536391914E-1,1.076680470E1
4.200285362E1,2.956631422E0,3.030808926E0,9.145966530E0
4.202331300E1,6.399304867E0,-2.392822690E-2,1.913420677E1
4.204377237E1,3.629313707E0,3.038884699E-1,5.700900078E0
4.206423169E1,4.280759811E0,1.208973646E0,1.031426239E1
4.208469107E1,3.971786499E0,8.186444640E-1,1.295743370E1
4.210515039E1,2.722134829E0,9.478568435E-1,1.174367428E1
4.212560977E1,1.723729610E0,1.479362607E0,4.343272209E0
4.214606909E1,3.911965847E0,1.647159338E0,8.633603096E0
4.216652847E1,3.612564087E0,4.498506486E-1,7.893921852E0
4.218698779E1,3.945465326E0,1.014855862E0,1.151127148E1
4.220744716E1,5.676373482E0,5.937191248E-1,9.605687141E0
4.222790654E1,5.178367138E0,8.641080856E-1,6.658627033E0
4.224836586E1,3.571886063E0,2.590230465E0,9.215357780E0
4.226882524E1,1.735693693E0,1.371685624E0,8.027919769E0
4.228928456E1,1.149153113E0,1.510469317E0,7.850851059E0
4.230974393E1,3.658326626E0,1.429113269E0,1.286172104E1
4.233020326E1,3.947858334E0,1.735693693E0,1.058973598E1
4.235066263E1,4.620540619E0,7.657032460E-2,9.208179474E0
4.237112195E1,4.615755081E0,1.053440213E0,9.445367813E0
4.239158133E1,3.993321896E0,-1.821536273E-1,1.032383347E1
4.241204065E1,4.836193562E0,-1.802991867E0,1.099890804E1
4.243250003E1,5.944668770E0,-2.346461773E0,7.644769192E0
4.245295935E1,8.262117386E0,-1.656730533E0,2.741875648E0
4.247341872E1,4.773980141E0,-7.184450030E-1,6.074479580E0
4.249387805E1,5.015655518E0,1.469791293E0,4.939683437E0
4.251433742E1,7.577471256E0,-8.955138922E-1,1.438654709E1
4.253479675E1,2.520838737E0,1.759621978E0,2.332403898E0
4.255525612E1,4.656432629E0,7.540382147E-1,1.288564873E1
4.257571544E1,4.431507587E0,1.596910000E0,1.201167011E1
4.259617482E1,4.912764072E0,-7.280163169E-1,1.219831085E1
4.261663414E1,4.400400639E0,6.918248534E-1,9.102895737E0
4.263709352E1,3.545564890E0,1.058225870E0,7.824530125E0
4.265755284E1,2.638386011E0,2.919243574E-1,8.521140099E0
4.267801222E1,1.946262121E0,-7.417750359E-2,7.999206066E0
4.269847154E1,3.569493294E0,-1.797607988E-1,8.504390717E0
4.271893091E1,7.364210606E0,-8.931210637E-1,1.566521168E1
4.273939024E1,2.188236237E0,2.405983210E0,5.626722336E0
4.275984956E1,2.226521492E0,2.434697151E0,5.571687698E0
4.278030893E1,8.082356453E0,-1.491625786E0,1.484387493E1
4.280076826E1,2.427518606E0,1.443470240E0,6.814160824E0
4.282122763E1,3.480958700E0,3.195913792E0,1.128634644E1
4.284168695E1,3.478565931E0,7.731808424E-1,1.176281738E1
4.286214628E1,-2.874378264E-1,2.113759756E0,4.893920422E0
4.288260565E1,6.203093529E0,-6.607181430E-1,1.827697754E1
4.290306498E1,2.482553482E0,1.678265929E0,4.779065132E0
4.292352435E1,5.678766251E0,-1.867598057E0,1.058255768E1
4.294398367E1,4.776372910E0,-3.352942765E-1,1.037886810E1
4.296444300E1,9.002995491E-1,2.726920605E0,5.023432255E0
4.298490237E1,2.947060108E0,9.287142754E-1,5.799005508E0
4.300536169E1,4.165605068E0,4.378865361E-1,1.114756203E1
4.302582102E1,7.811967850E0,-1.199402362E-1,1.824587059E1
4.304628039E1,4.319045067E0,3.517449200E-1,7.984848976E0
4.306673972E1,5.250152111E0,-8.452646136E-1,1.136052418E1
4.308719904E1,2.755634308E0,-3.329014480E-1,1.034895778E0
4.310765841E1,4.096213341E0,4.307080805E-1,8.971290588E0
4.312811774E1,3.150749207E0,1.890329868E-1,8.856434822E0
4.314857706E1,4.867300510E0,-1.175474152E-1,8.588139534E0
4.316903643E1,3.837788343E0,2.358126640E0,6.625127792E0
4.318949576E1,1.683051586E0,1.453041553E0,4.360022068E0
