"Time (s)","Gyroscope x (rad/s)","Gyroscope y (rad/s)","Gyroscope z (rad/s)"
7.142083000E-3,-7.137750387E-1,-2.013123512E0,-3.864372373E-1
2.760098900E-2,-8.670976758E-1,-2.038168192E0,-5.574744940E-1
4.805994800E-2,-7.681404352E-1,-1.772449732E0,-4.579063654E-1
6.851890600E-2,-8.102889061E-1,-1.885456443E0,-3.003077805E-1
8.897781200E-2,-1.181073189E0,-2.050996065E0,-4.212555289E-1
1.094367180E-1,-1.643484592E0,-1.662497163E0,-5.623612404E-1
1.298956770E-1,-1.654479742E0,-1.853081465E0,-3.693335354E-1
1.503545830E-1,-1.686854720E0,-1.773671389E0,1.944784969E-1
1.708135410E-1,-1.509709001E0,-1.316757679E0,4.467584193E-1
1.912724480E-1,-1.385096192E0,-1.304540634E0,1.223985180E-1
2.117314060E-1,-1.647149682E0,-1.470080256E0,-4.619532451E-2
2.321903120E-1,-1.267202616E0,-1.618745178E-2,5.011238456E-1
2.526492700E-1,-3.967452943E-1,1.829182148E0,1.188937783E0
2.731082290E-1,2.037175596E-1,2.232646793E-1,8.138776422E-1
2.935671350E-1,8.460234851E-2,-1.033324480E0,-5.911474228E-1
3.140260410E-1,-5.018110275E-1,7.675296068E-1,-3.503972590E-1
3.344850000E-1,-7.797465324E-1,1.016755223E0,-3.336753324E-2
3.549439580E-1,-4.126273096E-1,3.277195692E-1,3.655157387E-1
3.754028640E-1,3.717005551E-1,-7.847096324E-1,1.262239456E0
3.958618230E-1,8.586221933E-1,-8.848885894E-1,1.689221740E0
4.163207290E-1,1.038211226E0,2.168202400E0,1.573771596E0
4.367796870E-1,1.084024787E0,2.445527077E0,5.548783541E-1
4.572385930E-1,9.074899554E-1,3.466558158E-1,-3.510081172E-1
4.776975520E-1,4.847072959E-1,-8.262472749E-1,-9.161182046E-1
4.981565100E-1,3.148917556E-1,-5.196019411E-1,-8.043331504E-1
5.186154160E-1,7.308787704E-1,-7.792120576E-1,-7.945595980E-1
5.390743750E-1,1.363792896E0,-2.108415604E0,-2.453315258E-1
5.595332810E-1,2.001517296E0,-3.450523376E0,-1.870719716E-2
5.799922390E-1,2.155450821E0,-6.384499073E0,-1.335770249E0
6.004511980E-1,7.760814428E-1,-5.527480602E0,-2.023584366E0
6.209101040E-1,-8.276980370E-2,-1.068753600E0,-1.428008199E0
6.413690620E-1,1.004843712E-1,1.121210098E0,-4.811185598E-1
6.618280200E-1,2.031067163E-1,1.473058224E0,3.948363960E-1
6.822869270E-1,-6.997255087E-1,1.324011445E0,-3.216874301E-1
7.027458850E-1,-1.295912504E0,1.890572309E-1,-1.095096469E0
7.232047910E-1,-9.165763259E-1,-8.268581033E-1,-6.168029904E-1
7.436637500E-1,-2.275405973E-1,-7.065212131E-1,5.200600624E-1
7.641227080E-1,2.122694254E-1,-3.634541109E-2,-2.603736520E-2
7.845816140E-1,-5.100574717E-2,4.346178174E-1,1.855448633E-2
8.050405730E-1,-6.453601122E-1,2.257080674E-1,-2.459423840E-1
8.254995310E-1,-8.512156606E-1,-4.340833426E-1,-6.687250137E-1
8.459584370E-1,-1.038134933E0,-2.514399886E-1,-6.424586177E-1
8.664173950E-1,-1.273616552E-1,2.107422985E-2,-1.860793531E-1
8.868763540E-1,8.329665661E-1,2.452551723E-1,1.895917207E-1
9.073352600E-1,1.426099300E0,-8.800018430E-1,-5.169294775E-2
9.277942180E-1,7.058340311E-1,-1.275220037E0,-5.232670307E-1
9.482531770E-1,-4.492781460E-1,-1.009501457E0,-3.485647142E-1
9.687121350E-1,-5.806103349E-1,-1.627678871E0,3.749075159E-2
9.891710410E-1,-2.550287247E-1,-1.783444881E0,1.144575030E-1
1.009630000E0,-5.225798488E-1,-5.867951512E-1,1.244601328E-2
1.030088958E0,-1.082726717E0,1.713426560E-1,1.028514057E-1
1.050547916E0,-1.181684017E0,-2.367796749E-1,3.508553803E-1
1.071006823E0,-4.578300118E-1,-9.759048223E-1,5.524349809E-1
1.091465781E0,-1.053711548E-1,-1.219632864E0,7.075902224E-1
1.111924739E0,-1.105328083E0,2.391161680E0,1.278121591E0
1.132383698E0,-3.145863488E-2,6.478035450E-1,9.323819876E-1
1.152842656E0,1.266057253E0,-2.502183020E-1,7.760050893E-1
1.173301562E0,2.861819267E-1,5.806103349E-1,8.877901435E-1
1.193760520E0,5.100574717E-2,5.738909841E-1,9.751412868E-1
1.214219479E0,1.075472951E0,-3.406237066E-1,7.741725445E-1
1.234678437E0,1.212302685E0,-1.029659390E0,9.287168980E-1
1.255137395E0,6.520794630E-1,-7.028561234E-1,7.973847389E-1
1.275596354E0,3.332171738E-1,-7.822662592E-1,2.848838866E-1
1.296055260E0,-4.529432356E-1,4.529432356E-1,1.056383967E0
1.316514218E0,-5.222744122E-2,6.343649030E-1,1.775351167E0
1.336973177E0,1.164045811E0,-4.102602899E-1,1.270180464E0
1.357432135E0,5.494571328E-1,1.982199401E-1,1.232308030E0
1.377891093E0,7.687512636E-1,-1.004003882E0,5.866424441E-1
1.398350052E0,-6.080984473E-1,6.410841942E-1,1.114414454E0
1.418809010E0,-1.985253580E-2,-5.772506446E-2,1.755422354E-1
1.439267968E0,-2.464768738E-1,1.198787689E0,8.132667542E-1
1.459726927E0,4.474456310E-1,4.944808483E-1,1.198711395E0
1.480185833E0,2.709107697E-1,-3.461213410E-1,7.741725445E-1
1.500644791E0,3.939964995E-2,5.714476109E-1,6.006919146E-1
1.521103750E0,3.271087110E-1,1.493521482E-1,2.103605270E-1
1.541562708E0,5.861079693E-1,9.251281619E-1,5.365529656E-1
1.562021666E0,1.405330420E0,-1.306984067E0,-9.544488043E-3
1.582480625E0,1.279724985E-1,-1.753513455E0,7.963921130E-2
1.602939583E0,-1.203674555E0,1.503600478E0,-3.491755724E-1
1.623398541E0,-1.275754452E0,1.126707792E0,-8.467870206E-2
1.643857500E0,9.820133448E-1,6.807892919E-1,-2.758738995E-1
1.664316458E0,8.830560446E-1,-1.313321572E-2,2.097496837E-1
1.684775416E0,1.016831636E0,-4.615714550E-1,6.611657739E-1
1.705234375E0,-5.201364160E-1,-9.750649333E-2,-6.390989572E-2
1.725693333E0,-1.520704269E0,2.083905458E0,8.452598751E-2
1.746152291E0,-1.113269091E0,1.793753028E0,-8.712209016E-2
1.766611250E0,1.863084175E-2,-3.613924980E-1,1.733279042E-2
1.787070208E0,1.853921413E-1,-1.592249751E0,6.330668330E-1
1.807529166E0,7.663078904E-1,-2.007625818E0,8.621345758E-1
1.827988125E0,1.957765520E-1,-5.330405831E-1,7.167528868E-1
1.848447083E0,8.555679321E-1,6.575770974E-1,8.792382479E-1
1.868906041E0,1.680211782E0,-2.021064520E0,6.214607358E-1
1.889365000E0,1.204361677E0,-2.431553841E0,5.255576968E-1
1.909823958E0,-6.016845629E-2,-7.132405043E-1,5.261685848E-1
1.930282968E0,-4.651601911E-1,3.106158376E-1,9.002361447E-2
1.950741927E0,-3.970507067E-3,5.983248949E-1,-3.345152438E-1
1.971200885E0,-3.359660041E-3,1.915006191E-1,-4.133145213E-1
1.991658622E0,-3.497100472E-1,-1.384332627E-1,-2.606027126E-1
2.012117581E0,-2.605263591E-1,-2.935884595E-1,-5.902311578E-2
2.032576539E0,1.291942000E-1,-4.444677234E-1,-2.386122048E-1
2.053035497E0,1.915006191E-1,2.525853515E-1,-4.230880737E-1
2.073494456E0,-2.055501044E-1,9.544488192E-1,-3.125247359E-1
2.093953414E0,-4.816530645E-1,9.092461467E-1,-2.978644073E-1
2.114412424E0,-6.636855602E-1,1.444653720E-1,-3.168006539E-1
2.134871383E0,-1.185959935E0,-2.160108685E-1,-2.190651000E-1
2.155330341E0,-1.621494055E0,-2.288386524E-1,-4.191939160E-2
2.175789299E0,-1.669140100E0,-2.911450863E-1,8.819106966E-2
2.196248258E0,-1.420525312E0,-2.312820405E-1,4.357631505E-1
2.216707216E0,-7.137750387E-1,3.359660041E-3,-6.137487888E-1
2.237166227E0,-9.898779988E-1,1.239714503E0,-5.623612404E-1
2.257625185E0,2.473931387E-2,2.667951822E0,-5.287646651E-1
2.278084143E0,6.850652099E-1,1.337450027E0,-1.311947227E0
2.298543102E0,1.334701329E-1,-3.259633780E-1,-7.151494026E-1
2.319002112E0,-6.077930331E-2,-3.919348717E-1,-1.628671438E-1
2.339461070E0,-7.116370648E-2,-1.000949621E0,1.621035933E-1
2.359920029E0,2.305948436E-1,-1.085857391E0,8.700755835E-1
2.380378987E0,8.390750885E-1,-1.331417918E0,1.033171773E0
2.400837945E0,8.011261821E-1,-7.975374460E-1,3.080960810E-1
2.421296956E0,-5.366293192E-1,-4.611896724E-2,3.545204699E-1
2.441755914E0,-1.152363300E0,6.154286265E-1,2.128039151E-1
2.462214872E0,-8.487722874E-1,2.544178963E-1,-9.750649333E-2
2.482673883E0,-8.399149776E-2,-2.856474519E-1,-1.335464865E-1
2.503132841E0,2.535016090E-2,-4.499653578E-1,3.337516785E-1
2.523591799E0,4.034646153E-1,-4.682907760E-1,2.893888950E-2
2.544050810E0,-8.643488586E-2,-1.604237556E-1,2.720561028E-1
2.564509768E0,-1.536280811E-1,-1.555369794E-1,8.025006205E-2
2.584968727E0,-1.731752008E-1,2.229592577E-2,-1.879118830E-1
2.605427737E0,-2.721324563E-1,3.863608837E-1,-1.359898746E-1
2.625886695E0,-2.837385535E-1,6.972821355E-1,4.528668821E-1
2.646345654E0,5.344913527E-2,1.017060652E-1,3.001550734E-1
2.666804664E0,1.566823274E-1,-9.750649333E-2,-2.276169658E-1
2.687263622E0,-9.263498783E-1,1.319735527E0,2.329618782E-1
2.707722633E0,-4.352286756E-1,-1.860793531E-1,1.059056446E-1
2.728181591E0,6.239804626E-1,-1.482068151E-1,-1.060583517E-1
2.748640549E0,7.299624383E-2,1.725643575E-1,3.636831939E-1
2.769099560E0,5.467082933E-2,1.829487532E-1,2.396811992E-1
2.789558518E0,-2.324273884E-1,2.385358512E-1,-1.565296017E-2
2.810017529E0,-2.397575527E-1,1.896680743E-1,-4.436278343E-2
2.830476487E0,-7.516475320E-1,3.185568452E-1,8.208259940E-2
2.850935497E0,-5.482354164E-1,6.710157394E-1,-1.573695242E-1
2.871394456E0,-6.917845011E-1,-3.390202299E-2,-1.353790164E-1
2.891853414E0,-3.924693763E-1,-2.722088099E-1,-5.862606764E-1
2.912312424E0,-9.336800575E-1,2.290677279E-2,-7.059867382E-1
2.932771435E0,-7.253811359E-1,-5.955760926E-2,-5.312080383E-1
2.953230393E0,9.498675168E-2,-2.703762650E-1,-7.420266867E-1
2.973689404E0,6.233696342E-1,-6.918608546E-1,-5.336514115E-1
2.994148362E0,8.439618349E-1,-7.052994967E-1,-5.067741275E-1
3.014607372E0,2.373141646E-1,-1.115559787E-1,-1.830251068E-1
3.035066331E0,-3.869717419E-1,3.368822634E-1,-1.854684949E-1
3.055525341E0,-2.733541429E-1,-3.369586170E-1,-3.143572807E-1
3.075984299E0,4.550812021E-2,1.585148573E-1,-2.074590027E-1
3.096443310E0,1.130067464E-2,-5.990120769E-1,-1.504211407E-2
3.116902268E0,2.476985604E-1,-7.327876687E-1,-1.634780020E-1
3.137361279E0,2.843494117E-1,-4.517979026E-1,-1.555369794E-1
3.157820237E0,5.528167635E-2,-2.074590027E-1,-3.607816696E-1
3.178279247E0,-3.057290614E-1,-2.840439789E-2,-3.888806403E-1
3.198738258E0,2.962609194E-2,-4.169796109E-1,-4.615714550E-1
3.219197216E0,3.350497186E-1,-1.366007179E-1,-3.632250428E-1
3.239656227E0,2.861819267E-1,2.861819267E-1,-9.017632902E-2
3.260115185E0,-3.054236295E-4,-1.194969937E-1,5.825955793E-2
3.280574195E0,-1.020420313E0,5.928272605E-1,2.470113635E-1
3.301033206E0,-3.515425920E-1,1.206423342E-1,-4.976114631E-1
3.321492164E0,5.854970813E-1,-5.283828825E-2,-3.595599532E-1
3.341951174E0,9.416974187E-1,-2.208976448E-1,1.223985180E-1
3.362410185E0,-2.779355086E-2,9.254335612E-2,1.700446010E-1
3.382869143E0,4.401154518E-1,-3.687226772E-1,-6.748335361E-1
3.403328154E0,-3.038965166E-1,5.952706337E-1,-4.884487391E-1
3.423787164E0,-3.179459870E-1,1.030193925E0,-2.697654068E-1
3.444246122E0,1.927223057E-1,1.148087382E0,-3.326826990E-1
3.464705133E0,2.000524700E-1,-5.650337040E-2,-4.572955370E-1
3.485164143E0,-7.809682488E-1,-3.573456407E-2,-4.314108938E-2
3.505623154E0,-5.042544007E-1,-2.779355086E-2,4.882960320E-1
3.526082112E0,3.778090179E-1,3.313846290E-1,1.975327283E-1
3.546541122E0,7.687512636E-1,1.243074164E-1,4.522560537E-1
3.567000133E0,6.087092757E-1,-3.583382666E-1,2.005869746E-1
3.587459143E0,4.150707126E-1,-3.314609826E-1,-2.420482226E-2
3.607918102E0,3.002314270E-1,-7.004127502E-1,2.672456671E-3
3.628377112E0,3.167243004E-1,-1.030270219E0,-2.489966154E-1
3.648836122E0,4.611896724E-2,-8.079218268E-1,3.251998127E-1
3.669295133E0,2.018850148E-1,-1.027826905E0,6.923190355E-1
3.689754091E0,4.123219103E-2,-6.497124434E-1,6.813237667E-1
3.710213102E0,-4.859289825E-1,9.300149679E-1,7.472952604E-1
3.730672112E0,-3.063398898E-1,-3.974325061E-1,6.110763550E-1
3.751131122E0,-2.049392611E-1,5.628957748E-1,1.871483326E-1
3.771590133E0,1.010952219E-1,-2.031830698E-1,3.881170750E-1
3.792049091E0,-1.298050433E-1,3.756710514E-2,6.807129383E-1
3.812508102E0,-3.509317636E-1,1.456870735E-1,8.682430387E-1
3.832967112E0,5.861079693E-1,1.291942000E-1,1.327829212E-1
3.853426122E0,4.737120569E-1,2.183778882E-1,6.742226332E-2
3.873885133E0,3.436015844E-1,4.676035643E-1,1.278961450E-1
3.894344143E0,-7.055285573E-2,6.105418205E-1,1.999761164E-1
3.914803154E0,-3.970507067E-3,2.935121059E-1,3.749075159E-2
3.935262164E0,-5.803049076E-3,1.915006191E-1,-7.857023180E-2
3.955721174E0,-2.263189107E-1,3.234436214E-1,-1.946312040E-1
3.976180133E0,1.572931707E-1,-1.543152928E-1,-4.304182529E-1
3.996639143E0,1.298050433E-1,-5.238778591E-1,-5.544202328E-1
4.017098154E0,-1.188097894E-1,-2.502183020E-1,-3.766636848E-1
4.037557164E0,9.132166207E-2,-2.263952643E-1,-3.656684458E-1
4.058016174E0,1.740914769E-2,1.924168877E-2,-4.408026636E-1
4.078475185E0,-6.383354217E-2,-1.311030984E-1,-5.617504120E-1
4.098934195E0,-7.125533223E-1,-5.574744940E-1,-1.573695242E-1
4.119393206E0,-1.518260837E0,2.648022771E-1,4.424824715E-1
4.139852216E0,-5.589252338E-2,6.099309921E-1,-3.216874301E-1
4.160311227E0,4.242334068E-1,4.804313779E-1,-5.654155016E-1
4.180770237E0,2.000524700E-1,5.726693273E-1,-9.271134138E-1
4.201229247E0,-9.620844573E-2,8.835905790E-1,-1.059667230E0
4.221688258E0,-9.684983492E-1,6.062659025E-1,-1.934095174E-1
4.242147268E0,-3.106158376E-1,1.072342396E0,-3.314609826E-1
4.262606279E0,-3.271087110E-1,3.417690396E-1,-7.114843726E-1
4.283065289E0,-2.782409191E-1,-2.178433985E-1,-5.055524707E-1
4.303524299E0,-4.132381678E-1,1.365243644E-1,-4.933355153E-1
4.323983310E0,8.093725890E-2,7.299624383E-2,-3.546731770E-1
4.344442320E0,-3.912476599E-1,1.615691036E-1,-2.581593096E-1
4.364901331E0,-4.489727318E-2,4.001049697E-2,-2.538833916E-1
4.385360341E0,1.768402755E-1,4.089622498E-1,-6.094728708E-1
4.405819352E0,-1.130067464E-2,-2.239518762E-1,-3.642176837E-2
4.426278414E0,5.039490014E-2,-1.665322334E-1,-2.359397523E-2
4.446737424E0,1.212531775E-1,-3.876589537E-1,2.977116704E-1
4.467196435E0,5.873296261E-1,-2.312820405E-1,2.573957741E-1
4.487655445E0,9.498675168E-2,-7.541673183E-1,7.039251328E-1
4.508114456E0,-8.246437646E-3,-7.566106915E-1,8.633562326E-1
4.528573466E0,-5.207473040E-1,-7.126296759E-1,9.183325171E-1
4.549032477E0,4.382829070E-1,-1.068982668E-2,-2.966426909E-1
4.569491539E0,-3.069507480E-1,5.073086619E-1,1.052947938E-1
4.589950549E0,-2.061609477E-1,7.003363967E-1,1.480541080E-1
4.610409560E0,-2.473931387E-2,2.727433145E-1,-3.817795368E-4
4.630868570E0,-5.176930428E-1,-1.555369794E-1,1.566059589E-1
4.651327581E0,-2.367033064E-1,-6.998018622E-1,2.610608339E-1
4.671786591E0,5.128062963E-1,-7.975374460E-1,-5.452575088E-1
4.692245654E0,-8.206732869E-1,7.482878864E-2,4.773007631E-1
4.712704664E0,-2.086043358E-1,-1.109451354E-1,4.543176666E-2
4.733163674E0,2.971771955E-1,2.660239935E-1,-6.192464232E-1
4.753622685E0,-3.680354655E-1,-2.105132341E-1,-2.105132341E-1
4.774081747E0,7.971556485E-2,3.619270027E-1,-4.377484024E-1
4.794540758E0,-1.554606259E-1,1.420219839E-1,-3.522298038E-1
4.814999768E0,-2.293731421E-1,1.010952219E-1,5.948125198E-2
4.835458779E0,-2.596100792E-2,-6.413896102E-3,1.285069883E-1
4.855917841E0,4.611896724E-2,4.978405312E-2,6.375718117E-2
4.876376852E0,-1.481304616E-1,-4.047626555E-1,6.049678326E-1
4.896835862E0,6.080984473E-1,-3.970507067E-3,-2.190651000E-1
4.917294924E0,-4.245388508E-2,6.203153729E-1,8.269345015E-2
4.937753935E0,-3.185568452E-1,3.802524209E-1,2.928248942E-1
4.958212945E0,1.188097894E-1,6.160394549E-1,-4.401918054E-1
4.978672008E0,-1.304158866E-1,6.270347238E-1,-3.400128484E-1
4.999131018E0,-3.362714052E-1,4.443913698E-1,1.718771458E-1
5.019590029E0,2.935121059E-1,-2.962609194E-2,2.537306845E-1
5.040049091E0,2.507528067E-1,3.191677034E-1,3.443651274E-2
5.060508102E0,1.029277667E-1,2.409792393E-1,2.445679754E-1
5.080967112E0,3.698680103E-1,-1.170536056E-1,-3.021403253E-1
5.101426174E0,2.733541429E-1,-3.058054149E-1,-3.607816696E-1
5.121885185E0,5.280774832E-1,-2.801498175E-1,-1.769166440E-1
5.142344247E0,6.423059106E-1,-4.334724844E-1,-3.540623486E-1
5.162803258E0,1.530172378E-1,-3.375694752E-1,-2.367796749E-1
5.183262268E0,5.192201585E-3,-2.893125415E-1,-2.624352574E-1
5.203721331E0,-1.731752008E-1,-5.764107704E-1,-4.933355153E-1
5.224180341E0,-8.670976758E-1,-4.133145213E-1,-4.420243502E-1
5.244639404E0,-1.245212078E0,-1.182752997E-1,2.099787444E-2
5.265098414E0,-1.994416267E-1,2.104368806E-1,-6.516213417E-1
5.285557477E0,2.819060087E-1,-6.261184067E-2,-5.657972768E-2
5.306016487E0,1.701209545E-1,1.817270666E-1,-1.579803675E-1
5.326475549E0,1.801999472E-2,1.035386100E-1,-2.129566222E-1
5.346934560E0,2.904578745E-1,-1.011715755E-1,-2.306711972E-1
5.367393622E0,8.708391190E-1,-8.765657991E-2,-4.267531633E-1
5.387852633E0,7.510367036E-1,-1.573695242E-1,-9.933903813E-2
5.408311695E0,6.306998134E-1,-3.186331987E-1,8.941277117E-2
5.428770706E0,3.442124426E-1,-3.145863488E-2,-7.551599294E-2
5.449229768E0,5.030327439E-1,-1.213295385E-1,-1.359898746E-1
5.469688779E0,2.489202619E-1,6.016845629E-2,-1.139993668E-1
5.490147841E0,2.195995897E-1,2.098260373E-1,1.376696974E-1
5.510606904E0,-2.312056869E-1,2.623589039E-1,2.470113635E-1
5.531065914E0,-5.879405141E-1,-6.933116168E-2,1.169008911E-1
5.551524977E0,-3.374931216E-1,-5.079958439E-1,4.272113144E-1
5.571984142E0,2.293731421E-1,-5.220453143E-1,4.540885687E-1
5.592443204E0,2.983988822E-1,-7.724927068E-1,3.917821646E-1
5.612902215E0,-3.649812341E-1,-5.147151947E-1,7.729508281E-1
5.633361277E0,-6.123743653E-1,-2.551050782E-1,2.073062956E-1
5.653820340E0,-2.024958730E-1,-6.566607952E-2,-3.064162433E-1
5.674279350E0,-7.177454978E-2,-5.039490014E-2,4.516451955E-1
5.694738413E0,6.734591126E-1,2.073826492E-1,-4.680617154E-2
5.715197475E0,1.890572309E-1,3.359660041E-3,5.031854287E-2
5.735656486E0,-2.825168669E-1,-8.826743066E-2,3.386384547E-1
5.756115548E0,-1.713426560E-1,-2.813715041E-1,2.244100124E-1
5.776574611E0,-4.370612204E-1,2.593046725E-1,3.319191337E-1
5.797033621E0,2.128802687E-1,-2.361688167E-1,3.148154020E-1
5.817492684E0,2.837385535E-1,5.161659420E-2,-1.640888453E-1
5.837951746E0,-5.665608048E-1,2.168507688E-2,8.028823733E-1
5.858410809E0,4.932591617E-1,-6.413896102E-3,-3.326826990E-1
5.878869819E0,1.615691036E-1,-1.924168877E-2,-7.426375747E-1
5.899328882E0,-1.121821046E0,2.195995897E-1,7.668423653E-1
5.919787944E0,8.451835513E-1,-2.453315258E-1,9.391776286E-3
5.940247007E0,4.761554301E-1,1.841704547E-1,3.813977540E-1
5.960706017E0,6.478035450E-1,3.515425920E-1,1.175117418E-1
5.981165079E0,-4.987567961E-1,3.350497186E-1,6.080220938E-1
6.001624142E0,2.318165302E-1,-1.793600321E-1,-5.963396281E-2
6.022083204E0,-6.630746722E-1,6.007682681E-1,6.025244594E-1
6.042542215E0,6.630746722E-1,-1.512610465E-1,3.667374253E-1
6.063001277E0,5.763344169E-1,9.376505762E-2,4.259895980E-1
6.083460340E0,8.800018430E-1,-4.621823132E-1,1.217876747E-1
6.103919402E0,1.090362370E-1,2.354816198E-1,2.909923494E-1
6.124378465E0,6.960604787E-1,8.765657991E-2,1.187334359E-1
6.144837527E0,1.933331639E-1,5.650337040E-2,-9.567394853E-2
6.165296538E0,1.041876316E0,-4.377484024E-1,-1.836359501E-1
6.185755600E0,7.626428008E-1,-3.448996246E-1,-3.827721775E-1
6.206214663E0,1.071197033E0,-1.927986592E-1,-4.133145213E-1
6.226673725E0,1.092576623E0,-5.012765527E-1,-1.110978484E0
6.247132788E0,5.635066032E-1,8.582404256E-2,-1.302784443E0
6.267591850E0,-1.353026628E-1,4.077405334E-1,-1.144575000E0
6.288050913E0,1.982199401E-1,-1.082192302E0,-1.244753957E0
6.308509975E0,-1.554606259E-1,-1.323476911E0,-1.020573020E0
6.328968986E0,3.552076817E-1,-2.679557800E0,-7.267554998E-1
6.349428048E0,1.383950830E0,-2.062602043E0,-5.887040496E-1
6.369887111E0,1.983191967E0,-1.368068814E0,-6.082511544E-1
6.390346173E0,1.429764390E0,-6.322269142E-2,-2.196759433E-1
6.410805236E0,6.453601122E-1,1.682884246E-1,4.787515476E-2
6.431264298E0,5.580089688E-1,2.031067163E-1,-1.335464865E-1
6.451723361E0,4.346178174E-1,1.625769973E0,2.195232362E-1
6.472182423E0,-4.022429287E-1,3.414407015E0,1.257963538E0
6.492641486E0,-7.363763452E-1,2.846930027E0,1.433887601E0
6.513100548E0,-3.686463237E-1,1.552468300E0,2.451788187E-1
6.533559611E0,2.748812549E-3,-1.921878159E-1,-4.328616261E-1
6.554018673E0,3.399364948E-1,-9.972845316E-1,-1.457634270E-1
6.574477736E0,5.830537081E-1,-1.273387432E0,2.781645656E-1
6.594936798E0,1.531775832E0,-2.540284634E0,3.209238648E-1
6.615395861E0,2.246467113E0,-2.435829878E0,2.683910131E-1
6.635854923E0,2.173165560E0,-1.481075525E0,6.013027430E-1
6.656313986E0,1.573924303E0,-1.470080256E0,8.645779490E-1
6.676773048E0,1.044930577E0,-1.554988027E0,1.031950116E0
6.697232111E0,7.968502641E-1,-1.283771873E0,1.022787333E0
6.717691173E0,1.318590164E0,-1.190312266E0,8.541935086E-1
6.738150288E0,1.854914069E0,-1.369290471E0,3.801760674E-1
6.758609350E0,1.776725650E0,-1.321644425E0,4.101075828E-1
6.779068413E0,1.193977356E0,-1.515282989E0,7.216396928E-1
6.799527475E0,3.387148082E-1,-7.388961315E-1,1.090591431E0
6.819986538E0,-3.264978528E-1,5.103628635E-1,1.560333014E0
6.840445600E0,-2.330382317E-1,6.972821355E-1,1.286062598E0
6.860904663E0,-2.629697323E-1,7.204943299E-1,6.141305566E-1
6.881363777E0,-9.422318935E-1,8.884773254E-1,3.471903205E-1
6.901822840E0,-1.468171358E0,6.239804626E-1,4.650838375E-1
6.922281902E0,-1.163358569E0,3.075616062E-1,7.796701789E-1
6.942740965E0,-4.340069890E-1,1.475196183E-1,7.979955673E-1
6.963200027E0,-4.428642616E-2,7.238540053E-2,6.055787206E-1
6.983659090E0,1.496575773E-2,7.033905983E-1,-8.415948153E-1
7.004118204E0,-1.134037971E0,1.743663549E0,-2.123457789E-1
7.024577267E0,-1.179851532E0,1.615385532E0,-7.285880446E-1
7.045036329E0,-8.188407421E-1,1.142589808E0,-7.328640223E-1
7.065495392E0,-2.898470163E-1,1.190846682E0,-2.237228118E-2
7.085954507E0,6.832326651E-1,9.025267959E-1,-5.108210072E-2
7.106413569E0,2.495311052E-1,1.154195905E0,2.958791554E-1
7.126872632E0,5.286883116E-1,3.881934285E-1,3.478011489E-1
7.147331694E0,5.036435723E-1,7.589777112E-1,6.819345951E-1
7.167790809E0,9.655204415E-1,5.286883116E-1,6.074112654E-1
7.188249871E0,1.326531172E0,-2.929776311E-1,4.601970613E-1
7.208708934E0,2.440334857E-1,-2.434989959E-1,5.512133241E-1
7.229168048E0,-1.701209545E-1,1.371352077E-1,4.333197773E-1
7.249627111E0,2.806843221E-1,-2.508291602E-1,1.676012129E-1
7.270086173E0,1.902789176E-1,-6.139015034E-2,5.475482345E-1
7.290545288E0,5.005893111E-1,-2.990860939E-1,6.129088402E-1
7.311004350E0,5.763344169E-1,-1.744732410E-1,5.609868765E-1
7.331463413E0,1.095020056E0,-7.077429295E-1,-1.909661293E-1
7.351922527E0,6.749862432E-2,-2.929776311E-1,1.902025640E-1
7.372381538E0,9.743013978E-2,-5.721347928E-1,-1.543152928E-1
7.392840652E0,-4.248442650E-1,-1.042258143E-1,1.010188684E-1
7.413299767E0,3.023693897E-2,2.360924631E-1,-1.353790164E-1
7.433758829E0,4.346178174E-1,2.434226274E-1,-2.270061076E-1
7.454217944E0,3.839175105E-1,3.939964995E-2,-5.196019411E-1
7.474677007E0,-7.400414348E-1,9.495620728E-1,-4.499653578E-1
7.495136121E0,-5.128062963E-1,1.160915256E0,-9.521581531E-1
7.515595184E0,-4.062134400E-2,4.376720488E-1,-9.326110482E-1
7.536054246E0,3.888042867E-1,-1.160380721E0,-5.440358520E-1
7.556513361E0,7.656970620E-1,-1.800548673E0,-3.980433345E-1
7.576972423E0,1.066310287E0,-1.628289700E0,-8.324320912E-1
7.597431538E0,1.543992758E0,-1.583697915E0,-6.717792749E-1
7.617890600E0,1.944097757E0,-1.611796856E0,-9.926267667E-4
7.638349715E0,2.427888870E0,-1.926383138E0,5.994702578E-1
7.658808777E0,3.393027544E0,-3.376000166E0,1.028895855E0
7.679267892E0,4.594029427E0,-5.023455143E0,1.779016256E0
7.699726954E0,5.405234814E0,-4.976419926E0,2.232341290E0
7.720186069E0,5.571996212E0,-4.477968693E0,2.176143408E0
7.740645184E0,5.253744602E0,-4.213471889E0,2.118112803E0
7.761104246E0,4.521338463E0,-4.492018223E0,2.237228155E0
7.781563361E0,3.427845716E0,-4.570817471E0,2.247001648E0
7.802022423E0,2.382686138E0,-3.260550022E0,1.945166707E0
7.822481538E0,1.516504645E0,-1.199474931E0,1.603092313E0
7.842940652E0,4.614951015E-1,1.890572309E-1,1.283619165E0
7.863399715E0,-8.521319181E-2,2.195995897E-1,1.099754095E0
7.883858829E0,8.643488586E-2,-2.392230630E-1,1.063103318E0
7.904317892E0,5.628957748E-1,1.618745178E-2,1.089369774E0
7.924777007E0,5.873296261E-1,1.074785709E0,1.035004377E0
7.945236121E0,4.022429287E-1,1.731446505E0,9.702545404E-1
7.965695184E0,2.110477239E-1,1.356386304E0,6.880430579E-1
7.986154298E0,1.041494608E-1,7.009472251E-1,9.549833536E-1
8.006613413E0,-3.845283389E-1,2.196912050E0,1.548726916E0
8.027072475E0,-4.291202128E-1,1.052795291E0,1.593929529E0
8.047531590E0,-5.763344169E-1,1.615385532E0,1.142513394E0
8.067990704E0,1.212531775E-1,4.621059597E-1,5.273902416E-1
8.088449819E0,1.432436854E-1,6.533011198E-1,5.597651601E-1
8.108908882E0,-1.847812980E-1,7.760814428E-1,5.304445028E-1
8.129367996E0,-8.338065445E-2,4.944808483E-1,2.237991691E-1
8.149827111E0,1.627907902E-1,1.267508119E-1,3.319191337E-1
8.170286225E0,1.740914769E-2,-7.177454978E-2,-1.341573298E-1
8.190745288E0,-4.840964675E-1,-1.414874941E-1,2.649549954E-2
8.211204402E0,-3.087832928E-1,-1.512610465E-1,2.649549954E-2
8.231663517E0,-4.969242513E-1,-1.256054640E-1,-1.469851285E-1
8.252122632E0,-6.533011198E-1,-2.447206825E-1,-1.127776727E-1
8.272581746E0,-3.106158376E-1,-2.966426909E-1,-6.607840061E-1
8.293040861E0,-4.462239146E-1,-7.971556485E-2,-9.124531150E-1
8.313499923E0,-1.908897758E-1,1.634016484E-1,-6.406260729E-1
8.333959038E0,-3.634541109E-2,5.066977739E-1,-4.169796109E-1
8.354418152E0,-1.860029846E-1,6.245913506E-1,-3.497864008E-1
8.374877267E0,-1.560714692E-1,5.079194903E-1,-1.921878159E-1
8.395336382E0,-2.568612695E-1,6.258130074E-1,-1.109451354E-1
8.415795496E0,-3.393256664E-1,4.969242513E-1,-1.329356283E-1
8.436254611E0,-6.600204706E-1,4.810422063E-1,-2.664821222E-2
8.456713725E0,-2.061609477E-1,-3.268032894E-2,-3.644467592E-1
8.477172840E0,-6.374191046E-1,2.290677279E-2,-1.787491739E-1
8.497631954E0,-7.821899056E-1,2.055501044E-1,-1.781383306E-1
8.518091069E0,-7.601994276E-1,-1.482068151E-1,-3.601708114E-1
8.538550132E0,-4.388937652E-1,5.140279531E-1,-2.190651000E-1
8.559009246E0,-6.044333577E-1,4.926483035E-1,-4.456894398E-1
8.579468361E0,-6.911736727E-1,5.934380889E-1,-3.296284378E-1
8.599927475E0,-7.241594195E-1,3.845283389E-1,-4.475219846E-1
8.620386590E0,-1.695101112E-1,-2.941993177E-1,-4.139253795E-1
8.640845704E0,-3.802524209E-1,8.704573661E-2,1.388913989E-1
8.661304819E0,-3.356605768E-1,1.792836636E-1,4.656946659E-1
8.681763934E0,5.405998230E-2,-4.917320609E-2,2.763320208E-1
8.702223048E0,-1.566823274E-1,-3.375694752E-1,1.730988473E-1
8.722682163E0,-1.285833418E-1,-4.505762160E-1,2.066954374E-1
8.743141329E0,-1.340809762E-1,-3.369586170E-1,1.059056446E-1
8.763600444E0,-5.344913527E-2,-3.021403253E-1,8.758022636E-2
8.784059559E0,7.482878864E-2,-2.166217119E-1,1.492757946E-1
8.804518673E0,-1.252236869E-2,-1.188861504E-1,2.573957741E-1
8.824977788E0,4.856235534E-2,2.412846684E-2,3.380275965E-1
8.845436902E0,-6.413896102E-3,1.872246861E-1,2.360161096E-1
8.865896017E0,2.373141646E-1,6.383354217E-2,6.558972597E-2
8.886355132E0,2.385358512E-1,1.401894391E-1,2.290677221E-4
8.906814298E0,1.737860441E-1,5.066977739E-1,1.993652731E-1
8.927273413E0,-6.261184067E-2,8.273926377E-1,4.711923003E-1
8.947732527E0,-4.795150831E-2,3.973561525E-1,2.928248942E-1
8.968191642E0,1.618745178E-2,-1.408766508E-1,2.176906914E-1
8.988650757E0,-2.962609194E-2,-3.339043856E-1,3.459686041E-1
9.009109923E0,-1.310267299E-1,-1.579803675E-1,2.897706628E-1
9.029569038E0,-5.549547076E-1,8.389987350E-1,-1.311030984E-1
9.050028152E0,-2.586938143E-1,1.636765242E0,-9.008470178E-1
9.070487267E0,-3.588727713E-1,1.892099380E0,-1.062110662E0
9.090946434E0,-3.521534503E-1,1.820630312E0,-9.393303990E-1
9.111405548E0,-1.184127450E0,2.175532579E0,-2.534252644E0
9.131864663E0,-1.821851969E0,3.101653337E0,-4.085880756E0
9.152323777E0,-2.244634628E0,4.188961506E0,-5.293526173E0
9.172782944E0,-2.674671173E0,5.209076405E0,-5.791977406E0
9.193242059E0,-2.274566174E0,5.377135754E0,-5.936824322E0
9.213701173E0,-1.746106863E0,5.165706158E0,-5.550081730E0
9.234160340E0,-1.463284612E0,4.958629131E0,-4.861046314E0
9.254619454E0,-1.070509791E0,4.625106335E0,-3.979593515E0
9.275078569E0,-6.197045445E-1,4.086338997E0,-2.977116823E0
9.295537736E0,-2.831276953E-1,3.404022694E0,-2.137812614E0
9.315996850E0,1.007897966E-2,2.634965897E0,-1.442668557E0
9.336455965E0,2.018850148E-1,1.850561738E0,-9.497147799E-1
9.356915132E0,2.018850148E-1,1.546359777E0,-6.009209752E-1
9.377374246E0,1.249182671E-1,1.204285383E0,-2.593810260E-1
9.397833413E0,1.127013192E-1,5.567872524E-1,-7.246175408E-2
9.418292527E0,1.615691036E-1,-2.239518762E-1,-2.298312820E-2
9.438751642E0,-1.603474021E-1,-3.589491248E-1,-7.918107510E-2
9.459210809E0,-7.418739796E-1,6.016845629E-2,-2.019613683E-1
9.479669923E0,-1.008814216E0,3.515425920E-1,-1.946312040E-1
9.500129090E0,-7.461498976E-1,1.615691036E-1,-8.162446320E-2
9.520588204E0,-1.817270666E-1,-3.143572807E-1,-1.504211407E-2
9.541047371E0,7.788302749E-2,-4.743992388E-1,2.221956849E-2
9.561506486E0,-1.740914769E-2,-4.438568950E-1,1.733279042E-2
9.581965652E0,-1.762294322E-1,-3.131355643E-1,-2.245627195E-1
9.602424767E0,-1.994416267E-1,-7.065212131E-1,-3.186331987E-1
9.622883934E0,2.412846684E-2,-1.494514227E0,-2.050156146E-1
9.643343100E0,1.346918195E-1,-2.276398659E0,-2.053973824E-2
9.663802215E0,1.004843712E-1,-2.396735668E0,4.394282401E-1
9.684261382E0,-1.866138428E-1,-1.583697915E0,5.255576968E-1
9.704720496E0,-5.421269536E-1,-1.475577950E0,4.699706137E-1
9.725179663E0,-7.809682488E-1,-2.391848803E0,2.018086612E-1
9.745638777E0,-1.010646820E0,-2.665508270E0,2.954973653E-2
9.766097944E0,-8.548807502E-1,-2.168278694E0,-1.076618303E-2
9.786557111E0,-3.741439581E-1,-2.027783871E0,-2.606027126E-1
9.807016225E0,9.804098308E-2,-2.635576963E0,-2.990860939E-1
9.827475392E0,3.368822634E-1,-2.730869055E0,4.797441661E-1
9.847934559E0,5.610632300E-1,-3.054083586E0,3.074852526E-1
9.868393673E0,1.234293222E0,-2.938633442E0,2.360161096E-1
9.888852840E0,1.953260422E0,-1.999073982E0,4.156052172E-1
9.909312007E0,1.863465905E0,-7.743252516E-1,8.468633890E-1
9.929771173E0,1.314314246E0,-8.525137305E-1,1.115636110E0
9.950230288E0,1.241623402E0,-2.649015427E0,1.192602873E0
9.970689454E0,2.044276714E0,-4.382065296E0,1.269569635E0
9.991148621E0,2.645350456E0,-2.843341351E0,1.409453750E0
1.001160779E1,1.771227956E0,-1.444424748E0,1.276899815E0
1.003206690E1,1.120904684E-1,4.706578255E-1,7.411867976E-1
1.005252607E1,-7.644753456E-1,8.054021001E-1,5.597651601E-1
1.007298524E1,-3.649812341E-1,-4.306473210E-2,4.858526289E-1
1.009344440E1,9.203177691E-1,-1.940203607E-1,-2.532725334E-1
1.011390357E1,2.506077290E0,-2.899233699E-1,-3.143572807E-1
1.013436274E1,2.802948952E0,-5.422033072E-1,1.052947938E-1
1.015482185E1,1.977083564E0,-9.954519868E-1,1.798181683E-1
1.017528102E1,9.759048223E-1,-1.182982087E0,4.094967246E-1
1.019574018E1,1.481304616E-1,-2.990860939E-1,5.744255185E-1
1.021619935E1,4.450022280E-1,6.826218367E-1,8.077691197E-1
1.023665852E1,1.097463489E0,3.448232710E-1,9.073372483E-1
1.025711768E1,1.192144752E0,-1.160991549E0,1.005683661E0
1.027757685E1,1.653334498E0,-1.449922323E0,7.448518872E-1
1.029803602E1,2.055271864E0,-9.563577175E-1,1.094867349E0
1.031849518E1,1.974640131E0,-4.823402762E-1,1.486420393E0
1.033895435E1,1.835977793E0,-2.575484812E-1,1.577436686E0
1.035941352E1,1.791996837E0,-5.947361588E-1,1.295225263E0
1.037987268E1,1.436483741E0,-2.746522129E-1,1.221923590E0
1.040033185E1,9.978953600E-1,3.014531136E-1,1.445493698E0
1.042079102E1,9.673529863E-1,6.740699410E-1,1.487642169E0
1.044125018E1,7.583668828E-1,1.198176861E0,1.450380445E0
1.046170935E1,7.968502641E-1,6.520794630E-1,1.198711395E0
1.048216852E1,7.870767117E-1,7.064448595E-1,7.564579844E-1
1.050262768E1,6.502469182E-1,3.967452943E-1,6.318451166E-1
1.052308685E1,1.766952038E0,1.682884246E-1,-1.372421026E0
1.054354602E1,1.309427500E0,7.510367036E-1,-8.678612709E-1
1.056400518E1,3.326063454E-1,1.668529272E0,-5.777087808E-1
1.058446435E1,-1.579040140E-1,1.481610060E0,-2.343362868E-1
1.060492357E1,-2.929012477E-1,1.752826214E0,-1.320957206E-2
1.062538274E1,5.955760926E-2,1.834068894E0,3.258106709E-1
1.064584190E1,5.964923501E-1,1.368603230E0,7.808918357E-1
1.066630107E1,1.098074317E0,4.737120569E-1,9.091697931E-1
1.068676024E1,9.490275979E-1,3.442124426E-1,1.270791411E0
1.070721940E1,1.057147503E0,5.512896776E-1,1.672118068E0
1.072767862E1,1.591028094E0,4.902049303E-1,1.881027818E0
1.074813779E1,1.479853868E0,2.379250079E-1,1.912791848E0
1.076859695E1,1.047984838E0,-8.726716638E-1,1.303166270E0
1.078905612E1,1.695101112E-1,-4.298073947E-1,4.644729793E-1
1.080951534E1,-8.249492049E-1,5.769452453E-1,-5.538094044E-1
1.082997451E1,-1.416249394E0,9.275715351E-1,-9.772028923E-1
1.085043367E1,-1.084559321E0,2.654131353E-1,-3.412345648E-1
1.087089289E1,-3.845283389E-1,3.668137789E-1,6.886539459E-1
1.089135206E1,1.340580702E0,-4.316399395E-1,1.360585928E0
1.091181123E1,1.157326460E0,-5.067741275E-1,1.876140952E0
1.093227039E1,2.367033064E-1,-1.427091956E-1,1.703271270E0
1.095272961E1,-2.696890533E-1,-9.994988143E-2,1.490085483E0
1.097318878E1,1.597365588E-1,-4.401918054E-1,9.500965476E-1
1.099364800E1,2.593046725E-1,-3.455104828E-1,6.410078406E-1
1.101410716E1,9.804098308E-2,-3.400128484E-1,3.514662385E-1
1.103456633E1,-2.727433145E-1,-3.827721775E-1,1.114032716E-1
1.105502555E1,-7.944068313E-1,-4.017084241E-1,-8.345700800E-2
1.107548472E1,-8.689302206E-1,-6.381063461E-1,-3.442887962E-1
1.109594393E1,-1.302631736E0,3.692571819E-1,1.366770733E-2
1.111640310E1,-9.910996556E-1,8.872556686E-1,-6.131379604E-1
1.113686227E1,-5.079194903E-1,2.580829561E-1,-6.907155514E-1
1.115732149E1,-1.135870457E0,6.459710002E-1,-5.739673376E-1
1.117778065E1,-1.153585076E0,1.438850760E0,4.970769584E-2
1.119823987E1,3.503209054E-1,2.727433145E-1,-1.799708754E-1
1.121869904E1,-3.900259733E-1,-1.744732410E-1,-4.924955964E-2
1.123915826E1,-1.572931707E-1,-3.827721775E-1,-3.161898255E-1
1.125961742E1,-8.826743066E-2,-3.455104828E-1,-1.934095174E-1
1.128007664E1,1.108687744E-1,-4.978405312E-2,-2.520508468E-1
1.130053581E1,9.620844573E-2,2.959555089E-1,-7.612683624E-2
1.132099503E1,-1.884463727E-1,4.657710493E-1,-3.143572807E-1
1.134145419E1,-4.101839364E-1,3.771981895E-1,-2.099023908E-1
1.136191341E1,-1.682884246E-1,1.371352077E-1,1.767639220E-1
1.138237258E1,6.933116168E-2,2.458660156E-1,3.826194406E-1
1.140283180E1,-1.627907902E-1,9.926267713E-2,-9.926267667E-4
1.142329097E1,2.962609194E-2,-2.667111754E-1,-3.363477588E-1
1.144375018E1,-1.426328421E-1,-4.029301107E-1,-4.585172236E-1
1.146420940E1,-1.041494608E-1,-1.732515544E-1,-4.530195892E-1
1.148466857E1,-9.620844573E-2,-5.222744122E-2,-4.695124626E-1
1.150512779E1,-4.297310412E-1,-3.833830059E-1,-3.339043856E-1
1.152558695E1,3.451287001E-2,-1.970745921E-1,-3.418453932E-1
1.154604617E1,-2.861819267E-1,-6.322269142E-2,1.834832430E-1
1.156650539E1,5.589252338E-2,-4.734066129E-2,-8.956547827E-2
1.158696456E1,-1.420219839E-1,8.948912472E-2,-1.085017473E-1
1.160742378E1,-3.087832928E-1,1.004843712E-1,-1.824142635E-1
1.162788300E1,-9.865183383E-2,1.664558798E-1,-1.970745921E-1
1.164834216E1,-2.788517773E-1,1.218640283E-1,-2.428881377E-1
1.166880138E1,-2.046338283E-2,1.658450365E-1,-3.009186387E-1
1.168926060E1,-1.634016484E-1,4.181249440E-1,-2.728196681E-1
1.170971977E1,-3.924693763E-1,4.431696832E-1,-5.232670307E-1
1.173017899E1,-1.915006191E-1,1.664558798E-1,-6.613948941E-1
1.175063820E1,-5.482354164E-1,-3.451287001E-2,-6.449019909E-1
1.177109742E1,-3.497100472E-1,-9.689565003E-2,-4.597389102E-1
1.179155659E1,-5.952706337E-1,-1.402658075E-1,-5.477009416E-1
1.181201581E1,-4.614951015E-1,-3.748311400E-1,-5.782433152E-1
1.183247503E1,-5.641174316E-1,2.107422985E-2,-4.114819765E-1
1.185293425E1,-6.221479177E-1,9.987352788E-2,-8.345700800E-2
1.187339341E1,-4.553866386E-1,1.328592747E-1,4.298837483E-2
1.189385263E1,-3.100049794E-1,8.093725890E-2,-3.642176837E-2
1.191431185E1,-5.983248949E-1,1.878355294E-1,4.665346071E-2
1.193477107E1,-8.276980370E-2,2.580829561E-1,-3.947600350E-2
1.195523029E1,-4.346178174E-1,7.815790772E-1,-5.299863815E-1
1.197568945E1,-6.710157394E-1,1.218945742E0,-1.237423778E0
1.199614867E1,-7.492041588E-1,7.088882327E-1,-1.741372824E0
1.201660789E1,-1.088224411E0,2.764083743E-1,-2.313736677E0
1.203706711E1,-1.455954432E0,9.825478196E-1,-2.872051001E0
1.205752633E1,-2.346646070E0,2.264716148E0,-3.830546856E0
1.207798555E1,-3.204275608E0,3.501147509E0,-4.578223705E0
1.209844477E1,-3.834059238E0,4.123600960E0,-5.212893963E0
1.211890393E1,-4.306243896E0,4.311131001E0,-5.366827488E0
1.213936315E1,-4.454069138E0,4.257987022E0,-5.004595280E0
1.215982237E1,-4.173079491E0,4.305022240E0,-4.600214481E0
1.218028159E1,-3.995933771E0,4.275090694E0,-4.175675392E0
1.220074081E1,-3.880483627E0,3.848108768E0,-3.326597929E0
1.222120003E1,-3.573227406E0,2.871974707E0,-2.525089741E0
1.224165925E1,-2.843875885E0,1.935469508E0,-1.800014138E0
1.226211846E1,-2.162781000E0,1.271478534E0,-1.180004239E0
1.228257768E1,-1.892786622E0,-7.309551239E-1,-4.872270525E-1
1.230303690E1,-1.692963123E0,-1.046152234E0,-2.013505250E-1
1.232349612E1,-1.452900171E0,-1.304540634E0,-5.501443148E-1
1.234395534E1,-1.357608080E0,-1.444424748E0,-1.824142635E-1
1.236441456E1,-1.214058876E0,-1.048595667E0,5.353312492E-1
1.238487372E1,-8.994725943E-1,-9.978953600E-1,1.226199508E0
1.240533294E1,-9.184088707E-1,-1.200696588E0,1.871483326E-1
1.242579216E1,-7.382088900E-1,-3.754419982E-1,-3.021403253E-1
1.244625138E1,-9.498675168E-2,-5.800758004E-1,-4.334724844E-1
1.246671060E1,4.914266169E-1,-6.558209062E-1,-3.051945567E-1
1.248716982E1,8.861103058E-1,-1.402887106E0,-3.039728701E-1
1.250762904E1,9.875109792E-1,-1.665551424E0,-2.807606757E-1
1.252808831E1,5.696150661E-1,-1.346689105E0,-2.025722265E-1
1.254854748E1,3.051182032E-1,-7.395069599E-1,-5.902311578E-2
1.256900675E1,3.631486893E-1,-7.608866096E-1,8.758022636E-2
1.258946596E1,5.928272605E-1,-1.946312040E-1,-8.834378421E-2
1.260992518E1,1.786728203E-1,1.554606259E-1,-2.691545784E-1
1.263038440E1,4.734066129E-2,2.922904193E-1,-4.774535000E-1
1.265084362E1,4.089622498E-1,3.020639718E-1,-5.000548363E-1
1.267130284E1,4.731011987E-1,6.056550741E-1,-6.879667193E-2
1.269176206E1,1.065928489E-1,1.338060975E0,-1.323247850E-1
1.271222128E1,-6.465818286E-1,1.744274378E0,-7.597413063E-1
1.273268055E1,-1.177408099E0,1.410751700E0,-1.047450304E0
1.275313977E1,-1.123653531E0,7.211052179E-1,-7.414158583E-1
1.277359899E1,-6.160394549E-1,2.293731421E-1,-2.123457789E-1
1.279405820E1,-3.637595475E-1,-1.903552711E-1,-2.603736520E-2
1.281451742E1,-2.324273884E-1,6.142069101E-1,2.290677221E-4
1.283497669E1,-2.739650011E-1,5.519005060E-1,4.033882618E-1
1.285543591E1,3.695625812E-2,9.403993487E-1,4.638621509E-1
1.287589513E1,-2.104368806E-1,1.033859015E0,2.683910131E-1
1.289635435E1,-5.286883116E-1,5.213581324E-1,6.446729302E-1
1.291681357E1,-5.818319917E-1,1.383569092E-1,6.110763550E-1
1.293727284E1,-5.793886185E-1,9.681928903E-2,2.952682972E-1
1.295773206E1,-2.354816198E-1,2.318165302E-1,9.979717433E-2
1.297819128E1,2.012741715E-1,2.290677279E-2,1.550024934E-2
1.299865055E1,3.533751369E-1,-4.585172236E-1,-3.522298038E-1
1.301910977E1,2.220429778E-1,-8.720608354E-1,-4.059843719E-1
1.303956899E1,-2.067717910E-1,-9.811734408E-2,-5.641937852E-1
1.306002820E1,-3.527642787E-1,9.804098308E-2,-4.328616261E-1
1.308048748E1,-1.053711548E-1,-8.582404256E-2,-2.758738995E-1
1.310094669E1,3.423798978E-1,-7.645516992E-1,-1.329356283E-1
1.312140591E1,3.118375242E-1,-1.252618670E0,-7.711946499E-3
1.314186518E1,-6.200099736E-2,-7.627191544E-1,1.297286898E-1
1.316232440E1,-1.359135211E-1,-2.954210043E-1,-5.169294775E-2
1.318278367E1,-1.395785958E-1,-2.819823623E-1,-2.477749139E-1
1.320324289E1,-3.979669809E-1,-2.013505250E-1,-5.342622995E-1
1.322370211E1,-4.498890042E-1,2.660239935E-1,-6.730009913E-1
1.324416138E1,2.657185495E-2,-9.468132630E-3,-3.106921911E-1
1.326462060E1,7.177454978E-2,4.123219103E-2,1.114032716E-1
1.328507987E1,2.764083743E-1,4.480564594E-1,1.559951156E-1
1.330553909E1,6.429167390E-1,3.084778599E-2,-1.103342846E-1
1.332599831E1,8.836669326E-1,-1.225512326E-1,-1.439308822E-1
1.334645758E1,4.059080184E-1,-1.152210608E-1,1.285069883E-1
1.336691680E1,9.315420687E-2,2.275405973E-1,1.682120711E-1
1.338737607E1,-2.290677279E-2,3.268032894E-2,-4.375193641E-2
1.340783529E1,-5.650337040E-2,-2.422772944E-1,-3.778853714E-1
1.342829456E1,-1.456870735E-1,-1.744732410E-1,8.391514421E-2
1.344875378E1,-1.175880954E-1,-7.605048269E-2,-9.926267667E-4
1.346921305E1,-1.572931707E-1,-1.860793531E-1,-1.176644564E-1
1.348967227E1,-3.878879920E-2,-3.418453932E-1,2.030303627E-1
1.351013154E1,-3.625378609E-1,-1.640888453E-1,1.504974961E-1
1.353059076E1,-4.755446017E-1,-2.325037420E-1,-3.009186387E-1
1.355105003E1,-3.387148082E-1,-1.249946207E-1,-4.609606266E-1
1.357150930E1,-2.086043358E-1,-2.056264579E-1,-3.400128484E-1
1.359196852E1,-2.721324563E-1,-1.152210608E-1,-1.921878159E-1
1.361242779E1,-2.043284029E-1,-1.408766508E-1,-6.757497787E-2
1.363288701E1,-1.719534993E-1,-2.954210043E-1,1.427855436E-2
1.365334628E1,-2.263189107E-1,-4.001049697E-2,1.712663025E-1
1.367380550E1,9.987352788E-2,-2.233410329E-1,-8.223531395E-2
1.369426477E1,-1.041494608E-1,-6.627693027E-2,-2.398339063E-1
1.371472404E1,-3.295520842E-1,-4.611896724E-2,-2.599918544E-1
1.373518326E1,-3.246653080E-1,5.561764240E-1,-3.161898255E-1
1.375564253E1,5.060869455E-1,-3.009186387E-1,-2.208976448E-1
1.377610175E1,3.246653080E-1,1.884463727E-1,-1.634780020E-1
1.379656102E1,1.414111406E-1,-7.666133344E-2,5.726693198E-3
1.381702029E1,3.002314270E-1,1.939440072E-1,-3.149681091E-1
1.383747951E1,1.762294322E-1,2.385358512E-1,-1.243837699E-1
1.385793878E1,2.959555089E-1,-8.093725890E-2,-1.194969937E-1
1.387839805E1,2.596100792E-2,1.884463727E-1,1.443890184E-1
1.389885727E1,1.249182671E-1,3.051182032E-1,4.211028218E-1
1.391931654E1,1.853921413E-1,-3.039728701E-1,5.115082264E-1
1.393977581E1,6.566607952E-2,1.285833418E-1,5.408288836E-1
1.396023503E1,4.547757804E-1,-5.250995755E-1,8.144884706E-1
1.398069430E1,3.936910629E-1,-2.984752357E-1,6.892647743E-1
1.400115357E1,-6.139015034E-2,-3.145863488E-2,8.309813142E-1
1.402161284E1,4.559974670E-1,-1.714190096E-1,5.793122649E-1
1.404207206E1,7.360709459E-2,1.487413049E-1,3.545204699E-1
1.406253133E1,-2.825168669E-1,1.878355294E-1,3.795652092E-1
1.408299060E1,1.059819981E-1,-1.604237556E-1,4.174377322E-1
1.410344987E1,4.395045936E-1,-1.133885235E-1,2.451788187E-1
1.412390909E1,5.121954083E-1,-2.538833916E-1,1.211768240E-1
1.414436836E1,9.437590092E-2,1.863084175E-2,-4.619532451E-2
1.416482763E1,2.745758295E-1,-5.141043067E-1,-5.049416423E-1
1.418528690E1,-3.454341292E-1,6.270347238E-1,-5.739673376E-1
1.420574612E1,-3.008422852E-1,-2.137965523E-3,-2.752630413E-1
1.422620539E1,4.611896724E-2,-1.054475084E-1,-2.447206825E-1
1.424666466E1,1.194206402E-1,1.224748790E-1,-1.964637488E-1
1.426712393E1,1.374406368E-2,-1.066692024E-1,-3.581092134E-2
1.428758315E1,-2.489202619E-1,-1.512610465E-1,3.283303929E-3
1.430804242E1,-4.120164812E-1,3.851391971E-1,3.471903205E-1
1.432850169E1,2.684673667E-1,-4.053735137E-1,1.688229144E-1
1.434896097E1,3.790307343E-1,-4.414134920E-1,1.969218850E-1
1.436942024E1,2.281514555E-1,-1.740914769E-2,2.799971104E-1
1.438987951E1,7.479824424E-1,-3.394020200E-1,7.536327839E-2
1.441033872E1,5.103628635E-1,-1.756949425E-1,8.399150101E-4
1.443079800E1,1.548497826E-1,6.322269142E-2,1.425564736E-1
1.445125727E1,2.623589039E-1,2.202104330E-1,8.208259940E-2
1.447171654E1,5.659499764E-1,8.765657991E-2,4.359922186E-2
1.449217581E1,8.102889061E-1,7.116370648E-2,-4.191939160E-2
1.451263508E1,6.099309921E-1,8.246437646E-3,3.612397909E-1
1.453309435E1,3.607053161E-1,-1.720298529E-1,6.458946466E-1
1.455355357E1,4.187358022E-1,-2.923667729E-1,3.587964177E-1
1.457401284E1,3.466558158E-1,-4.550812021E-2,-2.359397523E-2
1.459447211E1,1.346918195E-1,-1.072800532E-1,-9.926267667E-4
1.461493138E1,1.157555580E-1,-1.127776727E-1,6.898756027E-1
1.463539065E1,1.127013192E-1,-2.807606757E-1,1.017289758E0
1.465584992E1,3.045073450E-1,-3.284067512E-1,5.970268250E-1
1.467630919E1,3.289412558E-1,-1.610346138E-1,1.078985333E0
1.469676847E1,5.344913527E-2,-4.432460368E-1,1.027674198E0
1.471722774E1,-3.497100472E-1,4.798205197E-1,3.471903205E-1
1.473768701E1,-2.990097404E-1,1.847812980E-1,2.482330501E-1
1.475814628E1,-7.635590620E-3,-1.390441060E-1,8.696937561E-2
1.477860555E1,-3.387148082E-1,5.628957748E-1,3.264214993E-1
1.479906482E1,1.444653720E-1,-2.398339063E-1,2.946574390E-1
1.481952409E1,-7.238540053E-2,2.483094037E-1,-4.191939160E-2
1.483998336E1,-5.952706337E-1,5.451811552E-1,1.150683537E-1
1.486044263E1,-3.344388604E-1,4.095730782E-1,4.235462248E-1
1.488090190E1,2.079934925E-1,-3.497864008E-1,2.873272896E-1
1.490136117E1,-4.773771465E-1,5.940489769E-1,3.380275965E-1
1.492182044E1,-3.930802047E-1,3.350497186E-1,5.273902416E-1
1.494227972E1,2.440334857E-1,-7.635590620E-3,2.115822136E-1
1.496273899E1,1.175880954E-1,2.324273884E-1,1.749313772E-1
1.498319826E1,-1.224748790E-1,6.111527085E-1,3.245889544E-1
1.500365753E1,8.582404256E-2,-2.172325552E-1,4.571428299E-1
1.502411680E1,-2.434226274E-1,3.649812341E-1,7.536327839E-2
1.504457607E1,-5.696150661E-1,2.434226274E-1,1.395022422E-1
1.506503534E1,-2.122694254E-1,6.135960817E-1,-4.524087608E-1
1.508549461E1,-5.940489769E-1,4.590517282E-1,2.158581465E-1
1.510595388E1,-6.016845629E-2,-5.373165011E-1,3.504735976E-2
1.512641315E1,-6.923953891E-1,1.108993173E0,-7.185091078E-2
1.514687242E1,-5.103628635E-1,4.498890042E-1,-7.551599294E-2
1.516733169E1,-5.409052372E-1,6.056550741E-1,-3.357369304E-1
1.518779102E1,-5.622848868E-1,8.848122358E-1,-4.243097901E-1
1.520825029E1,-1.414111406E-1,5.183038712E-1,-4.737884104E-1
1.522870956E1,7.971556485E-2,4.327852726E-1,-4.713450074E-1
1.524916883E1,1.130067464E-2,2.446443290E-1,-5.464792252E-1
1.526962810E1,-3.985778391E-1,2.672456801E-1,-6.565080881E-1
1.529008737E1,-5.897729993E-1,6.154286265E-1,-7.298097610E-1
1.531054664E1,-6.093201637E-1,4.382829070E-1,-5.244887471E-1
1.533100591E1,-2.727433145E-1,1.579040140E-1,-3.210766017E-1
1.535146524E1,1.902789176E-1,-2.874799967E-1,-4.255314767E-1
1.537192451E1,5.467082933E-2,-2.807606757E-1,-4.988331497E-1
1.539238378E1,-3.002314270E-1,-1.109451354E-1,-3.522298038E-1
1.541284305E1,-1.988307834E-1,-3.937674165E-1,-4.463002682E-1
1.543330232E1,-1.298050433E-1,-1.970745921E-1,-8.067765236E-1
1.545376159E1,-5.192201585E-3,-4.902812839E-1,-6.717792749E-1
1.547422091E1,-3.063398898E-1,-2.196759433E-1,-5.165477395E-1
1.549468018E1,-3.448232710E-1,-9.384141117E-2,-2.441098392E-1
1.551513945E1,8.032641560E-2,9.620844573E-2,-2.508291602E-1
1.553559873E1,5.781669021E-1,-2.355579734E-1,5.726693198E-3
1.555605800E1,6.526902914E-1,-1.252236869E-2,1.450762269E-3
1.557651727E1,1.328592747E-1,5.650337040E-2,-1.390441060E-1
1.559697659E1,2.953446507E-1,-4.120928347E-1,-6.757497787E-2
1.561743586E1,-1.365243644E-1,-3.390202299E-2,-2.587701678E-1
1.563789513E1,-2.244863659E-1,-1.231620759E-1,-2.618243992E-1
1.565835440E1,1.120904684E-1,-2.190651000E-1,-1.427091956E-1
1.567881367E1,2.440334857E-1,-2.526617050E-1,-6.329904497E-2
1.569927300E1,7.055285573E-2,1.945548505E-1,-1.127776727E-1
1.571973227E1,2.128802687E-1,6.627693027E-2,-1.524827480E-1
1.574019154E1,4.523324072E-1,-5.043307543E-1,-2.233410329E-1
1.576065081E1,2.440334857E-1,-5.990120769E-1,-2.178433985E-1
1.578111008E1,-1.359135211E-1,-9.628479928E-2,-2.813715041E-1
1.580156940E1,-1.273616552E-1,-2.331145853E-1,-7.612683624E-2
1.582202867E1,1.316375881E-1,-2.459423840E-1,-1.133885235E-1
1.584248794E1,2.141019702E-1,-1.274380088E-1,-2.178433985E-1
1.586294722E1,-1.084253863E-1,2.031067163E-1,-2.569376230E-1
1.588340654E1,-1.169772521E-1,-1.256054640E-1,-2.502183020E-1
1.590386581E1,-1.939440072E-1,1.102579311E-1,-1.848576516E-1
1.592432508E1,1.676775664E-1,-2.257844210E-1,-3.351260722E-1
1.594478435E1,-1.890572309E-1,2.226538211E-1,-2.111240774E-1
1.596524367E1,1.456870735E-1,-7.181273103E-1,-4.560738206E-1
1.598570294E1,-3.313846290E-1,3.826957941E-1,-9.506310523E-2
1.600616222E1,1.557660475E-2,2.324273884E-1,8.330429345E-2
1.602662149E1,4.914266169E-1,-5.141043067E-1,-2.099023908E-1
1.604708076E1,-3.032856584E-1,-2.569376230E-1,-1.137703005E-2
1.606754008E1,-4.230117202E-1,4.529432356E-1,2.099787444E-2
1.608799935E1,2.855710983E-1,-3.051945567E-1,-3.886515647E-2
1.610845862E1,2.195995897E-1,1.035386100E-1,3.565821052E-2
1.612891789E1,3.723114133E-1,-5.617504120E-1,1.488940232E-2
1.614937722E1,-1.065928489E-1,-5.006656647E-1,2.649549954E-2
1.616983649E1,-4.437805414E-1,4.395045936E-1,1.266744435E-1
1.619029576E1,3.106158376E-1,-3.650575876E-1,3.991123140E-1
1.621075503E1,5.653391480E-1,-5.489225984E-1,3.508553803E-1
1.623121435E1,1.878355294E-1,-1.262163222E-1,4.718031585E-1
1.625167362E1,5.650337040E-2,2.293731421E-1,4.650838375E-1
1.627213289E1,4.914266169E-1,-7.421794534E-2,2.665584683E-1
1.629259216E1,5.054761171E-1,-1.985253580E-2,2.268534005E-1
1.631305149E1,5.573981404E-1,3.145863488E-2,3.777326643E-1
1.633351076E1,4.089622498E-1,-1.573695242E-1,6.397861242E-1
1.635397003E1,2.220429778E-1,1.627907902E-1,6.031352878E-1
1.637442930E1,3.387148082E-1,8.399149776E-2,3.954472542E-1
1.639488862E1,2.367033064E-1,-2.037939131E-1,2.885489762E-1
1.641534789E1,1.750077456E-1,-2.361688167E-1,1.871483326E-1
1.643580716E1,2.122694254E-1,2.046338283E-2,3.343625069E-1
1.645626643E1,3.130592108E-1,-2.288386524E-1,2.494547516E-1
1.647672576E1,-3.845283389E-1,1.499630064E-1,4.082750380E-1
1.649718503E1,6.016845629E-2,4.489727318E-2,1.217876747E-1
1.651764430E1,3.268032894E-2,3.411581814E-1,1.767639220E-1
1.653810357E1,5.311316848E-1,-7.727217674E-2,-3.031329438E-2
1.655856289E1,7.009472251E-1,-6.322269142E-2,-2.825932205E-1
1.657902216E1,4.034646153E-1,1.963873953E-1,-2.092915475E-1
1.659948143E1,-1.169772521E-1,4.071297050E-1,1.511083394E-1
1.661994076E1,-5.283828825E-2,5.250232220E-1,1.853157878E-1
1.664040003E1,3.307738006E-1,-2.196759433E-1,-6.207735091E-2
1.666085930E1,7.094991207E-1,-1.989071369E-1,-3.058054149E-1
1.668131857E1,1.536280811E-1,-2.447206825E-1,-4.375193641E-2
1.670177789E1,1.007897966E-2,-3.023693897E-2,2.832804248E-2
1.672223716E1,-2.941229641E-1,5.833591148E-2,7.353074104E-2
1.674269643E1,-3.503209054E-1,1.218640283E-1,7.780666649E-2
1.676315576E1,-2.568612695E-1,3.939964995E-2,1.633252800E-1
1.678361503E1,-4.248442650E-1,5.292991400E-1,5.646519065E-1
1.680407430E1,-1.230857223E-1,-2.050156146E-1,1.920351088E-1
1.682453357E1,-1.524063945E-1,3.912476599E-1,7.780666649E-2
1.684499289E1,1.267508119E-1,1.945548505E-1,1.120141149E-1
1.686545216E1,4.462239146E-1,9.437590092E-2,-1.726407111E-1
1.688591143E1,2.006633282E-1,-2.661003470E-1,-1.982962936E-1
1.690637076E1,3.051182032E-1,-5.161659420E-2,-3.852155507E-1
1.692683003E1,2.935121059E-1,4.489727318E-2,-4.059843719E-1
1.694728930E1,2.501419485E-1,-1.152210608E-1,-3.675009906E-1
1.696774862E1,4.367557913E-2,-1.243837699E-1,-4.157579243E-1
1.698820789E1,-5.189147592E-1,2.281514555E-1,-1.561478376E-1
1.700866716E1,-7.595885396E-1,-5.222744122E-2,-5.474718660E-2
1.702912643E1,-5.274665952E-1,4.724903405E-1,2.738886476E-1
1.704958576E1,1.682884246E-1,-2.092915475E-1,3.019876182E-1
1.707004503E1,8.643488586E-2,-3.145863488E-2,4.974587262E-1
1.709050430E1,1.969982386E-1,-4.108711481E-1,4.137726724E-1
1.711096362E1,1.365243644E-1,2.290677279E-2,2.378486544E-1
1.713142289E1,2.061609477E-1,-1.158319116E-1,7.559234742E-3
1.715188216E1,7.443174124E-1,-6.197808981E-1,-2.899233699E-1
1.717234149E1,5.696150661E-1,-3.907131851E-1,-5.230379477E-2
1.719280076E1,3.008422852E-1,-1.420983374E-1,6.253548712E-2
1.721326003E1,6.566607952E-2,-1.500393599E-1,1.828723997E-1
1.723371930E1,-3.747547865E-1,5.772506446E-2,3.868953884E-1
1.725417862E1,-3.399364948E-1,5.833591148E-2,4.143835008E-1
1.727463789E1,-1.780619770E-1,1.285833418E-1,6.116871834E-1
1.729509716E1,3.970507067E-3,1.041494608E-1,6.599441171E-1
1.731555649E1,-3.634541109E-2,6.172611713E-1,8.016606569E-1
1.733601576E1,6.655181050E-1,-4.084277451E-1,4.290438294E-1
1.735647508E1,4.224008918E-1,1.801999472E-2,3.887279332E-1
1.737693435E1,-2.412846684E-2,6.093201637E-1,4.400390983E-1
1.739739362E1,-3.332171738E-1,5.650337040E-2,2.183015347E-1
1.741785289E1,3.326063454E-1,-4.062134400E-2,-8.467870206E-2
1.743831222E1,-5.467082933E-2,4.822639227E-1,1.352263093E-1
1.745877149E1,1.420219839E-1,4.920374751E-1,1.645469815E-1
1.747923076E1,4.917320609E-2,-1.518719047E-1,3.691807985E-1
1.749969008E1,5.867187977E-1,-2.962609194E-2,8.696937561E-2
1.752014935E1,-3.613161445E-1,9.135220647E-1,4.522560537E-1
1.754060867E1,-3.668137789E-1,1.310267299E-1,2.061609412E-3
1.756106794E1,-8.463288546E-1,9.642223716E-1,4.970769584E-2
1.758152722E1,-1.151447073E-1,1.151447073E-1,4.237752780E-2
1.760198654E1,5.543438792E-1,-8.032641560E-2,-2.160108685E-1
1.762244581E1,3.359660041E-3,1.774511337E-1,-2.481566928E-2
1.764290508E1,-6.080984473E-1,5.079194903E-1,-1.940203607E-1
1.766336440E1,-6.612421870E-1,5.115845799E-1,-5.098283887E-1
1.768382367E1,-6.667397618E-1,1.707318127E-1,-2.899233699E-1
1.770428294E1,-1.055238605E0,5.885513425E-1,-3.277959228E-1
1.772474227E1,-5.818319917E-1,2.134911120E-1,-3.711660802E-1
1.774520154E1,3.448232710E-1,-6.139015034E-2,-5.238778591E-1
1.776566086E1,3.448232710E-1,-3.729985952E-1,-3.705552220E-1
1.778612013E1,-1.634016484E-1,-2.380013615E-1,-5.715239644E-1
1.780657940E1,-4.150707126E-1,1.511846930E-1,-7.090409398E-1
1.782703872E1,-6.117635369E-1,1.096470803E-1,-4.829511046E-1
1.784749800E1,-2.489202619E-1,-5.100574717E-2,-6.088619828E-1
1.786795727E1,-2.941229641E-1,2.562504113E-1,-3.320718408E-1
1.788841659E1,-1.017060652E-1,-9.750649333E-2,-4.401918054E-1
1.790887586E1,-1.866138428E-1,8.338065445E-2,-3.265742064E-1
1.792933513E1,-5.955760926E-2,-3.772745430E-1,-3.100813329E-1
1.794979445E1,-1.652341783E-1,1.976090819E-1,-4.750100970E-1
1.797025373E1,-1.957765520E-1,1.634016484E-1,-2.147891670E-1
1.799071305E1,7.299624383E-2,-3.650575876E-1,-2.740413547E-1
1.801117232E1,-4.734066129E-2,-1.054475084E-1,-3.424562514E-1
1.803163159E1,-2.812951505E-1,5.286883116E-1,-1.585912257E-1
1.805209091E1,-8.826743066E-2,-3.583382666E-1,-2.551050782E-1
1.807255018E1,-1.261399537E-1,-5.772506446E-2,-2.349471301E-1
1.809300951E1,-5.955760926E-2,-6.872031838E-2,-2.661003470E-1
1.811346878E1,1.719534993E-1,-1.359898746E-1,-4.078168869E-1
1.813392805E1,3.100049794E-1,-2.007396817E-1,-3.620033562E-1
1.815438737E1,5.222744122E-2,1.713426560E-1,-4.084277451E-1
1.817484664E1,-4.731011987E-1,-1.097234413E-1,-2.838149071E-1
1.819530591E1,-6.551336646E-1,1.383569092E-1,-3.766636848E-1
1.821576524E1,2.299840003E-1,-1.313321572E-2,-2.880908251E-1
1.823622451E1,2.422009408E-1,-3.693335354E-1,-1.992889121E-2
1.825668383E1,-3.023693897E-2,-2.141783237E-1,5.031854287E-2
1.827714310E1,-3.130592108E-1,1.982199401E-1,2.011978179E-1
1.829760237E1,2.794626355E-1,-2.715979517E-1,2.390703410E-1
1.831806169E1,6.667397618E-1,-2.990860939E-1,3.172588050E-1
1.833852096E1,6.160394549E-1,-6.032879949E-1,1.853157878E-1
1.835898029E1,-4.734066129E-2,-2.758738995E-1,5.215108395E-2
1.837943956E1,-3.869717419E-1,1.713426560E-1,-1.927986592E-1
1.839989883E1,5.192201585E-3,-3.168006539E-1,-9.628479928E-2
1.842035815E1,1.224748790E-1,-5.000548363E-1,6.681142002E-2
1.844081742E1,-3.359660041E-3,4.388937652E-1,8.635853231E-2
1.846127669E1,-1.145338640E-1,-2.673220336E-1,1.395022422E-1
1.848173602E1,6.872031838E-2,3.393256664E-1,-1.115559787E-1
1.850219529E1,1.524063945E-1,3.454341292E-1,-3.092414327E-2
1.852265461E1,3.863608837E-1,-2.850365937E-1,-4.802786559E-2
1.854311388E1,-7.543963939E-2,-6.933116168E-2,3.013767600E-1
1.856357315E1,-4.245388508E-2,2.107422985E-2,3.838411570E-1
1.858403248E1,8.765657991E-2,-2.068481594E-1,3.129828572E-1
1.860449175E1,1.695101112E-1,-1.940203607E-1,2.824405134E-1
1.862495102E1,-3.203893900E-1,2.947337925E-1,7.472952604E-1
1.864541034E1,6.435275674E-1,-7.639408708E-1,1.183516532E-2
1.866586961E1,-9.681928903E-2,7.540909648E-1,5.078431368E-1
1.868632893E1,6.129852533E-1,-6.625401974E-1,8.859575987E-1
1.870678820E1,2.715215981E-1,-1.557660475E-2,6.074112654E-1
1.872724748E1,-3.710896969E-1,7.635590620E-3,4.247679114E-1
1.874770680E1,-7.443174124E-1,1.145338640E-1,2.066954374E-1
1.876816607E1,-3.961344361E-1,2.422009408E-1,2.335727215E-1
1.878862534E1,-7.238540053E-2,1.481304616E-1,3.813977540E-1
1.880908466E1,3.472666740E-1,3.206948191E-2,3.435252309E-1
1.882954393E1,3.888042867E-1,-2.880908251E-1,1.920351088E-1
1.885000326E1,2.983988822E-1,-1.435491070E-2,-3.461213410E-1
1.887046253E1,1.487413049E-1,-2.734304965E-1,-3.717769086E-1
1.889092180E1,1.707318127E-1,-1.964637488E-1,-5.379273891E-1
1.891138112E1,-1.517955512E-1,-6.872031838E-2,-8.834378421E-2
1.893184039E1,5.711421743E-2,-2.893125415E-1,-3.131355643E-1
1.895229966E1,1.230857223E-1,-3.206948191E-2,-3.021403253E-1
1.897275899E1,5.589252338E-2,3.747547865E-1,-8.406785131E-2
1.899321826E1,9.804098308E-2,9.681928903E-2,4.604261369E-2
1.901367758E1,2.684673667E-1,-2.422772944E-1,-2.325037420E-1
1.903413685E1,-1.679829881E-2,2.922904193E-1,-1.879118830E-1
1.905459612E1,-2.165453583E-1,-3.473430276E-1,3.245889544E-1
1.907505544E1,-7.620319724E-1,1.566823274E-1,1.517191827E-1
1.909551472E1,-7.699729800E-1,3.771981895E-1,-1.504211407E-2
1.911597399E1,-2.299840003E-1,3.191677034E-1,-3.642176837E-2
1.913643331E1,3.307738006E-1,1.927223057E-1,-4.741701856E-2
1.915689258E1,4.969242513E-1,-6.167266369E-1,8.147175610E-2
1.917735190E1,2.825168669E-1,-1.384332627E-1,1.672194339E-2
1.919781117E1,8.582404256E-2,1.829487532E-1,1.688229144E-1
1.921827044E1,2.177670449E-1,-3.345152438E-1,7.559234742E-3
1.923872977E1,3.545968235E-1,-1.208026767E0,-1.689756215E-1
1.925918904E1,3.301629424E-1,-7.895964384E-1,-4.497363046E-2
1.927964831E1,3.741439581E-1,-4.371375740E-1,2.763320208E-1
1.930010763E1,6.117635369E-1,-1.078908965E-1,3.068743944E-1
1.932056690E1,7.033905983E-1,-3.314609826E-1,1.908134073E-1
1.934102617E1,6.728482842E-1,-5.495334864E-1,9.307785332E-2
1.936148550E1,1.322484314E-1,-1.152210608E-1,3.080960810E-1
1.938194477E1,-1.688992679E-1,-6.688777357E-2,3.612397909E-1
1.940240404E1,1.255291104E-1,-2.190651000E-1,-1.750840992E-1
1.942286336E1,1.487413049E-1,-2.331145853E-1,-3.336753324E-2
1.944332263E1,-2.929012477E-1,-2.535016090E-2,3.227564096E-1
1.946378190E1,-4.437805414E-1,-3.054236295E-4,4.644729793E-1
1.948424122E1,-2.593046725E-1,-2.007396817E-1,3.355842233E-1
1.950470050E1,-1.841704547E-1,-4.078168869E-1,2.757211924E-1
1.952515977E1,-2.629697323E-1,-2.318928838E-1,3.038201630E-1
1.954561909E1,-2.092151791E-1,3.878879920E-2,2.971008420E-1
1.956607836E1,6.627693027E-2,4.978405312E-2,2.940466106E-1
1.958653768E1,3.817795217E-2,-1.555369794E-1,8.346464038E-1
1.960699695E1,2.770192325E-1,1.963873953E-1,2.995442152E-1
1.962745622E1,6.933116168E-2,3.814741075E-1,5.670953393E-1
1.964791550E1,4.028537571E-1,-4.184303805E-2,8.330429345E-2
1.966837482E1,-1.927223057E-1,5.005893111E-1,4.015557170E-1
1.968883409E1,2.892361879E-1,-1.524827480E-1,-1.262163222E-1
1.970929336E1,-1.731752008E-1,-9.200886637E-2,2.832804248E-2
1.972975268E1,-1.994416267E-1,3.038965166E-1,-3.216874301E-1
1.975021195E1,-3.552076817E-1,1.249182671E-1,2.861055732E-1
1.977067122E1,1.047603041E-1,6.322269142E-2,-9.384141117E-2
1.979113055E1,-1.597365588E-1,3.936910629E-1,1.700446010E-1
1.981158982E1,1.383569092E-1,2.318165302E-1,-2.270061076E-1
1.983204909E1,-9.559759498E-2,1.426328421E-1,-6.940752268E-2
1.985250841E1,-2.189887464E-1,7.177454978E-2,2.201340795E-1
1.987296768E1,7.788302749E-2,9.559759498E-2,-1.549261361E-1
1.989342695E1,-3.490992188E-1,4.022429287E-1,-2.542651631E-2
1.991388628E1,-5.806103349E-1,4.761554301E-1,6.742226332E-2
1.993434555E1,-2.000524700E-1,2.067717910E-1,-2.483857721E-1
1.995480482E1,-3.252761662E-1,2.837385535E-1,5.520532280E-2
1.997526414E1,-7.482878864E-2,5.451811552E-1,-2.544942498E-1
1.999572341E1,1.621799469E-1,3.289412558E-1,-4.353050292E-1
2.001618268E1,-2.709107697E-1,1.530172378E-1,-9.750649333E-2
2.003664201E1,-7.849387079E-2,3.191677034E-1,-8.312104344E-1
2.005710128E1,-1.139230132E-1,-1.139993668E-1,-9.625425935E-1
2.007756055E1,-3.020639718E-1,-4.096494317E-1,-6.821636558E-1
2.009801982E1,-2.330382317E-1,-2.019613683E-1,-9.228374958E-1
2.011847914E1,-4.611896724E-2,-4.652365446E-1,-1.316833973E0
2.013893841E1,-8.542698622E-1,1.261399537E-1,-4.487436712E-1
2.015939768E1,-7.605048269E-2,2.718270384E-2,-8.373188972E-1
2.017985701E1,-1.731752008E-1,3.167243004E-1,-3.400128484E-1
2.020031628E1,1.768402755E-1,1.243074164E-1,-4.676799178E-1
2.022077555E1,-8.643488586E-2,4.333961308E-1,-9.445225447E-2
2.024123487E1,-2.061609477E-1,1.285833418E-1,3.319191337E-1
2.026169414E1,-1.200314835E-1,7.421794534E-2,4.168269038E-1
2.028215341E1,1.640124917E-1,-1.068982668E-2,1.889808774E-1
2.030261274E1,8.249492049E-1,-2.037939131E-1,-2.905342281E-1
2.032307201E1,8.439618349E-1,-7.957049012E-1,-5.813738704E-1
2.034353128E1,5.592306852E-1,-5.110501051E-1,1.761530787E-1
2.036399055E1,2.745758295E-1,-7.543963939E-2,-4.130854458E-2
2.038444987E1,-6.077930331E-2,-2.593810260E-1,-6.876612902E-1
2.040490914E1,-4.795150831E-2,-6.130616069E-1,-3.705552220E-1
2.042536841E1,1.236965731E-1,-1.554377198E0,1.352644920E0
2.044582774E1,1.902789176E-1,-6.994201243E-2,-4.619532451E-2
2.046628701E1,-3.301629424E-1,-5.757998824E-1,-3.381803036E-1
2.048674628E1,9.620844573E-2,-1.313703418E0,9.641460180E-1
2.050720555E1,-3.329117596E-2,-6.326087117E-1,1.152287006E0
2.052766487E1,8.032641560E-2,-4.065952003E-1,3.685699701E-1
2.054812414E1,-4.761554301E-1,3.423798978E-1,1.226810336E0
2.056858341E1,1.860029846E-1,-9.991170764E-1,5.359421372E-1
2.058904274E1,-1.994416267E-1,6.227588058E-1,3.441360891E-1
2.060950201E1,3.185568452E-1,-5.208236575E-1,2.405211143E-2
2.062996128E1,3.878879920E-2,1.982199401E-1,6.314633787E-2
2.065042055E1,-1.829487532E-1,1.255291104E-1,6.257366538E-1
2.067087987E1,-3.573456407E-2,-4.737884104E-1,5.396072268E-1
2.069133914E1,1.658450365E-1,2.116585821E-1,-1.626380906E-2
2.071179846E1,5.018110275E-1,7.626428008E-1,-3.870480955E-1
2.073225774E1,1.408002973E-1,1.353026628E-1,4.009448588E-1
2.075271701E1,-4.126273096E-1,4.306473210E-2,5.768688917E-1
2.077317628E1,2.684673667E-1,8.707627654E-1,-1.714190096E-1
2.079363560E1,7.217160463E-1,-4.731775522E-1,1.046839505E-1
2.081409487E1,-6.264238358E-1,3.857500553E-1,7.509603500E-1
2.083455414E1,2.779355086E-2,9.132166207E-2,1.065164879E-1
2.085501347E1,4.688252807E-1,-4.805077314E-1,1.199551299E-1
2.087547274E1,-2.214321345E-1,6.627693027E-2,3.594072461E-1
2.089593201E1,1.801999472E-2,-1.390441060E-1,-1.870719716E-2
2.091639133E1,1.603474021E-1,-3.357369304E-1,-3.491755724E-1
2.093685060E1,-6.942279339E-1,2.363673449E0,5.945834517E-1
2.095730987E1,2.739650011E-1,-1.985635400E0,7.986064553E-1
2.097776919E1,1.219632864E0,-9.789590836E-1,-1.614927411E0
2.099822846E1,-1.816354275E0,4.746054173E0,2.153542042E0
2.101868779E1,-5.405998230E-2,-1.384561658E0,9.024504423E-1
2.103914706E1,1.274609208E0,-8.195279241E-1,-2.021751642E0
2.105960633E1,-4.297310412E-1,4.834856093E-1,8.725189567E-1
2.108006565E1,-4.682144225E-1,8.512156606E-1,6.678851247E-1
2.110052492E1,4.052971601E-1,-1.417547464E0,-3.888806403E-1
2.112098419E1,-1.151752472E0,1.255596519E0,7.540146112E-1
2.114144352E1,-5.405998230E-2,4.175141156E-1,4.064424932E-1
2.116190279E1,6.618530154E-1,-4.236989319E-1,-2.074590027E-1
2.118236211E1,8.154810965E-2,1.921114624E-1,7.222505212E-1
2.120282138E1,5.439594984E-1,-8.215895295E-2,2.305184901E-1
2.122328070E1,3.704788685E-1,-2.031830698E-1,-7.711946499E-3
2.124373998E1,-3.573456407E-2,-5.803049076E-3,1.553842723E-1
2.126419925E1,-1.010952219E-1,2.189887464E-1,1.488940232E-2
2.128465857E1,-2.043284029E-1,-5.354839563E-1,-2.848075330E-2
2.130511784E1,1.701209545E-1,5.372401476E-1,-7.572978735E-1
2.132557716E1,9.710180759E-1,-6.124507189E-1,-2.941993177E-1
2.134603643E1,-4.553866386E-1,-6.674270034E-1,8.303704858E-1
2.136649576E1,-3.533751369E-1,9.752176404E-1,-6.253548861E-1
2.138695503E1,6.771242023E-1,-8.399149776E-2,-3.589491248E-1
2.140741435E1,-1.988307834E-1,3.045073450E-1,2.812187970E-1
2.142787362E1,-3.145863488E-2,6.627693027E-2,-2.679328918E-1
2.144833294E1,1.939440072E-1,2.046338283E-2,-1.170536056E-1
2.146879222E1,-8.460234851E-2,3.509317636E-1,9.246700257E-2
2.148925154E1,-3.084778599E-2,1.511846930E-1,-8.773294091E-2
2.150971081E1,-1.805053651E-1,-4.978405312E-2,6.253548712E-2
2.153017013E1,-4.828747511E-1,2.574721277E-1,4.909684882E-2
2.155062940E1,-3.075616062E-1,2.275405973E-1,-1.366007179E-1
2.157108873E1,1.701209545E-1,2.024958730E-1,-2.386122048E-1
2.159154800E1,6.905628443E-1,-1.219403818E-1,-1.683647782E-1
2.161200732E1,5.305208564E-1,-3.766636848E-1,-2.123457789E-1
2.163246664E1,-2.275405973E-1,-9.468132630E-3,-1.756949425E-1
2.165292591E1,-2.825168669E-1,3.582619131E-1,-4.035409689E-1
2.167338524E1,8.246437646E-3,-6.627693027E-2,-1.970745921E-1
2.169384451E1,-1.902789176E-1,2.684673667E-1,-3.817795368E-4
2.171430383E1,1.634016484E-1,9.376505762E-2,-5.291464552E-2
2.173476310E1,4.828747511E-1,-2.972535491E-1,-5.474718660E-2
2.175522242E1,1.145338640E-1,-1.512610465E-1,9.857547283E-2
2.177568175E1,-3.747547865E-1,4.367557913E-2,1.187334359E-1
2.179614102E1,-2.825168669E-1,-1.463742703E-1,5.726693198E-3
2.181660034E1,-1.053711548E-1,-6.155049801E-1,-8.467870206E-2
2.183705966E1,1.969982386E-1,-4.786751866E-1,-2.636569440E-1
2.185751893E1,2.116585821E-1,-3.503972590E-1,8.780929260E-3
2.187797826E1,3.197785318E-1,-1.286597103E-1,-2.135674655E-1
2.189843758E1,-2.379250079E-1,2.238755226E-1,1.061347127E-2
2.191889685E1,-3.985778391E-1,3.765873313E-1,-2.160108685E-1
2.193935617E1,-6.600204706E-1,3.210002482E-1,-2.489966154E-1
2.195981550E1,-4.517215490E-1,3.246653080E-1,-3.754419982E-1
2.198027477E1,-2.983988822E-1,-1.524827480E-1,-2.893125415E-1
2.200073409E1,-2.458660156E-1,5.528167635E-2,-5.141043067E-1
2.202119341E1,-4.132381678E-1,3.869717419E-1,-4.285857081E-1
2.204165268E1,-1.801999472E-2,1.426328421E-1,-5.360948443E-1
2.206211201E1,-8.643488586E-2,1.340809762E-1,-2.227301747E-1
2.208257133E1,-4.462239146E-1,4.706578255E-1,-3.581092134E-2
2.210303060E1,-3.319954872E-1,1.670667231E-1,-1.659213901E-1
2.212348992E1,-1.688992679E-1,1.414111406E-1,-2.648786306E-1
2.214394925E1,1.163664013E-1,-1.182752997E-1,-2.899233699E-1
2.216440857E1,1.450762302E-1,-2.367796749E-1,-3.540623486E-1
2.218486784E1,-1.572931707E-1,-1.256054640E-1,-2.288386524E-1
2.220532716E1,-2.409792393E-1,3.817795217E-2,-1.598129123E-1
2.222578649E1,-1.041494608E-1,-7.727217674E-2,-1.072800532E-1
2.224624581E1,-1.841704547E-1,2.290677279E-2,8.086090535E-2
2.226670508E1,-4.611896724E-2,-5.405998230E-2,2.201340795E-1
2.228716440E1,2.788517773E-1,2.107422985E-2,8.513683826E-2
2.230762373E1,3.191677034E-1,-2.202867866E-1,2.066954374E-1
2.232808305E1,2.458660156E-1,-2.850365937E-1,6.497887522E-2
2.234854232E1,2.596100792E-2,-2.465532273E-1,1.126249656E-1
2.236900164E1,1.090362370E-1,-1.072800532E-1,1.688229144E-1
2.238946096E1,1.863084175E-2,-1.530935913E-1,4.430933297E-1
2.240992029E1,1.408002973E-1,-2.050156146E-1,4.119401276E-1
2.243037956E1,1.340809762E-1,-1.488176584E-1,4.046099484E-1
2.245083888E1,2.473931387E-2,-2.107422985E-2,4.742465317E-1
2.247129820E1,-6.139015034E-2,-1.176644564E-1,4.412607849E-1
2.249175753E1,1.618745178E-2,9.193251282E-2,1.755422354E-1
2.251221685E1,-1.878355294E-1,-2.657185495E-2,2.390703410E-1
2.253267612E1,-2.263189107E-1,9.071081877E-2,4.482091591E-2
2.255313544E1,-3.411581814E-1,2.971771955E-1,-4.924955964E-2
2.257359477E1,1.939440072E-1,1.359135211E-1,-3.045837283E-1
2.259405409E1,1.359135211E-1,2.473931387E-2,-1.127776727E-1
2.261451341E1,2.855710983E-1,1.896680743E-1,-2.074590027E-1
2.263497274E1,4.596625566E-1,3.405473530E-1,-2.893125415E-1
2.265543201E1,-6.322269142E-2,2.046338283E-2,-3.397838026E-2
2.267589133E1,5.772506446E-2,3.588727713E-1,-4.291965663E-1
2.269635065E1,-2.183778882E-1,2.843494117E-1,-2.667111754E-1
2.271680998E1,-1.719534993E-1,8.582404256E-2,-2.880908251E-1
2.273726930E1,1.114796251E-1,1.298050433E-1,-5.250995755E-1
2.275772862E1,2.519744933E-1,-3.027511835E-1,-5.110501051E-1
2.277818789E1,2.046338283E-2,-1.689756215E-1,-4.078168869E-1
2.279864722E1,1.255291104E-1,-1.677539349E-1,-5.391490459E-1
2.281910654E1,-3.326063454E-1,8.643488586E-2,-3.613924980E-1
2.283956586E1,-5.283828825E-2,-7.971556485E-2,-3.681118190E-1
2.286002518E1,-2.018850148E-1,2.134911120E-1,-2.355579734E-1
2.288048451E1,-3.020639718E-1,2.440334857E-1,-1.860793531E-1
2.290094383E1,-2.965663373E-1,1.743968874E-1,5.642701685E-2
2.292140310E1,-2.825168669E-1,-4.615714550E-1,3.203130364E-1
2.294186242E1,2.910687327E-1,-1.720298529E-1,1.987544298E-1
2.296232175E1,4.327852726E-1,9.804098308E-2,-2.603736520E-2
2.298278107E1,5.671716928E-1,1.435491070E-2,8.399150101E-4
2.300324039E1,8.115105629E-1,-3.742203116E-1,-7.612683624E-2
2.302369972E1,7.614210844E-1,-7.187381387E-1,-9.872818738E-2
2.304415904E1,3.790307343E-1,-5.990120769E-1,-2.282278091E-1
2.306461836E1,-1.181989461E-1,-3.332935274E-1,-2.868691385E-1
2.308507763E1,-3.729222417E-1,-6.261184067E-2,-2.520508468E-1
2.310553695E1,-7.705838084E-1,1.114796251E-1,7.047650218E-2
2.312599628E1,-3.570402265E-1,2.244863659E-1,-2.355579734E-1
2.314645560E1,-4.065188468E-1,2.929012477E-1,4.237752780E-2
2.316691492E1,-3.167243004E-1,4.062134400E-2,5.581616983E-2
2.318737425E1,-1.236965731E-1,-1.127776727E-1,-1.390441060E-1
2.320783357E1,5.894676223E-2,-1.139993668E-1,-9.926267667E-4
2.322829289E1,2.678565085E-1,6.322269142E-2,5.154023692E-2
2.324875222E1,3.512371704E-2,-1.017824262E-1,6.497887522E-2
2.326921154E1,-1.829487532E-1,-6.139015034E-2,-3.825430945E-2
2.328967086E1,-1.218640283E-1,9.315420687E-2,-1.298813969E-1
2.331013018E1,-9.681928903E-2,-1.640888453E-1,1.162900478E-1
2.333058951E1,-9.559759498E-2,2.562504113E-1,2.164690048E-1
2.335104878E1,-1.267508119E-1,2.208212912E-1,4.272113144E-1
2.337150810E1,2.593046725E-1,-1.924168877E-2,1.895917207E-1
2.339196748E1,2.580829561E-1,2.137965523E-3,2.757211924E-1
2.341242675E1,3.203893900E-1,-2.111240774E-1,2.207449228E-1
2.343288607E1,1.493521482E-1,-8.460234851E-2,1.541625708E-1
2.345334539E1,-3.142809272E-1,2.617480457E-1,2.952682972E-1
2.347380472E1,4.611896724E-2,8.246437646E-3,-7.001836598E-2
2.349426404E1,-2.220429778E-1,6.933116168E-2,1.712663025E-1
2.351472336E1,9.376505762E-2,-2.141783237E-1,-3.528406620E-1
2.353518268E1,-7.094991207E-1,4.999784827E-1,-2.115058713E-2
2.355564201E1,-4.230117202E-1,4.795150831E-2,-5.367056727E-1
2.357610133E1,-5.677825212E-1,5.164713860E-1,-5.470900536E-1
2.359656065E1,-2.654131353E-1,3.051182032E-1,-4.896704257E-1
2.361702003E1,-1.408002973E-1,1.988307834E-1,-4.835619628E-1
2.363747935E1,-6.013791561E-1,3.240544796E-1,-1.787491739E-1
2.365793867E1,-4.798205197E-1,5.415160656E-1,-4.469111264E-1
2.367839800E1,-4.077405334E-1,3.185568452E-1,-2.373905182E-1
2.369885732E1,-1.090362370E-1,1.902789176E-1,-3.021403253E-1
2.371931664E1,-1.725643575E-1,7.849387079E-2,-2.154000103E-1
2.373977596E1,-2.770192325E-1,3.906368315E-1,-2.288386524E-1
2.376023529E1,-2.104368806E-1,1.750077456E-1,-3.607816696E-1
2.378069461E1,4.734066129E-2,-1.512610465E-1,-6.461237073E-1
2.380115393E1,-2.086043358E-1,-1.435491070E-2,-4.322507977E-1
2.382161326E1,-2.953446507E-1,2.147128135E-1,-4.206447005E-1
2.384207258E1,-1.273616552E-1,1.841704547E-1,-3.326826990E-1
2.386253190E1,1.041494608E-1,6.016845629E-2,-9.628479928E-2
2.388299122E1,2.660239935E-1,-3.253525198E-1,1.309503764E-1
2.390345055E1,6.215370893E-1,-4.120928347E-1,-4.558447748E-2
2.392390992E1,5.152496696E-1,-6.436039209E-1,5.581616983E-2
2.394436925E1,5.909947157E-1,-7.279008627E-1,-8.345700800E-2
2.396482857E1,5.445703268E-1,-6.081748009E-1,-2.832040489E-1
2.398528789E1,1.114796251E-1,-4.951680601E-1,1.205659807E-1
2.400574722E1,1.334701329E-1,-6.106181741E-1,4.724139869E-1
2.402620654E1,4.370612204E-1,-5.721347928E-1,6.489488482E-1
2.404666586E1,6.459710002E-1,-6.472690105E-1,6.575007439E-1
2.406712518E1,3.527642787E-1,-4.340833426E-1,7.283589840E-1
2.408758456E1,1.310267299E-1,-1.488176584E-1,7.014816999E-1
2.410804388E1,2.232646793E-1,-2.606027126E-1,5.194492340E-1
2.412850320E1,9.423082471E-1,-7.492805123E-1,6.803311408E-2
2.414896253E1,7.797465324E-1,-1.555369794E-1,3.129828572E-1
2.416942185E1,3.717005551E-1,-3.687226772E-1,5.988593698E-1
2.418988117E1,2.037175596E-1,-9.872818738E-2,2.940466106E-1
2.421034055E1,4.517215490E-1,3.136700690E-1,3.894151188E-3
2.423079987E1,5.433486104E-1,2.898470163E-1,3.826194406E-1
2.425125919E1,1.247120976E0,-3.406237066E-1,2.891598344E-1
2.427171852E1,7.785248160E-1,-5.012765527E-1,4.620296061E-1
2.429217784E1,5.183038712E-1,-1.720298529E-1,2.439571172E-1
2.431263722E1,1.640124917E-1,8.826743066E-2,1.920351088E-1
2.433309654E1,1.249182671E-1,1.206423342E-1,2.781645656E-1
2.435355586E1,3.512371704E-2,-8.857285604E-3,5.603759885E-1
2.437401518E1,-1.597365588E-1,4.969242513E-1,7.772268057E-1
2.439447451E1,-5.103628635E-1,-3.430670798E-1,1.157784581E0
2.441493388E1,-1.481304616E-1,3.112266660E-1,6.550573111E-1
2.443539320E1,-1.157555580E-1,3.698680103E-1,6.636092067E-1
2.445585253E1,6.077930331E-2,-1.072800532E-1,1.169008911E-1
2.447631185E1,-5.772506446E-2,-4.856235534E-2,1.211768240E-1
2.449677122E1,-1.438545287E-1,3.573456407E-2,1.987544298E-1
2.451723055E1,-1.200314835E-1,3.820849657E-1,8.330429345E-2
2.453768987E1,-2.904578745E-1,-1.139993668E-1,3.117611706E-1
2.455814919E1,-1.298050433E-1,3.252761662E-1,-1.048366576E-1
2.457860857E1,-5.665608048E-1,8.842014074E-1,2.891598344E-1
2.459906789E1,3.863608837E-1,2.257080674E-1,-2.770955861E-1
2.461952722E1,2.238755226E-1,4.315635860E-1,-1.964637488E-1
2.463998659E1,-2.250972092E-1,5.360184908E-1,1.785964668E-1
2.466044591E1,-9.987352788E-2,3.509317636E-1,1.120141149E-1
2.468090524E1,3.878879920E-2,5.891621709E-1,-3.458922729E-2
2.470136461E1,4.001049697E-2,1.652341783E-1,8.819106966E-2
2.472182393E1,-2.806843221E-1,2.672456801E-1,1.309503764E-1
2.474228326E1,3.573456407E-2,2.464768738E-1,-4.261423051E-1
2.476274258E1,-4.004103839E-1,4.150707126E-1,-2.664821222E-2
2.478320195E1,-1.084253863E-1,4.315635860E-1,-5.250995755E-1
2.480366128E1,-2.476985604E-1,-2.535016090E-2,-5.043307543E-1
2.482412060E1,-2.666348219E-1,1.279724985E-1,-3.125247359E-1
2.484457998E1,-2.657185495E-2,1.120904684E-1,-3.717769086E-1
2.486503930E1,-2.916795611E-1,3.820849657E-1,-1.543152928E-1
2.488549862E1,-5.360184908E-1,3.869717419E-1,-8.712209016E-2
2.490595800E1,-4.785988331E-1,2.208212912E-1,-1.396549493E-1
2.492641732E1,-3.594835997E-1,4.236225784E-1,-1.194969937E-1
2.494687664E1,-3.490992188E-1,3.057290614E-1,8.941277117E-2
2.496733602E1,-2.892361879E-1,1.218640283E-1,8.452598751E-2
2.498779534E1,-2.733541429E-1,3.045073450E-1,1.794363745E-2
2.500825466E1,-1.536280811E-1,1.927223057E-1,1.236202121E-1
2.502871404E1,3.075616062E-1,-2.111240774E-1,-1.015533600E-2
2.504917336E1,2.586938143E-1,-9.933903813E-2,-1.249946207E-1
2.506963268E1,-9.804098308E-2,-4.917320609E-2,-8.223531395E-2
2.509009206E1,6.933116168E-2,-3.145863488E-2,-2.715979517E-1
2.511055138E1,-3.634541109E-2,-2.056264579E-1,1.855448633E-2
2.513101070E1,1.737860441E-1,3.268032894E-2,-4.314108938E-2
2.515147008E1,1.863084175E-2,3.451287001E-2,2.274642438E-1
2.517192940E1,4.978405312E-2,-1.701973230E-1,9.674293548E-2
2.519238878E1,-1.304158866E-1,-4.184303805E-2,-3.336753324E-2
2.521284810E1,3.023693897E-2,1.890572309E-1,-1.231620759E-1
2.523330742E1,2.171562016E-1,-2.123457789E-1,1.122431830E-2
2.525376680E1,2.901524492E-2,-3.797179163E-1,-3.947600350E-2
2.527422612E1,-2.104368806E-1,1.206423342E-1,-1.866901964E-1
2.529468544E1,-2.666348219E-1,-3.084778599E-2,-1.353790164E-1
2.531514482E1,-5.833591148E-2,2.641914487E-1,-2.728196681E-1
2.533560414E1,3.075616062E-1,-1.848576516E-1,-2.935884595E-1
2.535606352E1,1.432436854E-1,1.313321572E-2,-2.123457789E-1
2.537652284E1,-2.535016090E-2,-1.176644564E-1,-7.979192585E-2
2.539698216E1,3.145863488E-2,-1.679829881E-2,-2.917559147E-1
2.541744154E1,4.672981426E-2,-8.032641560E-2,-1.842468083E-1
2.543790086E1,2.257080674E-1,-4.795150831E-2,-1.500393599E-1
2.545836024E1,5.283828825E-2,-7.055285573E-2,1.718771458E-1
2.547881956E1,1.884463727E-1,3.634541109E-2,1.305686031E-2
2.549927888E1,1.273616552E-1,-1.689756215E-1,1.309503764E-1
2.551973826E1,2.513636351E-1,-3.695625812E-2,-1.262163222E-1
2.554019758E1,5.894676223E-2,-2.734304965E-1,1.223985180E-1
2.556065695E1,1.151447073E-1,-1.671430767E-1,1.000262424E-2
2.558111628E1,-3.924693763E-1,5.833591148E-2,8.086090535E-2
2.560157565E1,-2.226538211E-1,-3.021403253E-1,1.016297117E-1
2.562203498E1,1.007897966E-2,-2.948101461E-1,-6.818582863E-2
2.564249430E1,1.322484314E-1,-2.351761982E-2,4.726430774E-2
2.566295367E1,-1.801999472E-2,1.487413049E-1,1.004080176E-1
2.568341300E1,5.467082933E-2,3.258870244E-1,-8.895463496E-2
2.570387237E1,-1.041494608E-1,2.434226274E-1,5.154023692E-2
2.572433169E1,1.927223057E-1,4.306473210E-2,-1.775274873E-1
2.574479102E1,2.397575527E-1,-1.854684949E-1,-2.715979517E-1
2.576525039E1,1.230857223E-1,-2.099023908E-1,-2.300603539E-1
2.578570972E1,-1.432436854E-1,-1.740914769E-2,-6.818582863E-2
2.580616909E1,-1.969982386E-1,1.408002973E-1,-4.046862945E-3
2.582662841E1,-3.570402265E-1,2.250972092E-1,2.360161096E-1
2.584708779E1,-2.208212912E-1,-1.585912257E-1,2.099787444E-2
2.586754711E1,-3.283303976E-1,-2.137965523E-3,-1.249946207E-1
2.588800649E1,1.130067464E-2,-7.299624383E-2,-3.015294671E-1
2.590846581E1,2.715215981E-1,-2.502183020E-1,-2.856474519E-1
2.592892518E1,3.771981895E-1,-5.727456808E-1,-2.603736520E-2
2.594938451E1,2.657185495E-2,-2.770955861E-1,9.613208473E-2
2.596984388E1,1.130067464E-2,-3.131355643E-1,-1.182752997E-1
2.599030320E1,1.322484314E-1,-1.158319116E-1,-2.557159364E-1
2.601076258E1,2.535016090E-2,-1.653105468E-1,-4.046862945E-3
2.603122190E1,2.840439789E-2,7.971556485E-2,-5.902311578E-2
2.605168128E1,3.512371704E-2,-2.526617050E-1,-5.169294775E-2
2.607214060E1,-2.147128135E-1,3.970507067E-3,-9.017632902E-2
2.609259998E1,-4.627167881E-1,1.805053651E-1,2.024195045E-1
2.611305930E1,3.020639718E-1,-1.527118147E-3,-2.135674655E-1
2.613351867E1,2.250972092E-1,1.102579311E-1,1.633252800E-1
2.615397800E1,2.941229641E-1,-8.643488586E-2,8.452598751E-2
2.617443737E1,4.581354558E-3,-1.133885235E-1,-7.918107510E-2
2.619489669E1,-4.242334068E-1,4.663818777E-1,3.337516785E-1
2.621535607E1,2.880144715E-1,-2.422772944E-1,9.674293548E-2
2.623581539E1,1.120904684E-1,-1.824142635E-1,1.480541080E-1
2.625627477E1,2.901524492E-2,-2.227301747E-1,1.144575030E-1
2.627673409E1,-8.887827396E-2,1.035386100E-1,3.077143058E-2
2.629719347E1,-2.657185495E-2,4.001049697E-2,1.804290116E-1
2.631765284E1,4.367557913E-2,1.646233350E-1,3.019876182E-1
2.633811216E1,3.512371704E-2,-9.261971712E-2,4.119401276E-1
2.635857154E1,-3.991886973E-1,7.788302749E-2,4.418716431E-1
2.637903086E1,1.924168877E-2,1.847812980E-1,8.758022636E-2
2.639949024E1,3.145863488E-2,1.068982668E-2,3.209238648E-1
2.641994961E1,3.539859951E-1,1.756185889E-1,1.236202121E-1
2.644040893E1,4.856235534E-2,-3.634541109E-2,1.895917207E-1
2.646086831E1,5.161659420E-2,-1.805817187E-1,8.086090535E-2
2.648132763E1,8.948912472E-2,-2.107422985E-2,-2.734304965E-1
2.650178701E1,2.018850148E-1,-1.353790164E-1,-1.103342846E-1
2.652224633E1,6.261184067E-2,2.049392611E-1,-5.352549255E-2
2.654270570E1,-3.512371704E-2,5.140279531E-1,-8.651123941E-2
2.656316508E1,-3.729222417E-1,3.784198761E-1,-1.225512326E-1
2.658362440E1,-1.872246861E-1,2.605263591E-1,-1.201078445E-1
2.660408378E1,-3.881934285E-1,-4.795150831E-2,-1.329356283E-1
2.662454310E1,-2.770192325E-1,-7.482878864E-2,-4.108711481E-1
2.664500248E1,-5.299099684E-1,2.092151791E-1,-3.149681091E-1
2.666546185E1,-5.427377820E-1,2.672456801E-1,-2.227301747E-1
2.668592122E1,-2.935121059E-1,-1.756949425E-1,-4.707341790E-1
2.670638055E1,-2.202104330E-1,1.035386100E-1,-4.970006049E-1
2.672683992E1,-8.887827396E-2,1.163664013E-1,-4.023192823E-1
2.674729925E1,-3.564293683E-1,2.657185495E-2,-3.736094534E-1
2.676775862E1,1.679829881E-2,1.603474021E-1,-3.516189456E-1
2.678821800E1,4.639385045E-1,-3.577274382E-1,-2.520508468E-1
2.680867732E1,5.097520351E-1,-2.783172727E-1,-1.854684949E-1
2.682913669E1,4.123219103E-2,-3.084778599E-2,-1.390441060E-1
2.684959607E1,4.672981426E-2,6.933116168E-2,-5.413633958E-2
2.687005544E1,-2.779355086E-2,6.505523622E-2,4.176668078E-2
2.689051477E1,1.982199401E-1,-2.282278091E-1,-1.015533600E-2
2.691097414E1,-1.157555580E-1,1.618745178E-2,5.215108395E-2
2.693143352E1,-3.344388604E-1,1.279724985E-1,-2.664821222E-2
2.695189284E1,-1.163664013E-1,-3.565057218E-1,-2.807606757E-1
2.697235222E1,-6.734591126E-1,1.401894391E-1,-2.538833916E-1
2.699281159E1,-5.097520351E-1,3.912476599E-1,-2.599918544E-1
2.701327096E1,-1.579040140E-1,1.090362370E-1,-1.188861504E-1
2.703373029E1,-1.527118147E-3,1.408002973E-1,-2.080698460E-1
2.705418966E1,-4.712686539E-1,2.287622988E-1,-1.078908965E-1
2.707464904E1,-1.658450365E-1,5.955760926E-2,-3.155789673E-1
2.709510836E1,-1.090362370E-1,-2.728196681E-1,-2.966426909E-1
2.711556774E1,-1.298050433E-1,-2.190651000E-1,-4.102602899E-1
2.713602711E1,-4.975350797E-1,1.890572309E-1,-3.717769086E-1
2.715648649E1,-4.474456310E-1,2.336490750E-1,-2.899233699E-1
2.717694581E1,-2.874036431E-1,3.359660041E-3,-2.300603539E-1
2.719740518E1,-1.982199401E-1,2.202104330E-1,-2.208976448E-1
2.721786456E1,-1.053711548E-1,4.306473210E-2,-2.166217119E-1
2.723832393E1,-1.988307834E-1,2.962609194E-2,-1.775274873E-1
2.725878331E1,1.322484314E-1,-8.276980370E-2,-3.729985952E-1
2.727924263E1,1.435491070E-2,-4.306473210E-2,-1.048366576E-1
2.729970201E1,-1.377460510E-1,1.572931707E-1,8.170082234E-3
2.732016138E1,1.615691036E-1,-2.202867866E-1,3.321481869E-2
2.734062070E1,2.739650011E-1,-1.915769726E-1,-9.994988143E-2
2.736108008E1,-4.581354558E-3,-2.373905182E-1,-4.046862945E-3
2.738153945E1,-4.489727318E-2,-2.141783237E-1,-7.857023180E-2
2.740199883E1,2.220429778E-1,1.068982668E-2,-1.592020690E-1
2.742245820E1,1.017060652E-1,-2.037939131E-1,1.211768240E-1
2.744291753E1,2.605263591E-1,-2.367796749E-1,-1.017824262E-1
2.746337690E1,-4.734066129E-2,2.718270384E-2,-4.253023863E-2
2.748383628E1,1.487413049E-1,1.679829881E-2,-1.748550311E-2
2.750429565E1,1.841704547E-1,-1.530935913E-1,8.269345015E-2
2.752475503E1,2.452551723E-1,-1.182752997E-1,2.500655949E-1
2.754521435E1,4.169032574E-1,-7.138513923E-1,3.044309914E-1
2.756567373E1,-3.054236295E-4,-3.833830059E-1,2.567849159E-1
2.758613310E1,-3.747547865E-1,2.403683960E-1,5.005129576E-1
2.760659248E1,1.252236869E-2,4.306473210E-2,3.441360891E-1
2.762705185E1,-7.849387079E-2,1.695101112E-1,4.046099484E-1
2.764751117E1,3.753656447E-1,-2.477749139E-1,3.135937154E-1
2.766797055E1,5.250232220E-1,-2.282278091E-1,3.080960810E-1
2.768842992E1,4.523324072E-1,-1.634780020E-1,1.767639220E-1
2.770888930E1,1.719534993E-1,-3.888806403E-1,1.046839505E-1
2.772934867E1,6.444438547E-2,1.426328421E-1,-5.963396281E-2
2.774980800E1,-4.306473210E-2,-1.164427623E-1,-1.603474026E-3
2.777026737E1,1.908897758E-1,-1.121668294E-1,-3.155789673E-1
2.779072675E1,1.835595965E-1,-2.080698460E-1,-1.689756215E-1
2.781118612E1,2.519744933E-1,-5.525876880E-1,-2.300603539E-1
2.783164550E1,-2.422009408E-1,-9.468132630E-3,-2.996969223E-1
2.785210487E1,-4.828747511E-1,6.749862432E-2,-3.045837283E-1
2.787256419E1,-5.292991400E-1,2.324273884E-1,-1.182752997E-1
2.789302357E1,3.390202299E-2,9.254335612E-2,-4.481328130E-1
2.791348294E1,8.887827396E-2,7.666133344E-2,-1.708081663E-1
2.793394232E1,-5.018110275E-1,-3.980433345E-1,3.746784329E-1
2.795440169E1,-3.634541109E-2,3.967452943E-1,-2.359397523E-2
2.797486102E1,1.682884246E-1,-4.184303805E-2,-1.420983374E-1
2.799532039E1,6.697940230E-1,-5.715239644E-1,1.352263093E-1
2.801577977E1,-2.049392611E-1,5.894676223E-2,4.724139869E-1
2.803623914E1,-1.456870735E-1,3.784198761E-1,9.735377878E-2
2.805669852E1,3.148917556E-1,-2.593810260E-1,1.364480108E-1
2.807715789E1,3.356605768E-1,-3.448996246E-1,5.304445028E-1
2.809761722E1,7.382088900E-1,-2.465532273E-1,1.456107199E-1
2.811807659E1,4.669927359E-1,-9.323056042E-2,-3.397838026E-2
2.813853597E1,-2.709107697E-1,8.704573661E-2,2.066954374E-1
2.815899534E1,-3.539859951E-1,2.855710983E-1,4.394282401E-1
2.817945472E1,2.892361879E-1,-2.410555929E-1,7.607339025E-1
2.819991409E1,4.303418994E-1,-2.276169658E-1,8.438091278E-1
2.822037341E1,6.337540150E-1,-5.238778591E-1,1.120141149E-1
2.824083279E1,-1.267508119E-1,4.358395338E-1,4.577536583E-1
2.826129216E1,-5.060869455E-1,-1.435491070E-2,1.389906526E0
2.828175154E1,6.557445526E-1,6.361974478E-1,-8.933641016E-3
2.830221091E1,8.378533721E-1,-9.154309630E-1,-2.941993177E-1
2.832267024E1,-9.071081877E-2,2.983988822E-1,3.685699701E-1
2.834312961E1,-5.833591148E-2,-5.772506446E-2,2.649549954E-2
2.836358899E1,-1.982199401E-1,-3.986541927E-1,-1.347681731E-1
2.838404836E1,-1.414111406E-1,2.788517773E-1,-2.801498175E-1
2.840450774E1,-4.840964675E-1,3.014531136E-1,-6.207735091E-2
2.842496711E1,-3.264978528E-1,4.150707126E-1,-3.015294671E-1
2.844542643E1,-2.244863659E-1,4.779879749E-1,-1.066692024E-1
2.846588581E1,-2.657185495E-2,3.820849657E-1,-5.963396281E-2
2.848634518E1,-2.770192325E-1,2.855710983E-1,1.779856235E-1
2.850680456E1,-3.564293683E-1,6.142069101E-1,5.276193097E-2
2.852726393E1,-2.611372173E-1,3.222219348E-1,-5.474718660E-2
2.854772331E1,-1.945548505E-1,3.100049794E-1,-1.443126611E-2
2.856818263E1,9.376505762E-2,4.062134400E-2,-1.182752997E-1
2.858864201E1,2.776300907E-1,-1.127776727E-1,-3.155789673E-1
2.860910138E1,3.637595475E-1,-2.318928838E-1,-7.285880446E-1
2.862956076E1,-1.456870735E-1,7.321004272E-1,-3.418453932E-1
2.865002013E1,-9.620844573E-2,-3.888806403E-1,7.230904698E-2
2.867047951E1,-2.733541429E-1,5.323534012E-1,-2.746522129E-1
2.869093883E1,-4.914266169E-1,2.195995897E-1,5.459447205E-2
2.871139820E1,-1.988307834E-1,-4.978405312E-2,-5.434249640E-1
2.873185758E1,-6.245913506E-1,1.695101112E-1,8.086090535E-2
2.875231695E1,-1.566823274E-1,-7.788302749E-2,-1.268271655E-1
2.877277633E1,-3.668137789E-1,2.513636351E-1,5.493807793E-1
2.879323570E1,3.634541109E-2,-1.824142635E-1,6.544464827E-1
2.881369503E1,-1.163664013E-1,3.087832928E-1,3.093177676E-1
2.883415440E1,-1.163664013E-1,4.614951015E-1,3.504735976E-2
2.885461378E1,-5.405998230E-2,2.525853515E-1,1.122431830E-2
2.887507315E1,3.512371704E-2,-1.824142635E-1,1.419456303E-1
2.889553253E1,1.432436854E-1,2.617480457E-1,6.375718117E-2
2.891599185E1,2.922904193E-1,-2.718270384E-2,4.443150163E-1
2.893645123E1,4.957025647E-1,-3.573456407E-2,3.465794623E-1
2.895691060E1,2.287622988E-1,-1.811925620E-1,2.396811992E-1
2.897736998E1,4.242334068E-1,-4.291965663E-1,5.581616983E-2
2.899782935E1,6.716265678E-1,-5.941253304E-1,-1.076618303E-2
2.901828872E1,3.527642787E-1,-8.604547381E-1,1.828723997E-1
2.903874810E1,3.032856584E-1,-1.537044346E-1,-2.832040489E-1
2.905920742E1,5.494571328E-1,-3.852155507E-1,-2.300603539E-1
2.907966680E1,5.073086619E-1,-2.807606757E-1,-2.196759433E-1
2.910012617E1,-6.368082762E-1,-1.927986592E-1,1.437781751E-1
2.912058555E1,-1.762294322E-1,5.525113344E-1,-2.935884595E-1
2.914104492E1,4.340069890E-1,-3.100813329E-1,-2.477749139E-1
2.916150425E1,1.090744138E0,-6.436039209E-1,-9.933903813E-2
2.918196362E1,1.469087601E-1,3.234436214E-1,2.354052663E-1
2.920242300E1,-2.244863659E-1,2.354816198E-1,2.720561028E-1
2.922288237E1,7.727217674E-2,3.985778391E-1,-2.001288384E-1
2.924334175E1,2.397575527E-1,-2.137965523E-3,1.785964668E-1
2.926380112E1,5.146388412E-1,-2.941993177E-1,1.382805556E-1
2.928426050E1,3.625378609E-1,-2.618243992E-1,-1.115559787E-1
2.930471982E1,2.229592577E-2,1.212531775E-1,-1.323247850E-1
2.932517919E1,-9.468132630E-3,-1.060583517E-1,-2.115058713E-2
2.934563857E1,-1.004843712E-1,-2.844257653E-1,5.459447205E-2
2.936609794E1,-3.839175105E-1,4.856235534E-2,-9.994988143E-2
2.938655732E1,-5.580089688E-1,-5.803049076E-3,1.572168171E-1
2.940701664E1,-3.570402265E-1,-1.451525837E-1,1.810398549E-1
2.942747602E1,-4.498890042E-1,6.933116168E-2,1.669903696E-1
2.944793539E1,1.313321572E-2,-1.359898746E-1,1.065164879E-1
2.946839477E1,6.200099736E-2,1.108687744E-1,2.060845941E-1
2.948885414E1,-1.737860441E-1,7.788302749E-2,5.567108989E-1
2.950931352E1,-3.093941510E-1,1.811162084E-1,2.573957741E-1
2.952977289E1,-2.748812549E-3,7.605048269E-2,-6.757497787E-2
2.955023227E1,4.224008918E-1,2.134911120E-1,-1.213295385E-1
2.957069164E1,4.340069890E-1,-7.299624383E-2,4.773007631E-1
2.959115096E1,3.961344361E-1,-3.455104828E-1,3.881170750E-1
2.961161034E1,-1.096470803E-1,5.647283196E-1,3.264214993E-1
2.963206972E1,-3.478775024E-1,-2.962609194E-2,4.687489271E-1
2.965252909E1,-2.073826492E-1,7.788302749E-2,-9.689565003E-2
2.967298847E1,1.304158866E-1,2.183778882E-1,1.333937645E-1
2.969344784E1,4.999784827E-1,-1.445417255E-1,9.796462953E-2
2.971390722E1,-2.806843221E-1,1.194206402E-1,3.649048805E-1
2.973436659E1,-3.668137789E-1,2.715215981E-1,4.970769584E-2
2.975482597E1,-1.346918195E-1,-1.249946207E-1,-1.665322334E-1
2.977528534E1,-3.271087110E-1,1.267508119E-1,-8.406785131E-2
2.979574466E1,8.032641560E-2,1.933331639E-1,-4.371375740E-1
2.981620404E1,-1.664558798E-1,1.557660475E-2,1.977618039E-2
2.983666341E1,-1.969982386E-1,5.097520351E-1,-1.934095174E-1
2.985712279E1,-5.146388412E-1,2.446443290E-1,-1.603474026E-3
2.987758216E1,3.161134422E-1,4.224008918E-1,-6.577298045E-1
2.989804154E1,1.951656938E-1,-1.146102175E-1,-1.219403818E-1
2.991850091E1,-8.704573661E-2,-1.500393599E-1,1.547734290E-1
2.993896029E1,-6.080984473E-1,7.266027927E-1,-1.931804419E-2
2.995941966E1,-7.137750387E-1,4.535540938E-1,1.566059589E-1
2.997987904E1,-2.232646793E-1,3.564293683E-1,-1.072800532E-1
3.000033841E1,-6.413896102E-3,2.660239935E-1,8.147175610E-2
3.002079779E1,-5.803049076E-3,6.478035450E-1,-2.648786306E-1
3.004125716E1,-3.527642787E-1,-1.801999472E-2,1.584385037E-1
3.006171654E1,2.596100792E-2,3.069507480E-1,-2.245627195E-1
3.008217591E1,2.929012477E-1,-1.164427623E-1,-1.213295385E-1
3.010263529E1,8.643488586E-2,-1.708081663E-1,-3.491755724E-1
3.012309466E1,-1.090362370E-1,2.137965523E-3,-4.010975957E-1
3.014355404E1,-3.329117596E-2,-1.158319116E-1,-2.960318625E-1
3.016401341E1,1.310267299E-1,-3.039728701E-1,-2.386122048E-1
3.018447279E1,9.559759498E-2,-6.383354217E-2,-4.139253795E-1
3.020493216E1,1.924168877E-2,1.634016484E-1,-2.141783237E-1
3.022539154E1,-4.306473210E-2,-1.121668294E-1,-9.384141117E-2
3.024585086E1,-7.119424939E-1,1.426328421E-1,-1.885227412E-1
3.026631029E1,-2.535016090E-2,-1.860793531E-1,-5.324297547E-1
3.028676966E1,6.093201637E-1,-3.503972590E-1,-5.373165011E-1
3.030722904E1,1.126173258E0,-6.362738013E-1,-6.558972597E-1
3.032768836E1,-1.682884246E-1,-3.620033562E-1,-1.931804419E-2
3.034814779E1,-1.305075169E0,5.427377820E-1,-7.001836598E-2
3.036860711E1,-1.415638566E0,3.619270027E-1,-4.127036929E-1
3.038906654E1,-2.446443290E-1,2.715215981E-1,-1.689756215E-1
3.040952591E1,3.790307343E-1,-1.494285166E-1,1.993652731E-1
3.042998529E1,7.687512636E-1,-6.688777357E-2,1.333937645E-1
3.045044466E1,9.899543524E-1,-5.006656647E-1,-2.722088099E-1
3.047090404E1,3.521534503E-1,-3.314609826E-1,-5.268557463E-3
3.049136341E1,-3.918585181E-1,4.672981426E-2,5.726693198E-3
3.051182279E1,4.581354558E-3,-8.521319181E-2,-1.964637488E-1
3.053228216E1,4.550812021E-2,-4.734066129E-2,-1.137703005E-2
3.055274154E1,6.508577466E-1,-3.430670798E-1,-7.612683624E-2
3.057320091E1,7.589777112E-1,-5.373165011E-1,-2.074590027E-1
3.059366029E1,-1.450762302E-1,-8.093725890E-2,7.475243509E-2
3.061411966E1,-3.680354655E-1,4.367557913E-2,1.156791970E-1
3.063457904E1,-1.334701329E-1,3.756710514E-2,1.297286898E-1
3.065503841E1,2.024958730E-1,2.718270384E-2,3.594072461E-1
3.067549779E1,1.496575773E-2,2.269297540E-1,4.357631505E-1
3.069595716E1,3.081724346E-1,5.528167635E-2,5.703786388E-2
3.071641654E1,1.939440072E-1,-5.281538367E-1,1.052947938E-1
3.073687591E1,-4.107947946E-1,1.420219839E-1,-4.657710437E-3
3.075733529E1,-6.142069101E-1,-9.200886637E-2,7.597412914E-2
3.077779466E1,3.527642787E-1,-2.434989959E-1,-2.764847279E-1
3.079825404E1,8.396859169E-1,-6.228351593E-1,-2.221193314E-1
3.081871347E1,5.097520351E-1,-4.224772453E-1,-9.872818738E-2
3.083917284E1,1.847812980E-1,-2.477749139E-1,-1.427091956E-1
3.085963222E1,-2.351761982E-2,1.560714692E-1,-1.298813969E-1
3.088009159E1,-5.955760926E-2,-1.879118830E-1,-5.413633958E-2
3.090055096E1,-1.517955512E-1,7.849387079E-2,-8.040276915E-2
3.092101034E1,-2.892361879E-1,-7.543963939E-2,-1.603474026E-3
3.094146972E1,-2.593046725E-1,6.016845629E-2,-1.677539349E-1
3.096192909E1,-6.154286265E-1,2.495311052E-1,7.841751724E-2
3.098238852E1,-2.739650011E-1,4.611896724E-2,1.733279042E-2
3.100284789E1,-2.473931387E-2,-1.866901964E-1,-4.497363046E-2
3.102330727E1,1.181989461E-1,-3.339043856E-1,-1.219403818E-1
3.104376664E1,-4.584408700E-1,7.198835015E-1,1.010188684E-1
3.106422602E1,-1.527118147E-3,5.161659420E-2,-7.979192585E-2
3.108468539E1,-4.581354558E-3,8.765657991E-2,-2.298312820E-2
3.110514482E1,-4.123219103E-2,-1.640888453E-1,2.702235579E-1
3.112560419E1,7.055285573E-2,1.133121699E-1,2.066954374E-1
3.114606357E1,-1.951656938E-1,-7.543963939E-2,5.903075337E-1
3.116652294E1,1.511846930E-1,5.283828825E-2,3.655157387E-1
3.118698232E1,3.698680103E-1,1.646233350E-1,2.635042369E-1
3.120744169E1,2.037175596E-1,-1.066692024E-1,3.099286258E-1
3.122790112E1,-4.978405312E-2,1.157555580E-1,2.354052663E-1
3.124836050E1,1.976090819E-1,2.623589039E-1,7.353074104E-2
3.126881987E1,3.356605768E-1,-2.154000103E-1,3.771218359E-1
3.128927925E1,3.014531136E-1,-2.123457789E-1,3.007659316E-1
3.130973867E1,1.374406368E-2,1.597365588E-1,3.068743944E-1
3.133019805E1,2.470877171E-1,1.175880954E-1,2.470113635E-1
3.135065742E1,1.151447073E-1,-2.410555929E-1,4.021665752E-1
3.137111680E1,1.065928489E-1,-1.463742703E-1,1.169008911E-1
3.139157617E1,-5.467082933E-2,-1.182752997E-1,1.895917207E-1
3.141203560E1,3.949127495E-1,-1.976854503E-1,-2.532725334E-1
3.143249498E1,-5.589252338E-2,1.322484314E-1,3.443651274E-2
3.145295435E1,2.342599183E-1,-1.543152928E-1,-1.628671438E-1
3.147341372E1,2.892361879E-1,-7.299624383E-2,-3.620033562E-1
3.149387315E1,1.450762302E-1,-1.323247850E-1,-2.453315258E-1
3.151433253E1,1.065928489E-1,1.976090819E-1,-2.722088099E-1
3.153479190E1,7.055285573E-2,1.646233350E-1,-1.439308822E-1
3.155525128E1,2.226538211E-1,2.046338283E-2,-2.221193314E-1
3.157571070E1,-1.068982668E-2,8.704573661E-2,-6.390989572E-2
3.159617008E1,1.985253580E-2,-2.227301747E-1,-1.127776727E-1
3.161662945E1,-6.872031838E-2,2.336490750E-1,-1.420983374E-1
3.163708888E1,-1.139230132E-1,1.969982386E-1,1.550024934E-2
3.165754826E1,-6.688777357E-2,-4.550812021E-2,9.491039068E-2
3.167800763E1,5.803049076E-3,-1.182752997E-1,1.077381819E-1
3.169846701E1,4.917320609E-2,-1.256054640E-1,1.541625708E-1
3.171892643E1,-6.200099736E-2,-5.192201585E-3,1.498866528E-1
3.173938581E1,-3.054236295E-4,4.062134400E-2,1.504974961E-1
3.175984518E1,2.229592577E-2,4.734066129E-2,1.749313772E-1
3.178030461E1,1.029277667E-1,-7.360709459E-2,4.131618142E-1
3.180076399E1,2.648022771E-1,1.010952219E-1,2.586174607E-1
3.182122336E1,5.121954083E-1,-3.326826990E-1,1.694337577E-1
3.184168279E1,3.698680103E-1,-1.799708754E-1,1.114032716E-1
3.186214216E1,-2.415900975E-1,1.261399537E-1,2.451788187E-1
3.188260154E1,4.367557913E-2,-6.413896102E-3,5.092938989E-2
3.190306096E1,1.340809762E-1,4.672981426E-2,1.327829212E-1
3.192352034E1,-7.055285573E-2,9.559759498E-2,2.073062956E-1
3.194397977E1,-1.847812980E-1,-1.952420622E-1,9.979717433E-2
3.196443914E1,-2.764083743E-1,1.957765520E-1,-7.979192585E-2
3.198489852E1,-6.123743653E-1,1.029277667E-1,1.895917207E-1
3.200535794E1,-4.181249440E-1,2.086043358E-1,-2.318928838E-1
3.202581732E1,1.035386100E-1,1.218640283E-1,-2.630461156E-1
3.204627669E1,2.464768738E-1,-5.589252338E-2,-4.924955964E-2
3.206673612E1,2.165453583E-1,1.374406368E-2,-2.758738995E-1
3.208719550E1,1.273616552E-1,3.054236295E-4,-1.268271655E-1
3.210765492E1,-1.713426560E-1,1.603474021E-1,1.083490327E-1
3.212811430E1,-4.999784827E-1,3.625378609E-1,1.254527569E-1
3.214857367E1,-3.319954872E-1,1.945548505E-1,1.000262424E-2
3.216903310E1,-1.603474021E-1,1.346918195E-1,7.475243509E-2
3.218949248E1,2.275405973E-1,1.713426560E-1,-3.153498843E-2
3.220995190E1,1.933331639E-1,-1.042258143E-1,2.152473032E-1
3.223041128E1,5.586197972E-1,-2.092915475E-1,-1.268271655E-1
3.225087065E1,1.554606259E-1,-2.489966154E-1,7.841751724E-2
3.227133008E1,4.367557913E-2,-1.335464865E-1,-1.701973230E-1
3.229178945E1,-2.531961799E-1,3.723114133E-1,2.042520493E-1
3.231224888E1,2.324273884E-1,-1.402658075E-1,1.535517275E-1
3.233270826E1,2.788517773E-1,-3.974325061E-1,7.841751724E-2
3.235316768E1,-9.376505762E-2,3.093941510E-1,2.710634656E-2
3.237362706E1,-1.603474021E-1,3.668137789E-1,1.902025640E-1
3.239408643E1,9.468132630E-3,3.869717419E-1,1.981435865E-1
3.241454586E1,1.591257155E-1,4.963133931E-1,3.276431859E-1
3.243500524E1,4.914266169E-1,8.643488586E-2,-9.384141117E-2
3.245546466E1,-3.509317636E-1,2.690782249E-1,9.246700257E-2
3.247592404E1,-5.543438792E-1,3.490992188E-1,-1.133885235E-1
3.249638346E1,-7.754706144E-1,2.458660156E-1,1.633252800E-1
3.251684284E1,-2.031067163E-1,3.295520842E-1,-1.982962936E-1
3.253730227E1,-5.311316848E-1,4.853181541E-1,6.948387716E-3
3.255776164E1,-5.891621709E-1,5.720584393E-1,-2.960318625E-1
3.257822102E1,-5.836645365E-1,7.314895988E-1,-5.202127695E-1
3.259868044E1,-4.199574888E-1,4.034646153E-1,-5.935907960E-1
3.261913982E1,-5.189147592E-1,2.195995897E-1,-6.326850653E-1
3.263959925E1,-7.321004272E-1,3.741439581E-1,-6.076403260E-1
3.266005862E1,-3.717005551E-1,1.731752008E-1,-6.363501549E-1
3.268051805E1,-4.755446017E-1,1.658450365E-1,-6.442911625E-1
3.270097742E1,-7.870767117E-1,3.307738006E-1,-4.450785816E-1
3.272143685E1,-1.969982386E-1,4.847072959E-1,-5.905365944E-1
3.274189623E1,2.397575527E-1,5.091412067E-1,-5.342622995E-1
3.276235565E1,5.091412067E-1,-1.592020690E-1,-2.838149071E-1
3.278281503E1,3.607053161E-1,-5.593070388E-1,-1.824142635E-1
3.280327440E1,-5.192201585E-3,-6.643727422E-1,-2.282278091E-1
3.282373383E1,-1.096470803E-1,-7.421794534E-2,-3.620033562E-1
3.284419320E1,-4.358395338E-1,-3.051945567E-1,6.337540224E-3
3.286465263E1,7.055285573E-2,-2.135674655E-1,-7.429429889E-2
3.288511201E1,4.004103839E-1,-6.020663381E-1,6.742226332E-2
3.290557143E1,3.808632791E-1,-2.050156146E-1,-1.109451354E-1
3.292603081E1,-9.620844573E-2,3.970507067E-3,-5.879404955E-3
3.294649024E1,2.348707765E-1,1.542389393E-1,-7.101099472E-3
3.296694961E1,7.986828089E-1,-6.521558166E-1,2.354052663E-1
3.298740899E1,6.032116413E-1,-3.748311400E-1,1.248419061E-1
3.300786841E1,2.128802687E-1,-3.754419982E-1,1.767639220E-1
3.302832779E1,3.451287001E-2,-6.627693027E-2,1.794363745E-2
3.304878722E1,-1.029277667E-1,-1.952420622E-1,1.077381819E-1
3.306924659E1,-2.654131353E-1,-1.353790164E-1,8.330429345E-2
3.308970602E1,4.144598544E-1,-2.948101461E-1,-1.976854503E-1
3.311016539E1,-1.218640283E-1,-1.740914769E-2,-2.697654068E-1
3.313062482E1,4.489727318E-2,1.469087601E-1,-1.335464865E-1
3.315108419E1,-6.872031838E-2,5.711421743E-2,-3.204657435E-1
3.317154357E1,-2.483094037E-1,-4.041518271E-1,-2.786990628E-2
3.319200300E1,-6.001574397E-1,6.200099736E-2,-4.375193641E-2
3.321246237E1,1.530172378E-1,-3.241308331E-1,-2.025722265E-1
3.323292180E1,1.130067464E-2,-5.100574717E-2,5.215108395E-2
3.325338117E1,-1.811162084E-1,3.026748300E-1,5.581616983E-2
3.327384060E1,-2.748812549E-3,3.216110766E-1,-2.208976448E-1
3.329429998E1,3.301629424E-1,2.434226274E-1,-1.268271655E-1
3.331475935E1,2.403683960E-1,6.200099736E-2,5.726693198E-3
3.333521878E1,2.794626355E-1,1.615691036E-1,-1.213295385E-1
3.335567815E1,4.694361091E-1,3.756710514E-2,-2.117349356E-1
3.337613758E1,-1.774511337E-1,1.139230132E-1,1.061347127E-2
3.339659695E1,-1.823379099E-1,-1.323247850E-1,-3.613924980E-1
3.341705638E1,-3.460449576E-1,-2.361688167E-1,-4.908921421E-1
3.343751576E1,-2.428117841E-1,-1.347681731E-1,-3.394020200E-1
3.345797513E1,-1.866138428E-1,-8.948912472E-2,-1.463742703E-1
3.347843456E1,1.096470803E-1,-2.901524492E-2,-1.561478376E-1
3.349889393E1,-2.208212912E-1,2.409792393E-1,2.738886476E-1
3.351935331E1,1.224748790E-1,1.053711548E-1,-1.023932695E-1
3.353981274E1,-1.114796251E-1,-2.412846684E-2,4.298837483E-2
3.356027211E1,-3.390202299E-2,-8.643488586E-2,-6.390989572E-2
3.358073154E1,8.399149776E-2,-1.628671438E-1,-9.567394853E-2
3.360119091E1,5.772506446E-2,-3.051945567E-1,-5.169294775E-2
3.362165029E1,3.206948191E-2,3.356605768E-1,-3.607816696E-1
3.364210972E1,-4.529432356E-1,-1.130067464E-2,1.395022422E-1
3.366256909E1,5.222744122E-2,-1.679829881E-2,-2.520508468E-1
3.368302846E1,-1.762294322E-1,1.145338640E-1,1.193442866E-1
3.370348789E1,2.336490750E-1,-2.068481594E-1,-9.926267667E-4
3.372394727E1,-1.212531775E-1,2.904578745E-1,1.883700192E-1
3.374440664E1,-1.963873953E-1,-1.225512326E-1,1.370588541E-1
3.376486607E1,-3.613161445E-1,1.927223057E-1,-3.436015919E-3
3.378532544E1,-1.566823274E-1,2.641914487E-1,1.855448633E-2
3.380578487E1,1.218640283E-1,-1.500393599E-1,8.819106966E-2
3.382624425E1,2.061609477E-1,-1.274380088E-1,-4.253023863E-2
3.384670362E1,-7.177454978E-2,-2.722088099E-1,1.272853017E-1
3.386716300E1,-4.126273096E-1,-1.927986592E-1,7.353074104E-2
3.388762242E1,-5.543438792E-1,6.413896102E-3,-6.757497787E-2
3.390808180E1,2.473931387E-2,-2.294494957E-1,-1.732515544E-1
3.392854117E1,1.395785958E-1,-4.530195892E-1,2.221956849E-2
3.394900060E1,2.287622988E-1,-4.511870444E-1,-1.915769726E-1
3.396945998E1,2.535016090E-2,-4.581354558E-3,-1.164427623E-1
3.398991935E1,-2.137965523E-3,-2.868691385E-1,6.436803192E-2
3.401037878E1,-1.798945218E-1,-1.976854503E-1,1.162900478E-1
3.403083815E1,-1.798945218E-1,5.405998230E-2,2.427354306E-1
3.405129753E1,1.829487532E-1,-9.200886637E-2,5.726693198E-3
3.407175690E1,4.184303805E-2,5.161659420E-2,-1.076618303E-2
3.409221633E1,1.756185889E-1,1.847812980E-1,-1.482068151E-1
3.411267570E1,1.310267299E-1,-2.777064443E-1,1.388913989E-1
3.413313508E1,-1.130067464E-2,-9.811734408E-2,1.028514057E-1
3.415359451E1,4.181249440E-1,-3.442887962E-1,-5.086066723E-1
3.417405388E1,-9.471186996E-1,1.509709001E0,9.018396139E-1
3.419451326E1,-1.065928489E-1,7.482878864E-2,4.180485904E-1
3.421497263E1,1.924168877E-2,-4.078168869E-1,-6.461237073E-1
3.423543206E1,1.167100072E0,-1.246510148E0,1.223985180E-1
3.425589143E1,9.032140374E-1,1.420219839E-1,2.354052663E-1
3.427635081E1,5.305208564E-1,-6.081748009E-1,1.529408842E-1
3.429681018E1,-4.978405312E-2,1.811162084E-1,-2.526617050E-1
3.431726961E1,-1.585148573E-1,-2.563267946E-1,3.087069392E-1
3.433772899E1,-1.756185889E-1,-2.838149071E-1,3.850628436E-1
3.435818836E1,-5.222744122E-2,-3.210766017E-1,2.934357524E-1
3.437864779E1,3.203893900E-1,5.222744122E-2,4.168269038E-1
3.439910716E1,3.490992188E-1,-4.279748499E-1,8.541935086E-1
3.441956654E1,1.988307834E-1,-8.276980370E-2,4.553102851E-1
3.444002591E1,-3.206948191E-2,6.749862432E-2,4.577536583E-1
3.446048534E1,3.054236295E-4,-1.191152167E-2,9.979717433E-2
3.448094472E1,-9.987352788E-2,1.359135211E-1,8.635853231E-2
3.450140409E1,8.765657991E-2,1.829487532E-1,4.176668078E-2
3.452186346E1,-3.124483824E-1,3.167243004E-1,2.189123929E-1
3.454232289E1,2.525853515E-1,3.668137789E-1,-2.715979517E-1
3.456278227E1,2.599155009E-1,-1.860793531E-1,1.474432498E-1
3.458324164E1,-3.515425920E-1,3.228327632E-1,2.341835648E-1
3.460370102E1,-3.258870244E-1,1.780619770E-1,-7.062921673E-2
3.462416044E1,1.249182671E-1,7.421794534E-2,-1.372115612E-1
3.464461982E1,9.132166207E-2,2.244863659E-1,1.767639220E-1
3.466507919E1,2.901524492E-2,-3.023693897E-2,2.940466106E-1
3.468553862E1,1.181989461E-1,2.849602401E-1,3.887279332E-1
3.470599800E1,4.126273096E-1,4.517215490E-1,4.864634871E-1
3.472645737E1,3.002314270E-1,4.028537571E-1,7.882220149E-1
3.474691675E1,1.621799469E-1,6.209262609E-1,6.623874903E-1
3.476737612E1,2.929012477E-1,3.387148082E-1,3.349733651E-1
3.478783555E1,3.472666740E-1,-6.362738013E-1,-7.185091078E-2
3.480829492E1,2.137965523E-3,-5.250995755E-1,-8.782456517E-1
3.482875430E1,-3.771981895E-1,-4.860053360E-1,-5.110501051E-1
3.484921367E1,-1.829487532E-1,-5.825192332E-1,-6.901046634E-1
3.486967310E1,-4.358395338E-1,-2.306711972E-1,-3.717769086E-1
3.489013248E1,-6.233696342E-1,4.245388508E-2,-4.035409689E-1
3.491059185E1,-8.713735938E-1,5.183038712E-1,2.344126441E-2
3.493105128E1,-4.059080184E-1,7.821899056E-1,4.473692477E-1
3.495151065E1,3.576510847E-1,-1.164427623E-1,1.651578248E-1
3.497197003E1,9.620844573E-2,1.371352077E-1,1.669903696E-1
3.499242940E1,1.462979168E-1,-3.003077805E-1,6.009209901E-2
3.501288883E1,1.456870735E-1,2.861819267E-1,-4.741701856E-2
3.503334820E1,1.768402755E-1,-3.656684458E-1,3.148154020E-1
3.505380758E1,6.749862432E-2,1.976090819E-1,-5.108210072E-2
3.507426695E1,-2.318165302E-1,4.367557913E-2,3.575747013E-1
3.509472633E1,1.609582454E-1,1.346918195E-1,-2.392230630E-1
3.511518576E1,-1.982199401E-1,3.228327632E-1,-2.481566928E-2
3.513564513E1,-4.144598544E-1,3.203893900E-1,1.969218850E-1
3.515610451E1,-3.949127495E-1,3.374931216E-1,5.581616983E-2
3.517656388E1,-3.717005551E-1,5.940489769E-1,-1.213295385E-1
3.519702331E1,-5.192201585E-3,1.676775664E-1,-1.304922402E-1
3.521748268E1,-1.230857223E-1,-5.803049076E-3,-2.786990628E-2
3.523794206E1,-1.927223057E-1,-2.557159364E-1,-1.885227412E-1
3.525840143E1,-3.729222417E-1,1.169772521E-1,-3.485647142E-1
3.527886086E1,-3.674246371E-1,1.010952219E-1,-2.703762650E-1
3.529932024E1,1.023169160E-1,-1.414874941E-1,-4.970006049E-1
3.531977961E1,2.580829561E-1,-2.092915475E-1,-4.463002682E-1
3.534023899E1,3.704788685E-1,-2.880908251E-1,-2.569376230E-1
3.536069836E1,1.340809762E-1,-2.404447496E-1,-1.382041909E-2
3.538115779E1,2.250972092E-1,-1.213295385E-1,-6.146650389E-2
3.540161716E1,4.095730782E-1,-3.430670798E-1,-1.396549493E-1
3.542207654E1,1.969982386E-1,-2.168507688E-2,-1.286597103E-1
3.544253591E1,1.530172378E-1,-4.428642616E-2,-5.047125369E-2
3.546299534E1,4.004103839E-1,-2.508291602E-1,1.061347127E-2
3.548345472E1,5.751127005E-1,-5.843517780E-1,2.812187970E-1
3.550391409E1,3.338280320E-1,-3.748311400E-1,3.856737018E-1
3.552437347E1,9.071081877E-2,-1.738623977E-1,3.471903205E-1
3.554483284E1,1.481304616E-1,-8.276980370E-2,1.743205339E-1
3.556529227E1,2.122694254E-1,5.344913527E-2,1.498866528E-1
3.558575164E1,3.588727713E-1,-2.563267946E-1,2.018086612E-1
3.560621102E1,3.381039500E-1,-2.410555929E-1,3.260397166E-2
3.562667039E1,1.499630064E-1,-5.833591148E-2,1.083490327E-1
3.564712982E1,1.646233350E-1,-2.412846684E-2,-3.092414327E-2
3.566758919E1,-1.524063945E-1,-8.246437646E-3,8.208259940E-2
3.568804857E1,-4.193466306E-1,-1.463742703E-1,5.487698913E-1
3.570850794E1,-3.936910629E-1,-1.335464865E-1,4.076641798E-1
3.572896732E1,-5.549547076E-1,1.939440072E-1,2.073062956E-1
3.574942675E1,-6.850652099E-1,3.054236295E-4,1.871483326E-1
3.576988612E1,-5.622848868E-1,4.388937652E-1,7.230904698E-2
3.579034550E1,-4.682144225E-1,4.743228853E-1,3.203130364E-1
3.581080487E1,6.200099736E-2,-7.543963939E-2,-4.069769755E-2
3.583126430E1,-1.462979168E-1,2.800734639E-1,1.236202121E-1
3.585172367E1,1.252236869E-2,8.338065445E-2,3.832302988E-1
3.587218305E1,-1.444653720E-1,-2.056264579E-1,1.895917207E-1
3.589264242E1,-6.566607952E-2,-2.062373012E-1,-2.807606757E-1
3.591310185E1,-4.547757804E-1,5.922164321E-1,1.963110417E-1
3.593356123E1,-6.410841942E-1,-4.414134920E-1,5.780905485E-1
3.595402060E1,4.523324072E-1,1.740914769E-2,-5.739673376E-1
3.597447998E1,-4.260659516E-1,7.614210844E-1,4.003340304E-1
3.599493935E1,2.501419485E-1,-1.219403818E-1,2.710634656E-2
3.601539878E1,3.759764731E-1,3.930802047E-1,-7.673768699E-2
3.603585815E1,5.977140665E-1,1.713426560E-1,-2.664821222E-2
3.605631753E1,6.129852533E-1,5.665608048E-1,-1.198787708E-2
3.607677690E1,5.066977739E-1,-1.543152928E-1,4.284330010E-1
3.609723633E1,7.321004272E-1,-2.239518762E-1,-2.044047713E-1
3.611769570E1,-3.436015844E-1,1.435491070E-2,-3.339043856E-1
3.613815508E1,-3.258870244E-1,-1.805817187E-1,-7.737907767E-1
3.615861445E1,-4.358395338E-1,-2.331145853E-1,4.665346071E-2
3.617907388E1,4.840964675E-1,-5.782433152E-1,-2.783172727E-1
3.619953326E1,-5.115845799E-1,3.753656447E-1,5.151733160E-1
3.621999263E1,3.637595475E-1,-1.274380088E-1,-7.307260484E-2
3.624045201E1,-1.896680743E-1,2.208212912E-1,3.526879251E-1
3.626091143E1,4.611896724E-2,-1.970745921E-1,4.298837483E-2
3.628137081E1,-3.512371704E-2,5.665608048E-1,2.649549954E-2
3.630183018E1,1.163664013E-1,-8.399149776E-2,4.015557170E-1
3.632228956E1,-5.803049076E-3,3.268032894E-2,1.584385037E-1
3.634274899E1,-3.210002482E-1,2.238755226E-1,3.565821052E-2
3.636320836E1,8.643488586E-2,5.405998230E-2,-2.325037420E-1
3.638366774E1,2.293731421E-1,1.090362370E-1,-5.745782256E-1
3.640412711E1,-7.299624383E-2,7.055285573E-2,-3.962107897E-1
3.642458654E1,5.283828825E-2,-1.549261361E-1,-4.334724844E-1
3.644504591E1,-3.851391971E-1,-3.729985952E-1,-3.968216479E-1
3.646550529E1,-9.746068120E-1,3.240544796E-1,-3.216874301E-1
3.648596466E1,-5.861079693E-1,6.325323582E-1,-2.917559147E-1
3.650642409E1,-1.078145429E-1,1.007897966E-2,8.170082234E-3
3.652688347E1,2.977880239E-1,-3.870480955E-1,-1.201078445E-1
3.654734284E1,-5.100574717E-2,1.084253863E-1,-1.249946207E-1
3.656780227E1,2.715215981E-1,9.743013978E-2,-3.479538560E-1
3.658826164E1,1.310267299E-1,-1.030041203E-1,-1.347681731E-1
3.660872102E1,1.414111406E-1,-4.245388508E-2,-1.543152928E-1
3.662918039E1,-5.894676223E-2,-6.322269142E-2,1.000262424E-2
3.664963982E1,1.517955512E-1,6.077930331E-2,-1.414874941E-1
3.667009919E1,2.599155009E-1,2.947337925E-1,-1.066692024E-1
3.669055857E1,3.332171738E-1,-3.015294671E-1,6.009209901E-2
3.671101800E1,3.820849657E-1,-3.589491248E-1,-1.115559787E-1
3.673147737E1,-3.634541109E-2,-2.734304965E-1,1.621035933E-1
3.675193675E1,3.203893900E-1,-6.444438547E-2,-7.551599294E-2
3.677239612E1,7.421794534E-2,-2.899233699E-1,2.531198263E-1
3.679285555E1,4.443913698E-1,-3.351260722E-1,-7.185091078E-2
3.681331492E1,2.733541429E-1,-3.247416615E-1,-2.184542567E-1
3.683377430E1,1.603474021E-1,-1.280488521E-1,-2.587701678E-1
3.685423372E1,-3.741439581E-1,5.894676223E-2,2.635042369E-1
3.687469310E1,-2.098260373E-1,-4.566846788E-1,1.682120711E-1
3.689515248E1,-8.493831158E-1,2.898470163E-1,4.522560537E-1
3.691561190E1,-9.743013978E-2,-1.030041203E-1,1.000262424E-2
3.693607128E1,2.043284029E-1,-1.848576516E-1,-2.612135708E-1
3.695653065E1,1.130067464E-2,6.322269142E-2,-1.695864648E-1
3.697699003E1,-4.999784827E-1,5.012001991E-1,-4.986040667E-2
3.699744945E1,-1.389677525E-1,4.364503622E-1,-2.202867866E-1
3.701790883E1,2.757975459E-1,2.195995897E-1,-1.787491739E-1
3.703836820E1,3.649812341E-1,1.322484314E-1,4.314872324E-1
3.705882763E1,2.495311052E-1,-2.825932205E-1,6.287909150E-1
3.707928701E1,-5.390726924E-1,-1.007897966E-2,4.962370396E-1
3.709974638E1,-8.805363178E-1,3.503209054E-1,2.977116704E-1
3.712020581E1,-4.584408700E-1,-2.137965523E-3,3.260397166E-2
3.714066518E1,-1.682884246E-1,-4.902812839E-1,3.871244565E-2
3.716112456E1,-2.641914487E-1,1.750077456E-1,1.550024934E-2
3.718158393E1,2.397575527E-1,-1.152210608E-1,-3.186331987E-1
3.720204336E1,1.359135211E-1,-8.460234851E-2,8.780929260E-3
3.722250274E1,4.639385045E-1,-4.829511046E-1,-1.992889121E-2
3.724296211E1,8.582404256E-2,-2.141783237E-1,9.613208473E-2
3.726342154E1,-3.796415627E-1,4.425588250E-1,9.185615927E-2
3.728388091E1,-2.061609477E-1,1.047603041E-1,-2.667111754E-1
3.730434029E1,-4.712686539E-1,3.344388604E-1,-4.375193641E-2
3.732479972E1,1.805053651E-1,-5.955760926E-2,-3.894914687E-1
3.734525909E1,-2.727433145E-1,3.490992188E-1,-2.349471301E-1
3.736571846E1,-4.132381678E-1,2.983988822E-1,5.154023692E-2
3.738617789E1,-1.572931707E-1,-1.848576516E-1,-6.329904497E-2
3.740663727E1,-2.901524492E-2,1.695101112E-1,-8.406785131E-2
3.742709664E1,2.055501044E-1,2.275405973E-1,-1.109451354E-1
3.744755602E1,1.557660475E-2,2.452551723E-1,1.181225851E-1
3.746801544E1,8.032641560E-2,-1.842468083E-1,1.126249656E-1
3.748847482E1,-8.948912472E-2,1.951656938E-1,1.376696974E-1
3.750893419E1,5.528167635E-2,9.071081877E-2,-5.841226876E-2
3.752939362E1,-3.695625812E-2,-1.311030984E-1,3.932329267E-2
3.754985300E1,3.552076817E-1,-1.646996886E-1,1.305686031E-2
3.757031237E1,2.702999115E-1,-1.866901964E-1,-7.979192585E-2
3.759077180E1,-3.939964995E-2,-2.502183020E-1,-4.253023863E-2
3.761123117E1,2.525853515E-1,-5.409815907E-1,-3.894914687E-1
3.763169055E1,2.953446507E-1,-1.659213901E-1,-1.726407111E-1
3.765214998E1,1.206423342E-1,-2.526617050E-1,2.048628926E-1
3.767260935E1,3.368822634E-1,-2.404447496E-1,5.115845706E-3
3.769306872E1,-3.512371704E-2,-7.910472155E-2,4.375956953E-1
3.771352810E1,7.033905983E-1,-2.966426909E-1,1.590493619E-1
3.773398753E1,6.936170459E-1,-6.539883614E-1,-6.940752268E-2
3.775444690E1,5.848862529E-1,-5.941253304E-1,-2.410555929E-1
3.777490628E1,-3.939964995E-2,2.107422985E-2,6.660525799E-1
3.779536565E1,5.745018721E-1,-4.029301107E-1,4.351523221E-1
3.781582508E1,-3.573456407E-2,-2.514399886E-1,4.528668821E-1
3.783628445E1,2.641914487E-1,-3.797179163E-1,1.364480108E-1
3.785674383E1,-1.496575773E-2,2.929012477E-1,2.409028858E-1
3.787720326E1,3.106158376E-1,-5.916818976E-1,3.178696334E-1
3.789766263E1,1.007897966E-2,-1.201078445E-1,4.534777403E-1
3.791812201E1,6.413896102E-3,2.446443290E-1,2.415137291E-1
3.793858138E1,-4.407263100E-1,-1.634780020E-1,6.538356543E-1
3.795904076E1,1.515282989E0,-1.976854503E-1,-4.084277451E-1
3.797950018E1,4.401154518E-1,3.008422852E-1,3.080960810E-1
3.799995956E1,-4.627167881E-1,-1.696093798E0,7.430193424E-1
3.802041893E1,1.231849909E0,-1.011944890E0,-8.183826208E-1
3.804087831E1,-7.125533223E-1,8.970292211E-1,1.431673318E-1
3.806133774E1,-7.791357040E-1,2.104368806E-1,-9.323056042E-2
3.808179711E1,7.605048269E-2,-2.473931387E-2,-2.978644073E-1
3.810225649E1,1.805053651E-1,6.190937161E-1,-2.245627195E-1
3.812271586E1,-1.542389393E-1,8.377770185E-1,-2.848075330E-2
3.814317529E1,9.856784344E-1,-3.054236295E-4,-3.241308331E-1
3.816363466E1,-1.499630064E-1,4.315635860E-1,8.941277117E-2
3.818409404E1,-3.778090179E-1,2.128802687E-1,-2.972535491E-1
3.820455341E1,-6.135960817E-1,-4.306473210E-2,-2.581593096E-1
3.822501279E1,-4.672981426E-2,-1.744732410E-1,-1.952420622E-1
3.824547222E1,3.216110766E-1,9.254335612E-2,-3.595599532E-1
3.826593159E1,1.664558798E-1,-9.465841651E-1,-3.375694752E-1
3.828639096E1,4.059080184E-1,-5.922927856E-1,-6.827745438E-1
3.830685034E1,-7.644753456E-1,7.559235096E-1,3.245889544E-1
3.832730972E1,-3.451287001E-2,-5.586961508E-1,1.122431830E-2
3.834776914E1,5.161659420E-2,-2.137965523E-3,-1.573695242E-1
3.836822852E1,4.327852726E-1,1.236965731E-1,-2.215084881E-1
3.838868789E1,-5.555655956E-1,2.702999115E-1,4.754682481E-1
3.840914727E1,-1.847812980E-1,-4.908921421E-1,8.269345015E-2
3.842960664E1,-2.092151791E-1,-3.901023269E-1,3.893387616E-1
3.845006602E1,2.629697323E-1,-4.133145213E-1,2.732777894E-1
3.847052539E1,6.261184067E-2,3.894151151E-1,1.126249656E-1
3.849098482E1,4.376720488E-1,-2.612135708E-1,-8.162446320E-2
3.851144419E1,5.256340504E-1,8.154810965E-2,-1.989071369E-1
3.853190357E1,3.851391971E-1,7.299624383E-2,-5.596888065E-2
3.855236294E1,2.031067163E-1,-1.646996886E-1,-2.685437202E-1
3.857282232E1,-5.757235289E-1,4.132381678E-1,5.398362502E-2
3.859328169E1,9.468132630E-3,-6.668161154E-1,2.038702741E-2
3.861374112E1,-3.399364948E-1,6.441384554E-1,2.586174607E-1
3.863420050E1,-9.941539168E-1,-4.194230139E-1,4.229353666E-1
3.865465987E1,-1.279724985E-1,4.138490260E-1,-2.154000103E-1
3.867511925E1,6.490252018E-1,3.381039500E-1,2.323510200E-1
3.869557862E1,1.172597647E0,-6.155049801E-1,2.005869746E-1
3.871603800E1,-2.348707765E-1,4.242334068E-1,-4.046862945E-3
3.873649737E1,-5.983248949E-1,5.344913527E-2,-3.153498843E-2
3.875695675E1,2.351761982E-2,-2.318928838E-1,-2.086806893E-1
3.877741612E1,-4.816530645E-1,4.639385045E-1,5.157841444E-1
3.879787550E1,5.134171247E-1,4.401154518E-1,-6.696412712E-2
3.881833487E1,-2.257080674E-1,-3.451287001E-2,6.497887522E-2
3.883879425E1,5.439594984E-1,2.495311052E-1,-4.096494317E-1
3.885925367E1,1.438545287E-1,-3.510081172E-1,1.089598835E-1
3.887971300E1,-3.258870244E-1,-2.630461156E-1,-3.031329438E-2
3.890017242E1,-5.842754245E-1,4.205683470E-1,-2.832040489E-1
3.892063180E1,-6.050441861E-1,-3.359660041E-3,6.232932806E-1
3.894109117E1,1.210470200E0,-1.592020690E-1,-4.670690894E-1
3.896155055E1,-1.890572309E-1,6.795675755E-1,8.108233809E-1
3.898200992E1,3.313846290E-1,4.550812021E-2,2.091388255E-1
3.900246930E1,9.936194420E-1,-7.248466015E-1,-1.824142635E-1
3.902292867E1,2.073826492E-1,-9.994988143E-2,5.347204208E-1
3.904338805E1,-2.342599183E-1,-1.927986592E-1,4.278221428E-1
3.906384742E1,1.829487532E-1,1.527118147E-3,-7.307260484E-2
3.908430680E1,4.285093546E-1,-4.609606266E-1,8.819106966E-2
3.910476617E1,-3.374931216E-1,1.505738497E-1,2.757211924E-1
3.912522555E1,-2.110477239E-1,-3.571165800E-1,8.819106966E-2
3.914568492E1,-2.183778882E-1,1.090362370E-1,3.013767600E-1
3.916614430E1,-3.759764731E-1,2.046338283E-2,2.751103342E-1
3.918660367E1,2.104368806E-1,-7.055285573E-2,-3.222982883E-1
3.920706305E1,-2.996205688E-1,-1.995179802E-1,5.823665261E-1
3.922752242E1,8.439618349E-1,1.414111406E-1,-2.734304965E-1
3.924798180E1,9.026032090E-1,-5.501443148E-1,8.269345015E-2
3.926844117E1,1.053711548E-1,-2.581593096E-1,1.932567954E-1
3.928890055E1,-3.943018913E-1,-1.060583517E-1,6.253548712E-2
3.930935992E1,-4.450022280E-1,2.657185495E-2,-1.152210608E-1
3.932981930E1,-4.278984964E-1,4.181249440E-1,1.621035933E-1
3.935027867E1,1.863084175E-2,1.169772521E-1,-2.115058713E-2
3.937073805E1,-5.833591148E-2,-1.799708754E-1,1.730988473E-1
3.939119742E1,-2.812951505E-1,2.073826492E-1,1.309503764E-1
3.941165680E1,-1.004843712E-1,-2.412846684E-2,3.321481869E-2
3.943211612E1,3.814741075E-1,-2.575484812E-1,-7.124006003E-2
3.945257550E1,3.002314270E-1,1.322484314E-1,-7.124006003E-2
3.947303487E1,-3.939964995E-2,3.512371704E-2,3.810159862E-2
3.949349425E1,4.071297050E-1,-1.176644564E-1,-2.685437202E-1
3.951395362E1,-1.053711548E-1,9.071081877E-2,-1.504211407E-2
3.953441300E1,-8.215895295E-2,4.611896724E-2,-1.188861504E-1
3.955487237E1,-4.028537571E-1,9.865183383E-2,1.792073101E-1
3.957533175E1,-1.374406368E-2,-2.031830698E-1,-1.402658075E-1
3.959579112E1,-2.892361879E-1,3.319954872E-1,2.061609412E-3
3.961625050E1,-3.771981895E-1,-9.200886637E-2,-5.879404955E-3
3.963670987E1,-5.964923501E-1,2.916795611E-1,1.957001835E-1
3.965716925E1,2.535016090E-2,1.872246861E-1,2.832804248E-2
3.967762862E1,2.764083743E-1,2.018850148E-1,-3.436015919E-3
3.969808800E1,-3.268032894E-2,1.438545287E-1,1.779856235E-1
3.971854732E1,4.184303805E-2,7.238540053E-2,-2.603736520E-2
3.973900669E1,2.929012477E-1,2.660239935E-1,-1.677539349E-1
3.975946607E1,3.717005551E-1,5.528167635E-2,-1.714190096E-1
3.977992544E1,4.428642616E-2,-2.416664511E-1,-6.879667193E-2
3.980038482E1,-8.032641560E-2,7.635590620E-3,-2.801498175E-1
3.982084419E1,-3.112266660E-1,3.258870244E-1,-1.188861504E-1
3.984130357E1,-3.161134422E-1,-3.512371704E-2,-4.008685052E-2
3.986176294E1,-2.104368806E-1,8.887827396E-2,-6.329904497E-2
3.988222232E1,-4.489727318E-2,-5.955760926E-2,-1.518719047E-1
3.990268169E1,-2.385358512E-1,5.818319917E-1,1.443890184E-1
3.992314102E1,-3.634541109E-2,-1.133885235E-1,-2.909160033E-2
3.994360039E1,-3.234436214E-1,4.083513916E-1,7.475243509E-2
3.996405977E1,-1.181989461E-1,1.902789176E-1,-9.544488043E-3
3.998451914E1,2.351761982E-2,2.794626355E-1,-2.416664511E-1
4.000497852E1,-1.798945218E-1,1.340809762E-1,-1.891335845E-1
4.002543789E1,-3.075616062E-1,-8.521319181E-2,-3.265742064E-1
4.004589727E1,-7.748597264E-1,4.230117202E-1,-1.671430767E-1
4.006635664E1,-4.126273096E-1,3.283303976E-1,-1.958529055E-1
4.008681596E1,-1.383569092E-1,2.116585821E-1,-2.092915475E-1
4.010727534E1,1.047603041E-1,-2.092915475E-1,-2.758738995E-1
4.012773472E1,-2.324273884E-1,2.324273884E-1,-3.314609826E-1
4.014819409E1,-3.625378609E-1,3.390202299E-2,-2.502183020E-1
4.016865347E1,-3.283303976E-1,7.024743594E-3,-1.671430767E-1
4.018911284E1,1.853921413E-1,1.169772521E-1,-2.703762650E-1
4.020957222E1,3.943018913E-1,-2.141783237E-1,-2.270061076E-1
4.023003159E1,4.734066129E-2,3.756710514E-2,-1.146102175E-1
4.025049091E1,4.550812021E-2,-2.606027126E-1,-6.879667193E-2
4.027095029E1,1.029277667E-1,-1.170536056E-1,-1.518719047E-1
4.029140966E1,2.367033064E-1,1.191152167E-2,-1.775274873E-1
4.031186904E1,1.890572309E-1,-2.526617050E-1,-4.558447748E-2
4.033232841E1,-2.779355086E-2,-1.243837699E-1,-1.420983374E-1
4.035278779E1,3.634541109E-2,-2.654894888E-1,-1.457634270E-1
4.037324711E1,-2.202104330E-1,-1.940203607E-1,-1.992889121E-2
4.039370649E1,-4.150707126E-1,-5.650337040E-2,-3.947600350E-2
4.041416586E1,2.385358512E-1,-1.188861504E-1,-2.398339063E-1
4.043462524E1,5.140279531E-1,-4.550812021E-2,-9.994988143E-2
4.045508461E1,-2.018850148E-1,-5.589252338E-2,-5.780142173E-2
4.047554399E1,-4.089622498E-1,3.817795217E-2,-2.380013615E-1
4.049600331E1,-5.109737515E-1,1.908897758E-1,-2.050156146E-1
4.051646268E1,-4.865398407E-1,2.287622988E-1,-1.146102175E-1
4.053692206E1,-7.421794534E-2,8.276980370E-2,-1.317139417E-1
4.055738143E1,1.230857223E-1,1.291942000E-1,-1.524827480E-1
4.057784081E1,2.849602401E-1,4.245388508E-2,-1.372115612E-1
4.059830018E1,2.470877171E-1,5.528167635E-2,-2.489966154E-1
4.061875951E1,-1.566823274E-1,1.371352077E-1,-2.526617050E-1
4.063921888E1,-1.801999472E-2,-1.408766508E-1,-2.080698460E-1
