"Time (s)","Linear Acceleration x (m/s^2)","Linear Acceleration y (m/s^2)","Linear Acceleration z (m/s^2)"
8.497604000E-3,-4.601151943E-1,3.406000137E-2,-1.858930588E-1
2.895651000E-2,2.665050030E-1,1.671600342E-1,-9.416532516E-1
4.941541600E-2,1.136415482E0,-1.451559067E-1,-3.874397278E-1
6.987437500E-2,6.047537327E-1,1.270442009E-1,8.115177155E-1
9.033328100E-2,-5.363800526E-1,-6.308889389E-2,9.686250687E-1
1.107922390E-1,5.823361874E-2,6.114225388E-1,2.070636749E-1
1.312511450E-1,-7.957756519E-2,6.631619930E-1,-1.296648026E0
1.517101040E-1,2.606188297E0,7.021863461E-1,-1.564823151E0
1.721690100E-1,3.933052123E-1,-3.455913067E-1,-1.712203979E0
1.926279680E-1,-5.849524140E-1,1.033532381E0,5.610523224E-1
2.130868750E-1,-3.084723949E-1,1.623102188E0,-1.026872635E0
2.335458330E-1,1.419808149E0,2.596341372E0,-3.319534302E0
2.540047390E-1,1.236741781E0,2.829374075E0,-3.576309204E0
2.744636980E-1,-5.631060004E-1,-5.621811867E0,6.968007088E0
2.949226040E-1,1.077053308E0,-1.978843689E0,-2.146440506E0
3.153815620E-1,4.073518276E0,3.109376431E-1,-1.303170204E0
3.358405200E-1,2.508757830E0,-1.152189255E0,-2.162199974E0
3.562994270E-1,1.473718047E0,3.125534058E-1,-2.828172684E0
3.767583850E-1,1.382450759E-1,-2.368564606E-1,-2.610059738E0
3.972172910E-1,-6.165506840E-1,-1.375002384E0,-3.043465137E0
4.176762500E-1,-1.687155962E0,-2.218821526E0,-5.555894852E0
4.381351560E-1,-3.836814404E0,-1.306740403E0,1.076774597E0
4.585941140E-1,-1.595708132E0,-2.712767124E-1,-7.994747162E-1
4.790530200E-1,2.402496815E0,-3.984665871E-1,-5.961790085E-1
4.995119790E-1,6.380602717E-1,2.046968937E-1,-2.143680573E0
5.199709370E-1,1.720483065E0,-2.315783501E-2,-1.932178497E0
5.404298430E-1,6.328166008E0,-1.299302578E-1,-3.223744392E0
5.608888020E-1,-2.832877398E0,-1.640252352E0,1.405655861E0
5.813477080E-1,-9.383954406E-1,-7.500042915E-1,4.671161652E0
6.018066660E-1,3.903658628E0,-1.572477818E0,6.229999542E0
6.222656250E-1,2.939527750E0,-1.591200829E-1,-2.736553192E0
6.427245310E-1,2.838957310E-1,-3.034260035E0,3.030110359E0
6.631834890E-1,-1.875067592E0,-6.187012196E-1,2.575093269E0
6.836424480E-1,-4.067074776E0,-6.213831902E-1,3.496173859E0
7.041013540E-1,-3.067022800E0,1.771728516E0,1.964692116E0
7.245603120E-1,-1.754676104E0,1.631683111E0,2.104020119E0
7.450192180E-1,-2.860326767E0,-1.078903675E-1,-1.635610580E0
7.654781770E-1,-1.748206615E0,1.290802956E0,1.352251053E0
7.859371350E-1,-1.400130630E0,2.276156425E0,7.960109711E-1
8.063960410E-1,-2.743267536E0,2.361914396E0,-1.061286926E-1
8.268550000E-1,-3.219342232E0,2.609602451E0,-2.697410583E-1
8.473139580E-1,-1.330839157E0,1.879008532E0,2.599616051E0
8.677728640E-1,-1.184544444E0,1.113152504E0,2.229969978E0
8.882318230E-1,-2.912796736E-1,1.160431862E0,7.377243042E-1
9.086907810E-1,-1.126394033E0,2.059026718E0,9.689865112E-1
9.291497390E-1,-2.324854136E-1,1.767587900E0,1.085798264E0
9.496086450E-1,-7.385516167E-1,6.475300789E-1,6.873407364E-1
9.700676040E-1,-1.480951309E-1,4.585433006E-2,-6.425313950E-1
9.905265620E-1,3.667263985E-1,-1.013432980E0,-7.530426979E-1
1.010985520E0,1.218909740E0,-1.136542082E0,-2.051811218E-1
1.031444427E0,1.031570435E0,-1.408915997E0,1.654701233E-1
1.051903385E0,-1.237711906E-1,-1.856606007E0,-1.789560318E-1
1.072362343E0,2.894685268E-1,-1.839816093E0,1.488597870E0
1.092821302E0,1.300709963E0,-8.504796028E-2,3.681406975E0
1.113280208E0,-8.120322227E-2,-5.229284763E-1,1.175221443E1
1.133739166E0,-1.458444595E-1,-9.261765480E-1,5.658516884E0
1.154198125E0,-2.081940651E0,-5.386509895E-1,-1.710786343E0
1.174657083E0,-5.117313862E-1,-5.936484337E-1,2.459332466E0
1.195116041E0,-3.603275299E0,5.815219879E-2,-7.488498688E-1
1.215574948E0,-4.025333881E0,8.987832069E-2,-2.222511292E0
1.236033906E0,-4.942901134E-1,1.603655815E-1,1.970117569E0
1.256492864E0,-2.124630451E0,2.744913101E0,1.186189651E0
1.276951823E0,-2.168107271E0,1.967225313E0,1.188308716E0
1.297410781E0,9.587383270E-2,-7.533111572E-1,6.381158829E-1
1.317869739E0,1.002190113E-1,-8.229155540E-1,-7.167625427E-2
1.338328698E0,-1.539046764E-1,-9.461960793E-1,-1.559439659E0
1.358787604E0,1.211795807E-1,-2.100979328E0,-2.320531368E0
1.379246562E0,-6.854070663E0,-1.366281509E-1,3.122243881E-1
1.399705520E0,6.796574593E0,-1.391057253E0,5.147447586E-1
1.420164479E0,-1.880747795E0,-3.241336346E-1,5.927570343E0
1.440623437E0,1.738241434E0,-3.323323011E0,6.413074493E0
1.461082395E0,-2.334878922E0,-5.071837425E0,-7.461007118E0
1.481541354E0,1.233720779E-2,7.963759899E-1,-4.343309402E-1
1.502000312E0,5.739879608E-2,-3.697614670E-1,-1.433911324E0
1.522459270E0,-1.938845396E0,7.735824585E-1,3.733088493E0
1.542918229E0,-8.981792927E-1,-2.775048971E0,-5.763148785E0
1.563377187E0,-5.387202740E0,3.884342194E0,6.838293076E-1
1.583836145E0,3.501660347E0,8.996152878E-1,-2.135256290E0
1.604295104E0,1.017293930E0,-3.351644993E0,-7.565612793E-1
1.624754062E0,5.638700008E0,-7.353568077E-1,5.633831024E-2
1.645213020E0,-1.068462372E0,-2.162142515E0,-2.377668858E0
1.665671927E0,2.342818022E0,2.215945721E-1,-3.162888527E0
1.686130885E0,1.815469742E0,4.387631416E-1,-3.877363205E0
1.706589895E0,1.055522680E0,-4.873003960E-1,3.855744362E0
1.727048802E0,-5.745577812E-2,-2.974677801E0,3.678493500E-1
1.747507760E0,-2.086905479E0,-5.934658051E-1,-1.907596588E0
1.767966770E0,-2.849646330E0,1.927924156E-1,-1.463799477E0
1.788425729E0,-8.262171745E-1,2.814736366E-1,1.143789291E-1
1.808884687E0,-2.105058908E0,-1.781585217E0,1.633882523E0
1.829343645E0,1.114580154E0,-1.670821667E0,2.018079758E0
1.849802604E0,7.137682438E-1,-1.365793705E0,-1.921312332E0
1.870261562E0,-6.440222263E-1,3.654987812E-1,6.537504196E-1
1.890720520E0,2.245679855E0,-1.416463852E-1,-2.165119171E0
1.911179479E0,1.954930305E0,1.191759109E-1,-4.944901466E-1
1.931638437E0,5.254316330E-1,7.753198147E-1,1.228021622E0
1.952097395E0,-2.137494087E-1,1.639383793E0,4.569549561E-1
1.972556354E0,-6.567640305E-1,3.062629461E0,3.751182556E-1
1.993014091E0,-6.984853745E-1,2.637384892E0,1.121380806E0
2.013473102E0,-7.313797474E-1,3.190488100E0,1.587703705E0
2.033932060E0,-9.866137505E-1,2.785153151E0,1.717951775E0
2.054391018E0,-6.012511253E-1,1.458507538E0,7.397737503E-1
2.074849977E0,-1.633473396E0,6.146366596E-1,-1.314907074E-1
2.095308935E0,-2.049941778E0,3.504962921E-1,-1.636927128E0
2.115767893E0,-1.008947372E0,-7.378172874E-2,-1.992111206E0
2.136226852E0,-6.996772289E-1,-1.052810431E0,-1.873393059E0
2.156685810E0,5.963873863E-1,-1.602067113E0,-1.694487572E0
2.177144820E0,1.789183378E0,-9.199305773E-1,-2.572508812E0
2.197603779E0,6.124782562E-1,-1.482417822E0,-4.107876301E0
2.218062737E0,1.557012081E0,-9.399272799E-1,3.654740334E0
2.238521695E0,5.802642345E0,-7.118401527E-1,3.405488014E0
2.258980654E0,-2.003214359E-1,1.310906887E0,-2.742484093E0
2.279439664E0,-5.244275093E0,1.904792666E0,2.764638901E0
2.299898622E0,-3.637857437E0,1.161483288E0,2.061110497E0
2.320357581E0,-5.238360405E0,-3.208533525E-1,-1.017175674E0
2.340816539E0,-2.082459211E0,1.912910938E-1,1.575994492E-1
2.361275549E0,2.407198191E0,-1.190682769E0,-1.034467697E0
2.381734508E0,1.241466999E0,-3.211592674E0,-4.069761276E0
2.402193466E0,1.453243971E0,4.883437157E-1,-1.158042908E0
2.422652424E0,4.137310982E0,-8.674750328E-1,2.363607407E0
2.443111435E0,-1.129288197E0,-7.733550072E-1,-2.834416866E0
2.463570393E0,-9.666805267E-1,-1.363091469E0,1.106177330E0
2.484029352E0,-1.883066177E0,-1.439226031E0,2.200999260E0
2.504488362E0,-2.831356525E-1,-6.101762056E-1,-6.299219131E-1
2.524947320E0,-7.656207085E-1,-1.085205078E-1,-4.099607468E-1
2.545406279E0,6.845870018E-1,3.704048395E-1,-7.124948502E-1
2.565865237E0,-3.991637230E-1,2.560421228E-1,-2.928953171E-1
2.586324247E0,-1.092338562E0,8.316502571E-1,-3.144351006E0
2.606783206E0,9.178614616E-1,5.878763199E-1,7.123079300E-1
2.627242216E0,3.088699818E0,1.131372333E0,1.392655373E0
2.647701174E0,-1.613823175E0,5.776584148E-1,-1.838718414E0
2.668160133E0,-2.348572016E0,6.020525694E-1,-7.869014740E-1
2.688619143E0,3.146416664E0,-1.677635908E-1,6.035964966E0
2.709078102E0,-2.877352238E-1,6.660078764E-1,-2.543440819E0
2.729537112E0,-1.918726921E0,-5.613088608E-2,-1.061100960E0
2.749996070E0,1.183767796E0,-1.077642441E0,1.448192596E-1
2.770455029E0,9.641170502E-3,-1.151320219E0,-1.921306610E0
2.790914039E0,1.761799335E0,-1.669403315E0,6.776161194E-1
2.811372997E0,1.040049791E0,-2.120063543E0,-7.230205536E-1
2.831832008E0,2.233480453E0,-1.374835730E0,1.471926689E0
2.852290966E0,-4.400658607E-1,-9.984877706E-1,4.688196182E-1
2.872749977E0,2.748465300E0,-1.074559450E0,-5.176258087E-1
2.893208935E0,-1.872861862E0,1.184248209E0,-3.594403267E0
2.913667945E0,1.768873930E0,-1.833037138E-1,1.945363045E0
2.934126904E0,7.314431667E-1,5.417538881E-1,9.196748734E-1
2.954585862E0,8.677301407E-1,8.280805349E-1,1.360597610E-1
2.975044872E0,-2.465918064E-1,1.199179888E0,-1.216829300E0
2.995503883E0,-4.500505924E-1,1.185817242E0,-1.399638176E0
3.015962841E0,-2.025717497E0,1.403656483E0,1.496787071E0
3.036421852E0,-5.633764267E-1,1.233257294E0,1.674333572E0
3.056880810E0,-4.106662273E-1,1.492444277E0,-1.354814529E0
3.077339820E0,4.826211929E-1,7.957965136E-2,1.673081398E0
3.097798779E0,-1.708798409E-1,2.695167065E-2,7.230644226E-1
3.118257789E0,-6.579856873E-1,2.553845644E-1,-1.711116791E0
3.138716747E0,1.712705851E0,-3.796263933E-1,-2.569634438E0
3.159175758E0,3.315827847E0,6.314908266E-1,-1.995290756E0
3.179634768E0,3.594884872E-1,1.908285975E0,-5.154523849E-1
3.200093727E0,4.195032120E-1,1.137149215E0,-2.114762306E0
3.220552737E0,-3.855438232E-1,1.224679351E0,-1.531685352E0
3.241011695E0,1.008114815E-1,9.732307196E-1,-4.623699188E-1
3.261470706E0,1.534397125E0,-4.969603419E-1,-3.667991638E0
3.281929716E0,-2.696100235E0,1.917480111E0,1.001213074E0
3.302388674E0,3.292136192E-1,-3.226191998E-1,-5.858650208E-1
3.322847685E0,1.353518724E0,-1.261492968E-1,3.772715569E0
3.343306695E0,3.477249146E-1,-3.469382763E0,-2.483708858E0
3.363765654E0,2.793478966E-2,6.909414530E-1,-1.468477249E-1
3.384224664E0,-1.271830320E0,1.279579878E0,-2.579256058E0
3.404683674E0,3.250488281E0,9.743751287E-1,5.756643295E0
3.425142633E0,3.946161509E0,-7.205878496E-1,1.115407944E0
3.445601643E0,-2.022946358E0,1.411655903E0,-3.694851875E0
3.466060654E0,-2.466116190E0,2.317078829E0,-1.717133522E0
3.486519612E0,-1.461651325E-1,1.254060030E0,4.794598579E0
3.506978622E0,3.302431107E-1,2.211695433E0,3.403344154E0
3.527437633E0,-1.183212042E0,3.231412172E-1,3.819321632E0
3.547896643E0,-1.561794281E-1,-6.890220642E-1,-2.857990265E-1
3.568355602E0,-1.966432571E0,1.150253177E0,-1.755266190E-1
3.588814612E0,-2.015779257E0,4.548372030E-1,5.725975037E-1
3.609273622E0,-1.193416357E0,4.094667435E-1,-1.308807373E0
3.629732633E0,-2.757377148E0,4.284693003E-1,-7.185869217E-1
3.650191591E0,-5.633869171E-1,-3.754034042E-1,-1.409498215E0
3.670650602E0,3.738508224E-1,4.922515154E-1,-4.739532471E-1
3.691109612E0,-3.162994385E-1,1.202251911E-1,-2.455730438E-1
3.711568622E0,4.824501038E0,-1.502246141E0,1.694820404E0
3.732027633E0,-2.009752274E0,-4.616086483E-1,-4.825003147E0
3.752486643E0,-1.040470839E0,2.726838589E-1,5.287676811E0
3.772945602E0,-1.587816715E0,-9.198586941E-1,4.336795807E-1
3.793404612E0,-8.418707848E-1,-2.883665323E0,-1.263838768E0
3.813863622E0,-9.003090858E-1,-1.363729000E0,-4.825439453E-1
3.834322633E0,-1.982864380E0,-9.469939470E-1,2.017305374E0
3.854781643E0,3.467836380E-1,-1.007795572E0,5.633430481E-1
3.875240654E0,-7.715487480E-1,-1.365417838E0,-1.003084183E0
3.895699612E0,-5.318641663E-3,-3.464399576E-1,-5.908794403E-1
3.916158622E0,4.572613239E-1,-4.623975158E-1,1.559223175E0
3.936617633E0,2.840945721E-1,-4.006212950E-1,6.744213104E-1
3.957076643E0,1.389208317E0,3.028178215E-2,2.181126595E0
3.977535654E0,-3.158699751E0,1.437082410E0,-1.360173702E0
3.997994664E0,-2.554811716E0,1.031643987E0,-1.727228165E-1
4.018453674E0,-1.104086399E0,6.991975307E-1,2.256184578E0
4.038912685E0,-1.639521122E-1,5.065517426E-1,-6.702852249E-1
4.059371695E0,9.315323830E-2,-1.926842928E-1,-9.818744659E-1
4.079830706E0,-4.610512257E-1,-1.482573509E0,-3.180292606E0
4.100289716E0,1.749184608E0,-2.390877247E0,-2.236711502E0
4.120748727E0,4.176887512E0,-2.616211653E0,4.086833000E0
4.141207737E0,4.583864212E-1,-1.980902195E0,-3.840349197E0
4.161666747E0,1.483712912E0,-3.196867466E0,-1.924806595E0
4.182125758E0,-3.303453922E-1,-3.366880417E-1,-2.569386005E0
4.202584768E0,5.500354767E-1,-6.724678278E-1,3.996181488E-1
4.223043779E0,3.019673824E0,-1.440035224E0,5.867024422E0
4.243502789E0,-3.050182581E0,2.168305874E0,-2.865931511E0
4.263961799E0,-4.189562798E-1,2.665795803E0,1.308868408E0
4.284420810E0,-7.498588562E-1,2.256400585E0,-1.450068474E0
4.304879820E0,1.324589729E0,2.953586340E0,3.384894371E0
4.325338831E0,-1.044130087E0,1.495836258E0,-1.653985023E0
4.345797841E0,1.742203236E-1,2.745961189E0,1.277793884E0
4.366256852E0,-4.385209084E-1,2.411052227E0,-2.291217804E0
4.386715862E0,-1.813328266E-1,2.479931116E0,1.072351456E0
4.407174872E0,1.354662418E0,1.261277199E-1,2.681109428E0
4.427633883E0,-2.753397942E0,1.398084521E0,-2.114954948E0
4.448092893E0,1.385092497E0,-3.547734022E-1,2.593720436E0
4.468551904E0,-1.177846909E0,-1.981904507E0,-2.238682747E0
4.489010966E0,1.533649683E0,-9.118714929E-1,-1.835069656E-1
4.509469977E0,2.017669201E0,-1.834131241E0,-1.805411339E0
4.529928987E0,2.370382071E0,9.299212694E-1,-1.043548584E0
4.550387997E0,6.078259945E-1,1.504942179E0,-2.124029160E0
4.570847008E0,3.484087467E0,-1.062888265E0,4.498462677E0
4.591306018E0,6.850357056E-1,-1.904296398E0,8.702783585E-1
4.611765081E0,-2.381430149E0,-8.034133911E-1,-2.664685249E0
4.632224091E0,8.455619812E-1,-2.138617992E0,1.627441406E0
4.652683102E0,7.561776638E-1,1.896026134E-1,1.324188232E0
4.673142112E0,-1.286908627E0,9.626685381E-1,-1.096733093E0
4.693601122E0,4.539099216E0,-3.050422430E0,2.424843788E0
4.714060185E0,-1.222482681E0,8.056675792E-1,-2.189307690E0
4.734519195E0,4.251651764E-1,2.055137753E-1,-1.285452843E0
4.754978206E0,1.168797493E0,1.605702400E0,3.614931107E-1
4.775437216E0,-2.315047264E0,4.765771627E-1,1.434224129E0
4.795896279E0,-8.356816769E-1,1.571264505E0,7.871770859E-1
4.816355289E0,-1.804234505E0,-8.575478196E-1,-4.875841141E-1
4.836814299E0,-1.396204829E0,-8.702419400E-1,-7.240619659E-1
4.857273310E0,6.341903210E-1,-1.197195768E0,-3.707351685E-1
4.877732372E0,-3.171439171E-1,-4.547070265E-1,-1.769596100E0
4.898191383E0,-4.835884571E-1,2.495818734E-1,-1.623161793E0
4.918650393E0,2.884933710E0,-1.476418257E0,1.484359741E0
4.939109456E0,2.089707851E-1,-1.434646010E0,-2.588755608E0
4.959568466E0,-1.734916210E0,2.676719427E-1,-6.998491287E-1
4.980027477E0,-6.082770824E-1,-4.044072032E-1,5.512132645E-1
5.000486539E0,7.624955177E-1,-6.519065499E-1,2.374595642E0
5.020945549E0,-9.591166973E-1,8.780326843E-1,-1.123421669E0
5.041404560E0,5.589370728E-1,-1.470139980E0,3.306964874E0
5.061863622E0,-5.833842754E-1,-8.307359815E-1,-8.016195297E-1
5.082322633E0,-1.883831739E0,3.396586180E-1,-6.933403015E-1
5.102781643E0,5.647344589E-1,-2.639482021E-1,3.061640739E0
5.123240706E0,-5.529885292E-1,2.071932554E-1,7.378234863E-1
5.143699716E0,5.317926407E-2,3.826593161E-1,7.104206085E-1
5.164158779E0,2.665510178E0,4.635148048E-1,1.749105453E-1
5.184617789E0,1.049888134E0,-1.610243320E-2,-2.117882252E0
5.205076852E0,2.134823799E-1,4.611402750E-1,-1.655115128E0
5.225535862E0,2.053518772E0,-7.849930525E-1,3.010233879E0
5.245994872E0,1.250856161E0,-7.162183523E-1,-5.864019394E-1
5.266453935E0,1.390381098E0,-2.938269973E-1,4.464040756E0
5.286912945E0,1.281608820E0,-2.060495377E0,-1.214093208E0
5.307372008E0,-1.939806938E-1,-4.678292274E-1,8.236255646E-1
5.327831018E0,1.558048725E-1,1.056299448E0,1.000399590E0
5.348290081E0,1.834359169E-1,1.043006063E0,-2.439594269E-1
5.368749091E0,-4.603123665E-1,1.982142329E0,1.428341866E0
5.389208154E0,5.819089413E-1,2.356799126E0,1.182343483E0
5.409667164E0,1.191580296E-1,2.904503107E0,-1.036904335E0
5.430126227E0,3.268892765E-1,2.903176785E0,2.152587891E0
5.450585289E0,-1.680144429E0,1.998774767E0,-2.630610943E0
5.471044299E0,1.637055397E0,2.819735050E0,9.730806351E-1
5.491503362E0,4.914367199E-1,1.109494448E0,1.702629089E0
5.511962372E0,-2.727576733E0,4.689311981E-2,-3.253071785E0
5.532421435E0,-1.505540133E0,-5.799514055E-1,-1.598557949E0
5.552880445E0,1.299412966E0,-2.261300087E-1,1.984519958E0
5.573339663E0,-2.208505869E0,-8.245184422E-1,-2.344076157E0
5.593798725E0,5.551862717E-1,-1.076253176E0,-2.921699524E0
5.614257736E0,2.853102446E0,-2.065228224E0,-3.221864700E-1
5.634716798E0,-1.657732010E0,-5.243602991E-1,-2.291839600E0
5.655175861E0,6.721827984E-1,-4.020910263E-1,-1.267340183E0
5.675634871E0,2.674880028E0,-1.530122757E0,2.276802063E0
5.696093934E0,-3.082216740E0,2.956440449E-1,-1.881004333E0
5.716552996E0,7.616591454E-2,-8.230700493E-1,-1.827783585E-1
5.737012007E0,5.273270607E-1,-2.121890783E-1,1.631730080E0
5.757471069E0,-1.422946930E0,5.024409294E-2,-3.949594498E-1
5.777930079E0,1.060786724E0,-9.267519712E-1,2.891198158E0
5.798389142E0,-1.319595575E0,-2.845087051E-1,-2.682334900E0
5.818848204E0,-4.649691582E-1,-1.523154378E0,1.264589310E0
5.839307267E0,2.334238291E0,-1.206065059E0,3.936786652E-1
5.859766277E0,-3.020531178E0,5.248148441E-1,-3.262449265E0
5.880225340E0,-6.431815624E-1,-4.746159315E-1,-2.450189590E-1
5.900684402E0,1.987002850E0,-7.816958427E-2,6.009790421E0
5.921143465E0,-2.290069103E0,-1.378949165E0,-2.031163216E0
5.941602475E0,1.744390249E0,9.667584896E-1,3.202122688E0
5.962061538E0,-2.344025612E0,-1.155013204E0,-1.099950790E0
5.982520600E0,3.889203072E-2,1.150265694E0,1.891078949E0
6.002979663E0,-3.546436071E0,-5.456132293E-1,-1.393847466E0
6.023438673E0,2.683134317E0,-4.477466941E-1,6.030865669E0
6.043897736E0,-3.840959311E0,-1.444768906E0,-2.100961685E0
6.064356798E0,-6.626877785E-1,-8.301675320E-1,4.688873291E-1
6.084815861E0,-3.019169807E0,-1.443245411E-1,-2.236426830E0
6.105274923E0,2.252212763E0,-3.147327900E-2,5.753186226E0
6.125733934E0,-2.351054668E0,-2.372623920E0,-5.470340252E0
6.146192996E0,2.185208082E0,-3.338891268E-1,2.633750916E0
6.166652059E0,-1.716194868E0,-1.000672698E0,-3.302093506E0
6.187111121E0,7.291891575E-1,-1.044924855E0,2.335939407E-1
6.207570184E0,1.359019995E0,7.354469299E-1,-1.556358337E-1
6.228029246E0,1.024566650E0,6.534883976E-1,2.633085251E0
6.248488309E0,1.453349590E0,-2.038109303E-1,-1.066038132E0
6.268947371E0,-8.711574078E-1,-8.961329460E-1,2.389537811E0
6.289406382E0,-2.191877365E-1,1.171898842E-2,6.613578796E-1
6.309865444E0,2.577627420E0,-2.030793190E0,8.921900749E0
6.330324507E0,-4.431056976E-2,-4.441169262E0,-5.180130005E-1
6.350783569E0,-5.442056656E-1,-3.208649635E0,-5.072231293E-1
6.371242632E0,4.218611717E-1,1.185816050E0,-2.296495438E-2
6.391701694E0,9.334530830E-1,3.217427731E-1,-2.186058044E0
6.412160757E0,-8.286337852E-1,-4.924285412E-1,-2.969188690E-1
6.432619819E0,2.479786873E-1,-1.594564915E0,-2.164330482E0
6.453078882E0,1.589933872E0,5.423336029E-1,-3.137229443E0
6.473537944E0,9.101204872E-1,1.801522255E0,4.582839012E-1
6.493997007E0,-2.387594223E0,3.143284321E-1,3.876686096E-2
6.514456069E0,-1.830259562E0,7.093667984E-2,-1.691626072E0
6.534915132E0,-2.324910402E0,3.672742367E0,-1.602921009E0
6.555374194E0,-1.830858469E0,1.152632236E0,-7.661075592E-1
6.575833257E0,-1.333035231E0,9.952735901E-2,-1.738518715E0
6.596292319E0,-3.027756214E-1,-4.507608414E-1,-3.715953827E-1
6.616751382E0,7.362694740E-1,-1.936267376E0,-2.081909180E-1
6.637210444E0,-2.647533417E-1,-3.553533554E-1,-1.633234024E-1
6.657669507E0,2.053027153E-1,5.082621574E-1,1.266432285E0
6.678128569E0,-9.425449371E-2,9.294605255E-1,2.529966831E0
6.698587632E0,2.991104126E-1,7.674469948E-1,2.125832558E0
6.719046694E0,1.144170761E0,5.892477036E-1,1.110903263E0
6.739505757E0,-7.803440094E-2,2.102088928E-1,6.666221619E-1
6.759964819E0,-5.878767967E-1,1.552012920E0,-6.079978943E-1
6.780423934E0,4.826021194E-2,7.532939911E-1,-1.240783691E0
6.800882996E0,1.698200703E0,6.868238449E-1,-7.808575630E-1
6.821342059E0,5.897116661E-1,2.483153343E-1,-6.624884605E-1
6.841801121E0,-4.731330872E-1,4.778785706E-1,-9.427437782E-1
6.862260184E0,-8.955044746E-1,5.894188881E-1,-1.954140663E-1
6.882719246E0,-2.277448177E0,-2.199411392E-1,7.316589355E-3
6.903178309E0,-1.840362072E0,-1.447884798E0,-3.624577522E-1
6.923637423E0,-2.758178711E-1,-2.166381359E0,-9.661273956E-1
6.944096486E0,1.385416985E-1,-9.985802174E-1,-1.155920506E0
6.964555548E0,6.218271255E-1,-7.188906670E-1,-8.310790062E-1
6.985014611E0,1.700953484E0,7.158185005E0,9.645295143E-1
7.005473725E0,5.723849773E0,-3.135410309E0,-3.665187836E0
7.025932788E0,-2.060890198E-1,1.825313091E0,-2.483517170E0
7.046391850E0,-1.562910557E0,-8.444585800E-1,1.777036667E0
7.066850913E0,-1.520705700E0,9.485759735E-1,1.110519886E0
7.087309975E0,3.931741714E-1,-1.564622164E0,2.219022274E0
7.107769090E0,1.243829250E0,1.617660522E-1,2.004992962E0
7.128228152E0,-1.501464367E0,-9.766173363E-1,-1.030845165E0
7.148687215E0,7.163157463E-1,-1.221266508E0,1.592012882E0
7.169146277E0,-2.388005257E-1,2.100899220E-1,8.666553497E-1
7.189605392E0,-2.800544739E0,5.477604866E-1,-1.465496063E0
7.210064454E0,1.641564369E-1,5.476493835E-1,3.113773346E0
7.230523517E0,1.805993080E0,5.649011135E-1,1.142923832E0
7.250982632E0,-8.573951721E-1,1.080546856E0,3.971552849E-1
7.271441694E0,-1.718732834E0,7.816576958E-2,-2.157597542E-1
7.291900757E0,1.172304630E0,-7.292826176E-1,2.228666782E0
7.312359871E0,6.824378967E-1,-3.156760216E0,3.981323242E-1
7.332818934E0,-1.877702713E0,6.882123947E-1,1.892695427E-1
7.353278048E0,1.096785069E0,-2.419612169E0,5.356574059E-1
7.373737111E0,-5.842900276E-1,-1.162604094E0,-5.656318665E-1
7.394196173E0,2.876570225E0,-2.666357756E0,2.543749809E0
7.414655288E0,2.291178703E0,-1.706701517E0,1.373928547E0
7.435114350E0,-2.631425858E-2,-8.209662437E-1,-4.571380615E-1
7.455573413E0,-2.418417931E-1,1.541519165E-2,2.284111977E-1
7.476032527E0,3.456407547E0,-4.280128479E-1,4.040750980E0
7.496491590E0,1.258390427E0,-8.008553982E-1,4.856400490E-1
7.516950704E0,1.527353764E0,-2.177362442E-1,-1.634039879E-1
7.537409767E0,2.555889130E0,-5.244688988E-1,4.779047966E-1
7.557868882E0,2.558148384E0,4.251351357E-1,6.573534012E-2
7.578327944E0,8.016853333E-1,-3.468279839E-1,7.929401398E-1
7.598787059E0,1.098484039E0,-2.077178955E-1,3.548088074E-1
7.619246121E0,4.564795494E-1,-5.359039307E-1,6.357812881E-2
7.639705236E0,-2.647066116E-1,-2.459707260E-1,3.118076324E-1
7.660164298E0,-1.701482296E0,-4.101085663E-1,2.809858322E-2
7.680623413E0,-1.941728592E0,-1.159505844E-1,6.272959709E-1
7.701082475E0,-8.337593079E-1,-7.650852203E-1,-5.381619930E-2
7.721541590E0,-1.093159676E0,-6.040177345E-1,-2.393952847E0
7.742000652E0,-2.087889671E0,9.855294228E-1,-1.565412879E0
7.762459767E0,-3.269183159E0,1.102154732E0,-1.782580137E0
7.782918882E0,-1.966095448E0,5.247673988E-1,-1.769157648E0
7.803377944E0,-5.341939926E-1,-3.764300346E-1,-1.542284489E0
7.823837059E0,-1.187857628E0,-3.771533966E-1,-9.839916229E-2
7.844296121E0,-3.185282707E0,5.232868195E-1,-7.087564468E-2
7.864755236E0,-3.679401398E0,2.290730476E-1,-1.033258438E-1
7.885214350E0,-1.784183502E0,-4.466067553E-1,-2.714748383E-1
7.905673413E0,4.966888428E-1,-1.035343409E0,3.832454681E-1
7.926132527E0,9.709644318E-1,-7.583065629E-1,1.159820318E0
7.946591642E0,-4.757261276E-1,5.526781082E-3,1.106928587E0
7.967050704E0,-3.274459839E-1,-6.376647949E-2,1.992461205E0
7.987509819E0,1.851408005E0,8.620098829E-1,-2.413125038E-1
8.007968934E0,6.691482544E0,-2.548228741E0,-1.474842072E0
8.028427996E0,2.032393456E0,5.423021317E-1,-2.016426325E0
8.048887111E0,2.189678192E0,-9.982186556E-1,1.445461392E0
8.069346225E0,-2.106954575E0,3.802151680E0,2.507008553E0
8.089805288E0,5.760755539E-1,-3.597561598E0,2.417802811E-2
8.110264402E0,-1.236223221E0,1.344641745E-1,1.000609398E-1
8.130723517E0,3.968172073E-1,-3.631259799E-1,8.890748024E-2
8.151182632E0,-7.139682770E-1,1.986079931E0,1.665985584E-1
8.171641746E0,-3.587245941E-2,-8.065079451E-1,-1.719665527E-1
8.192100809E0,-1.372269630E0,-7.802379131E-1,-5.050182343E-2
8.212559923E0,-9.119033813E-2,8.762440085E-1,7.051289082E-1
8.233019038E0,4.159336090E-1,1.102044061E-1,2.152633667E-1
8.253478152E0,-1.022899628E0,1.008956790E0,-1.288024187E0
8.273937267E0,-6.578149796E-1,-1.105089784E0,-9.919691086E-1
8.294396382E0,1.388805389E0,2.744486928E-1,-8.491938114E-1
8.314855444E0,1.238598824E0,8.123242855E-1,3.062987328E-2
8.335314559E0,1.101409912E0,-9.339625835E-1,1.117059350E0
8.355773673E0,1.076152802E0,1.240598321E0,1.789008617E0
8.376232788E0,5.515403748E-1,7.877367735E-2,1.744958282E0
8.396691902E0,-1.698570251E-1,-6.367262602E-1,2.604230881E0
8.417151017E0,1.119508743E-1,-1.379215717E0,1.327039480E0
8.437610132E0,-1.495115280E0,-2.334358215E0,1.826279759E0
8.458069246E0,-6.134338379E-1,-1.045842767E0,-1.479645729E0
8.478528309E0,-4.785060883E-1,-2.959153891E0,-1.213390589E0
8.498987423E0,-1.465608597E0,-1.224679232E0,-3.986878395E-1
8.519446538E0,-1.596240997E-1,7.423207760E-1,-2.372117281E0
8.539905652E0,1.968623161E0,9.993937016E-1,2.723966837E0
8.560364767E0,1.029713631E0,-1.413107872E0,6.356911659E-1
8.580823882E0,-1.143711090E0,-6.892800331E-2,-1.080513597E0
8.601282996E0,2.475833893E-1,-8.512914181E-2,-1.598655581E0
8.621742111E0,4.607584000E0,1.800684690E0,-1.995860457E0
8.642201225E0,2.039772987E0,1.122875571E0,3.983938694E-2
8.662660340E0,-3.764028549E-1,2.130744219E0,-6.256780624E-1
8.683119454E0,-4.764575958E-1,-4.975073338E-1,-6.823022366E-1
8.703578569E0,-8.032989502E-1,-1.748104095E0,-1.713264346E0
8.724037684E0,-1.507703781E0,-4.303252697E-1,-1.586081743E0
8.744496798E0,6.248378754E-1,2.736615181E0,-1.305591583E0
8.764955913E0,3.638839722E-1,3.778685331E-1,-7.450642586E-1
8.785415079E0,1.130267143E0,-1.429429531E0,-1.759993553E0
8.805874194E0,5.680608749E-1,1.005309820E-1,-1.843981504E0
8.826333309E0,-4.979038239E-1,3.352676630E-1,-8.635754585E-1
8.846792423E0,-9.462270737E-1,8.964906931E-1,-6.968371868E-1
8.867251538E0,-1.015470505E0,-3.996378779E-1,-5.156400204E-1
8.887710652E0,9.164123535E-1,-2.633973837E0,-2.718997002E-1
8.908169767E0,4.268493652E-1,-3.742887259E0,-2.382824421E-1
8.928628934E0,3.989505768E-2,-5.400674343E-1,6.639533043E-1
8.949088048E0,-1.322786331E0,-3.070802093E-1,-3.595588207E-1
8.969547163E0,-4.356174469E-1,1.114419222E0,7.699406147E-2
8.990006277E0,5.263166428E-1,1.891209722E0,7.756198645E-1
9.010465392E0,8.484745026E-1,-2.336736321E-1,1.875147820E0
9.030924559E0,4.806162834E0,-8.069666028E-1,-3.305858374E-1
9.051383673E0,5.589931488E0,5.701646805E-1,-8.783289194E-1
9.071842788E0,6.667551041E0,2.593863606E-1,1.840954065E0
9.092301902E0,3.760568619E0,1.700714707E0,1.765523076E0
9.112761069E0,3.968376160E0,5.463949203E0,2.798623562E0
9.133220184E0,2.843954086E0,6.190460205E0,3.318098307E0
9.153679298E0,2.677539825E0,4.909972191E0,3.494521618E0
9.174138465E0,1.587512016E0,3.253098488E0,2.676467896E0
9.194597579E0,5.249457359E-1,1.517163277E0,1.470687151E0
9.215056694E0,3.932962418E-1,-5.202093124E-1,5.238776207E-1
9.235515861E0,1.702761650E-1,-2.267168522E0,-8.405489922E-1
9.255974975E0,5.172128677E-1,-3.245577812E0,-2.057062149E0
9.276434090E0,2.549877167E-1,-4.233675003E0,-3.208140850E0
9.296893257E0,5.596754551E-1,-4.294424057E0,-3.688711643E0
9.317352371E0,9.308040142E-1,-4.020980835E0,-3.833245277E0
9.337811486E0,1.338105679E0,-3.442927361E0,-4.056448936E0
9.358270652E0,1.305784822E0,-3.107607365E0,-4.198217869E0
9.378729767E0,1.490452766E0,-2.593917847E0,-3.768594980E0
9.399188934E0,1.089750290E0,-2.245151997E0,-3.422036409E0
9.419648048E0,1.250346184E0,-1.649769783E0,-2.667962551E0
9.440107163E0,1.030467868E0,-1.068669319E0,-1.822614193E0
9.460566329E0,9.941465855E-1,-5.441641808E-1,-1.328270435E0
9.481025444E0,1.352518082E0,-4.710645676E-1,-1.089005947E0
9.501484611E0,9.469398260E-1,-4.039158821E-1,-1.101538181E0
9.521943725E0,8.554236889E-1,-9.865283966E-2,-7.320160866E-1
9.542402892E0,8.138054609E-1,-1.204257011E-1,-3.977212906E-1
9.562862007E0,4.450660944E-1,-5.140018463E-2,-2.018299103E-1
9.583321173E0,1.838004589E-2,-9.897851944E-2,5.096578598E-2
9.603780288E0,2.287490368E-1,-1.110258102E-1,-1.698827744E-2
9.624239454E0,6.331437826E-1,1.089062691E-1,2.570261955E-1
9.644698569E0,-2.180572748E-1,-9.032821655E-2,2.294802666E-1
9.665157736E0,4.235099554E-1,-7.045335770E-1,-6.033205986E-1
9.685616902E0,1.621675491E-1,-1.398480415E0,-8.304800987E-1
9.706076017E0,-1.102004051E-1,-5.178890228E-1,-2.601189613E-1
9.726535184E0,-5.821504593E-1,1.535139084E-1,-2.887706757E-1
9.746994298E0,-6.125636101E-1,1.340475082E-1,-2.129688263E-1
9.767453465E0,-3.599762917E-1,5.404586792E-1,-8.209495544E-1
9.787912632E0,1.257417202E-1,-1.011019230E0,-2.392439842E-1
9.808371746E0,-2.069845200E-1,5.673365593E-1,-4.724392891E-1
9.828830913E0,-9.174256325E-1,4.624986649E-2,9.069914818E-1
9.849290079E0,2.898116112E-1,-2.581680298E0,1.396214962E0
9.869749194E0,1.101770401E0,-2.244618416E0,-1.350615978E0
9.890208361E0,2.067233562E0,-2.251083851E0,-1.444175243E0
9.910667527E0,-1.675744057E-1,-1.345053673E0,3.686351776E-1
9.931126642E0,-4.643863678E0,2.420480728E0,7.320327759E-1
9.951585809E0,-4.954846382E0,7.603979111E-1,4.437656403E-1
9.972044975E0,1.044005871E0,3.153800964E-1,-3.224119186E0
9.992504142E0,3.064463139E0,1.879957676E0,1.088552475E0
1.001296326E1,6.800270081E-2,1.933314323E0,1.698742390E0
1.003342242E1,3.540534973E-1,1.507671356E0,1.436084509E0
1.005388159E1,9.557385445E-1,1.559195042E0,9.147619009E-1
1.007434076E1,7.953195572E-1,1.720161438E0,2.140796185E-1
1.009479992E1,-3.823938370E-1,-2.683587074E-1,-9.376014471E-1
1.011525909E1,2.091369629E0,2.631190300E0,-1.440953016E0
1.013571826E1,-3.387260437E-2,2.652519703E0,1.117216229E0
1.015617737E1,-3.187046051E-1,4.019646645E-1,3.394212723E-1
1.017663654E1,-1.415095329E-1,-3.347396851E-4,2.690115273E-1
1.019709570E1,-4.999537468E-1,-3.439912796E-1,1.331133008E0
1.021755487E1,8.297305107E-1,6.332793236E-1,-2.110728621E-1
1.023801404E1,-1.396082878E0,-1.241812706E-1,1.338180304E-1
1.025847320E1,2.101382256E0,-6.586661339E-1,6.936830878E-1
1.027893237E1,1.075415611E0,-7.045755386E-1,-2.340148091E-1
1.029939154E1,1.982500076E0,-8.839011192E-1,1.011388302E0
1.031985070E1,8.083677292E-1,-4.992122650E-1,1.926932573E0
1.034030987E1,6.597137451E-2,-5.069613457E-1,6.751049757E-1
1.036076904E1,-9.440011978E-1,-1.051532745E0,-2.248831987E-1
1.038122820E1,-7.691578865E-1,-9.126925468E-1,2.960660458E-1
1.040168737E1,-1.181907654E0,-1.250100613E0,2.902781963E-1
1.042214654E1,-1.507364273E0,-2.050395012E-1,-1.211772084E0
1.044260570E1,-7.287101746E-1,2.084035873E-1,-1.323995590E-1
1.046306487E1,-1.743298531E0,4.068934917E-1,-1.136246920E0
1.048352404E1,-9.507379532E-1,4.569811821E-1,-8.934352398E-1
1.050398320E1,4.839124680E-1,1.256149769E0,-3.288486004E-1
1.052444237E1,2.607777596E0,9.458429337E0,7.270411015E0
1.054490154E1,3.618672371E0,2.804065466E0,3.714113235E0
1.056536070E1,2.819450378E0,2.074163437E0,4.547750950E0
1.058581987E1,1.516281128E0,1.713079453E0,2.492514372E0
1.060627909E1,1.400611877E0,-3.479106426E-1,1.082499027E0
1.062673826E1,-6.508111954E-1,-7.139353752E-1,9.268632531E-1
1.064719742E1,-1.511208534E0,-1.420982957E0,-5.241197944E-1
1.066765659E1,-1.134092331E0,1.906176329E0,-2.231940985E0
1.068811576E1,-1.164158821E0,-1.225336909E0,-5.517940223E-2
1.070857492E1,-1.586511612E0,-2.205617905E0,8.435665965E-1
1.072903414E1,-1.157562256E0,-1.384955883E0,5.797156096E-1
1.074949331E1,1.200289726E0,-7.546135783E-1,-1.003282309E0
1.076995248E1,2.506453514E0,7.071584463E-1,-2.377181768E0
1.079041164E1,4.728641510E0,1.392272472E0,1.276037216E0
1.081087086E1,1.761276245E0,1.338522315E0,1.146322966E0
1.083133003E1,-1.235063553E0,5.766757727E-1,1.196953058E0
1.085178919E1,-3.602600098E-2,-1.302125812E0,-7.328790426E-1
1.087224841E1,-2.525062561E-1,-1.264067292E0,6.033231020E-1
1.089270758E1,-8.124160767E-2,-5.014872551E-2,1.124153137E-1
1.091316675E1,7.075901031E-1,1.537488461E0,1.011754155E0
1.093362597E1,-9.385147095E-1,7.189307213E-1,1.258959174E0
1.095408513E1,-1.972782612E0,1.173880994E-1,-4.531745315E-1
1.097454430E1,-1.069522858E0,-8.210293055E-1,-2.103845596E0
1.099500352E1,5.275659561E-1,-1.028265953E0,-2.781138420E0
1.101546268E1,-6.337356567E-2,-9.204064608E-1,-2.535100937E0
1.103592185E1,-1.422263145E0,-8.537040949E-1,-3.493344069E0
1.105638107E1,-1.985261917E0,-5.280470252E-1,-2.158939838E0
1.107684024E1,-4.171197891E0,5.057457089E-1,-2.069026232E0
1.109729945E1,9.251861572E0,-1.083430529E0,3.181717873E0
1.111775862E1,-1.518783569E0,-8.418560028E-1,-2.141467571E0
1.113821784E1,-2.985563278E-1,-2.321574688E-1,-2.758413315E0
1.115867701E1,6.724872589E-1,-2.417562723E0,6.815826893E-1
1.117913617E1,3.209070206E0,-1.467323303E0,2.871303320E0
1.119959539E1,-4.539368629E0,-1.284199238E0,-1.509534836E0
1.122005456E1,-1.552189827E0,-1.530937552E-1,9.142022133E-1
1.124051378E1,-1.486949921E-1,-2.277580976E0,-2.046446502E-1
1.126097294E1,-6.212463379E-1,1.269678771E-2,-1.488419294E0
1.128143216E1,4.320259094E-1,-5.204120278E-1,-1.106517017E-1
1.130189133E1,1.015346527E0,1.390119642E-1,-4.392681122E0
1.132235055E1,-6.147289276E-1,1.281241655E0,-4.025191307E0
1.134280972E1,8.385686874E-1,-7.261724472E-1,-3.018904924E-1
1.136326893E1,8.981418610E-2,-2.913724184E-1,-1.914460063E0
1.138372810E1,1.042069435E0,2.049529850E-1,2.195448160E0
1.140418732E1,-1.062825203E0,6.815221906E-2,4.116677642E-1
1.142464654E1,-7.386112213E-1,-1.913316846E0,5.623815656E-1
1.144510570E1,-6.702814102E-1,-7.461615801E-1,9.559944868E-1
1.146556492E1,5.118093491E-1,-1.385576725E-1,1.798669815E0
1.148602409E1,1.299232483E0,-3.085602522E-1,-5.641546249E-1
1.150648331E1,-7.883739471E-1,1.215609312E0,-2.443585396E0
1.152694253E1,-4.296102524E-1,5.842447281E-4,-8.271016479E-1
1.154740169E1,-1.725727081E0,3.480190039E-2,-7.191448212E-1
1.156786091E1,-1.343904495E0,-2.976336181E-1,3.117847204E0
1.158832008E1,8.468961716E-1,-1.493059635E0,1.218873858E0
1.160877930E1,-1.344323158E0,-2.467772961E-1,-1.250536799E0
1.162923852E1,-1.238322258E0,-2.381783128E-1,2.874538898E-1
1.164969768E1,-8.984470367E-1,-1.997876167E-1,-5.977686644E-1
1.167015690E1,1.095790863E0,1.013121605E-1,-8.037298918E-1
1.169061612E1,1.605427742E0,-4.928721189E-1,1.412317276E0
1.171107534E1,-1.669641495E0,-5.994319916E-1,1.615169048E0
1.173153451E1,-3.416824341E-2,-2.064444065E0,1.669517636E0
1.175199372E1,-4.072875977E-1,-1.707298160E0,1.205871701E-1
1.177245294E1,1.074608803E0,-3.339904547E-1,-5.107661486E-1
1.179291211E1,4.415035248E-2,-4.861116409E-3,8.363448381E-1
1.181337133E1,7.592811584E-1,6.500903368E-1,-2.241084337E0
1.183383055E1,8.401470184E-1,-5.180968046E-1,2.607383132E-1
1.185428977E1,3.603210449E-1,-1.044793129E-1,-1.344859362E0
1.187474893E1,1.589660645E-1,3.423491716E-1,-5.446861982E-1
1.189520815E1,4.567480087E-1,1.168630123E-1,-3.248205185E-1
1.191566737E1,8.386735916E-1,-1.762617826E-1,-8.285218477E-2
1.193612659E1,7.754106522E-1,-1.470818758E0,5.342229009E-1
1.195658581E1,1.833369255E0,-1.906621695E0,2.377282143E0
1.197704498E1,1.843277931E0,-1.460469246E0,6.262397766E-1
1.199750419E1,2.695593834E0,-1.005938053E0,-9.068560600E-2
1.201796341E1,2.299016953E0,-2.594810247E0,1.833175421E0
1.203842263E1,2.970129013E0,1.837015152E-3,1.950740814E0
1.205888185E1,2.867221832E0,4.316163063E-1,2.522207499E0
1.207934107E1,1.960938454E0,6.927695274E-1,1.601168871E0
1.209980029E1,8.070030212E-1,1.035137177E0,5.615816116E-1
1.212025951E1,5.855855942E-1,9.314823151E-1,-9.910750389E-1
1.214071873E1,-5.691194534E-1,-1.224575043E-1,-2.096801758E0
1.216117789E1,-1.886954784E0,-6.048126221E-1,-3.128177166E0
1.218163711E1,-2.619371891E0,-3.381962776E-1,-2.793621063E0
1.220209633E1,-1.735416532E0,-2.788057327E-1,-3.157915115E0
1.222255555E1,-1.373430729E0,1.691761017E-1,-4.220307827E0
1.224301477E1,-1.378581762E0,1.514239311E-1,-3.711733818E0
1.226347399E1,-8.620977998E-1,6.686217785E-1,-1.482192993E0
1.228393320E1,5.890536308E-2,3.206963539E0,-1.106317520E0
1.230439242E1,-2.242249727E0,1.627463341E0,-2.128164291E0
1.232485164E1,-1.604254007E0,1.393965483E0,3.733873367E-1
1.234531086E1,1.330662489E0,2.181384087E0,-1.348314285E0
1.236577008E1,3.201254845E0,2.131934643E0,-4.738759995E-1
1.238622930E1,-7.690939903E-1,1.217943192E0,-9.289865494E-1
1.240668852E1,-3.679466963E0,1.151361585E0,1.519963264E0
1.242714768E1,9.090445042E-1,1.334188461E0,-4.545021057E-1
1.244760695E1,-1.378688812E-1,1.086814523E0,-3.751773834E-1
1.246806612E1,-2.539665699E-1,1.011883616E0,-8.808403015E-1
1.248852534E1,6.245796680E-1,7.425602674E-1,-1.492177963E0
1.250898456E1,8.987493515E-1,1.339764237E0,-1.118444443E0
1.252944383E1,-8.085765839E-1,4.125027657E-1,-2.524604797E-1
1.254990305E1,-4.632019997E-1,6.298589706E-1,-1.019481659E0
1.257036227E1,-5.049932003E-1,2.354176044E-1,-1.683607578E0
1.259082149E1,4.491667747E-1,8.245015144E-1,-1.033346176E0
1.261128070E1,1.397881269E0,9.595966339E-2,6.861114502E-2
1.263173992E1,2.043724298E0,-7.302653790E-2,7.359952927E-1
1.265219914E1,1.680866957E0,-1.391179919E0,-7.564392090E-1
1.267265836E1,2.251766682E0,-1.806009054E0,-1.911697388E-1
1.269311758E1,1.595872164E0,-1.020788193E0,-3.739318848E-1
1.271357685E1,-7.883107662E-1,-2.058711767E0,1.156837463E0
1.273403607E1,-5.603445768E-1,-2.273669481E0,5.667400360E-2
1.275449529E1,3.199987411E-1,-2.270948648E0,-1.657199860E-2
1.277495451E1,7.241587639E-1,-2.292152643E0,-4.457445145E-1
1.279541373E1,5.117504597E-1,-1.931248426E0,6.843280792E-1
1.281587294E1,3.729665279E-1,-1.981820345E0,4.250290871E0
1.283633222E1,3.322260618E0,-1.614496946E0,3.046927452E0
1.285679143E1,-1.638304114E0,-1.351983428E0,-1.764689445E0
1.287725065E1,-1.163656354E0,1.806201577E0,3.924846649E-2
1.289770987E1,-6.565718055E-1,2.214576483E0,9.389362335E-1
1.291816914E1,3.942255974E-1,9.757169485E-1,-8.015108109E-1
1.293862836E1,-1.157454133E0,8.405871391E-1,1.672991753E0
1.295908758E1,1.142905116E0,-1.383866191E0,3.488183022E0
1.297954680E1,-1.793404818E0,-1.997506738E0,-1.711118221E0
1.300000607E1,-1.372864485E0,1.409446359E0,-7.982177734E-1
1.302046529E1,-1.749968529E-2,2.708460093E-1,9.632587433E-1
1.304092451E1,8.525724411E-1,-5.751028061E-1,1.049911499E0
1.306138378E1,5.392279625E-1,-9.717560410E-1,-1.024714470E0
1.308184300E1,-5.827283859E-1,-7.698398829E-1,-1.633090019E0
1.310230222E1,9.239149094E-1,-1.477295876E0,-2.000355721E0
1.312276149E1,1.446592808E-1,-1.537333012E0,1.477777481E0
1.314322070E1,1.529277802E0,-1.296574831E0,8.043289185E-3
1.316367992E1,1.324901819E0,1.471483707E-1,1.683635712E-1
1.318413919E1,-8.827888966E-1,-6.493386030E-1,-1.514197826E0
1.320459841E1,-1.760464549E0,8.737504482E-2,-1.613056183E0
1.322505768E1,2.844950438E0,3.785494566E-1,3.199258804E0
1.324551690E1,1.008156061E0,3.626060486E-1,6.478586197E-1
1.326597617E1,1.377707243E0,-1.510930061E-2,-5.932474136E-1
1.328643539E1,-1.831499577E0,2.236355782E0,-2.483125687E0
1.330689461E1,3.109831810E-1,1.755604506E0,1.296199799E0
1.332735388E1,-3.492882252E-1,8.092896938E-1,1.268204689E0
1.334781310E1,5.841925144E-1,1.338406086E0,1.133187294E0
1.336827237E1,-8.014938831E-1,1.978133798E0,2.828817368E-1
1.338873159E1,-4.191541672E-1,1.699500918E0,-1.759980202E0
1.340919086E1,-7.778532505E-1,1.258522153E0,2.156780243E0
1.342965008E1,1.771676779E0,-8.277927637E-1,-7.018222809E-1
1.345010935E1,-3.163060665E0,4.112577438E-1,-2.464614868E0
1.347056857E1,1.504548550E0,1.707732677E-2,8.172931671E-1
1.349102779E1,1.177583218E0,-1.206701756E0,1.217963219E0
1.351148706E1,1.150845528E0,-1.541112542E0,-2.848863602E-1
1.353194633E1,5.756769180E-1,-7.411835194E-1,-2.688961506E0
1.355240555E1,1.552007198E0,-5.425586104E-1,6.866340637E-1
1.357286482E1,-1.621575356E-1,1.850962639E-2,-1.255515099E0
1.359332404E1,3.838584423E-1,5.179874897E-1,6.502437592E-1
1.361378331E1,1.000690460E-2,6.222226620E-1,1.429338455E-1
1.363424253E1,-9.144083261E-1,1.084697247E-2,-1.434658051E0
1.365470180E1,1.166276455E0,-6.181828976E-1,7.255096436E-1
1.367516107E1,4.888358116E-1,1.176584959E-1,1.075239182E-1
1.369562029E1,-6.417324543E-1,-3.733881116E-1,8.692054749E-1
1.371607956E1,-2.772588730E-1,-5.429465771E-1,-1.107460022E0
1.373653883E1,-9.214234352E-1,-1.743106842E-1,2.064723969E0
1.375699805E1,-1.597625494E0,8.011442423E-1,1.207243919E0
1.377745732E1,-6.668629646E-1,-3.877925277E-1,1.258968353E0
1.379791654E1,-1.702352762E0,1.311548114E0,-1.617233276E0
1.381837581E1,-1.831736326E0,9.971952438E-2,1.599258423E0
1.383883508E1,-1.527520418E0,1.849677563E-1,1.750326157E-1
1.385929430E1,-8.321315050E-1,1.034653187E-1,-3.169739723E0
1.387975357E1,-1.605896235E0,-5.918347836E-2,7.285213470E-1
1.390021284E1,-3.649520874E-1,-1.094861746E0,2.898667336E0
1.392067206E1,-3.186862469E-1,-7.967809439E-1,-2.021145344E0
1.394113133E1,1.026382208E0,-5.382561684E-2,2.633496284E0
1.396159060E1,-5.998883247E-1,-8.195451498E-1,6.247882843E-1
1.398204982E1,-8.244228363E-1,-1.137886286E0,-1.531362057E0
1.400250909E1,-8.030753136E-1,5.578784943E-1,2.983484268E-1
1.402296836E1,-7.787737846E-1,-1.797080636E0,1.761808395E-1
1.404342763E1,3.673577309E-2,-1.653824449E0,2.957248688E-2
1.406388685E1,9.421181679E-1,-2.122106552E0,4.423141479E-3
1.408434612E1,8.597869873E-1,-1.595246911E0,-1.450395584E-1
1.410480539E1,-1.351429462E0,-1.570621371E0,4.797382355E-1
1.412526461E1,-1.592545509E-1,8.583831787E-2,-1.343790531E0
1.414572388E1,1.091107845E0,1.441949606E-1,5.771466255E0
1.416618315E1,-1.388208866E0,7.732044458E-1,-3.703877449E0
1.418664242E1,3.196880341E0,1.899824142E-1,1.334815025E0
1.420710164E1,6.718850136E-2,1.443076611E0,-1.688746452E0
1.422756091E1,-1.308882236E0,-4.709410667E-2,-1.437966347E0
1.424802018E1,1.715211868E-1,1.914974451E-1,1.375455856E-1
1.426847945E1,-9.578864574E-1,-2.209275961E-1,-2.229998589E0
1.428893873E1,-1.270395994E0,-2.168003321E-1,-5.277767181E-1
1.430939794E1,1.557048559E0,-2.330838203E0,5.140927315E0
1.432985722E1,-5.986526012E-1,-2.159913778E0,-1.099299431E0
1.435031649E1,-2.803116798E0,-1.072668314E0,-3.653735161E0
1.437077576E1,1.306131363E0,-2.818359137E-1,4.039575577E0
1.439123503E1,-7.618794441E-1,8.121379614E-1,3.203010559E-1
1.441169430E1,-3.478765488E-3,5.971688032E-1,6.979675293E-1
1.443215352E1,2.762715816E-1,7.473887205E-1,1.547942162E0
1.445261279E1,-2.335722923E0,1.684387803E0,-9.178256989E-1
1.447307206E1,-5.517311096E-1,1.964078307E0,-4.206666946E-1
1.449353133E1,-5.922126770E-1,1.779857635E0,1.944837570E0
1.451399060E1,5.070757866E-1,4.745733738E-1,2.949170113E0
1.453444987E1,-1.414591193E0,1.207970142E0,-2.047586441E-1
1.455490914E1,-7.196848392E-1,1.731803179E0,-6.010437012E-2
1.457536841E1,-1.653925419E0,8.181786537E-1,-1.823148251E0
1.459582763E1,-7.126092911E-3,2.337157726E-1,1.890978813E0
1.461628690E1,-1.356412172E0,-1.089367747E0,1.164305687E0
1.463674617E1,-2.864039421E0,-1.568322182E-1,-2.263813019E0
1.465720544E1,-1.617534637E0,1.097994566E0,1.208429337E-1
1.467766472E1,4.837767601E0,-2.026996613E0,3.355922699E0
1.469812399E1,-1.172643661E0,-1.672382116E0,-3.560918808E0
1.471858326E1,1.232486248E0,-4.659208059E-1,-5.010719299E-1
1.473904253E1,4.231207371E-1,-5.933260918E-1,8.195161819E-1
1.475950180E1,-6.899251938E-1,-8.994700909E-1,-2.890154839E0
1.477996107E1,1.439505816E0,-9.061006308E-1,3.148434639E0
1.480042034E1,-9.387822151E-1,-1.089809656E0,-2.174455643E0
1.482087961E1,-1.035351753E0,-6.920760870E-1,-1.439743042E0
1.484133888E1,4.192314148E-1,-7.779587507E-1,1.527317047E0
1.486179815E1,1.202779531E0,-5.638182163E-1,3.407136917E0
1.488225742E1,-1.883228898E0,4.243937731E-1,-3.334379196E0
1.490271669E1,-9.748392105E-1,-6.273719072E-1,7.494468689E-1
1.492317596E1,-8.844101429E-1,-2.436757088E-2,2.054910660E-1
1.494363524E1,-8.253729343E-1,1.774581671E-1,-3.812189102E-1
1.496409451E1,-6.095798016E-1,2.858670950E-1,2.740039825E-1
1.498455378E1,1.278871059E0,-1.641656160E-1,2.045377731E0
1.500501305E1,-2.055873871E0,-7.490156293E-1,-3.145407677E0
1.502547232E1,2.873654366E-1,-2.352822781E0,-1.810815811E0
1.504593159E1,-7.787034512E-1,-9.539875984E-1,-1.587307930E0
1.506639086E1,1.414862871E0,-1.625452399E0,-5.168132782E-1
1.508685013E1,3.011662722E0,-2.288576603E0,6.180830002E-1
1.510730940E1,-1.100683928E0,-1.089344740E0,-4.660140038E0
1.512776873E1,1.699234962E0,-1.807892203E0,3.241724968E0
1.514822800E1,2.543980837E0,-1.766130567E0,-9.563512802E-1
1.516868727E1,2.634902000E-1,-1.408278465E0,6.405982971E-1
1.518914654E1,1.813168526E-1,-7.150745392E-1,7.870359421E-1
1.520960581E1,-5.652265549E-1,5.526989698E-2,-2.211510658E0
1.523006508E1,1.087236404E0,6.893833280E-1,1.787774086E0
1.525052435E1,-8.358448744E-1,1.615132689E0,-1.016463280E0
1.527098362E1,1.854506493E0,7.769711614E-1,2.137606621E0
1.529144289E1,-8.862847090E-1,1.809423208E0,4.430046082E-1
1.531190216E1,-7.441058159E-1,1.042271852E0,-7.404518127E-1
1.533236149E1,-1.321097612E0,1.570869684E0,3.892650604E-1
1.535282076E1,-5.746864080E-1,1.356578231E0,-1.274127960E-1
1.537328003E1,9.380348921E-1,6.042035222E-1,4.912881851E-1
1.539373930E1,2.234940529E-1,4.862692952E-1,-1.060109138E0
1.541419857E1,-6.963132620E-1,1.161841512E0,-1.699080467E0
1.543465784E1,2.737809420E-1,8.805890679E-1,4.085444450E0
1.545511716E1,6.893889904E-1,1.033980250E-1,3.120803833E-1
1.547557643E1,-2.017378807E-2,-4.257565737E-1,2.270278931E-1
1.549603570E1,7.110805511E-1,-2.754039168E-1,-8.642654419E-1
1.551649498E1,1.867602825E0,2.947515249E-2,3.518487930E0
1.553695425E1,1.961378574E0,-8.280567527E-1,2.872963905E0
1.555741352E1,-2.364819765E0,6.255850196E-1,-4.275292397E0
1.557787284E1,8.024318218E-1,-7.054036856E-2,2.832761765E0
1.559833211E1,6.554174423E-1,3.070729375E-1,1.177390099E0
1.561879138E1,-1.760874867E0,7.841893435E-1,-2.108357906E0
1.563925065E1,1.356202841E0,8.645625710E-1,1.460282326E0
1.565970992E1,8.231241703E-1,-1.456716657E-1,2.218971252E-1
1.568016925E1,1.497066021E-1,5.822777748E-2,-1.277135849E0
1.570062852E1,7.839970589E-1,2.774214745E-2,-1.755470276E0
1.572108779E1,-1.174037576E0,1.667523265E0,-1.116676331E0
1.574154706E1,-3.126587868E-1,5.067127943E-1,9.691781998E-1
1.576200633E1,9.184188843E-1,4.954603910E-1,1.043785095E0
1.578246565E1,2.369081020E0,8.253424168E-1,4.412088394E-1
1.580292492E1,-9.638588428E-1,9.289988279E-1,-4.868869781E0
1.582338419E1,1.472273827E0,-2.363415360E-1,1.026667595E0
1.584384346E1,6.425244808E-1,2.645618916E-1,2.794189453E-1
1.586430279E1,1.454730272E0,-6.303725243E-1,3.159806252E0
1.588476206E1,-2.493141174E0,7.028479576E-1,-4.734479427E0
1.590522133E1,6.572618484E-1,-4.206041098E-1,-6.519603729E-2
1.592568060E1,-8.228604794E-1,1.268952131E0,-5.663003922E-1
1.594613992E1,1.775712729E0,-5.303013325E-1,3.580265999E0
1.596659919E1,-3.080337048E0,1.237771988E0,-7.349661827E0
1.598705846E1,-6.849653721E-1,7.383859158E-1,7.269878387E-1
1.600751774E1,9.406461716E-1,7.908940315E-1,5.430316925E0
1.602797701E1,-4.741911888E-1,-8.407234550E-1,-1.761290550E0
1.604843633E1,-1.497100949E0,4.819799662E-1,-4.280968666E0
1.606889560E1,2.309381008E0,-1.205936670E0,4.535966873E0
1.608935487E1,-1.091592550E0,-7.325895429E-1,-1.396287441E0
1.610981414E1,3.360621929E-1,1.176653385E0,5.703563690E-1
1.613027347E1,-9.309153557E-1,8.906348944E-1,-9.532461166E-1
1.615073274E1,-2.572768450E0,5.472030640E-1,-1.839344025E0
1.617119201E1,9.909305573E-1,-9.243583679E-1,2.211447716E0
1.619165128E1,2.155002117E0,6.719921827E-1,-5.010528564E-1
1.621211060E1,9.076960087E-1,5.375595093E-1,-5.666646957E-1
1.623256987E1,-5.706608295E-1,-3.963136673E-2,6.761360168E-2
1.625302914E1,-1.041525364E0,-6.184039116E-1,3.082979202E0
1.627348841E1,-1.465173602E0,-2.637621164E-1,6.245336533E-1
1.629394774E1,-2.923346758E0,1.059758902E0,1.727087975E0
1.631440701E1,-3.504236698E0,8.065143824E-1,1.272051811E0
1.633486628E1,-3.591459513E0,-1.166050673E0,-1.485184193E0
1.635532555E1,-2.272477388E0,-6.208302975E-1,-1.347812653E0
1.637578487E1,9.219677448E-1,-1.536909342E-1,7.290887833E-1
1.639624414E1,1.309837580E0,-1.198074102E0,-7.615776062E-1
1.641670341E1,-1.029641628E-1,-7.522643805E-1,-2.745073318E0
1.643716268E1,1.745318651E0,2.067446709E-2,1.055145264E0
1.645762201E1,4.600758553E-1,-1.407933235E-1,-1.603264332E0
1.647808128E1,5.750770569E-1,-5.498055220E-1,3.553615570E0
1.649854055E1,-1.716425657E0,-4.383568764E-1,-1.915654182E0
1.651899987E1,-1.286349297E0,2.650743723E-1,1.570837975E0
1.653945914E1,-1.055730104E0,2.920300961E-1,7.421512604E-1
1.655991841E1,-1.241818786E0,-6.794238091E-2,5.599422455E-1
1.658037768E1,1.774644852E-2,6.116276979E-1,-8.508157730E-1
1.660083701E1,2.511019707E-1,1.348961830E0,1.177441597E0
1.662129628E1,1.246369362E0,-9.661648273E-1,1.640232086E0
1.664175555E1,-1.549446583E-1,-1.514979362E0,-1.549679279E0
1.666221482E1,7.916145325E-1,-2.112453222E0,-1.504699707E0
1.668267414E1,1.804449558E-1,-7.876408100E-1,5.706453323E-1
1.670313341E1,5.619614124E-1,-1.708675385E0,1.016128540E0
1.672359268E1,1.364295721E0,-3.385949135E-2,9.077253342E-1
1.674405201E1,1.149124861E0,-7.334389687E-1,-8.847894669E-1
1.676451128E1,-4.377396107E-1,1.171892881E-1,-2.493553162E0
1.678497055E1,8.370103836E-1,-2.184497356E0,2.404593468E0
1.680542982E1,-2.138602734E-1,-6.565066576E-1,-3.166070938E0
1.682588914E1,-4.930307865E-1,-1.142283440E0,-2.049045563E-1
1.684634841E1,-6.293048859E-1,-3.294786215E-1,7.803916931E-1
1.686680768E1,2.165772915E-1,-9.556108117E-1,4.087956429E0
1.688726701E1,3.321678638E-1,2.975804806E-1,-4.355440140E-1
1.690772628E1,-1.158191204E0,1.033527732E0,-1.699608803E0
1.692818555E1,1.709932566E0,1.747050762E0,3.306688309E0
1.694864487E1,-3.987987041E-1,1.750379324E0,-5.946636200E-2
1.696910414E1,-6.484599113E-1,2.361078501E0,-2.008402348E0
1.698956341E1,5.134824276E0,1.244690895E0,7.100887299E0
1.701002274E1,-3.608980656E0,1.245891333E0,-7.205353737E0
1.703048201E1,7.407655716E-1,1.291211724E0,-2.721652985E-1
1.705094128E1,-6.983530521E-1,3.528271914E-1,-8.487186432E-1
1.707140055E1,-4.644250870E-1,2.381976843E-1,1.404438972E0
1.709185987E1,-2.196456671E0,8.665109873E-1,-1.120537758E0
1.711231914E1,-5.877726078E-1,-1.399872303E-1,1.924416542E0
1.713277841E1,-9.779846668E-1,-4.661723375E-1,6.715993881E-1
1.715323774E1,-1.416538477E0,1.296775341E-1,-1.169630051E0
1.717369701E1,6.464982033E-1,2.336025238E-2,9.930133820E-2
1.719415628E1,7.014307976E-1,5.535709858E-1,3.344827652E0
1.721461560E1,2.517461777E-2,2.074539661E-1,-9.642791748E-1
1.723507487E1,5.156111717E-1,2.207436562E-1,-2.466659546E-1
1.725553414E1,-7.741105556E-1,-7.841690779E-1,6.872978210E-1
1.727599341E1,-8.393034935E-1,-1.452980280E0,-9.859933853E-1
1.729645274E1,2.087686062E-1,-5.616198778E-1,-1.023772240E0
1.731691201E1,5.893640518E-1,-7.002483606E-1,3.909098625E0
1.733737133E1,-1.261505127E0,8.338239193E-1,-3.921459198E0
1.735783060E1,-5.146391392E-1,3.754887581E-1,8.366098404E-1
1.737828987E1,3.539822340E0,-3.230879307E-1,-4.744310379E-1
1.739874914E1,-5.992665291E-1,4.686859846E-1,-3.748254776E-1
1.741920846E1,-3.646370173E0,-1.579540372E0,-4.406699181E0
1.743966774E1,-2.077534199E0,-2.381932735E-2,1.051166534E0
1.746012701E1,3.330780029E0,-1.488860846E0,3.504953384E-1
1.748058633E1,1.032966852E0,1.296421766E0,1.950706482E0
1.750104560E1,3.313097954E-1,-2.331455708E0,-3.051557541E0
1.752150487E1,1.565177917E0,1.259243250E0,3.334940910E0
1.754196419E1,-8.836557865E-1,-2.764073610E-1,-4.062923908E0
1.756242347E1,4.709112644E-1,-1.202399850E0,5.534543991E0
1.758288274E1,-1.340823650E0,-1.463247776E0,-1.171305656E0
1.760334206E1,-1.068678617E0,1.788676977E-1,-2.005002499E0
1.762380133E1,5.496675968E-1,8.420479298E-2,1.213625908E0
1.764426065E1,8.604552746E-1,-4.703043699E-1,8.581352234E-1
1.766471992E1,2.816810608E-1,-4.189811945E-1,-2.951683521E0
1.768517919E1,-2.554085255E-1,-9.425508976E-2,-3.611404896E0
1.770563852E1,-2.134752274E-1,9.008756876E-1,1.478592873E0
1.772609779E1,-8.448380232E-1,-2.937598825E-1,-1.584538460E0
1.774655706E1,-7.926225662E-2,3.333388567E-1,-1.845815182E0
1.776701638E1,1.555828810E0,-2.627944946E-2,-1.359580040E0
1.778747565E1,-4.963304996E-1,1.090023875E0,-1.410848618E0
1.780793498E1,9.443614483E-1,6.197569370E-1,-3.758583069E-1
1.782839425E1,9.053826332E-1,8.445286751E-2,2.818200111E0
1.784885352E1,-7.099889517E-1,-6.611870527E-1,-3.904871941E0
1.786931284E1,1.292372704E0,-3.878537416E-1,1.028672218E0
1.788977211E1,9.187583923E-1,-4.631673098E-1,2.927141190E-1
1.791023138E1,-5.067999363E-1,7.920241356E-2,1.841918945E0
1.793069070E1,-8.431836367E-1,3.299801350E-1,-1.637641430E0
1.795114998E1,3.003480434E-1,2.156774998E-1,3.512983322E-1
1.797160930E1,1.511568546E0,9.558138847E-1,4.585947990E0
1.799206857E1,-3.153822422E-1,1.093137264E-2,-9.726305008E-1
1.801252784E1,-1.160864353E0,8.931330442E-1,-2.042422295E0
1.803298716E1,2.360843182E0,-3.252151012E-1,3.245616913E0
1.805344643E1,-4.910707474E-2,5.329741240E-1,-9.138259888E-1
1.807390576E1,-3.165667057E-1,-4.448236227E-1,1.900997162E-1
1.809436503E1,1.418500423E0,2.948869467E-1,-8.747434616E-1
1.811482430E1,-2.065060139E-1,1.095195293E0,-1.873769283E0
1.813528362E1,1.031502485E0,1.695493698E0,-2.696681023E0
1.815574289E1,2.599384308E0,1.355085492E0,8.060855865E-1
1.817620216E1,1.255978107E0,8.474059105E-1,-2.424963951E0
1.819666149E1,-1.488032103E0,1.442174196E0,-1.299846649E0
1.821712076E1,1.421456575E0,6.126712561E-1,-4.653062820E-1
1.823758008E1,7.898762226E-1,1.283554673E0,1.536235809E0
1.825803935E1,-5.012743473E-1,8.198078871E-1,-1.748343468E0
1.827849862E1,6.988980770E-1,1.428071380E0,1.292001724E0
1.829895794E1,-1.776909471E0,1.264574885E0,-2.132959366E-1
1.831941722E1,6.979217529E-1,9.802176952E-1,4.244743347E0
1.833987649E1,-6.843171120E-1,9.379768372E-1,-1.984282017E0
1.836033581E1,-1.073999166E0,-3.463124037E-1,-2.141456604E-1
1.838079508E1,-6.651234627E-2,1.050551414E0,2.060384750E0
1.840125440E1,8.519415855E-1,-5.428413749E-1,2.845731735E0
1.842171367E1,1.572718620E-1,-6.851494312E-1,-9.257059097E-1
1.844217294E1,2.468994379E0,-1.544030309E0,2.628327370E0
1.846263227E1,-1.814837456E-1,-9.453903437E-1,-3.403822899E0
1.848309154E1,-5.233428478E-1,-8.222925663E-1,-9.550523758E-1
1.850355081E1,3.774962425E-1,1.243862152E0,1.981387138E0
1.852401013E1,-6.148753166E-1,9.068830013E-1,-3.325910568E-1
1.854446940E1,-2.699916124E0,6.462657452E-1,4.535779953E-1
1.856492872E1,-1.008710146E0,-1.183089018E-1,-4.774761200E-1
1.858538800E1,-1.983162165E0,1.261852741E0,-1.264977455E0
1.860584727E1,-1.925972939E0,-7.511337399E-1,-2.931597710E0
1.862630659E1,-5.947139263E-1,3.824236393E-1,4.322922707E0
1.864676586E1,-2.994928122E0,9.812664986E-2,-5.802794933E0
1.866722518E1,-1.155948639E-2,-2.903345823E-1,4.595536232E0
1.868768445E1,-3.009600639E-1,-4.492609501E-1,-2.937455654E0
1.870814373E1,-9.083700180E-2,-7.019137144E-1,2.504252434E0
1.872860305E1,-1.284178257E0,-1.300129890E-1,-2.542404175E0
1.874906232E1,4.281568527E-1,-1.528992295E0,1.525269508E0
1.876952164E1,2.816434383E0,-2.127270699E0,3.222714424E0
1.878998091E1,-4.892137051E-1,-1.489501595E0,-1.970448971E0
1.881044018E1,-1.761395216E0,-4.007005692E-2,-1.569745541E0
1.883089951E1,-7.473778725E-2,-9.523255825E-1,-5.350093842E-1
1.885135878E1,-1.597712159E0,6.856794357E-1,1.933561325E0
1.887181805E1,9.499192238E-2,9.688856602E-1,-5.247936249E-1
1.889227737E1,-1.736468792E0,1.457018018E0,-2.516117096E-1
1.891273664E1,2.164671183E0,-1.130940557E0,2.523965836E0
1.893319591E1,-6.582527161E-1,-2.610800266E-1,-3.440491676E0
1.895365524E1,-4.498097897E-1,4.798696041E-1,-2.592323780E0
1.897411451E1,1.128848314E0,5.409410000E-1,9.058513641E-1
1.899457378E1,5.565404892E-2,-1.236654043E0,1.684398651E-1
1.901503310E1,-3.635451794E-1,5.635130405E-2,-5.364542961E0
1.903549237E1,1.692171812E0,-2.298336029E-1,2.938453674E0
1.905595169E1,1.979744911E0,-1.934057951E0,-1.277915478E0
1.907641096E1,1.798802614E0,-8.203259110E-1,7.147579193E-1
1.909687024E1,1.166920662E0,-7.888106108E-1,8.834753036E-1
1.911732956E1,6.582801342E-1,-1.093318701E0,-3.085282326E0
1.913778883E1,-3.139467239E-1,-2.924637794E-1,-5.995531082E-1
1.915824810E1,-6.322908401E-2,2.263703346E-1,-7.224483490E-1
1.917870742E1,-8.982799053E-1,2.993228436E-1,7.288942337E-1
1.919916669E1,-8.204474449E-1,8.171135187E-1,1.528745651E0
1.921962597E1,-2.268178463E0,2.256180525E0,1.455162048E0
1.924008529E1,-1.265485525E0,1.782806039E0,1.382116318E0
1.926054456E1,-8.722047806E-1,1.210017681E0,-8.356304169E-1
1.928100383E1,1.060492992E0,5.944905281E-1,-5.351619720E-1
1.930146315E1,-6.958889961E-2,4.284789562E-1,-9.196548462E-1
1.932192242E1,-9.925985336E-1,1.854368567E0,-3.126277924E-1
1.934238175E1,-4.985117912E-2,2.139835835E0,1.328567505E0
1.936284102E1,5.226213932E-1,6.487658024E-1,1.987895012E0
1.938330029E1,-1.358793497E0,2.590070963E-1,-8.365516663E-1
1.940375961E1,-5.460362434E-1,1.032967567E0,6.988725662E-1
1.942421888E1,-2.313413620E-1,2.893645763E-1,9.049415588E-2
1.944467815E1,-3.497886658E-1,-1.850633621E-1,-6.003150940E-1
1.946513748E1,-2.028841972E-1,-6.887524128E-1,-4.270811081E-1
1.948559675E1,-4.900741577E-1,-6.956292391E-1,-1.992664337E-1
1.950605602E1,-1.793801785E-1,-4.805822372E-1,-8.928241730E-1
1.952651534E1,1.867249012E-1,-9.318392873E-1,-1.641225815E0
1.954697461E1,-5.806446075E-3,-5.020686388E-1,-9.797477722E-1
1.956743388E1,8.358716965E-1,-5.079960823E-1,-4.241561890E-2
1.958789320E1,1.065670490E0,-1.860833883E0,2.497768402E-1
1.960835248E1,-5.381813049E-1,-1.182044029E0,-1.122653961E0
1.962881175E1,1.587361336E0,-1.616614103E0,1.709507942E0
1.964927107E1,-1.936814785E0,-6.364279985E-1,-2.693986416E0
1.966973034E1,1.954648018E0,-1.029338598E0,2.939800262E0
1.969018961E1,-8.934688568E-1,1.391355753E0,1.145458221E-2
1.971064893E1,3.322916031E-1,-3.628958464E-1,4.494485855E-1
1.973110820E1,-8.478453159E-1,8.385956287E-1,-8.789443970E-2
1.975156748E1,3.102472782E0,-1.308697343E0,2.075387001E0
1.977202680E1,-1.014567137E0,-2.628854513E-1,-1.276980877E0
1.979248607E1,1.271748543E-1,-1.358402491E0,-4.185342789E-1
1.981294534E1,-1.810791373E0,4.235988855E-1,-9.463949203E-1
1.983340466E1,-2.512235641E-1,-6.366355419E-1,1.639652252E-1
1.985386393E1,5.966832638E-1,-5.347452164E-1,7.052993774E-1
1.987432320E1,-4.055674076E-1,1.218997240E-1,9.035902023E-1
1.989478253E1,-2.064237595E-1,-6.398346424E-1,-9.808044434E-1
1.991524180E1,-4.197268486E-1,-1.567376256E0,-1.625266075E0
1.993570107E1,6.763188839E-1,-7.738720179E-1,2.966451645E-1
1.995616039E1,2.938812971E0,-1.842689514E0,2.079344749E0
1.997661966E1,-6.043565273E-1,1.201423407E0,-1.192715168E0
1.999707893E1,-5.894727707E-1,7.093688250E-1,-1.650299072E0
2.001753826E1,5.019649506E0,-2.088111877E0,2.858366013E0
2.003799753E1,-4.701003075E0,2.368678331E0,-5.043730736E0
2.005845680E1,-2.137637138E-2,6.968584061E-1,2.101716995E0
2.007891607E1,1.044125557E-1,-4.054857492E-1,-4.654607773E-1
2.009937539E1,3.686139584E-1,5.887352228E-1,1.833950996E0
2.011983466E1,-6.403822899E-1,-5.081421733E-1,-2.850754738E0
2.014029393E1,-1.430603981E0,-1.948434114E0,1.813588142E0
2.016075326E1,1.543727636E0,-1.034172297E0,8.312158585E-1
2.018121253E1,-7.061343193E-1,6.590075493E-1,-1.458914757E0
2.020167180E1,-5.268609524E-1,3.975465298E-1,-1.494687080E0
2.022213112E1,7.667403221E-1,5.536767244E-1,3.422652245E0
2.024259039E1,-1.990368485E0,-3.370818496E-1,-1.353584290E0
2.026304966E1,2.086782455E-1,1.448911428E-1,1.207354546E0
2.028350893E1,9.846475124E-1,-4.535838962E-1,3.128048897E0
2.030396826E1,-3.848077059E0,2.183236599E0,-6.501374722E0
2.032442753E1,-1.360269547E0,2.884694099E0,-2.759265900E-2
2.034488680E1,4.462370872E0,-9.416838884E-1,1.303173542E1
2.036534612E1,-5.073620319E0,2.253005266E0,-5.606247902E0
2.038580539E1,-1.431362391E0,1.894198895E0,-4.881662369E0
2.040626466E1,2.097105980E0,3.427850723E0,8.826561928E0
2.042672393E1,1.158997059E0,-3.555504084E0,3.412301064E0
2.044718326E1,-6.946652412E0,2.186776638E0,-8.181314468E0
2.046764253E1,2.338382959E0,2.167793751E0,1.164019585E0
2.048810180E1,4.419612885E-1,-1.410974503E0,6.258887291E0
2.050856112E1,-2.867309570E0,-7.721524239E-1,-8.130240440E0
2.052902039E1,2.392453671E0,-1.637357473E-1,-3.515601158E0
2.054947966E1,-1.755805492E0,-7.968224883E-1,3.230142593E0
2.056993899E1,-3.015404224E0,-1.042199731E0,-8.024783134E0
2.059039826E1,1.168771267E0,-1.836823344E0,4.294281006E0
2.061085753E1,-3.482861996E0,2.224186659E-1,-5.841504097E0
2.063131685E1,4.839916229E-1,-5.786721706E-1,8.270616531E-1
2.065177612E1,1.359001160E0,-1.731587291E0,-8.033885956E-1
2.067223539E1,9.529018402E-1,-1.622527242E0,-3.092746735E0
2.069269466E1,2.461701393E0,8.286778927E-1,-5.744562149E-1
2.071315399E1,3.748957157E0,1.221285105E0,3.994812012E0
2.073361326E1,-1.479488611E0,-1.239404082E0,-3.884513855E0
2.075407253E1,-1.383674145E0,-1.155896544E0,-6.729879379E-1
2.077453185E1,3.219303131E0,2.297095776E0,9.243519783E0
2.079499112E1,-9.687116146E-1,-1.657929420E-1,3.323488235E-1
2.081545039E1,-3.107485294E0,-2.347813129E0,-2.722369671E0
2.083590972E1,-2.835674286E-1,2.089176655E0,7.396364212E-1
2.085636899E1,2.335725784E0,-1.355344534E0,4.217897415E0
2.087682826E1,-3.615436554E0,-8.368886113E-1,-6.016130447E0
2.089728758E1,4.606256485E-1,1.550154686E-1,1.527939796E0
2.091774685E1,-2.191830397E0,1.047580123E0,9.634037018E-1
2.093820612E1,1.957529640E1,-5.466111660E0,1.277601433E1
2.095866544E1,-7.007584572E0,2.318554401E0,-1.976900864E1
2.097912472E1,-4.201183319E0,1.956433177E0,-3.367351532E0
2.099958399E1,2.129934692E1,-7.864485741E0,2.912678719E1
2.102004331E1,-1.267437744E1,4.013186932E0,-3.380776978E1
2.104050258E1,-2.997641325E0,3.893310547E0,2.488740921E0
2.106096190E1,6.743607521E0,-3.996048927E0,1.275122356E1
2.108142117E1,-6.130383015E0,2.800512791E0,-1.022163868E1
2.110188044E1,1.607174873E-1,6.274179220E-1,-3.550415039E-1
2.112233977E1,4.394680977E0,-3.919109583E0,1.225759602E1
2.114279904E1,-5.868798256E0,2.256205082E0,-1.181249809E1
2.116325836E1,-7.923700809E-1,-1.726990938E0,8.553876877E-1
2.118371763E1,2.753900051E0,-1.528851032E0,4.034337997E0
2.120417690E1,-3.003515244E0,2.525578499E0,1.254172325E0
2.122463622E1,-6.169846058E-1,5.256626606E-1,-1.248978615E0
2.124509550E1,1.248579741E0,2.539317608E-1,2.123691559E0
2.126555482E1,-7.797119617E-1,5.260720253E-1,-1.774594784E0
2.128601409E1,4.185914993E-2,-2.492253780E0,-4.244509697E0
2.130647341E1,-2.489943504E0,4.462167740E0,2.418594360E-1
2.132693268E1,3.296290398E0,-3.753912449E-1,6.892967224E0
2.134739195E1,-7.193636894E-2,-5.806545734E0,-4.875668526E0
2.136785128E1,-2.153916359E-1,4.139542103E0,-1.962957382E-1
2.138831055E1,8.858976364E0,-2.965166807E0,1.156193638E1
2.140876987E1,-2.992824793E0,-2.365307808E0,-7.501230240E0
2.142922914E1,-1.053079367E0,2.930583954E-1,-3.304223061E0
2.144968846E1,3.974752665E0,-8.317921162E-1,5.098000526E0
2.147014774E1,-5.121748447E-1,-1.840279102E-1,-4.267473221E-1
2.149060706E1,-1.517236471E0,4.352658987E-1,-2.421824455E0
2.151106638E1,1.981882095E0,-1.398456097E0,1.920100212E0
2.153152565E1,5.031955242E-1,-7.801964283E-1,7.695207596E-1
2.155198498E1,-1.534469724E0,-5.288529396E-1,-2.464301109E0
2.157244425E1,-7.195861340E-1,-2.857049108E-1,1.532478333E-1
2.159290357E1,4.451935291E-1,1.041294575E0,1.123078346E0
2.161336284E1,9.765179157E-1,8.797775507E-1,1.447095871E0
2.163382216E1,-3.101420403E-1,1.638896465E0,-1.717751503E0
2.165428143E1,-2.509777546E-1,2.329174519E0,7.619342804E-1
2.167474076E1,2.661778450E0,1.013478041E-1,3.946478844E0
2.169520008E1,-6.668488979E-1,1.305433512E-1,-2.207177162E0
2.171565935E1,-8.983802795E-1,1.181919694E0,-9.686622620E-1
2.173611867E1,2.293760777E-1,9.474352598E-1,2.401761055E0
2.175657794E1,-7.183396816E-1,2.726215124E-1,4.203710556E-1
2.177703727E1,-2.357702255E-1,-3.036901951E-1,5.466480255E-1
2.179749659E1,-2.741868496E-1,-4.414061308E-1,-1.191177845E0
2.181795586E1,1.283594608E0,-8.541838527E-1,-3.628911972E-1
2.183841518E1,1.763105154E0,3.964257240E-2,5.663471222E-1
2.185887451E1,8.732194901E-1,-2.910436392E-1,-3.705190659E0
2.187933378E1,1.215235710E0,1.741015911E-1,-2.239183426E0
2.189979310E1,2.889618635E0,-9.762871265E-1,1.914471626E0
2.192025242E1,-5.649123192E-1,6.003745794E-1,-2.233906746E0
2.194071169E1,1.189105749E0,-7.439369559E-1,-1.473274231E-1
2.196117102E1,-3.365468979E-2,1.705894470E-1,-1.979620934E0
2.198163034E1,1.532674551E0,-1.433644295E-1,-1.048160553E0
2.200208961E1,1.229486704E0,3.550765514E-1,-1.181969643E0
2.202254893E1,7.558803558E-1,2.912805080E-1,-8.466920853E-1
2.204300826E1,-8.703997135E-1,1.566257477E0,-1.027949333E0
2.206346753E1,9.778590202E-1,-5.749254823E-1,2.111245155E0
2.208392685E1,1.631508589E0,-1.155119181E0,2.005679131E0
2.210438617E1,-7.517814636E-1,-6.343815327E-1,-2.885698795E0
2.212484550E1,-1.116925240E0,-8.568017483E-1,-6.152925491E-1
2.214530477E1,-3.404045105E-1,5.329782367E-1,-3.669643402E-2
2.216576409E1,2.522730827E-2,9.845999479E-1,1.481144905E0
2.218622341E1,-4.339947701E-1,1.550978422E0,-3.470697403E-1
2.220668268E1,-3.990375996E-1,1.383108377E0,7.685747147E-1
2.222714201E1,-9.838027954E-1,1.485043883E0,-2.656049728E-1
2.224760133E1,3.049349785E-2,5.220749974E-1,4.764299393E-1
2.226806065E1,4.890778065E-1,7.493464947E-1,1.826149940E0
2.228851992E1,-1.115865469E0,1.011561275E0,1.015174866E0
2.230897925E1,-5.359420776E-1,5.486186743E-1,2.206219673E0
2.232943857E1,-2.497797489E0,6.423561573E-1,-8.934736252E-1
2.234989789E1,-6.191725731E-1,-3.753689528E-1,1.045358658E0
2.237035716E1,-5.787689686E-1,4.569978714E-1,2.148365021E0
2.239081649E1,-2.829716206E-1,-9.815132618E-1,8.440265656E-1
2.241127581E1,-5.443191528E-1,-3.165856600E-1,-1.752121925E0
2.243173513E1,-1.650214195E-1,-5.935742855E-1,-9.344720840E-1
2.245219445E1,-2.092535496E-1,-7.819586396E-1,-3.575592041E-1
2.247265372E1,-2.251391411E-1,-1.168368816E0,7.025299072E-1
2.249311305E1,6.318259239E-2,-9.262617826E-1,-4.911127090E-1
2.251357237E1,9.715363979E-1,-1.477885246E0,-8.177490234E-1
2.253403169E1,1.164235353E0,-1.803278089E0,7.898149490E-1
2.255449102E1,7.367448807E-1,-8.073102236E-1,-1.224954128E0
2.257495029E1,-4.145267010E-1,3.865833282E-1,-2.780325890E0
2.259540961E1,-2.902135849E-1,-2.215750217E-1,-1.094500542E0
2.261586893E1,2.775623798E-1,-1.128894091E-2,1.081430435E0
2.263632826E1,-7.682991028E-1,4.160716534E-1,-2.097028732E0
2.265678758E1,1.230977774E0,1.591733694E-1,8.138828278E-1
2.267724690E1,-1.268209219E0,1.804893255E0,-9.310560226E-1
2.269770617E1,2.760335207E0,-1.341683984E0,1.428155899E0
2.271816550E1,-9.322910309E-1,-2.950204611E-1,-2.847330093E0
2.273862482E1,-3.367691040E-1,-8.084523678E-2,8.362197876E-1
2.275908414E1,-6.509137154E-1,-1.070314884E0,5.316619873E-1
2.277954346E1,4.105880260E-1,-2.910676599E-1,1.090848923E0
2.280000279E1,-2.493624687E-1,2.575595379E-1,-7.129840851E-1
2.282046206E1,1.084806204E0,-2.366008759E-1,3.992023468E-1
2.284092138E1,-3.908975124E-1,1.157646656E0,-1.877589703E0
2.286138070E1,1.292698145E0,1.262686253E-1,1.967000961E0
2.288184003E1,-3.126082420E-1,1.722991586E0,-7.832565308E-1
2.290229935E1,9.315903187E-1,9.528076649E-2,2.148355484E0
2.292275867E1,-4.861950874E-2,3.146204948E-1,2.446525574E0
2.294321800E1,-1.503540516E0,8.947696686E-1,-2.179104805E0
2.296367727E1,-5.656282902E-1,-4.731428027E-1,1.541989326E0
2.298413659E1,-1.092370033E0,7.049807310E-1,-9.491539001E-2
2.300459591E1,-1.021487951E0,1.677731395E0,-1.310318947E0
2.302505524E1,1.269834280E0,1.514464378E0,1.401277542E0
2.304551456E1,-6.308555603E-4,7.176878452E-1,-4.295101166E-1
2.306597388E1,3.788654804E-1,8.175188303E-1,-2.359703064E0
2.308643320E1,2.501837969E0,-5.292385817E-1,1.960506439E-1
2.310689253E1,2.310622454E0,-7.380475402E-1,2.008481026E0
2.312735185E1,-5.050163269E-1,1.000308990E-2,-3.634389877E0
2.314781117E1,8.321394920E-1,-3.023120165E-1,7.507829666E-1
2.316827044E1,1.852826118E0,-8.950839639E-1,9.350299835E-1
2.318872977E1,8.488075733E-1,-4.272878170E-1,-7.358541489E-1
2.320918909E1,2.881131172E-1,-2.743959427E-1,-1.695078850E0
2.322964841E1,1.340567589E0,1.218995214E0,2.039777756E0
2.325010774E1,-8.664731979E-1,1.209826350E0,1.259161949E0
2.327056706E1,-1.108560562E0,1.571075916E0,-7.884216309E-2
2.329102638E1,1.317514896E0,1.135104775E0,1.377539635E0
2.331148570E1,7.571983337E-1,1.136104345E0,1.439657211E0
2.333194503E1,-9.940543175E-1,4.665342569E-1,-1.505641937E-1
2.335240435E1,2.130599022E-1,2.521088123E-1,8.522787094E-1
2.337286367E1,-7.028191090E-1,4.806721210E-2,-7.214555740E-1
2.339332300E1,6.397435665E-1,-6.851160526E-1,5.382480621E-1
2.341378232E1,-1.323375702E-1,-8.325819969E-1,-3.254382610E0
2.343424164E1,6.040697098E-1,-9.823177457E-1,-1.165774345E0
2.345470096E1,9.657881260E-1,-1.565316558E0,7.000331879E-1
2.347516029E1,7.559347153E-1,-1.250647902E0,-3.525187969E0
2.349561961E1,1.895677805E0,-1.393283129E0,1.194159508E0
2.351607893E1,4.579887390E-1,-8.023877144E-1,-4.087906837E0
2.353653826E1,3.110929728E0,-1.099704504E0,4.520714760E0
2.355699758E1,-9.353291988E-1,-7.048204541E-1,-4.757564545E0
2.357745690E1,-8.210723400E-1,-2.176634073E-1,8.935155869E-1
2.359791623E1,2.997987270E-1,2.181041837E-1,1.439038277E0
2.361837555E1,1.877152920E-1,1.046118736E0,8.990306854E-1
2.363883487E1,-2.879171371E-1,6.819375157E-1,-9.589328766E-1
2.365929419E1,-1.099963188E-1,1.130304813E0,3.600006104E-1
2.367975352E1,2.840399742E-2,4.094628692E-1,1.853425980E0
2.370021284E1,-9.998768568E-1,9.171283841E-1,-1.248664856E-1
2.372067216E1,-8.575906754E-1,8.737266064E-2,-6.995811462E-1
2.374113149E1,-5.432555676E-1,1.654874682E-1,6.264200211E-1
2.376159081E1,1.519500256E0,-5.588489771E-1,2.586079597E0
2.378205013E1,-1.420345306E0,1.163305402E0,-1.740838051E0
2.380250945E1,3.733122349E-1,-9.092390537E-2,-6.889486313E-1
2.382296878E1,1.536409855E0,-1.600900292E-1,2.085451126E0
2.384342815E1,-1.090252757E0,4.568448663E-1,2.265625000E-1
2.386388748E1,-1.409834862E0,1.331044197E0,7.582674026E-1
2.388434680E1,1.212620735E0,6.558281183E-1,4.332147598E0
2.390480612E1,-3.365299463E0,3.054036140E0,2.745027542E-1
2.392526544E1,-1.430111051E0,1.431116343E0,1.846580505E0
2.394572477E1,-1.697933197E0,2.208771229E0,3.106162071E0
2.396618409E1,-2.632930040E0,2.178413868E0,2.040315628E0
2.398664341E1,-8.464818001E-1,7.835054398E-1,1.663770676E0
2.400710274E1,-1.558634400E0,-5.071830750E-2,-1.118208885E0
2.402756206E1,-4.218981266E-1,-3.447018266E-1,2.362379074E0
2.404802143E1,-1.883944511E0,-6.354244351E-1,-2.395499229E0
2.406848076E1,2.424731255E-1,-1.665713072E0,1.832735062E0
2.408894008E1,3.340911865E-1,-2.889487982E0,6.067562103E-2
2.410939940E1,-4.188480377E-1,-1.742731571E0,-1.606712341E-1
2.412985873E1,-1.633431911E0,-7.036308050E-1,-2.396524429E0
2.415031805E1,1.727246284E0,-8.338056803E-1,9.310112000E-1
2.417077742E1,1.248994350E0,-7.011712790E-1,2.745208740E-1
2.419123675E1,-8.811125755E-1,-8.333919644E-1,-7.638311386E-1
2.421169607E1,-4.050879478E-1,7.505980730E-1,-1.692396164E0
2.423215539E1,-1.872663498E-1,5.119698048E-1,4.216508865E0
2.425261472E1,-2.068665981E0,7.795057297E-1,-2.795997620E0
2.427307404E1,-1.408548355E-1,3.882467747E-1,2.927764893E0
2.429353341E1,-1.214169979E0,1.384324312E0,6.022930145E-1
2.431399274E1,6.546959877E-1,1.604443550E0,1.215003014E0
2.433445206E1,-6.520972252E-1,1.223880768E0,-2.300213337E0
2.435491138E1,-5.063152313E-1,8.041102886E-1,2.008220673E0
2.437537076E1,2.230666637E0,-2.154488564E-1,2.677478790E0
2.439583008E1,-1.373352528E0,-5.948996544E-1,-1.870629787E0
2.441628940E1,-1.136304855E0,-1.849959612E0,-1.133834362E0
2.443674872E1,1.369284630E0,-1.452985644E0,2.103599548E0
2.445720810E1,-1.621427536E0,-5.015293360E-1,-2.093960762E0
2.447766742E1,2.720460892E-1,-9.559359550E-1,8.139152527E-1
2.449812675E1,3.320217133E-2,-6.812571883E-1,-1.495080471E0
2.451858607E1,1.422969818E0,-2.934728861E-1,8.626337051E-1
2.453904544E1,5.549268723E-1,-1.315373898E0,-1.834006310E0
2.455950477E1,2.723225594E0,-1.068522215E0,-3.273383141E0
2.457996409E1,2.123177528E0,-6.703590155E-1,4.394576073E0
2.460042341E1,-5.969810486E-1,-9.852303267E-1,-3.630756378E0
2.462088279E1,8.430004120E-3,-7.073495984E-1,-3.309247971E0
2.464134211E1,3.954544067E-1,-9.646737576E-1,2.116550446E0
2.466180143E1,-1.018245220E0,-1.090902567E0,5.732870102E-1
2.468226081E1,-1.492912054E0,-1.247882843E-3,-1.399456978E0
2.470272013E1,1.146113873E0,1.344335079E-2,1.051286697E0
2.472317945E1,1.073970556E0,-4.011440277E-1,4.232328415E0
2.474363883E1,-2.029236317E0,1.158250213E0,-4.453737259E0
2.476409815E1,1.754224539E0,-1.601251364E0,1.854856491E0
2.478455748E1,-8.247306347E-1,4.858758450E-1,-1.921113491E0
2.480501685E1,-7.219934464E-1,-1.260264277E0,-2.180185318E0
2.482547617E1,6.186974049E-1,-6.809042096E-1,-6.036148071E-1
2.484593550E1,4.750304222E-1,-6.537401676E-2,4.739847183E-1
2.486639487E1,5.100693703E-1,-1.617009640E-1,7.385635376E-1
2.488685419E1,8.648240566E-1,-9.555768967E-2,1.019154549E0
2.490731352E1,-4.157388210E-1,8.409655094E-2,-6.241559982E-1
2.492777284E1,-1.362876415E0,1.136681318E0,-1.254425049E-1
2.494823222E1,8.282821178E-1,-3.821909428E-3,2.915593147E0
2.496869154E1,2.189993858E-2,5.931912065E-1,1.325615883E0
2.498915091E1,-2.464753628E0,8.604117632E-1,-1.303339005E0
2.500961024E1,5.281920433E-1,-3.486294746E-1,2.334596634E0
2.503006956E1,-1.252354860E0,6.657208800E-1,1.303348541E-1
2.505052893E1,-1.768066049E0,1.782045960E-1,-1.226935387E0
2.507098826E1,3.197808266E-1,-9.361052513E-2,-4.009218216E-1
2.509144758E1,-1.087509155E0,1.336548805E0,-5.280237198E-1
2.511190695E1,4.070949554E-2,2.206343412E-2,-1.418152809E0
2.513236628E1,-3.633575439E-1,9.955275655E-1,-2.676458359E-1
2.515282560E1,2.130607367E0,-9.430326223E-1,1.784617424E0
2.517328498E1,-4.011573792E-1,-5.162884593E-1,-1.299281120E0
2.519374430E1,-1.175423622E0,-8.452324867E-1,-1.783232689E0
2.521420362E1,-5.484595299E-1,-3.236273527E-1,1.987380981E-1
2.523466300E1,1.506488800E0,-1.643219352E0,1.990716934E0
2.525512232E1,-3.731293678E-1,-8.812788725E-1,-2.779630661E0
2.527558164E1,1.002239466E0,-6.264107823E-1,-1.528519154E0
2.529604102E1,6.989052296E-1,-8.174121380E-1,-3.315068722E0
2.531650034E1,-1.416788101E-1,3.836798668E-2,-6.007423401E-1
2.533695972E1,2.138724327E-1,1.293083429E-1,-5.139245987E-1
2.535741904E1,1.746445417E0,-2.047775388E-1,3.458790779E0
2.537787836E1,1.725232601E-1,6.265725493E-1,-7.142391205E-1
2.539833774E1,-1.101804972E0,1.575951099E0,-6.067190170E-1
2.541879706E1,8.477072716E-1,6.274115443E-1,1.285591125E-1
2.543925643E1,3.608705997E-1,1.233606577E0,2.603243828E0
2.545971576E1,6.084892750E-1,3.712276220E-1,-1.519793987E0
2.548017508E1,-1.389728069E0,2.148997545E0,4.234437943E-1
2.550063445E1,2.363269329E-1,1.404236555E-1,5.356245041E-1
2.552109378E1,-2.911969900E0,2.064829350E0,-1.103745461E0
2.554155315E1,1.508364201E0,-6.166263819E-1,2.743501663E0
2.556201248E1,-2.128289461E0,6.625119448E-1,-1.520903587E0
2.558247180E1,3.206388950E-1,-6.127125621E-1,2.101651192E0
2.560293117E1,8.755638599E-1,-1.641407013E0,-4.138111591E0
2.562339050E1,1.039948225E0,-6.425945759E-1,-2.836730003E0
2.564384987E1,1.758180618E0,-7.599276900E-1,-1.672935486E-1
2.566430919E1,3.066120386E0,-1.458391666E0,1.380651474E0
2.568476857E1,-1.099580765E0,-4.021227956E-1,-3.734062195E0
2.570522789E1,9.221475124E-1,-9.920827746E-1,-6.762065887E-1
2.572568722E1,-9.378168583E-1,8.797215223E-1,9.242134094E-1
2.574614659E1,1.328690529E0,1.047463059E0,3.968011856E0
2.576660591E1,-3.017897606E-1,1.763684750E0,-5.153274536E-1
2.578706529E1,1.016973972E0,1.426577926E0,-5.551004410E-1
2.580752461E1,9.728777409E-1,1.784689188E0,2.083120346E0
2.582798399E1,1.715779305E-2,7.339544296E-1,-8.295011520E-1
2.584844331E1,-1.468683720E0,6.432352066E-1,-1.477179527E0
2.586890268E1,1.449148893E0,-1.271864891E0,3.531545639E0
2.588936201E1,-9.716854095E-1,-6.481493711E-1,4.279003143E-1
2.590982138E1,-8.383619785E-1,-6.879595518E-1,-3.147213936E0
2.593028070E1,-3.217458725E-2,-1.245246530E0,-2.452760696E0
2.595074008E1,-3.859248161E-1,-4.701477289E-1,-1.615296364E0
2.597119940E1,9.794535637E-1,-1.008082628E-1,1.007522583E0
2.599165878E1,-9.573030472E-2,5.369108915E-1,1.116940498E0
2.601211810E1,1.320592880E0,-2.971484661E-1,-1.048240662E-1
2.603257748E1,-1.685590744E-1,1.113637447E0,-7.548761368E-1
2.605303680E1,-9.260048866E-1,1.914581060E-1,-2.679781914E0
2.607349617E1,-1.589388847E-1,-3.950840235E-1,-2.218723297E-1
2.609395550E1,1.161490917E0,-1.377336502E0,1.655608177E0
2.611441487E1,-9.335427284E-1,8.527650833E-1,-1.089486122E0
2.613487419E1,2.334549427E-1,-3.495483398E-1,3.690710068E-1
2.615533357E1,-2.082293987E0,1.436497450E0,-2.678789139E0
2.617579289E1,-9.443042278E-1,8.084918261E-1,1.610445976E0
2.619625227E1,1.574521542E0,-1.914923191E-1,5.503420830E0
2.621671159E1,-1.893979192E0,1.534804106E-1,-3.201535225E0
2.623717096E1,-9.088499546E-1,2.808239460E-1,-7.601146698E-1
2.625763029E1,2.874085903E-1,7.598248720E-1,1.815685272E0
2.627808966E1,4.912281036E-1,1.665369272E-1,2.473865509E0
2.629854904E1,-3.692722321E-2,-7.052874565E-2,-2.648506165E-1
2.631900836E1,-7.807681561E-1,3.941910267E-1,7.238473892E-1
2.633946774E1,5.308389664E-2,-3.691350818E-1,1.829299927E-1
2.635992706E1,8.047304153E-1,-1.155634880E0,-1.976108551E-2
2.638038643E1,-2.308083534E0,4.595631361E-1,-2.997184277E0
2.640084576E1,1.173280716E0,-1.642791152E0,2.359296799E0
2.642130513E1,-3.061392307E0,4.754533768E-1,-4.143418312E0
2.644176445E1,2.450001240E-1,-1.747796297E0,-1.663418293E0
2.646222383E1,1.793156862E0,-4.830805659E-1,2.353849411E-1
2.648268320E1,4.544200897E-1,1.438339949E-1,-1.466255188E0
2.650314253E1,1.028991938E0,-1.697733402E-1,-2.665185928E0
2.652360190E1,3.450265884E0,-8.775274158E-1,3.996111870E0
2.654406122E1,-1.001153946E0,1.997923851E-1,-4.067651749E0
2.656452060E1,2.213403702E0,-6.914452910E-1,2.093229294E0
2.658497998E1,-1.253881454E-1,-2.417939901E-1,2.204895020E-2
2.660543930E1,6.541092396E-1,-1.422354341E0,-9.230232239E-1
2.662589867E1,1.068990231E-1,8.115266562E-1,-2.487515450E0
2.664635805E1,1.631188869E0,-7.478303909E-1,1.373280525E0
2.666681737E1,-1.406650543E-1,1.927018762E-1,-2.746650696E0
2.668727675E1,7.711410522E-3,-2.631348372E-2,-3.894169807E0
2.670773612E1,2.092041016E0,-3.161433339E-1,3.201056480E0
2.672819544E1,-4.212388992E-1,4.420444369E-1,-1.689345360E0
2.674865482E1,1.253766060E0,-4.202947617E-1,9.007873535E-1
2.676911419E1,-1.866860628E0,2.095323086E0,8.797731400E-1
2.678957352E1,4.939112663E-1,1.018489599E0,1.738015175E0
2.681003289E1,-6.729309559E-1,1.944676161E0,-9.719877243E-1
2.683049227E1,2.521166086E0,1.228200912E0,3.964464188E0
2.685095159E1,-8.249628544E-1,2.205230236E0,-2.192590714E0
2.687141097E1,-5.003585815E-1,1.153958678E0,-3.027019501E-1
2.689187034E1,3.998889923E-1,7.139315605E-1,2.138631821E0
2.691232966E1,-5.740261078E-1,-3.356519938E-1,1.179157257E0
2.693278904E1,1.628818512E-1,2.892907858E-1,-8.115186691E-1
2.695324841E1,1.143737316E0,-1.806206703E-1,-9.274578094E-1
2.697370774E1,1.863806248E0,-1.248826861E0,-8.531637192E-1
2.699416711E1,3.867378235E-1,-2.820020914E-1,-2.699423313E0
2.701462649E1,2.159447432E0,-1.107139349E0,-5.606794357E-1
2.703508586E1,1.632968426E0,2.483081818E-2,1.386888504E0
2.705554518E1,1.211715937E0,-1.018022299E0,7.162542343E-1
2.707600456E1,6.180286407E-3,6.714977622E-1,9.980955124E-1
2.709646393E1,1.104560375E0,-1.453531981E-1,8.980369568E-2
2.711692331E1,-7.602555752E-1,1.252740383E0,-1.217434883E0
2.713738263E1,2.188048601E0,3.550880551E-1,1.947320938E0
2.715784201E1,7.624425888E-1,2.230104804E-1,1.849161148E0
2.717830138E1,1.629652977E0,-4.253954589E-1,-6.753044128E-1
2.719876076E1,1.037647724E0,-2.223652601E-1,4.534816742E-2
2.721922008E1,-1.645652652E0,-4.007965028E-1,-2.971548080E0
2.723967945E1,-2.314357758E-1,-9.723417163E-1,2.457351685E-1
2.726013883E1,-7.186603546E-2,-1.523145437E-1,2.910557747E0
2.728059820E1,3.650329113E-1,1.579982638E-1,2.622510910E0
2.730105753E1,-3.422319889E-1,3.818410039E-1,2.547948837E0
2.732151690E1,-1.887456656E0,1.357723236E0,-1.880337715E0
2.734197628E1,-5.670001507E-1,1.663491726E0,9.947853088E-1
2.736243565E1,4.792699814E-1,5.818169713E-1,1.849868774E0
2.738289503E1,3.141641617E-1,1.228615642E-1,9.879617691E-1
2.740335435E1,-2.443535328E0,2.702152491E0,-3.861208916E0
2.742381373E1,3.711087227E0,-1.643217564E0,5.431974411E0
2.744427310E1,-3.097826958E0,1.493032694E0,-4.830058098E0
2.746473248E1,1.000820637E0,-9.362331033E-1,2.952604294E0
2.748519180E1,-1.418817043E0,8.297415376E-1,1.125526428E-2
2.750565117E1,-1.586179733E0,-1.280140877E-1,-4.711055756E-1
2.752611055E1,-1.276361227E0,1.278699160E0,5.039434433E-1
2.754656992E1,-5.409994125E-1,2.648590803E-1,1.275022507E0
2.756702930E1,-4.717309475E-1,3.741340041E-1,3.994775772E0
2.758748862E1,2.017760754E0,-1.039077044E0,4.913136482E0
2.760794800E1,-1.612312317E0,-8.335046768E-1,-3.993805408E0
2.762840737E1,-2.190036297E0,-1.265912533E0,-3.739502430E0
2.764886675E1,-1.064464092E0,-1.056174517E0,-7.031517029E-1
2.766932612E1,1.863353252E0,-9.601482153E-1,4.810871124E0
2.768978544E1,-2.072416782E0,8.408493996E-1,-3.917376518E0
2.771024482E1,-4.748189449E-1,4.498929381E-1,-2.737372398E0
2.773070419E1,2.267097712E0,2.306872606E-2,3.930779457E0
2.775116357E1,-8.546278477E-1,-8.427941203E-1,-2.664707184E0
2.777162294E1,-2.685251713E0,1.541119218E-1,-4.564797878E0
2.779208227E1,2.534888744E0,-1.621306300E0,2.645882607E0
2.781254164E1,-2.779436111E-2,-1.040477157E0,-1.212415695E0
2.783300102E1,3.502244949E-1,-8.493770361E-1,-1.233118534E0
2.785346039E1,2.655580044E-1,-7.868207693E-1,6.610260010E-1
2.787391977E1,9.215526581E-1,-1.598552704E0,3.084749222E0
2.789437914E1,-2.141278982E0,1.196403265E0,-4.483537674E0
2.791483847E1,4.058708191E0,-9.768444300E-1,2.116925240E0
2.793529784E1,-2.411048412E-1,-1.131906867E0,8.188434601E0
2.795575722E1,-4.696786880E0,2.527869225E0,-9.725458145E0
2.797621659E1,-4.810221195E-1,1.964359283E0,2.014627457E-1
2.799667596E1,1.645940065E0,1.588060856E-1,6.018310547E0
2.801713534E1,-8.112308979E-1,-4.431605339E-4,1.713961601E0
2.803759466E1,-2.388911247E0,2.729584932E0,5.305118561E-1
2.805805404E1,-1.881266832E0,1.467839122E0,-1.360442638E0
2.807851341E1,-7.361819744E-1,5.517763495E-1,2.539768219E-1
2.809897279E1,-1.923253298E0,3.117999077E0,2.416334152E-1
2.811943216E1,-5.231666565E-2,1.935073853E0,8.962450027E-1
2.813989149E1,-9.892284870E-1,4.498120546E-1,-1.258641243E0
2.816035086E1,-7.496807575E-1,2.193353176E-1,-1.058595657E0
2.818081024E1,-2.304837704E-1,-3.386220932E-1,-4.631881714E-1
2.820126961E1,9.036040306E-2,-4.328193665E-1,7.117061615E-1
2.822172899E1,-3.313208818E0,2.423550606E0,-9.404243469E0
2.824218836E1,9.215717316E0,-3.613677979E0,1.136500072E1
2.826264774E1,2.099932194E0,-3.486449718E0,-7.290296555E-1
2.828310706E1,-8.839752197E0,4.372627258E0,-1.553466225E1
2.830356643E1,2.890003204E0,-1.212688684E0,2.726242065E0
2.832402581E1,-1.747808456E-1,-1.535727859E0,4.812576294E0
2.834448518E1,-3.272612095E-1,-3.198671341E-1,-2.557185173E0
2.836494456E1,1.359555721E0,-1.295346260E0,-5.165097237E0
2.838540388E1,2.063792229E0,6.069533825E-1,1.023906708E0
2.840586326E1,9.512000084E-1,-1.733160138E0,8.323154449E-1
2.842632263E1,-7.422804832E-1,-1.274527311E0,-1.655772209E0
2.844678201E1,1.577159882E0,-1.499205828E0,1.034408569E0
2.846724138E1,1.562323093E0,-9.009405375E-1,6.054601669E-1
2.848770076E1,3.391206264E-1,-9.582909346E-1,-5.975017548E-1
2.850816008E1,-3.156282902E-1,-4.139383435E-1,-8.528232574E-2
2.852861945E1,-1.401181459E0,-1.358103156E-1,3.727273941E-1
2.854907883E1,-1.412054539E0,-6.029485464E-1,-8.335218430E-1
2.856953820E1,-1.398987055E0,4.834626317E-1,-1.053543091E-1
2.858999758E1,-1.935693741E0,9.831702709E-1,-6.105318069E-1
2.861045695E1,-1.290675402E0,2.379682064E0,4.188442230E-1
2.863091628E1,7.666348934E0,-9.350912571E-1,9.705434799E0
2.865137565E1,-4.030670643E0,1.287687898E0,-7.696360588E0
2.867183503E1,7.383344173E-1,-6.248254180E-1,4.153404236E-1
2.869229440E1,1.049802303E-1,9.615454674E-1,1.144240379E0
2.871275378E1,-2.965991020E0,9.969900250E-1,-3.227200508E0
2.873321315E1,5.183410645E-2,-7.837511301E-1,3.009755135E0
2.875367248E1,-2.839648724E0,7.181542516E-1,-3.572182178E0
2.877413185E1,1.094893932E0,-1.205735683E0,3.299518585E0
2.879459122E1,3.764317036E-1,-2.705583572E-1,-1.317081451E-1
2.881505060E1,-1.646063328E-1,-3.095971644E-1,-6.585760117E-1
2.883550998E1,-1.410032988E0,1.065361142E0,-2.930786133E0
2.885596930E1,2.345654726E0,-1.462942362E0,5.259283066E0
2.887642867E1,-2.082365990E0,-4.669293761E-2,-2.135517120E0
2.889688805E1,1.066827536E0,-3.253175318E-1,3.033623695E0
2.891734742E1,2.054043055E0,-7.273983955E-2,2.601792336E0
2.893780680E1,-3.647046566E0,1.089588284E0,-3.538756847E0
2.895826617E1,2.450501919E-1,-3.051334918E-1,2.450522423E0
2.897872555E1,-2.898056507E0,1.662317276E0,-5.680046082E-1
2.899918487E1,1.608395815E0,-2.528203428E-1,4.705555916E0
2.901964425E1,9.909169674E-1,-4.102349281E-1,-5.301227570E-1
2.904010362E1,-3.127012730E0,2.267341137E0,-3.980416298E0
2.906056300E1,1.394031525E0,-1.660416722E-1,1.203023911E0
2.908102237E1,6.807069778E-1,-7.823064327E-1,8.998031616E-1
2.910148169E1,4.650036812E0,-3.480496407E0,1.708008766E0
2.912194107E1,-5.742305756E0,1.227594614E0,-7.475730896E0
2.914240044E1,6.936242580E-1,-6.237607598E-1,8.070116043E-1
2.916285982E1,4.264903069E-1,-3.735748529E-1,1.005434990E0
2.918331919E1,3.651646852E0,-2.862216473E0,7.579594612E0
2.920377857E1,-1.776474714E0,-2.557444572E-1,-5.149412155E0
2.922423789E1,-1.994613171E0,1.121911407E0,-2.230997086E-1
2.924469727E1,2.151144743E0,-1.398471594E0,2.314319611E0
2.926515664E1,1.241104603E-1,1.337122679E0,-1.705204964E0
2.928561602E1,2.533321381E-1,1.526666522E0,-7.115430832E-1
2.930607539E1,-2.335023880E-1,1.643447399E0,-2.173748016E-1
2.932653477E1,6.315672398E-1,1.459026217E0,1.616255760E0
2.934699409E1,4.186758995E-1,8.736300468E-1,1.744131088E0
2.936745346E1,-1.552920580E0,1.572248816E0,-1.674291611E0
2.938791284E1,1.583041430E0,-6.161292791E-1,7.810897827E-1
2.940837222E1,-1.591440439E0,5.724639893E-1,-3.661860943E0
2.942883159E1,1.552874327E0,-5.996723771E-1,2.589773178E0
2.944929097E1,-3.094964027E-1,5.627084970E-1,3.501157761E-1
2.946975034E1,6.664547920E-1,-7.137140036E-1,1.244781494E0
2.949020966E1,3.222060204E-1,-1.428499699E0,-2.090431213E0
2.951066904E1,2.415876389E-1,-5.723236203E-1,-1.760729313E0
2.953112841E1,-1.851886511E0,9.120025039E-1,-4.149600983E0
2.955158779E1,-1.324598789E-1,2.262712121E-1,2.967251778E0
2.957204716E1,-3.830344677E-1,-7.672715187E-1,-6.674938202E-1
2.959250654E1,-2.777374744E0,1.001586080E0,-4.839685917E0
2.961296591E1,5.464333534E0,-1.819894910E0,1.039553261E1
2.963342529E1,-2.173346281E0,4.526680708E-2,-5.857344627E0
2.965388466E1,-5.701167583E-1,-8.843389153E-1,-1.775744438E0
2.967434404E1,2.855028391E0,-1.009388924E0,4.629957199E0
2.969480336E1,-1.450193644E0,-6.017309427E-2,-5.577392578E-1
2.971526274E1,1.472593784E0,-1.773013592E0,1.901379585E0
2.973572211E1,-3.334419727E-1,9.188497066E-2,-2.803517818E0
2.975618149E1,1.644802094E-1,-1.385941744E0,-3.593883514E-1
2.977664086E1,6.770977974E-1,-3.906088471E-1,3.471412659E-1
2.979710024E1,-2.774088383E0,1.184041262E0,-3.275921822E0
2.981755961E1,1.106098413E0,-1.148454189E0,1.673363686E0
2.983801899E1,4.051869392E0,-1.150570512E-1,4.108695984E0
2.985847836E1,7.342822552E-1,-1.835037589E0,-7.994956970E-1
2.987893774E1,-6.378272057E0,2.785038233E0,-8.471798897E0
2.989939711E1,1.426351070E0,-1.617065787E0,4.567319870E0
2.991985649E1,4.480137825E-1,1.379295707E0,2.849946976E0
2.994031586E1,3.978918076E0,-1.309571862E0,6.249574661E0
2.996077524E1,-4.969505310E0,1.734890580E0,-1.231585503E1
2.998123456E1,1.403108120E0,-1.139652014E0,2.966653824E0
3.000169393E1,1.772308826E0,-8.797372580E-1,4.258717537E0
3.002215331E1,-1.940695524E0,-4.357397556E-2,9.961643219E-1
3.004261268E1,3.759446144E-1,-5.018700957E-1,-2.857163429E0
3.006307206E1,3.901815414E-1,2.191232741E-1,4.441267014E0
3.008353143E1,-7.173550129E-1,8.363047242E-1,-2.755966187E-1
3.010399081E1,-6.551001072E-1,1.632669568E-1,-1.218091011E0
3.012445018E1,-7.295498848E-1,8.436909318E-1,-9.547643661E-1
3.014490956E1,2.467801571E0,-6.757982969E-1,4.558646202E0
3.016536893E1,-3.230573654E0,8.391121030E-1,-4.708960056E0
3.018582831E1,2.822683811E0,-3.843516111E-2,2.625307083E0
3.020628768E1,1.497865677E0,5.812178850E-1,4.559864998E0
3.022674706E1,-1.239542842E0,-2.018043995E0,-2.948958397E0
3.024720643E1,-2.130246162E-2,-2.210674763E0,-3.733020782E0
3.026766581E1,-3.209996223E-2,-8.768163323E-1,-2.733631134E-1
3.028812518E1,-1.771495104E0,2.994009256E-1,-1.954134941E0
3.030858456E1,1.023747921E-1,2.292871237E0,-2.521276474E-1
3.032904393E1,6.847819328E0,-2.440235138E0,1.098461533E1
3.034950331E1,-4.728128910E0,1.023365259E0,-1.369104099E1
3.036996268E1,2.995853662E0,-1.289338112E0,2.358797073E0
3.039042206E1,-1.261163473E0,6.532527208E-1,8.103466034E-2
3.041088143E1,5.959539413E-1,-2.256335497E0,3.463110924E0
3.043134081E1,-1.125511646E0,2.221294880E0,-3.469057083E0
3.045180018E1,-1.162710190E-1,1.692261457E0,9.528322220E-1
3.047225956E1,-3.309221268E-1,1.123199463E0,-4.768438339E-1
3.049271893E1,1.231699705E0,1.640406847E-1,2.435979843E0
3.051317831E1,-1.670332909E0,1.474058867E0,1.409263611E-1
3.053363768E1,-1.110339165E-2,-4.294753671E-1,2.612304688E-1
3.055409706E1,-1.482748747E0,1.959519148E0,-3.188090801E0
3.057455643E1,5.450460911E-1,8.127033710E-2,2.036274910E0
3.059501581E1,4.122101784E0,-1.236504316E0,5.081828117E0
3.061547518E1,-2.751078606E0,6.218649149E-1,-6.374619007E0
3.063593456E1,2.959625483E0,-4.505664110E-2,-8.743095398E-2
3.065639393E1,1.921914577E0,-9.496808052E-4,-3.302888870E-1
3.067685331E1,-1.580281973E0,1.821746230E-1,-3.262364388E0
3.069731274E1,-1.522855401E0,1.647943377E0,2.011217117E0
3.071777211E1,1.843371630E0,-5.899304152E-1,1.465717316E0
3.073823149E1,-1.452185869E0,-2.761502862E-1,-1.190986633E0
3.075869086E1,3.235759735E0,-1.316262245E0,-6.834125519E-1
3.077915024E1,-3.298649788E0,1.090158224E0,-3.826079369E0
3.079960961E1,8.854360580E-1,-5.549503565E-1,5.015077591E-1
3.082006899E1,2.819354534E0,-3.872339725E-1,1.778280258E0
3.084052836E1,-1.569311619E0,9.961119890E-1,-3.140708923E0
3.086098774E1,1.560180902E0,-7.235503197E-2,1.723740578E0
3.088144711E1,2.328083277E0,-4.747209549E-1,1.564227104E0
3.090190649E1,-2.241596460E0,7.655131817E-2,-2.737121582E0
3.092236591E1,1.206290245E0,-5.756787062E-1,6.626987457E-2
3.094282529E1,5.361113548E-1,5.944346189E-1,2.086196899E0
3.096328466E1,1.016019583E0,-1.844494581E0,2.099993706E0
3.098374404E1,-6.455922127E-2,-5.559827685E-1,-2.008306503E0
3.100420341E1,5.773315430E-1,1.194424629E-1,1.054574013E0
3.102466279E1,-1.715921164E0,1.043610930E0,-1.978298187E0
3.104512222E1,2.568910837E0,-4.399887919E-1,5.629307747E0
3.106558159E1,-1.805871964E0,1.138841152E0,-1.731617928E0
3.108604097E1,-1.685623884E0,-1.964493394E-1,1.333503723E0
3.110650034E1,-1.076888561E0,8.839223981E-1,3.343210220E-1
3.112695972E1,-1.475186348E-1,7.383686304E-2,2.733702660E0
3.114741909E1,-3.435509205E-1,-1.494132876E-1,-2.859368324E0
3.116787852E1,3.827071190E-1,3.522597551E-1,1.776226997E0
3.118833789E1,-1.801442742E0,1.045335054E0,-7.259960175E-1
3.120879727E1,6.659829617E-1,-1.138406634E0,1.979422569E0
3.122925664E1,-8.085465431E-2,-4.138753116E-1,2.443724632E0
3.124971602E1,-3.470540524E0,4.102578759E-1,-1.095244408E0
3.127017544E1,-4.161131382E-1,-3.092232943E-1,-4.336166382E-1
3.129063482E1,-4.948103428E-1,-6.549688578E-1,2.640609741E-1
3.131109419E1,3.336503506E-1,-4.652613997E-1,2.864943504E0
3.133155357E1,-1.060736179E-1,2.210866809E-1,1.079857826E0
3.135201294E1,1.730313301E-1,-9.847603440E-1,-1.743986130E0
3.137247237E1,-1.628483534E0,-3.076517582E-2,-2.486795425E0
3.139293175E1,2.727871656E0,-1.084388852E0,4.536663055E0
3.141339112E1,-2.067276478E0,1.069986939E0,-9.800982475E-1
3.143385050E1,2.524953365E0,-2.259463310E0,5.806471825E0
3.145430992E1,-2.788219929E0,4.622321129E-1,-4.438940048E0
3.147476930E1,1.094246864E0,-1.285317421E0,4.724388123E-1
3.149522867E1,-3.348224163E-1,-9.586572647E-2,-3.672101021E0
3.151568805E1,2.210937738E0,-1.232092500E0,1.146671295E0
3.153614748E1,-1.133210659E-1,-8.929944038E-2,-3.386952400E0
3.155660685E1,-3.620390892E-1,-6.968331337E-1,-2.960979939E0
3.157706623E1,1.658433199E0,-7.928153276E-1,2.340421677E0
3.159752565E1,-6.111299992E-1,-6.159480810E-1,-1.095203400E0
3.161798503E1,5.482971668E-1,-2.871060371E-1,3.526418686E0
3.163844440E1,-6.562988758E-1,1.003491879E-1,-6.353816986E-1
3.165890378E1,-4.644751549E-1,3.410029411E-1,-1.479059219E0
3.167936320E1,1.230382919E-1,6.665611267E-1,7.916793823E-1
3.169982258E1,-3.522381783E-1,6.904298067E-1,9.678077698E-2
3.172028195E1,-3.788633347E-1,6.131151915E-1,-2.403964996E-1
3.174074138E1,-1.829323769E0,9.106674194E-1,4.194660187E-1
3.176120076E1,1.653583527E0,5.390859842E-1,4.651632309E0
3.178166013E1,-1.873609304E0,1.182446480E0,-1.999468327E0
3.180211956E1,-2.172030210E0,1.261391521E0,-2.242075920E0
3.182257893E1,1.446768522E0,1.474246979E-1,1.534805298E0
3.184303831E1,-8.558592796E-1,3.792142868E-2,1.834822655E0
3.186349774E1,1.074597359E0,-8.070116043E-1,7.506847382E-1
3.188395711E1,-1.978661537E0,4.785623550E-1,-3.723241806E0
3.190441649E1,2.079351902E0,-4.536894560E-1,1.982707977E0
3.192487591E1,-1.214551926E-2,-1.339961290E-1,-2.069985867E0
3.194533529E1,4.248733521E-1,-1.576224566E-1,-8.289241791E-1
3.196579466E1,3.999455690E0,-8.372014165E-1,6.808362961E0
3.198625409E1,1.834497452E-1,-9.992001057E-1,-3.571876049E0
3.200671347E1,-2.653841019E0,7.026505470E-1,-5.179703236E0
3.202717289E1,2.453324318E0,-1.056646109E0,6.069300652E0
3.204763227E1,1.273309469E0,-3.902647495E-1,1.813509941E0
3.206809164E1,-1.372345924E0,1.127638817E0,-4.896545410E0
3.208855107E1,2.446691275E0,6.309218407E-1,1.971570969E0
3.210901044E1,4.569959641E-1,7.626636028E-1,9.975252151E-1
3.212946987E1,-8.825132847E-1,6.959681511E-1,-7.198104858E-1
3.214992925E1,3.022370338E-1,-6.815531254E-1,1.056795120E0
3.217038862E1,3.092429638E-1,-6.103535891E-1,2.086712837E0
3.219084805E1,-6.170167923E-1,-6.572586298E-2,6.088161469E-2
3.221130742E1,4.398589134E-1,-1.293304682E0,3.597087860E-1
3.223176680E1,-2.208067656E0,1.311361313E0,-8.857173920E-1
3.225222622E1,4.016606808E-1,-2.597280741E-1,1.742693901E0
3.227268560E1,-1.526183367E0,7.497737408E-1,-2.096545696E0
3.229314503E1,1.678237915E-1,1.225221157E-1,1.325230598E0
3.231360440E1,-8.323841095E-1,2.736983299E-1,-8.062314987E-1
3.233406383E1,-2.296185255E0,-7.192039490E-2,-3.676732063E0
3.235452320E1,1.457499027E0,-3.469409347E-1,1.691604614E0
3.237498263E1,1.133178949E0,-7.136458158E-1,5.106678009E-1
3.239544201E1,5.061728954E-1,-1.065613747E0,-1.060889244E0
3.241590138E1,1.110520124E0,-7.199285030E-1,1.694323540E0
3.243636081E1,5.883073807E-2,-8.878278732E-1,-2.080971718E0
3.245682018E1,-1.208267927E0,-6.259306669E-1,-5.329332352E-1
3.247727961E1,8.007183075E-1,-1.006322622E0,1.158748627E0
3.249773899E1,2.022159100E-1,-1.838270187E0,6.428146362E-1
3.251819841E1,1.285154819E-1,-6.875142455E-1,-7.181634903E-1
3.253865779E1,1.734199047E0,-1.320794344E0,8.983430862E-1
3.255911722E1,-7.221295834E-1,-1.114310265E0,-1.639117241E0
3.257957659E1,5.171587467E-1,-3.973251581E-2,1.655074120E0
3.260003597E1,9.227776527E-2,-7.863978148E-1,-1.656821728E0
3.262049539E1,2.515645027E-1,-4.488083720E-2,-3.369426727E0
3.264095477E1,1.061420441E-1,8.512228727E-2,5.090036392E-1
3.266141419E1,-9.405535460E-1,1.317513704E0,1.421500206E0
3.268187357E1,7.828500271E-1,-8.416223526E-2,3.674432755E0
3.270233300E1,2.263141632E0,-4.387019277E-1,3.455974579E0
3.272279237E1,-4.619357586E-1,1.799115896E0,1.547471046E0
3.274325180E1,-1.284677267E0,1.921916008E0,-5.303640366E-1
3.276371117E1,2.707552910E-1,1.632148981E0,8.450622559E-1
3.278417060E1,-9.098374844E-1,1.631123185E0,-1.954639912E0
3.280462998E1,1.627540350E0,1.131915450E0,1.131076813E0
3.282508935E1,-5.383534431E-1,1.315701365E0,1.874817848E0
3.284554878E1,1.499665022E0,-1.184974611E-1,-3.367929459E-1
3.286600815E1,-2.773438454E0,9.364472628E-1,-9.265146255E-1
3.288646758E1,1.359039545E0,1.476679742E-1,2.526024818E0
3.290692695E1,-8.882639408E-1,8.094189167E-1,2.459850311E0
3.292738638E1,1.079614162E-1,1.073067784E-1,-1.723779678E0
3.294784576E1,2.453579903E-1,-4.408454895E-2,-4.489841461E-1
3.296830518E1,2.434086800E-1,1.152843237E-1,-4.090902328E0
3.298876456E1,1.157108545E0,-3.632450700E-1,8.445215225E-1
3.300922393E1,4.655058384E-1,-6.565432549E-1,4.291095734E-1
3.302968336E1,3.648705482E-1,-2.583081126E-1,3.187353134E0
3.305014274E1,-3.411183357E-1,-7.003091574E-1,-8.678388596E-1
3.307060216E1,1.906012535E0,-1.067116141E0,1.391921997E0
3.309106154E1,-3.899146318E0,1.928500175E0,-7.295335770E0
3.311152097E1,6.782390594E0,-2.161053181E0,6.708572388E0
3.313198034E1,-2.207619429E0,1.328667164E0,-6.828871727E0
3.315243977E1,2.820188522E0,3.596782684E-3,-1.003224373E0
3.317289914E1,1.230735064E0,5.682737231E-1,-1.818482399E0
3.319335852E1,-4.719028473E-1,9.738177657E-1,-3.734122753E0
3.321381794E1,3.484334946E-1,2.014138937E0,-1.718750000E-1
3.323427732E1,3.499093533E0,-5.665460825E-1,5.527260780E0
3.325473675E1,-3.201351166E0,1.211633921E0,-4.068154335E0
3.327519612E1,-1.884410381E-1,5.011621714E-1,6.620874405E-1
3.329565555E1,1.943873882E0,-1.027826786E0,4.632821083E0
3.331611492E1,1.684765816E-1,-1.099717855E0,-5.759744644E-1
3.333657430E1,-7.604947090E-1,2.500542402E-1,-3.017330647E0
3.335703372E1,1.567705631E0,-2.545750141E-1,2.073577881E0
3.337749310E1,2.387283802E0,-1.174558401E0,3.791292191E0
3.339795253E1,-4.772346020E0,1.277985811E0,-5.224608421E0
3.341841190E1,2.016534805E0,-4.739685059E-1,1.913264275E0
3.343887128E1,1.703640699E0,-1.065573096E-1,1.626407623E0
3.345933070E1,1.683130264E0,-1.174013138E0,1.491470337E-1
3.347979008E1,-1.419649005E0,6.081866026E-1,-4.505055428E0
3.350024951E1,1.986383677E0,-1.174375772E0,3.506489754E0
3.352070888E1,-1.412493467E0,4.289190173E-1,-1.436484337E0
3.354116826E1,-1.648924589E0,-7.464129925E-1,-9.321565628E-1
3.356162768E1,-2.797138691E-1,-1.728880405E-1,-9.697542191E-1
3.358208706E1,4.325027466E-1,3.904980421E-1,-4.250469208E-1
3.360254643E1,4.109761715E-1,-1.989142299E-1,1.108446121E-1
3.362300586E1,2.495605946E-1,-1.472681761E-1,-4.341869354E-1
3.364346524E1,7.110071182E-2,-3.300729394E-1,1.071646690E0
3.366392466E1,-6.232688427E-1,-8.099224567E-1,2.035608292E0
3.368438404E1,-5.948846340E-1,-4.696033597E-1,1.161810875E0
3.370484341E1,-7.287449837E-1,1.349490881E-1,-1.664990425E0
3.372530284E1,1.888820887E0,-1.548385620E-2,4.301352501E0
3.374576222E1,-1.111864328E0,6.926494241E-1,-1.305399418E0
3.376622159E1,-1.535081863E-2,-1.155267835E0,1.814943314E0
3.378668102E1,-2.867450714E-1,6.427478194E-1,1.434230804E-2
3.380714039E1,-3.901953697E-1,8.517727852E-1,3.884229660E-1
3.382759977E1,-3.090147734E0,1.204929829E0,-1.676963806E0
3.384805919E1,2.038323164E0,4.959172010E-2,4.751322746E0
3.386851857E1,1.155047894E0,-6.008722782E-1,2.653825760E0
3.388897794E1,-1.711515069E0,8.725386858E-2,-2.443629742E0
3.390943737E1,-1.208268881E0,7.896445990E-1,-1.212121964E0
3.392989675E1,1.114431143E0,-4.631649256E-1,1.617462158E0
3.395035612E1,-1.728617072E0,9.681614637E-1,-2.076829910E0
3.397081555E1,2.618288040E0,-5.371255875E-1,3.545017242E0
3.399127492E1,4.376001358E-1,-2.803303003E-1,-2.050043106E0
3.401173430E1,-1.459000111E0,-1.150673270E0,-3.812005043E0
3.403219372E1,5.514655113E-1,-8.195562959E-1,1.596866608E0
3.405265310E1,-5.570087433E-1,-5.103819370E-1,4.113578796E-1
3.407311248E1,-5.626249313E-1,-7.787445784E-1,-4.177360535E-1
3.409357185E1,-1.291556358E-1,-2.157407403E-1,-8.283901215E-1
3.411403128E1,5.964508057E-1,-2.009456635E0,1.698661804E0
3.413449065E1,-2.259614944E0,9.374368191E-1,-2.362164497E0
3.415495003E1,-3.001867294E0,2.555468559E0,-4.085044861E0
3.417540940E1,1.509926701E1,-7.558980942E0,3.211625671E1
3.419586883E1,-1.253016472E1,3.358875751E0,-2.779893494E1
3.421632820E1,-3.607899189E0,2.473042727E0,-9.673128128E-1
3.423678758E1,6.258275032E0,-1.262472153E0,9.631565094E0
3.425724701E1,-1.909312367E0,1.973779798E0,3.718355179E0
3.427770638E1,-1.466101170E0,1.885705948E0,-5.123178482E0
3.429816576E1,-1.167432785E0,2.564614058E0,1.740793228E0
3.431862513E1,9.651658535E-1,-1.974217892E-1,3.846516609E0
3.433908456E1,-2.732734203E0,4.204957485E-1,-9.464893341E-1
3.435954393E1,-1.176354885E0,-2.213112712E-1,-3.351183891E0
3.438000331E1,1.936306953E0,-3.953532577E-1,3.548789024E0
3.440046268E1,-1.131879807E0,-1.424021721E0,-3.277652264E0
3.442092211E1,3.576827049E-1,-3.076246381E-1,-6.926088333E-1
3.444138149E1,1.191224098E0,-1.488028049E0,1.138723373E0
3.446184086E1,7.794833183E-1,-7.492952347E-1,-2.568899155E0
3.448230024E1,1.014208317E0,-3.147220016E-1,-1.274338722E0
3.450275966E1,1.639421940E0,-7.383480072E-1,-9.963464737E-1
3.452321904E1,-1.684822321E0,-4.210009873E-1,-2.500616074E0
3.454367841E1,-2.008523941E-1,9.772830606E-1,-3.268527985E0
3.456413784E1,2.661722183E0,-1.541067004E0,3.393553734E0
3.458459722E1,3.598251343E-1,2.147738338E-1,1.265358925E0
3.460505659E1,-1.999745131E0,3.045186400E-1,-4.289938450E0
3.462551597E1,5.968983173E-1,3.326821923E-1,1.623695374E0
3.464597534E1,1.213961840E0,-9.101454020E-1,2.499276161E0
3.466643477E1,-1.024211168E0,-2.796602845E-1,-2.508948803E0
3.468689414E1,7.407908440E-1,9.177875519E-2,1.910552979E-1
3.470735352E1,1.257717848E0,-9.342775345E-1,2.017292023E0
3.472781294E1,5.804696083E-1,-1.631262541E0,-3.081321716E-2
3.474827232E1,-2.098432064E0,-1.545780897E0,-1.014364243E0
3.476873169E1,-1.137772322E0,-1.034927726E0,2.115395546E0
3.478919107E1,-3.728999138E0,9.205862284E-1,-1.292969704E0
3.480965044E1,-3.168707609E0,3.014679432E0,2.629056931E0
3.483010987E1,1.111792326E0,1.166359425E0,6.849851608E-1
3.485056925E1,-4.809272289E-1,2.239241600E0,-8.232088089E-1
3.487102862E1,1.731544495E0,1.044035673E0,4.278335571E-1
3.489148800E1,2.885046005E-1,6.686016321E-1,-1.656873703E0
3.491194742E1,4.058694839E-2,-2.980126739E-1,6.180582047E-1
3.493240680E1,3.366785049E-1,-1.104683638E0,2.494312286E0
3.495286617E1,-2.056350946E0,-2.355851531E-1,-1.312512398E0
3.497332560E1,-1.842885971E0,-1.457314014E0,-2.503538132E-1
3.499378498E1,-1.933647394E0,8.162025213E-1,2.663154602E-1
3.501424435E1,1.582938671E0,-1.862869501E0,3.652596474E0
3.503470372E1,-1.531840086E0,1.095151663E0,-2.943004608E0
3.505516315E1,-6.214761734E-2,-9.283730984E-1,-2.023468018E-1
3.507562253E1,-2.481226921E-1,-1.039142609E-1,-1.730544090E0
3.509608190E1,1.527540207E0,-9.198826551E-2,3.605627060E0
3.511654128E1,3.996920586E-1,-1.055624247E0,1.406898499E-1
3.513700070E1,2.180779219E0,-2.229540348E0,2.358797073E0
3.515746008E1,2.589261532E-1,-1.007413149E0,-5.191984177E-1
3.517791945E1,-9.182422161E-1,-5.473251343E-1,7.522850037E-1
3.519837883E1,-1.833882332E-1,-1.417346001E-1,2.123223305E0
3.521883820E1,-3.584043980E-1,-1.294093132E-1,3.474645615E-1
3.523929763E1,-1.383330822E-1,9.504826069E-1,-2.963829041E-1
3.525975701E1,5.203862190E-1,3.580843508E-1,7.314100266E-1
3.528021638E1,6.148514748E-1,-2.177859694E-1,8.893575668E-1
3.530067576E1,-1.694067240E0,1.346261501E0,-2.821538925E0
3.532113513E1,1.246404648E-2,-6.181834340E-1,2.449741364E-1
3.534159456E1,9.754831791E-1,6.063922048E-1,1.992874146E0
3.536205393E1,-1.059473991E0,2.085226774E-2,-1.116056442E0
3.538251331E1,-5.726850033E-1,1.299982548E0,1.254652977E0
3.540297268E1,-6.701760292E-1,1.852821112E-1,5.902423859E-1
3.542343211E1,-1.365492821E0,1.656406522E-1,1.392669678E-1
3.544389149E1,-7.633671761E-1,2.655878663E-1,-8.739213943E-1
3.546435086E1,-5.709016323E-1,4.880671501E-1,3.322725296E-1
3.548481024E1,-7.958657742E-1,3.677672744E-1,-6.117258072E-1
3.550526966E1,-8.742990494E-1,1.881960630E-1,-3.689794540E-1
3.552572904E1,2.864253521E-1,-1.879316568E-1,1.380544662E0
3.554618841E1,-6.293363571E-1,-3.049761057E-1,-4.514980316E-1
3.556664779E1,-2.245810032E-1,-4.395278692E-1,-5.462903976E-1
3.558710716E1,-2.163493633E-1,2.511712313E-1,-1.592033386E0
3.560756654E1,2.028470039E-1,6.339585781E-1,-1.377019882E-1
3.562802596E1,1.884687662E0,9.297752380E-2,2.116131783E0
3.564848534E1,-7.597651482E-1,1.477466941E0,-2.603452682E0
3.566894472E1,1.414372206E0,6.673527956E-1,6.121482849E-1
3.568940414E1,2.161593199E0,3.377681971E-1,1.704334259E0
3.570986352E1,7.464175224E-1,1.586256385E0,-2.342612267E0
3.573032289E1,2.687592506E0,4.775708914E-1,-8.067893982E-2
3.575078227E1,-1.943135262E-1,-1.921747327E-1,-4.034989357E0
3.577124164E1,7.198126316E-1,-1.033405066E0,-2.077541351E-1
3.579170107E1,7.565147877E-1,-1.431668401E0,4.242037773E0
3.581216044E1,-3.265713215E0,6.341587901E-1,-4.965006828E0
3.583261982E1,-9.538276196E-1,-6.403440833E-1,1.774423599E0
3.585307919E1,1.012283087E0,-1.081020951E0,4.084887505E0
3.587353857E1,-1.357348680E0,-2.321106195E-1,-4.022464752E-1
3.589399800E1,-3.043504715E0,2.557972670E-1,-4.894136429E0
3.591445737E1,3.839960814E0,-1.383431196E0,1.947031021E0
3.593491675E1,1.322144508E0,-2.205419064E0,4.378566742E0
3.595537617E1,-4.886020660E0,2.052956581E0,-8.475440979E0
3.597583555E1,3.065231800E0,-2.770708323E0,1.866739273E0
3.599629492E1,-5.137791634E-1,9.547266960E-1,-7.086076736E-1
3.601675430E1,-4.496498108E-1,-6.758635640E-1,1.646102905E0
3.603721367E1,-6.462523937E-1,6.885101795E-1,-1.239083767E0
3.605767310E1,7.627582550E-1,8.420811892E-1,2.614199638E0
3.607813248E1,6.992208958E-1,6.518068910E-2,1.414356232E0
3.609859185E1,-4.278868675E0,1.417873859E0,-3.217979431E0
3.611905122E1,-1.045805454E0,2.922576666E-1,2.681209564E0
3.613951065E1,-1.088934422E0,1.210180283E0,2.198549271E0
3.615997003E1,-1.928818226E-1,-1.022393942E0,1.609133720E0
3.618042940E1,-1.669185877E0,-4.442870617E-2,-7.098163128E0
3.620088878E1,4.169940948E-4,-4.241494536E-1,2.264199257E0
3.622134820E1,6.844193935E-1,-2.334227562E-1,1.645705223E0
3.624180758E1,4.434072971E-1,-2.356127739E0,1.612030029E0
3.626226695E1,-2.871244431E0,5.961773396E-1,-6.641403198E0
3.628272633E1,1.212683439E0,5.437578559E-1,3.073579788E0
3.630318576E1,3.892998695E-1,-1.841480255E0,1.524050713E0
3.632364513E1,-2.262744427E0,-1.159766316E0,-4.032288551E0
3.634410451E1,1.397563696E0,-1.383445859E0,9.360504150E-1
3.636456388E1,5.042335987E-1,-2.341693640E-1,1.265716553E0
3.638502331E1,-1.643818378E0,3.723229766E-1,-1.970777035E0
3.640548268E1,6.612598896E-1,-4.265579283E-1,6.414299011E-1
3.642594206E1,1.306405544E0,5.788223147E-1,2.635542870E0
3.644640143E1,8.999919891E-2,-1.806853712E-1,-2.822935104E0
3.646686086E1,8.952453136E-1,-2.404875755E-1,4.877042770E-1
3.648732024E1,2.249097347E0,-4.073511660E-1,2.029371262E0
3.650777961E1,7.845854759E-1,-1.508969188E0,1.342432022E0
3.652823904E1,-1.037432194E0,-3.568972945E-1,-3.422495842E0
3.654869841E1,9.469311237E-1,-9.383833408E-2,-1.048770905E0
3.656915779E1,1.363804102E0,6.814233065E-1,1.054474831E0
3.658961716E1,-3.698823452E-1,3.481238484E-1,-1.722863197E0
3.661007659E1,7.497930527E-2,7.883570194E-1,1.663169861E0
3.663053596E1,-4.947209358E-2,7.609054446E-2,-1.196529388E0
3.665099534E1,-8.808031082E-1,1.399285436E0,-6.968507767E-1
3.667145472E1,5.043711662E-1,5.985227823E-1,2.920207024E0
3.669191414E1,-3.721928596E-1,3.561800122E-1,-2.251800060E0
3.671237352E1,-1.860786796E0,1.115708113E0,-1.355768681E0
3.673283289E1,1.698222876E0,4.908674359E-1,2.416762352E0
3.675329232E1,-1.035365105E0,1.612607837E0,3.216581345E-1
3.677375169E1,2.088767290E0,-1.211609960E0,1.932370186E0
3.679421107E1,-2.953739405E0,1.375411510E0,-3.924414635E0
3.681467044E1,-5.164361000E-2,8.424270749E-1,-9.331026077E-1
3.683512987E1,-2.065534592E-1,8.898862600E-1,-8.215847015E-1
3.685558925E1,1.665096521E0,-9.039861560E-1,4.964726448E0
3.687604862E1,-1.687825203E0,-2.001643181E-2,-2.972421646E0
3.689650805E1,2.198757648E0,-2.250349045E0,3.315737724E0
3.691696742E1,-1.172881603E0,1.549652338E0,-8.112994194E0
3.693742680E1,3.027494907E0,3.430131674E-1,7.072105408E-1
3.695788622E1,2.823214531E0,3.488691449E-1,-1.843538284E-1
3.697834560E1,1.544792652E0,9.789586067E-2,8.922309875E-1
3.699880498E1,-4.968202114E-1,1.051558256E0,-1.817451477E0
3.701926440E1,7.884502411E-2,1.059080839E0,3.680763245E-1
3.703972378E1,1.801146269E0,-8.236950636E-2,4.474953651E0
3.706018315E1,-1.469158411E0,1.537299514E0,-2.165421963E0
3.708064258E1,2.111954689E-1,-1.634966135E-1,8.171348572E-1
3.710110195E1,1.448319435E0,-1.827338040E-1,3.443304062E0
3.712156133E1,-1.613150120E0,-6.678878069E-1,-1.696166039E0
3.714202070E1,-4.429550171E-1,-2.384941339E0,-3.144178391E0
3.716248013E1,2.049676895E0,-1.540051222E0,4.743615150E0
3.718293951E1,-2.426952362E0,-1.622200161E-1,-3.692918777E0
3.720339888E1,2.118581772E0,-1.888981462E0,9.607076645E-1
3.722385831E1,1.887609959E-1,4.430931211E-1,-8.663263321E-1
3.724431768E1,-7.463359833E-2,1.680659652E-1,-4.423847198E-1
3.726477706E1,2.393952131E0,2.895767689E-1,3.862697601E0
3.728523649E1,-9.202659130E-1,1.243838817E-1,-2.046856403E0
3.730569586E1,-6.020593643E-1,-1.257567883E0,1.423811913E0
3.732615524E1,-1.234982729E0,9.983330369E-1,2.163982391E-1
3.734661466E1,-1.005427361E0,7.320819497E-1,4.100646973E-1
3.736707404E1,1.823225498E0,-1.260548830E0,3.443393707E0
3.738753341E1,-1.619868040E0,-3.215270638E-1,-1.488168716E0
3.740799279E1,-1.647182465E0,-4.886261523E-1,-2.225357056E0
3.742845222E1,4.989523888E-1,7.704229355E-1,1.565379143E0
3.744891159E1,-3.858597279E-1,-4.900681973E-1,5.631895065E-1
3.746937096E1,-1.647269011E0,-1.871699095E-1,-1.586238861E0
3.748983039E1,1.143990993E0,-1.030433059E0,3.789981842E0
3.751028977E1,-3.651309490E0,1.198655844E0,-4.487386703E0
3.753074914E1,1.605104208E0,-1.516523242E0,3.262704849E0
3.755120852E1,-1.661319852E0,1.129227519E0,4.157333374E-1
3.757166794E1,1.243457556E0,-8.071216345E-1,4.462722778E0
3.759212732E1,-1.932527184E0,1.690076113E0,-2.544222832E0
3.761258669E1,-1.657667398E0,1.722156048E0,-1.157835007E0
3.763304612E1,8.860387802E-1,6.087689996E-1,3.152452469E0
3.765350550E1,2.529618740E0,-9.187340736E-3,3.945904732E0
3.767396487E1,-3.231866837E0,1.069457769E0,-5.675636292E0
3.769442430E1,2.216634274E0,-1.522485375E0,4.127011299E0
3.771488367E1,-1.769216537E0,1.267938852E0,-8.634347916E-1
3.773534305E1,-2.571481228E0,-4.605969787E-1,-4.315248966E0
3.775580242E1,-1.398039818E0,7.929658890E-1,-1.735895634E0
3.777626185E1,3.461325169E0,-2.759330511E0,8.431710243E0
3.779672122E1,-1.329154253E0,-9.616856575E-1,-4.309126854E0
3.781718060E1,-2.472844124E-1,-1.175686836E0,-1.558229446E0
3.783764003E1,8.623423576E-1,3.933663368E-1,4.135643959E0
3.785809940E1,2.092425823E-1,-2.030989528E-1,4.726278305E0
3.787855878E1,-1.831932545E0,-6.164635420E-1,-6.294516563E0
3.789901815E1,3.671523571E0,-1.111294150E0,3.923569679E0
3.791947753E1,-8.486461639E-2,1.004679680E0,-4.392160416E0
3.793993695E1,9.006834030E-2,-2.690624237E0,1.438457489E0
3.796039633E1,-7.629538536E0,3.765166283E0,-1.366053200E1
3.798085570E1,7.005070210E0,-3.943866968E0,4.848563194E0
3.800131513E1,2.855590820E0,-1.086861491E0,-4.208446503E0
3.802177451E1,-5.839561462E0,1.873755336E0,-4.314201355E0
3.804223388E1,8.042558670E0,-1.946231842E0,7.309864998E0
3.806269326E1,2.038346767E0,-8.156221509E-1,-1.382916451E0
3.808315263E1,-4.470743179E0,-1.735333800E0,-8.429512024E0
3.810361206E1,7.037461758E0,-1.358633757E0,8.250578880E0
3.812407143E1,7.841324806E-1,9.762067199E-1,3.241653442E0
3.814453081E1,-3.614880323E0,1.223744869E0,-5.362040520E0
3.816499018E1,3.668868542E0,-5.362495184E-1,2.859284401E0
3.818544961E1,-1.945341587E0,1.357961178E0,-4.043387413E0
3.820590899E1,-2.742584944E0,-6.483460665E-1,-6.193933010E0
3.822636836E1,-1.636030436E0,-1.564208865E-1,-1.140702724E0
3.824682774E1,-3.551223278E-1,1.122576952E0,1.003812790E0
3.826728711E1,-3.456895590E0,7.670874000E-1,-3.052408218E0
3.828774654E1,-7.254729271E-1,2.564987421E0,1.524919510E0
3.830820591E1,4.023047924E0,-8.634213805E-1,8.152382851E0
3.832866529E1,-1.261238337E0,-1.077428937E0,-5.033486366E0
3.834912466E1,-1.050278664E0,6.741240621E-1,-1.720456123E0
3.836958404E1,5.977909565E-1,2.144631386E0,3.161276817E0
3.839004341E1,1.263569117E0,-1.407632947E0,2.993841171E0
3.841050284E1,-4.896950722E0,-6.943296194E-1,-1.227750778E1
3.843096222E1,-1.175473213E0,-5.940830708E-1,-2.774612904E0
3.845142159E1,3.492655754E-1,-1.624425292E0,7.315063477E-2
3.847188097E1,4.100698471E0,-7.562013865E-1,6.011491776E0
3.849234034E1,1.666423321E0,3.805631399E-1,-6.260232925E-1
3.851279972E1,-3.239832401E0,1.777763367E0,-5.893708229E0
3.853325909E1,-2.211256027E-1,9.031859636E-1,-2.462320328E-1
3.855371852E1,-1.364420414E0,8.935227394E-1,-7.931823730E-1
3.857417789E1,-8.174695969E-1,-1.312776089E0,1.052221298E0
3.859463727E1,-2.616842985E0,1.069178581E-1,-6.469406128E0
3.861509664E1,6.176247597E0,-1.433064818E0,3.997565269E0
3.863555602E1,1.736357450E0,-2.223760366E0,-4.069044590E0
3.865601539E1,-3.555343151E0,-1.160245299E0,-4.111317635E0
3.867647477E1,-2.411519527E0,1.568198204E-2,-2.707172394E0
3.869693414E1,1.340150833E-2,-1.536855936E0,4.256484032E0
3.871739352E1,-1.058540106E0,1.034636497E0,2.759550095E0
3.873785289E1,3.284671307E-1,-3.957338333E-1,1.782464981E-1
3.875831232E1,-1.927183390E0,1.758344412E0,-3.040049553E0
3.877877169E1,9.738080978E0,-3.658308744E0,1.640129852E1
3.879923107E1,-5.745283127E0,1.781660795E0,-1.109688091E1
3.881969044E1,2.079542637E0,-1.307097673E0,3.028673172E0
3.884014982E1,-4.493822098E0,5.719080925E0,-2.305039406E0
3.886060919E1,3.860126019E0,-1.900946140E0,4.115225792E0
3.888106857E1,-1.759829521E0,3.333775997E-1,-3.568538666E0
3.890152794E1,-1.369770765E0,8.587139845E-2,3.673934937E-2
3.892198732E1,2.933060884E0,-2.754585743E0,9.225972176E0
3.894244669E1,-3.221925020E0,1.618423939E0,-7.237543106E0
3.896290607E1,4.561286926E0,-3.929695606E0,7.593385696E0
3.898336544E1,-4.721277237E0,1.436922789E0,-1.188019753E1
3.900382482E1,-1.559324741E0,1.000549793E-1,-4.185752869E-1
3.902428419E1,6.663224697E-1,-1.444326997E0,4.113494873E0
3.904474357E1,-5.293219090E-1,-1.729449511E0,-2.637765408E0
3.906520294E1,-4.525065422E-1,4.476246834E-1,-6.620054245E-1
3.908566232E1,-1.900997162E-1,6.664288044E-2,-9.567661285E-1
3.910612169E1,3.952167273E0,-1.046740532E0,9.443827629E0
3.912658107E1,-3.428488493E0,5.816593766E-1,-1.121235752E1
3.914704044E1,1.114782906E1,-1.763464093E0,1.541531467E1
3.916749982E1,-8.343455791E-1,1.210432768E0,-7.802916527E0
3.918795919E1,-2.676561832E0,-1.000923395E0,-3.137607574E0
3.920841857E1,4.094689369E0,-3.553576231E0,5.599299431E0
3.922887794E1,-3.542194843E0,6.993929744E-1,-3.588300705E0
3.924933732E1,1.252378702E0,6.150563955E-1,7.276420593E-1
3.926979669E1,2.468209267E0,-1.188821793E-1,4.871372223E0
3.929025607E1,-8.308858871E-1,2.031351089E0,-3.026190758E0
3.931071544E1,-2.148456573E-1,-6.580483913E-2,-7.146997452E-1
3.933117482E1,5.864536762E-1,3.189789057E-1,9.031858444E-1
3.935163419E1,-1.253335714E0,4.168008566E-1,-3.594022751E0
3.937209357E1,5.462288857E-1,-8.710330725E-1,-8.112554550E-1
3.939255294E1,1.058707714E0,-6.542970538E-1,3.786034584E0
3.941301232E1,6.961562634E-1,-8.832489252E-1,2.246741295E0
3.943347169E1,2.066042423E-1,7.405530214E-1,-4.401540756E-1
3.945393107E1,2.708194256E-1,-1.503629684E-1,-1.608631611E0
3.947439044E1,7.772829533E-1,1.908988953E-1,1.420086861E0
3.949484982E1,-1.316349506E-1,1.344015002E0,-3.976840973E-1
3.951530919E1,-4.884355068E-1,3.466793299E-1,-1.525749207E0
3.953576857E1,-1.003060579E0,3.311494589E-1,-2.644602299E0
3.955622794E1,1.357902765E0,-1.319577336E0,2.032155037E0
3.957668727E1,-2.081191301E0,5.273943543E-1,-3.560101509E0
3.959714664E1,1.594563484E0,-3.883890510E-1,2.833344460E0
3.961760602E1,1.894533634E-1,-3.082272410E-1,-8.262872696E-1
3.963806539E1,-7.738273144E-1,-2.393072605E0,7.711191177E-1
3.965852477E1,1.974551678E-1,-1.195111871E0,-1.556594849E0
3.967898414E1,7.353818417E-1,-3.211737275E-1,1.325026512E0
3.969944352E1,3.661522865E-1,-1.369840860E0,7.603597641E-1
3.971990289E1,-1.086598158E0,3.480430841E-1,-1.516313076E0
3.974036227E1,1.199891806E0,7.131510973E-1,2.721876144E0
3.976082164E1,-1.685225368E0,1.476058483E0,-2.504395008E0
3.978128102E1,6.877357960E-1,-5.119103193E-2,1.092828751E0
3.980174039E1,-4.707219601E-1,2.934670925E0,1.189640999E0
3.982219972E1,1.208123446E0,-8.000519276E-1,3.346271515E0
3.984265909E1,-8.124549389E-1,-1.008379459E-2,-4.745399475E0
3.986311846E1,6.552338600E-1,-1.547251701E0,2.002220154E-1
3.988357784E1,-8.058383465E-1,2.637457252E-1,-1.901936531E0
3.990403722E1,2.282095432E0,-1.341950893E0,6.386794090E0
3.992449659E1,-1.094277382E0,-8.355637193E-1,-5.568727016E0
3.994495597E1,1.358962059E0,-1.449198246E0,1.516832352E0
3.996541534E1,1.632416248E-1,-1.282308102E0,-9.454593658E-1
3.998587472E1,-1.453691721E0,3.034746051E-1,-5.543317795E-1
4.000633404E1,1.248695850E0,6.059321165E-1,1.952467918E0
4.002679341E1,3.156547546E-1,5.895161033E-1,-1.285183907E0
4.004725279E1,7.709276676E-1,-2.970359921E-1,1.082179070E0
4.006771216E1,-4.415059090E-2,1.203069687E-1,-2.053047657E0
4.008817154E1,6.423282623E-2,6.280140877E-1,-2.211503983E-1
4.010863091E1,-1.174624681E0,4.262871444E-1,-1.797747612E0
4.012909029E1,1.141307592E0,-7.610663772E-2,2.349681854E0
4.014954966E1,9.325153828E-1,-4.857403040E-2,7.402973175E-1
4.017000899E1,-4.039773941E-1,5.526452065E-1,-3.680658340E-1
4.019046836E1,-1.403420448E0,1.471762776E0,-9.345426559E-1
4.021092774E1,-4.904961586E-2,1.296424150E0,8.673963547E-1
4.023138711E1,-7.483243942E-2,7.027019858E-1,1.507161140E0
4.025184649E1,-6.189270020E-1,-3.358271718E-1,-1.634778976E-1
4.027230586E1,3.493022919E-2,7.755002379E-1,1.371157646E0
4.029276518E1,-4.651484489E-1,6.442590356E-1,2.541325569E0
4.031322456E1,-1.541586161E0,3.121307492E-1,-2.173848152E0
4.033368393E1,3.231120110E-2,-3.294072151E-1,1.002349854E-1
4.035414331E1,1.532731295E0,-1.204896688E0,4.329490662E-1
4.037460268E1,1.052518606E0,-2.050356388E0,-7.230186462E-2
4.039506206E1,-7.152557373E-2,-1.504932404E0,-4.670181274E-1
4.041552143E1,-2.102096081E-1,-1.763971448E-1,-1.129972458E0
4.043598076E1,3.462595701E0,-5.558640957E-1,1.158444405E0
4.045644013E1,1.294295549E0,-2.465251386E-1,-1.453789234E0
4.047689951E1,1.259385586E0,2.052870393E-1,-8.584938049E-1
4.049735888E1,1.163326740E0,-2.467479110E-1,-2.509860992E-1
4.051781826E1,8.452301025E-1,-8.274579048E-1,1.130390167E-1
4.053827763E1,1.071259975E-1,-2.164623141E-1,-2.263373852E0
4.055873695E1,5.137760639E-1,2.236893177E-1,-2.791109085E-1
4.057919633E1,2.630519867E-2,9.851994514E-1,1.671801567E0
4.059965570E1,-1.064330339E0,1.220673561E0,2.714765549E0
4.062011508E1,1.606853008E0,7.297652960E-1,2.546834946E0
4.064057445E1,-8.252127171E-1,1.223329067E0,-1.826024532E0
4.066103378E1,-3.452975750E-1,1.395987988E0,-1.287467003E0
4.068149315E1,3.911209106E-1,1.360399008E0,2.556858063E0
4.070195253E1,-4.361615181E-1,1.390821457E0,-1.231218338E0
4.072241190E1,-2.479307652E-1,1.158092976E0,8.489189148E-1
4.074287128E1,-9.378674030E-1,8.953533173E-1,-9.754772186E-1
4.076333060E1,-3.430321217E-1,4.047670364E-1,6.031675339E-1
4.078378998E1,-2.635240555E-2,1.093750715E0,-2.167491436E0
4.080424935E1,-5.307459831E-2,6.072193384E-1,6.422138214E-2
4.082470872E1,5.187902451E-1,-2.918773890E-1,1.827895164E0
4.084516810E1,-2.773799896E-1,-6.981831789E-1,1.148347855E0
4.086562742E1,5.716583729E-1,-1.049151540E0,1.914111137E0
4.088608680E1,-1.510448456E0,-2.974047065E-1,-7.269620895E-1
4.090654617E1,-1.228312731E0,6.823472977E-1,-7.694826126E-1
4.092700555E1,2.953761339E0,-7.951534390E-1,1.672087669E0
4.094746487E1,-6.266412735E-1,-1.265535831E0,-2.560948372E0
4.096792425E1,9.010841846E-1,-1.630525589E0,-1.503314972E-1
4.098838362E1,1.570898294E0,-5.529826283E-1,-4.844789505E-1
4.100884300E1,-1.138868332E0,2.677210569E-1,-2.665199757E0
4.102930232E1,6.428821087E-1,-2.621334791E-2,6.204509735E-1
4.104976169E1,1.849105358E-1,6.271792650E-1,1.577569008E0
4.107022107E1,4.393715858E-1,-1.339938879E0,5.904912949E-1
4.109068044E1,-1.480597496E0,5.392570496E-1,-1.885951519E0
4.111113977E1,1.183292866E-1,9.339222312E-1,-3.889265060E-1
4.113159914E1,-7.539272308E-3,3.637812138E-1,1.688053131E0
4.115205852E1,-1.552991867E0,-1.329740286E-1,-2.087577820E0
4.117251784E1,-3.815922737E-1,9.687600136E-1,-2.994718552E-1
4.119297722E1,7.440254688E-1,9.523923397E-1,2.165307999E-1
4.121343659E1,1.131290197E0,-2.710412145E-1,6.090278625E-1
4.123389591E1,-1.319358349E-1,-1.411265969E0,-1.180536270E0
4.125435529E1,-3.385282040E0,8.579245806E-1,-5.125496864E0
4.127481466E1,7.807683945E-1,-8.078452349E-1,1.965860367E0
4.129527404E1,4.644882679E-1,-1.762091041E0,-8.738584518E-1
4.131573336E1,-6.659984589E-3,-7.298908234E-1,-6.392326355E-1
4.133619274E1,5.892708302E-1,-6.607519090E-2,-3.169556618E0
4.135665211E1,1.803135157E0,-1.325880766E0,9.382352829E-1
4.137711143E1,-1.681363344E0,-9.558737278E-1,-4.272185802E0
4.139757081E1,1.596560478E0,-1.758016825E0,4.796382904E0
4.141803018E1,-7.906961441E-2,-4.643173218E-1,-1.906437874E0
4.143848951E1,-3.669056892E-1,2.227884829E-1,-1.227121830E0
4.145894888E1,-1.009164333E0,6.695989966E-1,-1.346547127E0
4.147940826E1,1.350273371E0,1.499428749E0,3.420551300E0
4.149986758E1,9.415559769E-1,1.124301553E0,1.740262032E0
4.152032695E1,-1.955811977E0,1.046803594E0,-5.204307556E0
