"Time (s)","Acceleration x (m/s^2)","Acceleration y (m/s^2)","Acceleration z (m/s^2)"
0.000000000E0,-3.734820604E0,4.786679745E0,8.746679306E0
2.000156200E-2,-4.319858074E0,5.527004719E0,1.063960266E1
4.200156200E-2,-2.698562145E0,5.419831276E0,9.360638618E0
6.200156200E-2,2.602210045E-1,5.877181053E0,8.831118584E0
8.200937500E-2,-1.382766366E0,5.532511711E0,6.912366867E0
1.040000000E-1,1.403059721E0,2.882752895E0,4.047991753E0
1.240015620E-1,1.117689967E0,1.154349923E0,3.485785484E0
1.440015620E-1,4.528795242E0,2.078914165E0,7.153261662E0
1.660078120E-1,5.233983517E0,9.879050851E-1,7.809857368E0
1.860078120E-1,5.119004250E0,-1.281319380E0,1.143992710E1
2.080046870E-1,4.395122051E0,-6.249058247E-1,1.320641708E1
2.300015620E-1,9.188945889E-1,1.199973822E0,1.134448433E1
2.520015620E-1,3.495860100E0,-8.364382982E-1,8.608476639E0
2.720015620E-1,2.273514986E0,1.892415285E0,8.852790833E0
2.940000000E-1,-7.282663345E0,8.691181183E0,9.945437431E0
3.140109370E-1,2.728891850E0,1.710053802E0,9.888406754E0
3.360015620E-1,2.123139620E0,2.205921650E0,8.331965446E0
3.560015620E-1,1.202703238E0,2.460731745E0,7.509432793E0
3.760015620E-1,1.149427533E0,2.584607601E0,6.142794132E0
3.960015620E-1,1.009433746E0,2.101113081E0,9.049660683E0
4.180015620E-1,5.534819961E-1,1.591205597E0,9.480493546E0
4.400046870E-1,-8.172463775E-1,1.949924111E0,8.893195152E0
4.600421870E-1,-3.002328873E-1,2.850134373E0,8.722393036E0
4.820000000E-1,4.142141342E0,1.288817883E0,5.901659012E0
5.020015620E-1,5.991633415E0,3.083224058E0,6.276074409E0
5.220078120E-1,5.247716904E0,1.136862755E0,7.370617390E0
5.440000000E-1,3.515693665E0,2.321858406E0,9.916084290E0
5.640046870E-1,3.214436054E0,1.566899657E0,9.156595230E0
5.860140620E-1,2.380238771E0,1.075197577E0,9.162754059E0
6.080000000E-1,-1.006235108E-1,6.593056917E-1,8.006421089E0
6.280015620E-1,-1.164539754E-1,4.456567168E-1,7.164916515E0
6.480015620E-1,2.228714377E-1,4.849982262E-1,6.121810913E0
6.680015620E-1,-8.535999060E-1,2.327547222E-1,7.847063065E0
6.880203120E-1,-2.075696230E0,-7.317351103E-1,7.564805508E0
7.100000000E-1,-5.065172911E-1,-1.805716515E0,8.087622643E0
7.300015620E-1,3.531897783E0,-1.554698825E0,8.240689278E0
7.520015620E-1,4.630366802E0,-1.728364587E0,6.435729027E0
7.740000000E-1,4.677705288E0,-2.300348759E0,5.918294430E0
7.940015620E-1,7.226907253E0,-2.824736595E0,4.771691799E0
8.160015620E-1,1.062701893E1,-3.000327349E0,3.153450966E0
8.360015620E-1,1.144426441E1,-2.928539515E0,3.414409399E0
8.580015620E-1,1.297867107E1,-3.189239502E0,5.034919739E0
8.800015620E-1,1.521023941E1,-3.151688814E0,4.752691269E0
9.020000000E-1,1.529373932E1,-3.117078066E0,3.476878881E0
9.220015620E-1,1.595203876E1,-3.337306499E0,3.583018541E0
9.420015620E-1,1.634019661E1,-3.574246407E0,2.716279268E0
9.620015620E-1,1.586932468E1,-3.434118509E0,1.758483648E0
9.840000000E-1,1.563234711E1,-2.779610634E0,1.056474924E0
1.004001562E0,1.426511288E1,-2.750420570E0,1.471706152E0
1.026003125E0,1.152976704E1,-2.728441954E0,2.071626186E0
1.048001562E0,9.801200867E0,-3.280851364E0,2.713626385E0
1.068001562E0,9.269439697E0,-3.822563171E0,3.145550013E0
1.088020312E0,9.311587334E0,-4.138980865E0,1.878174543E0
1.110000000E0,9.699572563E0,-4.441578865E0,-6.359957159E-2
1.130001562E0,1.017272377E1,-4.643975735E0,-1.651865125E0
1.152000000E0,9.843022346E0,-4.389338017E0,-2.344459772E0
1.172000000E0,1.000548363E1,-4.079269409E0,-2.907509089E0
1.192001562E0,1.137930584E1,-4.474925995E0,-3.012585640E0
1.214001562E0,1.201196861E1,-5.521440983E0,-1.723662496E0
1.236001562E0,9.831779480E0,-4.541580677E0,9.862004519E-1
1.256001562E0,7.666061401E0,-4.172346592E0,3.533171415E0
1.276001562E0,3.631822109E0,-4.978723049E0,8.656542778E0
1.296001562E0,5.620052814E-1,-5.179471970E0,1.368114853E1
1.316001562E0,1.269281268E0,-6.330249786E0,1.284584999E1
1.336001562E0,2.427050114E0,-6.408128738E0,7.149287701E0
1.356001562E0,3.386454582E0,-6.158652782E0,1.819870949E0
1.376001562E0,6.703601837E0,-5.467217445E0,-2.712793112E0
1.396001562E0,1.027418041E1,-4.220259190E0,-4.496061802E0
1.416012500E0,1.402278233E1,-2.857336283E0,-8.504386902E0
1.438001562E0,1.738492966E1,-2.215641975E0,-5.360827923E0
1.458042187E0,1.638893318E1,-2.722810745E0,-9.796594381E-1
1.480000000E0,1.484940434E1,-2.088347197E0,7.462918162E-1
1.500000000E0,1.365370083E1,-3.010028601E0,1.701798558E0
1.520001562E0,1.157445240E1,-3.214071989E0,1.401125073E0
1.542001562E0,3.839389563E0,-2.413709641E0,2.693218231E0
1.562001562E0,-2.831967115E0,-2.618069172E0,3.672034979E0
1.582001562E0,-9.550374746E-1,-2.760026217E0,3.313833714E0
1.604000000E0,3.929727793E0,-1.246114969E0,1.831784487E0
1.624001562E0,3.078521967E0,2.043278694E0,-6.411346912E0
1.644001562E0,2.919384241E0,-7.881712168E-3,-7.050493240E0
1.666004687E0,7.163355827E0,-7.280422211E0,1.127647972E1
1.688020312E0,1.388439751E1,-8.989901543E0,1.200043869E1
1.710000000E0,1.460972595E1,-8.605718613E0,2.479205370E0
1.730001562E0,1.477502060E1,-9.405296326E0,-8.237278938E0
1.752001562E0,7.863477707E0,-5.454077721E0,-3.092130661E0
1.772001562E0,6.972250462E0,-8.539897919E0,-5.459928989E0
1.794001562E0,7.349145889E0,-1.244272327E1,-6.441302776E0
1.816001562E0,7.901918888E0,-1.206147099E1,-3.082036734E0
1.836001562E0,5.638239861E0,-7.834210873E0,-2.326350212E0
1.858001562E0,2.213257551E0,-5.878292084E0,-1.628756285E0
1.878001562E0,1.918263197E0,-4.525750160E0,-6.217454076E-1
1.900000000E0,2.827542782E0,-5.248923302E0,-2.147244692E0
1.920000000E0,5.826692104E0,-3.909166336E0,-1.240646601E0
1.940001562E0,8.439426422E0,-1.958801746E0,8.099392653E-1
1.962000000E0,7.326554298E0,-6.393687248E0,-2.061963081E0
1.982000000E0,6.090638638E0,-5.950175285E0,2.929880381E0
2.002000000E0,6.841373920E0,-1.222852898E1,2.986019611E0
2.022000000E0,7.309143543E0,-1.820874596E1,1.773394823E0
2.042001562E0,8.385087967E0,-1.560015774E1,-4.810765266E0
2.064000000E0,6.396473408E0,-1.045152378E1,-1.051194382E1
2.084001562E0,5.131434917E0,-8.346205711E0,-2.765504122E0
2.106001562E0,2.585220814E0,-5.639857769E0,-6.626192480E-2
2.126001562E0,2.224749804E0,-3.093231916E0,-2.205557823E0
2.146010937E0,1.008610129E0,-5.511021614E0,-5.718847752E0
2.168001562E0,9.079770744E-2,-9.041080475E0,-7.629286766E0
2.188020312E0,8.433048725E-1,-1.142902851E1,-5.500649929E0
2.210000000E0,-9.370426536E-1,-1.016703510E1,-2.216379642E0
2.230001562E0,-2.564544439E0,-1.216270733E1,-3.679993391E0
2.250001562E0,-1.613644004E0,-1.309490395E1,-4.372827530E0
2.272009375E0,9.240661263E-1,-1.018663883E1,-4.390467644E0
2.294001562E0,1.978846073E0,-7.377837658E0,-2.535967350E0
2.314006250E0,2.096468210E0,-6.164992809E0,-2.574197769E0
2.336001562E0,1.797298431E0,-7.015767574E0,-4.589607716E0
2.356001562E0,1.931527019E0,-8.202190399E0,-5.919826508E0
2.376001562E0,1.743170381E0,-8.409337044E0,-5.416517735E0
2.396009375E0,2.501088381E0,-8.863008499E0,-5.914166451E0
2.418001562E0,3.996669769E0,-9.071247101E0,-7.437807560E0
2.438007812E0,4.578067780E0,-8.521001816E0,-7.521078110E0
2.460001562E0,4.621000767E0,-7.792752743E0,-4.557267189E0
2.480003125E0,3.858514547E0,-9.949536324E0,-1.290158749E0
2.502000000E0,2.695296288E0,-1.141120625E1,-6.266775131E-1
2.522000000E0,8.973468095E-2,-7.603687286E0,-1.467568994E0
2.542001562E0,-3.819316626E0,-4.535671234E0,-1.991477728E0
2.564000000E0,-4.682867050E0,-6.176360130E0,2.857154131E0
2.584001562E0,-3.518221855E0,-8.929280281E0,1.399296045E0
2.604004687E0,-4.442124844E0,-1.505279636E1,9.860759377E-1
2.626003125E0,-4.261018276E0,-1.782680511E1,2.546204805E0
2.646012500E0,9.100456834E-1,-1.415807343E1,9.312994003E0
2.668001562E0,9.285288453E-1,-1.208479118E1,3.380488396E0
2.688020312E0,6.748996258E0,-2.002375221E1,-1.838238335E1
2.710000000E0,-2.033414602E0,-9.955933571E0,-5.727103233E0
2.730001562E0,-2.118217230E0,-9.986578941E0,1.181940794E0
2.750001562E0,-7.557536960E-1,-9.299078941E0,1.189161658E0
2.770001562E0,-5.241194963E-1,-7.737265110E0,9.225050807E-1
2.790001562E0,-8.081771135E-1,-6.796468258E0,5.952463746E-1
2.810001562E0,-8.186637759E-1,-6.953020573E0,1.679005772E-1
2.832001562E0,-1.383436799E0,-8.009944916E0,-2.182171196E-1
2.854001562E0,-1.926010728E0,-8.902475357E0,4.500141367E-2
2.876001562E0,-1.746972442E0,-9.685436249E0,1.270152688E0
2.896001562E0,-2.065525532E0,-1.050257683E1,2.263449430E0
2.916001562E0,-2.351642370E0,-1.039633179E1,1.587949514E0
2.936001562E0,-2.340236425E0,-9.176400185E0,7.211143970E-1
2.956003125E0,-2.533774137E0,-7.962061405E0,-1.327259302E0
2.978000000E0,-6.598132253E-1,-1.102410126E1,-8.602481842E0
2.998001562E0,1.241834164E0,-1.366667747E1,-1.934447885E0
3.018001562E0,9.936894774E-1,-1.346965408E1,2.525767803E0
3.038001562E0,1.228733063E0,-1.273685646E1,7.756351233E-1
3.058001562E0,7.774164677E-1,-1.298537445E1,-7.650393963E0
3.078001562E0,-1.948114038E-1,-1.228608513E1,-4.958544731E0
3.098001562E0,-1.049962759E0,-1.195557022E1,-2.565530837E-1
3.120000000E0,-2.068657160E0,-1.307888222E1,1.147809029E0
3.140000000E0,-3.278074026E0,-1.549904728E1,1.492516637E0
3.160001562E0,-3.819450855E0,-1.636373711E1,3.014098883E0
3.182001562E0,-5.453694820E0,-1.535070229E1,2.764632463E0
3.202001562E0,-8.210981369E0,-1.359027481E1,-2.307359219E0
3.224001562E0,-7.930400372E0,-1.241968155E1,-2.491147757E0
3.246003125E0,-6.366565228E0,-1.028171635E1,5.590844154E-1
3.268001562E0,-4.632157803E0,-8.346368790E0,-3.458759487E-1
3.288023437E0,-2.929037571E0,-7.056220055E0,-8.176964521E-1
3.310001562E0,-1.647047997E0,-5.995368004E0,6.591429114E-1
3.332001562E0,-5.703850389E-1,-5.810239315E0,2.743295431E0
3.354001562E0,-5.472283363E-1,-5.847416401E0,2.546175957E0
3.376020312E0,-7.063756585E-1,-5.961926460E0,3.367779732E0
3.398000000E0,-5.296644568E-1,-5.600861549E0,2.306870937E0
3.418001562E0,-4.251336157E-1,-4.311564445E0,1.822150230E0
3.438001562E0,-3.107865155E-1,-2.841668367E0,1.243222833E0
3.458001562E0,3.512102365E-1,-1.946811676E0,-1.298145771E0
3.480000000E0,4.251527786E-1,-2.268238068E0,-6.414085388E0
3.500000000E0,5.124549270E-1,-6.803928852E0,-1.417028427E1
3.520000000E0,1.226578236E0,-1.232005501E1,-2.219636726E1
3.540000000E0,8.426536322E-1,-1.851293564E1,-1.410753727E1
3.560000000E0,-1.554794550E0,-1.672347069E1,-7.570609570E0
3.580000000E0,-3.267635345E0,-1.153735161E1,-6.014598846E0
3.600000000E0,-5.147830486E0,-7.433709145E0,-7.808784485E0
3.620007812E0,-9.637666702E0,-8.765976906E0,-7.668627739E0
3.642000000E0,-1.115770817E1,-1.144301033E1,4.966761589E0
3.662000000E0,-1.225656891E1,-1.566153622E1,-7.795999646E-1
3.682010937E0,-5.753889084E0,-5.340400696E0,7.013076782E0
3.704000000E0,-2.561393499E0,-4.570368290E0,4.141279221E0
3.724003125E0,-2.267050505E0,-8.717403412E0,2.748955250E0
3.746018750E0,-4.480690956E0,-1.497861385E1,3.063266039E0
3.768001562E0,-4.523949146E0,-1.602366447E1,3.487758160E0
3.788020312E0,-1.388550758E0,-1.377767277E1,3.162931919E0
3.810001562E0,1.476245642E0,-1.107000256E1,2.537413359E0
3.830001562E0,4.890357971E0,-8.023266792E0,-3.922315121E0
3.852001562E0,5.724316120E0,-7.902972698E0,-2.733833551E0
3.874007812E0,3.320738554E0,-9.642408371E0,-7.611262798E-1
3.896001562E0,1.410108209E0,-8.900320053E0,7.876923680E-1
3.916015625E0,3.803333044E-1,-7.350429058E0,-2.627013922E-1
3.938001562E0,-5.412523746E-1,-7.567410469E0,-6.474017501E-1
3.958001562E0,-1.025810003E0,-7.595786572E0,-3.847961128E-1
3.978001562E0,-1.238750339E0,-7.770123005E0,-2.073378675E-2
3.998001562E0,-1.617493868E0,-8.526498795E0,4.972661138E-1
4.020001562E0,-2.252474546E0,-9.745023727E0,8.272733092E-1
4.040007812E0,-1.948621631E0,-1.000833797E1,4.792138338E-1
4.062000000E0,-1.504056692E0,-8.857665062E0,-9.475197196E-1
4.082001562E0,2.049628198E-1,-1.117723560E1,-7.807740688E0
4.104000000E0,2.589520693E0,-1.393801785E1,-2.621938229E0
4.124000000E0,2.027639866E0,-1.245224285E1,2.426743746E0
4.144000000E0,2.441310167E0,-1.192450428E1,3.418441117E-1
4.164000000E0,2.771345854E0,-1.395448971E1,-5.368087292E0
4.184000000E0,1.381617188E0,-1.499256706E1,-2.244985342E0
4.204009375E0,-8.468961716E-1,-1.428266811E1,-8.711446524E-1
4.226001562E0,-3.206745863E0,-1.476214981E1,-9.613869190E-1
4.248000000E0,-3.341740370E0,-1.648600388E1,2.433485746E0
4.268001562E0,-4.604250908E0,-1.654973602E1,2.384749413E0
4.288020312E0,-5.543314457E0,-1.532807255E1,2.529521942E0
4.310000000E0,-8.153501511E0,-1.342079258E1,-7.150235772E-1
4.330000000E0,-7.819242477E0,-1.212643051E1,-7.844936848E-1
4.350000000E0,-5.660017014E0,-1.043332767E1,4.704127610E-1
4.370000000E0,-4.303941250E0,-8.320272446E0,6.824623942E-1
4.390000000E0,-2.455866814E0,-6.314793110E0,1.074996591E-1
4.410000000E0,-7.503811121E-1,-5.372540474E0,1.448913455E0
4.430000000E0,6.233351827E-1,-5.291846752E0,2.620970964E0
4.450000000E0,6.122643948E-1,-5.611309528E0,3.167346954E0
4.470000000E0,-3.545525372E-1,-5.373641968E0,2.367214441E0
4.490000000E0,-8.895416856E-1,-4.911388874E0,2.866165876E0
4.510000000E0,-1.084879875E0,-4.014664650E0,2.792912960E0
4.530000000E0,-1.202578783E0,-3.024853468E0,2.642949820E0
4.550000000E0,-1.571764708E0,-2.029421091E0,1.890528679E0
4.570000000E0,-1.769832134E0,-1.574206829E0,-6.809301376E-1
4.590001562E0,-2.335907698E0,-2.682923317E0,-5.371822357E0
4.612001562E0,-7.615380883E-1,-8.075373650E0,-1.628464127E1
4.634000000E0,2.215383530E0,-2.238487625E1,-3.069457626E1
4.654000000E0,2.747921228E0,-2.034456635E1,-9.083562851E0
4.674000000E0,1.354658484E0,-1.426762199E1,-6.930897713E0
4.694000000E0,-2.029402018E0,-1.156159973E1,-1.165549088E1
4.714001562E0,-5.057875633E0,-1.903132820E1,-1.052832031E1
4.736000000E0,-8.602060318E0,-1.300414467E1,1.326741123E1
4.756001562E0,-7.691803932E0,-5.954111099E0,6.443438530E0
4.776006250E0,-5.329942703E0,-6.068151593E-1,2.941612005E-1
4.798000000E0,-2.734494448E0,-2.785950422E0,2.204169273E0
4.818001562E0,-4.971521378E0,-9.380663872E0,3.405349493E0
4.838001562E0,-7.221257210E0,-1.918537140E1,4.340180397E0
4.858001562E0,-5.348388195E0,-1.878396797E1,3.479512453E0
4.878001562E0,-8.162791133E-1,-1.443507290E1,2.112164795E-1
4.900000000E0,2.708186865E0,-9.366328239E0,-4.837006092E0
4.920000000E0,1.351402402E0,-9.170261383E0,2.137304068E0
4.940001562E0,1.425450206E0,-8.742015839E0,8.983715177E-1
4.960001562E0,1.148134589E0,-7.423959732E0,-3.506260514E-1
4.980001562E0,4.098969102E-1,-6.378861904E0,-4.263594449E-1
5.000001562E0,-2.657755315E-1,-6.620302677E0,-1.697872043E0
5.022000000E0,-6.799054146E-1,-8.061908722E0,-1.379414558E0
5.042001562E0,-9.148340225E-1,-7.536812782E0,-1.107366160E-1
5.064000000E0,-8.448659182E-1,-6.770083904E0,8.601791859E-1
5.084000000E0,-1.157989144E0,-7.167741776E0,1.416649222E0
5.104000000E0,-1.432718992E0,-9.128162384E0,1.270258069E0
5.124000000E0,-1.533811808E0,-1.033114338E1,2.284164131E-1
5.144001562E0,-1.479080319E0,-1.028716564E1,-7.544800043E-1
5.166001562E0,-6.917040348E-1,-1.162155056E1,-7.129980564E0
5.186009375E0,2.431436300E0,-1.382890892E1,-5.276935577E0
5.208001562E0,2.258766651E0,-1.348696899E1,2.714785337E0
5.228001562E0,2.520500660E0,-1.251309395E1,2.248002291E0
5.248001562E0,2.771288633E0,-1.338229465E1,-6.532790184E0
5.268001562E0,2.485066414E0,-1.431157970E1,-7.468779087E0
5.288023437E0,3.554240465E-1,-1.343795490E1,-3.193482161E-1
5.310001562E0,-1.378600478E0,-1.318777084E1,5.694177747E-1
5.332001562E0,-1.667274117E0,-1.566607571E1,2.454353571E0
5.354001562E0,-2.734561443E0,-1.714478302E1,3.682818651E0
5.376000000E0,-3.928291321E0,-1.588496304E1,2.928386450E0
5.396001562E0,-5.551761150E0,-1.386043549E1,1.501260281E0
5.416007812E0,-7.814817905E0,-1.210533333E1,-1.666077018E0
5.438001562E0,-6.808314800E0,-1.109190559E1,-3.072814345E-1
5.458001562E0,-5.616701603E0,-9.175031662E0,7.312274575E-1
5.480000000E0,-3.463126421E0,-7.230431557E0,-3.127402067E-1
5.500001562E0,-1.548177004E0,-6.307868958E0,-9.764224887E-1
5.520001562E0,-8.153693080E-1,-5.527876377E0,8.175336719E-1
5.542001562E0,-1.674025953E-1,-5.414429665E0,2.780712128E0
5.562001562E0,8.116343617E-2,-5.670561314E0,3.860228777E0
5.584000000E0,-8.946174383E-1,-5.141232014E0,3.531983852E0
5.604000000E0,-1.227354050E0,-4.645747185E0,2.988729954E0
5.624000000E0,-1.237869263E0,-4.007347584E0,2.317673445E0
5.644001562E0,-1.153488040E0,-3.210413933E0,1.880501866E0
5.666007812E0,-1.571391225E0,-2.450733662E0,-3.740700781E-1
5.686015625E0,-1.347245932E0,-4.259055138E0,-5.676144600E0
5.708003125E0,-3.545333818E-2,-1.180183411E1,-2.069493294E1
5.730001562E0,-9.777249098E-1,-1.758787346E1,-1.670609856E1
5.750001562E0,-2.359160185E0,-1.321736336E1,-1.093591881E1
5.772001562E0,-1.547363043E0,-7.811763287E0,-1.032179546E1
5.794001562E0,-2.897060871E0,-7.095005989E0,-8.393486977E0
5.816001562E0,-5.367723465E0,-1.292957020E1,-1.049716663E1
5.836001562E0,-8.083868980E0,-1.706846428E1,3.487671852E0
5.856001562E0,-7.304077148E0,-1.728195190E1,9.139434099E-1
5.876001562E0,-4.236482620E0,-6.483526707E0,4.757958412E0
5.896012500E0,-2.416592360E0,-2.828739643E0,4.274090290E0
5.918001562E0,-2.355817795E0,-4.947340012E0,2.684139490E0
5.938001562E0,-4.064617157E0,-1.355997276E1,3.267271280E0
5.958001562E0,-4.352534294E0,-1.837448311E1,4.020573139E0
5.980001562E0,-1.843602300E0,-1.516353321E1,3.207320452E0
6.002000000E0,3.236098588E-1,-1.124796867E1,2.569505215E0
6.022000000E0,9.659167528E-1,-8.209123611E0,-1.279997706E0
6.042000000E0,3.175707579E0,-4.840597153E0,-5.846831799E0
6.062000000E0,8.895416856E-1,-7.567142487E0,-1.887138605E0
6.082001562E0,2.126051113E-3,-1.013160992E1,-2.700755298E-1
6.104000000E0,-6.532436013E-1,-7.890312195E0,-1.963341236E-1
6.124000000E0,-8.404222131E-1,-6.770361900E0,7.259219140E-2
6.144001562E0,-7.176763415E-1,-6.142831802E0,8.811811805E-1
6.166000000E0,-5.311680436E-1,-6.302889347E0,1.611163735E0
6.186003125E0,-8.472313881E-1,-7.915384293E0,1.816126466E0
6.208001562E0,-1.120879054E0,-1.073564816E1,8.523262143E-1
6.228001562E0,-8.625542521E-1,-1.169219875E1,-9.645376801E-1
6.248001562E0,-2.066196203E-1,-1.010234356E1,-3.442450285E0
6.268001562E0,1.940261126E-1,-1.054923534E1,-4.807068348E0
6.288023437E0,1.336874366E0,-1.278604317E1,-1.477069259E0
6.310001562E0,2.132668734E0,-1.309706879E1,1.865341663E0
6.332001562E0,1.960879922E0,-1.184364605E1,9.932872057E-1
6.354001562E0,6.637780666E-1,-1.276853657E1,-4.946143150E0
6.376000000E0,-5.759204030E-1,-1.389880085E1,-7.564834595E0
6.396000000E0,-6.644675732E-1,-1.376520443E1,-1.413010001E0
6.416007812E0,-1.368008494E0,-1.301741791E1,-2.875819504E-1
6.438000000E0,-1.612667203E0,-1.490375233E1,1.790987372E0
6.458001562E0,-1.906885862E0,-1.638847351E1,3.686955929E0
6.480000000E0,-3.211361885E0,-1.605732536E1,3.227872372E0
6.500000000E0,-4.927813053E0,-1.439491653E1,1.857239723E0
6.520001562E0,-6.803411484E0,-1.302991581E1,-1.117642045E0
6.540001562E0,-6.166572571E0,-1.208177376E1,-5.582032800E-1
6.560001562E0,-5.556003571E0,-9.903902054E0,9.529976249E-1
6.580001562E0,-4.580903053E0,-7.823571205E0,-2.002893388E-1
6.600001562E0,-2.876432180E0,-6.846487999E0,-1.595438600E0
6.620001562E0,-1.755878806E0,-6.204515934E0,2.875148952E-1
6.642000000E0,-6.160567999E-1,-5.758591175E0,2.463614464E0
6.662000000E0,-3.907337319E-3,-5.962194443E0,3.175065756E0
6.682001562E0,5.621585529E-3,-5.713733196E0,2.961627483E0
6.702001562E0,-5.837638378E-1,-4.860564232E0,2.850402594E0
6.724001562E0,-9.507662058E-1,-4.027009010E0,2.569246531E0
6.746007812E0,-9.033418298E-1,-3.150233269E0,2.070591688E0
6.768001562E0,-7.540299296E-1,-2.346288919E0,4.582980871E-1
6.788021875E0,-1.109521031E0,-2.805898905E0,-1.220516086E0
6.810001562E0,-8.220156431E-1,-8.770985603E0,-1.040811253E1
6.830001562E0,-1.042741776E0,-1.643808174E1,-2.801241875E1
6.852000000E0,-2.046611547E0,-2.038453865E1,-1.547897339E1
6.872001562E0,-1.997128129E0,-1.451660061E1,-7.333976269E0
6.894000000E0,-1.927715421E0,-8.410036087E0,-7.710899830E0
6.914000000E0,-5.065105915E0,-1.003147602E1,-8.347001076E0
6.934001562E0,-5.648141861E0,-1.513658428E1,-5.647346973E0
6.956001562E0,-6.452086449E0,-1.288862991E1,5.586199284E0
6.976001562E0,-5.223094940E0,-5.550257206E0,7.515016079E0
6.998001562E0,-1.758071899E0,-2.267347336E0,3.515684128E0
7.020001562E0,-1.126155853E0,-4.457849979E0,1.894464731E0
7.042001562E0,-3.561853647E0,-1.465606785E1,2.346260309E0
7.064000000E0,-4.233082294E0,-1.920681190E1,3.006973743E0
7.084001562E0,-1.249677539E0,-1.680172348E1,3.134345293E0
7.106001562E0,2.358853817E0,-1.144379616E1,-4.595411777E0
7.128001562E0,9.013977647E-1,-6.844945908E0,-1.813646078E0
7.150000000E0,-4.340687692E-1,-7.886366367E0,-1.783804774E0
7.170001562E0,-5.202504396E-1,-8.464336395E0,-1.892951727E-1
7.190001562E0,-8.384494781E-1,-7.880380630E0,3.321811259E-1
7.210003125E0,-1.488542199E0,-6.655688763E0,-6.041719913E-1
7.232000000E0,-1.451297998E0,-6.932755947E0,-1.844837785E0
7.252000000E0,-8.238351941E-1,-7.602806568E0,-1.345761538E0
7.272001562E0,-5.853248239E-1,-7.535874367E0,3.276321292E-1
7.292004687E0,-6.130210161E-1,-7.199680805E0,1.460961103E0
7.314000000E0,-5.494022965E-1,-8.372830391E0,2.281224012E0
7.334003125E0,-3.224989772E-1,-1.005247784E1,1.760638475E0
7.356001562E0,-2.163879573E-1,-1.072036362E1,7.744476199E-1
7.376003125E0,-7.537809014E-1,-1.171724224E1,-2.291710615E0
7.398000000E0,-7.676672339E-1,-1.202550983E1,-9.958509445E0
7.418001562E0,1.404275894E0,-1.284133911E1,-1.567886114E0
7.438001562E0,1.454171062E0,-1.254239941E1,3.386043072E0
7.458007812E0,1.152472854E0,-1.258278465E1,2.977544308E0
7.480000000E0,1.537125349E0,-1.395321560E1,-2.303547621E0
7.500000000E0,1.649873137E0,-1.489180088E1,-9.825554848E0
7.520001562E0,-3.971597552E-1,-1.403944492E1,-3.614420891E0
7.540004687E0,-2.595084667E0,-1.257477856E1,-1.783823967E0
7.562000000E0,-2.883614779E0,-1.300187492E1,1.104895353E0
7.582009375E0,-2.378495932E0,-1.359010124E1,3.118016958E0
7.604000000E0,-2.805812836E0,-1.388397598E1,3.397946835E0
7.624000000E0,-4.266917706E0,-1.322433472E1,2.638735771E0
7.644001562E0,-6.222884655E0,-1.290620327E1,-1.265124917E0
7.666003125E0,-5.756848812E0,-1.268790913E1,-2.945155203E-1
7.688020312E0,-4.881661892E0,-1.002145767E1,1.018081546E0
7.710001562E0,-3.164684534E0,-8.299979210E0,-1.653224945E0
7.730001562E0,-1.875531316E0,-7.282893658E0,-1.996457815E0
7.750001562E0,-1.447926998E0,-6.119368553E0,1.132265851E-1
7.770001562E0,-4.922574461E-1,-5.915076256E0,2.165718317E0
7.790001562E0,-8.170931041E-2,-5.928110123E0,3.461364508E0
7.810001562E0,1.330505759E-1,-6.029174328E0,3.413758039E0
7.832001562E0,-6.025726795E-1,-5.456624985E0,2.566478729E0
7.852001562E0,-1.246986508E0,-4.285353184E0,2.137734890E0
7.874001562E0,-1.576246619E0,-2.850795269E0,2.010775089E0
7.896001562E0,-1.505177140E0,-1.961847186E0,2.853888571E-1
7.916001562E0,-7.618445158E-1,-3.737933159E0,-3.817430258E0
7.938000000E0,5.322501659E-1,-1.226109028E1,-1.980993080E1
7.958000000E0,-9.301186800E-1,-1.889549065E1,-3.284821701E1
7.978000000E0,-2.639367819E0,-1.842668533E1,-7.098080158E0
7.998000000E0,-3.116484404E0,-1.185350132E1,-8.414718628E0
8.018000000E0,-2.228733540E0,-7.141817570E0,-6.033915043E0
8.038000000E0,-4.519956112E0,-8.097438812E0,-7.191904068E0
8.058000000E0,-2.704011440E0,-1.397962856E1,4.731996059E-1
8.078000000E0,-5.540690422E0,-1.257556343E1,2.178915024E0
8.098000000E0,-5.914473057E0,-6.395449162E0,1.999962926E0
8.118000000E0,-2.464744329E0,-2.635240316E0,4.646168232E0
8.138001562E0,-2.660254955E0,-4.784946442E0,4.120191574E0
8.160000000E0,-4.640403271E0,-1.418873787E1,1.617944121E0
8.180000000E0,-4.104169369E0,-1.919999504E1,-2.894493937E-1
8.200000000E0,-1.525365114E0,-1.609314346E1,-2.593782425E0
8.220000000E0,-5.703850389E-1,-1.199921227E1,2.242409468E0
8.240000000E0,1.441328645E0,-9.450833321E0,4.647020817E0
8.260000000E0,2.054454803E0,-7.812040329E0,-1.674715281E0
8.280000000E0,-6.656838208E-2,-7.894554615E0,-1.894857407E0
8.300000000E0,-3.178542256E-1,-9.281045914E0,7.028802037E-1
8.320000000E0,-6.272233725E-1,-8.810652733E0,1.875809133E-1
8.340001562E0,-1.374769807E0,-7.208356857E0,-2.440275669E0
8.362000000E0,-8.463790417E-1,-7.356711388E0,-3.187094212E0
8.382000000E0,-2.397074699E-1,-7.883110523E0,-2.228924990E0
8.402000000E0,-3.075878918E-1,-7.747282028E0,5.254793912E-2
8.422000000E0,-4.414046109E-1,-7.219619751E0,1.398635149E0
8.442000000E0,-5.650028586E-1,-7.825792789E0,2.308671236E0
8.462000000E0,-7.443668842E-1,-9.572918892E0,2.654077768E0
8.482001562E0,-4.988462925E-1,-1.071636009E1,1.269051433E0
8.504001562E0,-3.680175245E-1,-1.132923794E1,-1.216551423E0
8.526000000E0,-4.294910729E-1,-1.204395485E1,-1.141372490E1
8.546000000E0,1.056609154E0,-1.312859535E1,-3.825580120E0
8.566001562E0,1.612772584E0,-1.274322414E1,1.732032537E0
8.588021875E0,1.566717625E0,-1.200404930E1,2.228044271E0
8.610000000E0,2.479521513E0,-1.355139256E1,-4.089861393E0
8.630001562E0,3.040981054E0,-1.484889603E1,-6.628902912E0
8.652000000E0,2.185618877E-1,-1.357882023E1,-2.415509939E0
8.672000000E0,-1.421504617E0,-1.313580704E1,1.091114402E0
8.692001562E0,-1.444488883E0,-1.465997505E1,3.085273743E0
8.714001562E0,-2.501969576E0,-1.629428482E1,2.983146429E0
8.736000000E0,-4.287163258E0,-1.572929192E1,2.894685507E0
8.756003125E0,-4.210481644E0,-1.400357151E1,2.336645126E0
8.776007812E0,-6.024702072E0,-1.231560993E1,-7.277032733E-1
8.798001562E0,-6.745280266E0,-1.066134167E1,-1.058964968E0
8.818001562E0,-4.890204906E0,-8.772804260E0,4.224616587E-1
8.838001562E0,-3.749147415E0,-7.173737049E0,8.022300005E-1
8.858010937E0,-2.326771498E0,-5.897301674E0,-1.167412754E-2
8.880001562E0,-1.096726298E0,-5.148491383E0,-6.713341177E-2
8.902001562E0,-4.646953940E-1,-4.914482117E0,1.307147980E0
8.924000000E0,-4.456471205E-1,-5.080170631E0,2.863244772E0
8.944000000E0,-7.116907835E-1,-5.241060734E0,3.460569620E0
8.964000000E0,-1.021395206E0,-5.386456013E0,2.272719860E0
8.984000000E0,-1.248260140E0,-4.956208229E0,2.384921789E0
9.004000000E0,-1.315268993E0,-3.964529753E0,2.379625797E0
9.024000000E0,-1.362224102E0,-3.271667004E0,1.173953772E0
9.044000000E0,-1.109434843E0,-4.762852669E0,-1.846456170E0
9.064000000E0,-1.792107821E-1,-1.279665375E1,-1.599697399E1
9.084001562E0,-1.168571591E0,-1.830759048E1,-3.547103500E1
9.106003125E0,-2.376963377E0,-1.749476814E1,-9.574288368E0
9.128001562E0,-2.176243067E0,-1.098314190E1,-9.083601952E0
9.148001562E0,-7.851161957E-1,-6.183083534E0,-6.214629173E0
9.168001562E0,-2.497152328E0,-6.152428150E0,-6.267838001E0
9.188020312E0,-2.998795271E0,-1.305783176E1,-9.121525288E-1
9.210000000E0,-7.662632942E0,-1.512851906E1,3.575289965E0
9.230001562E0,-7.994344711E0,-1.071364021E1,-7.929883599E-1
9.252000000E0,-3.422808170E0,-4.439462662E0,5.263508797E0
9.272001562E0,-2.461766005E0,-4.760918140E0,7.430376530E0
9.294001562E0,-4.608914852E0,-1.398616028E1,2.335888386E0
9.316001562E0,-3.678010941E0,-1.721980667E1,1.627626181E0
9.336009375E0,-1.590793848E0,-1.462150478E1,1.796609044E0
9.358001562E0,6.767929345E-2,-1.090379810E1,2.329931736E0
9.380000000E0,1.431454778E0,-8.216584206E0,-1.758186817E0
9.400000000E0,2.193969727E0,-5.608168602E0,-2.328495026E0
9.420000000E0,4.709394872E-1,-8.256423950E0,-6.548141241E-1
9.440000000E0,2.410961092E-1,-1.039142895E1,-3.256114200E-2
9.460001562E0,-2.181979716E-1,-8.045351028E0,-9.918698668E-2
9.482000000E0,-4.970362782E-1,-6.477570534E0,4.480413198E-1
9.502000000E0,-5.328152180E-1,-6.605439663E0,1.045423388E0
9.522000000E0,-4.587960839E-1,-6.837734699E0,1.272997022E0
9.542000000E0,-7.533690929E-1,-7.854312897E0,1.757909060E0
9.562000000E0,-1.067555428E0,-1.027104855E1,4.137276411E-1
9.582000000E0,-1.095117450E0,-1.168145370E1,-1.221674919E0
9.602000000E0,-6.137584448E-1,-1.071987534E1,-4.014070988E0
9.622001562E0,2.833968699E-1,-1.085211277E1,-8.360857964E0
9.642001562E0,1.119586229E0,-1.236532402E1,-3.008745432E0
9.664000000E0,1.983069301E0,-1.290834808E1,1.051341772E0
9.684000000E0,2.517187119E0,-1.247820568E1,-7.424419522E-1
9.704000000E0,2.701396942E0,-1.285456467E1,-7.543736935E0
9.724001562E0,1.255375743E0,-1.406151104E1,-5.306336403E0
9.746009375E0,-7.818697095E-1,-1.342625237E1,-1.159942865E0
9.768000000E0,-1.050269246E0,-1.452202034E1,2.818645716E0
9.788020312E0,-1.408853650E0,-1.697397995E1,4.171427250E0
9.810001562E0,-3.162673235E0,-1.806468391E1,3.237209797E0
9.830001562E0,-3.906044245E0,-1.698128700E1,2.788325787E0
9.852000000E0,-4.231473446E0,-1.470985031E1,2.504756451E0
9.872001562E0,-7.318212986E0,-1.222464085E1,-1.406737268E-1
9.894000000E0,-7.330461502E0,-9.936358452E0,-3.463452160E-1
9.914000000E0,-4.761167049E0,-8.099440575E0,-8.861036301E-1
9.934001562E0,-3.471477509E0,-6.572955132E0,-1.164721727E0
9.956001562E0,-1.711107135E0,-5.308510303E0,1.145845771E0
9.976001562E0,-1.256477088E-2,-4.819987774E0,2.549499273E0
9.998001562E0,1.177650332E0,-5.373306751E0,2.723193884E0
1.002000156E1,3.403214216E-1,-5.579342365E0,2.574159384E0
1.004200156E1,-6.754617095E-1,-5.006074905E0,3.298357725E0
1.006400000E1,-9.739899635E-1,-4.494960308E0,2.664507151E0
1.008400000E1,-9.489179254E-1,-3.851715088E0,1.835825920E0
1.010400000E1,-1.415107250E0,-2.992493629E0,1.969930053E0
1.012400000E1,-2.273495674E0,-3.009310246E0,8.138466477E-1
1.014400000E1,-1.730232000E0,-7.515619755E0,-6.393581390E0
1.016400000E1,-1.389489412E0,-1.449523449E1,-2.258782768E1
1.018400000E1,-2.783307433E-1,-2.029738045E1,-3.020263481E1
1.020401094E1,-5.410991907E-1,-1.649308968E1,-6.496417522E0
1.022600000E1,-9.562058449E-1,-9.900550842E0,-8.829135895E0
1.024600000E1,-2.978578508E-1,-6.684237957E0,-8.965097427E0
1.026600781E1,-1.567886114E0,-1.092951202E1,-6.424399853E0
1.028802031E1,-6.982354164E0,-1.138386440E1,1.158385658E1
1.031000000E1,-7.573798180E0,-1.361979008E1,-2.009501308E-1
1.033000000E1,-5.411891460E0,-6.313749313E0,3.014050961E0
1.035000000E1,-3.345350981E0,-7.328450203E0,3.131328583E0
1.037000156E1,-4.134087563E0,-1.288238621E1,3.430316448E0
1.039200000E1,-3.717294931E0,-1.535113239E1,4.694512367E0
1.041200000E1,-1.490093589E0,-1.493411064E1,4.494845867E0
1.043200000E1,-2.883385122E-1,-1.309290218E1,3.411785364E0
1.045200000E1,8.188169450E-3,-1.068325424E1,2.197781563E0
1.047200000E1,1.844071627E0,-7.002790928E0,-9.168719292E0
1.049200000E1,3.129892051E-1,-6.069904804E0,-4.366516113E0
1.051200000E1,-6.040092111E-1,-9.069005966E0,-8.969062567E-1
1.053200000E1,-3.691380322E-1,-9.534591675E0,-6.994900107E-2
1.055200000E1,-6.807098389E-1,-6.886423111E0,2.269894779E-1
1.057200000E1,-7.105128765E-1,-5.394959927E0,8.181753755E-1
1.059200000E1,-7.902110815E-1,-5.205808640E0,8.995207548E-1
1.061200000E1,-8.195831180E-1,-6.134528637E0,1.174422979E0
1.063200000E1,-1.239411116E0,-8.705078125E0,1.655954361E0
1.065200000E1,-1.161953926E0,-1.147651958E1,5.063736439E-1
1.067200000E1,-4.116494656E-1,-1.216204643E1,-1.011425734E0
1.069200156E1,-5.301720276E-2,-1.077338123E1,-3.928932905E0
1.071400156E1,5.060384870E-1,-1.190924835E1,-6.390660763E0
1.073400156E1,1.996572614E0,-1.322827053E1,-6.056468487E-1
1.075600156E1,2.343023300E0,-1.237632847E1,2.561757565E0
1.077800156E1,2.137868881E0,-1.174799347E1,-4.797118306E-1
1.079800156E1,1.213467598E0,-1.340706062E1,-8.505142212E0
1.082000156E1,2.508069873E-1,-1.460760880E1,-5.149468422E0
1.084200156E1,-1.011703372E0,-1.347122478E1,-3.375154138E-1
1.086400000E1,-1.238357782E0,-1.350529003E1,2.458155632E0
1.088400000E1,-1.177334309E0,-1.521720123E1,3.626468420E0
1.090400000E1,-2.634675264E0,-1.636388969E1,2.847050428E0
1.092400000E1,-4.213028908E0,-1.567390919E1,2.164003849E0
1.094400000E1,-7.978227139E0,-1.417760086E1,-1.263171315E0
1.096400000E1,-7.983226299E0,-1.212221718E1,-7.371555567E-1
1.098400000E1,-5.790041447E0,-9.874090195E0,-2.020706236E-1
1.100400156E1,-3.554546833E0,-8.530541420E0,-9.567613006E-1
1.102600625E1,-1.245703101E0,-7.809885979E0,-1.162337065E0
1.104800000E1,-8.410735130E-1,-6.538383007E0,3.299976289E-1
1.106800156E1,-2.992752008E-2,-6.008852482E0,2.957806349E0
1.108802031E1,4.986834824E-1,-6.267521858E0,3.599481106E0
1.111000000E1,-2.823146880E-1,-6.026665688E0,2.465280771E0
1.113000000E1,-9.434974194E-1,-5.466221333E0,2.408499718E0
1.115000000E1,-1.105259299E0,-5.078647614E0,2.862191439E0
1.117000156E1,-1.356813192E0,-4.677523136E0,2.468460321E0
1.119200156E1,-1.705993176E0,-3.490458727E0,1.856655478E0
1.121400156E1,-2.360778570E0,-2.821509361E0,1.097731948E0
1.123400156E1,-1.877887368E0,-4.971023560E0,-2.455770969E0
1.125600156E1,-1.324922442E0,-1.268089867E1,-1.163145351E1
1.127600156E1,-1.214358330E0,-1.761619186E1,-3.138687325E1
1.129600156E1,1.165593192E-1,-1.939457703E1,-1.435846806E1
1.131600781E1,5.478412509E-1,-1.369131947E1,-7.228353500E0
1.133800156E1,7.742177844E-1,-9.239330292E0,-6.631910324E0
1.135800156E1,-2.404659748E0,-1.114983559E1,-9.039615631E0
1.138000156E1,-4.341568947E0,-1.317797375E1,4.693516731E0
1.140200156E1,-7.102111816E0,-1.069791603E1,8.477207184E0
1.142200156E1,-6.297631264E0,-5.161965847E0,1.576447725E0
1.144400156E1,-4.137870312E0,-3.810304880E0,1.876776338E0
1.146601875E1,-4.639081955E0,-9.831243515E0,2.514208794E0
1.148802188E1,-4.778069973E0,-1.563546848E1,3.033214092E0
1.151000000E1,-2.903505802E0,-1.455893898E1,3.063122511E0
1.153000156E1,-1.328350902E0,-1.212003326E1,3.115890741E0
1.155000156E1,2.891716957E-1,-1.023667812E1,4.330718040E0
1.157200000E1,4.224128246E0,-7.889727592E0,-9.751813889E0
1.159200156E1,1.688419819E0,-8.188955307E0,-4.584714413E0
1.161400000E1,8.628607392E-1,-9.360227585E0,9.843137860E-1
1.163400000E1,8.877699822E-2,-7.829795837E0,1.270736933E0
1.165400156E1,-5.008286834E-1,-6.708208561E0,9.075461030E-1
1.167600156E1,-9.564931393E-1,-7.015825272E0,5.592567921E-1
1.169800156E1,-1.442564011E0,-7.500258446E0,2.486713678E-1
1.171800156E1,-1.555963039E0,-8.214495659E0,2.427145839E-1
1.173800156E1,-1.689185858E0,-9.217121124E0,1.968225390E-1
1.176000000E1,-1.286270499E0,-1.033668804E1,-1.851771325E-1
1.178000469E1,-1.113706112E0,-1.094319725E1,-3.524169028E-1
1.180200000E1,-8.683577776E-1,-1.038333702E1,-1.605944395E0
1.182200000E1,4.247313738E-1,-1.070263672E1,-3.918063164E0
1.184200156E1,2.324128151E0,-1.233510971E1,-3.125917673E0
1.186400156E1,2.743439198E0,-1.285749531E1,7.759416103E-1
1.188600156E1,2.603052616E0,-1.190324306E1,9.490519762E-1
1.190600313E1,2.071827173E0,-1.200775528E1,-3.252810240E0
1.192800156E1,8.521921635E-1,-1.371810532E1,-5.676748276E0
1.194800156E1,-9.419747591E-1,-1.332431602E1,-1.096822143E0
1.196800156E1,-2.429903984E0,-1.339269543E1,1.815379560E-1
1.198802031E1,-3.135120869E0,-1.449944782E1,1.735844135E0
1.201000000E1,-3.234384537E0,-1.654197121E1,2.578124285E0
1.203000156E1,-4.525300026E0,-1.663815117E1,2.674170256E0
1.205200156E1,-7.188944817E0,-1.423248577E1,2.078454256E0
1.207400156E1,-1.069629669E1,-1.109790993E1,-6.757394969E-2
1.209600000E1,-6.943711281E0,-1.031662464E1,9.222464636E-3
1.211600156E1,-4.770887375E0,-9.068038940E0,-5.872784853E-1
1.213600156E1,-3.106036186E0,-7.867136002E0,-4.571392834E-1
1.215600156E1,-2.264742374E0,-6.619019508E0,-8.571721315E-1
1.217600156E1,-1.861166239E0,-5.654175282E0,2.055278420E-1
1.219601563E1,-8.666148186E-1,-5.513415337E0,2.966636181E0
1.221800156E1,6.606943607E-1,-5.828741550E0,3.136643648E0
1.223800156E1,9.576998353E-1,-5.868121147E0,1.910534620E0
1.226000000E1,7.062416673E-1,-5.610964775E0,1.931536674E0
1.228000000E1,5.801054835E-1,-4.653830051E0,1.664506435E0
1.230000156E1,2.020993531E-1,-3.404889822E0,1.642690539E0
1.232000156E1,2.157846093E-1,-3.361018658E0,6.384761333E-1
1.234200156E1,4.558655620E-1,-5.494855404E0,-4.496339321E0
1.236400156E1,-2.780625820E-1,-1.163172150E1,-1.802111626E1
1.238600156E1,-8.674192429E-1,-1.735595131E1,-2.464861298E1
1.240800000E1,-3.106400251E0,-1.720620918E1,-9.121515274E0
1.242800781E1,-3.804118395E0,-1.059825993E1,-9.384571075E0
1.245000156E1,-5.353042603E0,-7.726117611E0,-7.784909725E0
1.247200156E1,-9.598268509E0,-1.329898643E1,-4.289566994E0
1.249200156E1,-8.662873268E0,-1.422290802E1,6.061505795E0
1.251400156E1,-5.154131889E0,-7.764874935E0,2.753801346E0
1.253601719E1,-2.281971216E0,-2.389825106E0,4.674755573E0
1.255800156E1,-1.683909059E0,-3.584273100E0,3.265221834E0
1.257800156E1,-3.584359407E0,-1.099411678E1,1.503903389E0
1.260000156E1,-3.484971285E0,-2.053552818E1,1.814814448E0
1.262200156E1,-1.531829357E0,-1.759202003E1,4.594281614E-1
1.264400156E1,7.007636428E-1,-1.255305767E1,1.992492914E0
1.266400156E1,2.087571621E0,-8.972672462E0,2.846274853E0
1.268601563E1,3.872065783E0,-6.067854881E0,-1.351440668E0
1.270800156E1,2.254629374E0,-6.990618706E0,-2.212060213E0
1.272800156E1,8.465035558E-1,-8.405926704E0,5.475826263E-1
1.275000156E1,2.221819246E-3,-8.694418907E0,5.883319974E-1
1.277200156E1,-4.176062346E-1,-8.197048187E0,-7.498639822E-1
1.279200469E1,-3.480594754E-1,-7.794180393E0,-6.524869800E-1
1.281400000E1,-2.368535846E-1,-7.694897652E0,6.522284746E-1
1.283400000E1,-6.507440209E-1,-7.710747242E0,1.226415396E0
1.285400000E1,-1.145414829E0,-8.833014488E0,1.780682683E0
1.287400156E1,-1.368267059E0,-9.959284782E0,9.379428625E-1
1.289600312E1,-1.614448428E0,-9.887114525E0,-3.758896887E-1
1.291800156E1,-2.393330336E0,-1.087237644E1,-6.547834873E0
1.293800156E1,-2.567925155E-1,-1.280872059E1,-9.908259392E0
1.296000156E1,1.693734884E0,-1.251330471E1,8.222742081E-1
1.298200156E1,1.701578259E0,-1.165009022E1,3.568624735E0
1.300400156E1,2.002625227E0,-1.120983410E1,1.539184451E-1
1.302600469E1,2.397563219E0,-1.363017082E1,-1.067165661E1
1.304800156E1,-5.596686006E-1,-1.403454208E1,-3.748362064E0
1.306800156E1,-1.679226041E0,-1.367718315E1,1.710867763E0
1.308802031E1,-1.749673009E0,-1.503461933E1,3.913744211E0
1.311000000E1,-3.309782743E0,-1.803768539E1,3.121541023E0
1.313000000E1,-4.194459438E0,-1.784122658E1,2.408729792E0
1.315000000E1,-6.148329258E0,-1.505252838E1,4.088721871E-1
1.317000156E1,-8.420809746E0,-1.188753700E1,-1.318793297E0
1.319000156E1,-7.147544384E0,-9.827728271E0,5.125506967E-2
1.321200000E1,-4.603015423E0,-8.421786308E0,5.506663583E-3
1.323200156E1,-2.539414883E0,-7.687934875E0,-8.152447939E-1
1.325400000E1,-1.349525213E0,-6.620522976E0,-1.990769148E0
1.327400000E1,-1.021921873E0,-5.801724911E0,1.364225745E0
1.329400156E1,-3.737923503E-1,-5.433362961E0,3.637731075E0
1.331600156E1,-5.822698586E-3,-5.331082344E0,3.338628292E0
1.333600156E1,-4.087955654E-1,-5.175086021E0,3.061590433E0
1.335600781E1,-7.493947148E-1,-4.666586399E0,2.068370104E0
1.337800000E1,-9.468109608E-1,-4.214465141E0,1.978893876E0
1.339800156E1,-9.045293927E-1,-3.828050852E0,1.460079908E0
1.341800156E1,-8.967817426E-1,-3.702958584E0,-2.543216944E-1
1.343800156E1,-7.443764806E-1,-5.219771385E0,-4.983741760E0
1.346000156E1,1.492449641E-1,-1.119146538E1,-1.720587349E1
1.348200156E1,4.138521552E-1,-1.644784927E1,-2.793418503E1
1.350400156E1,-7.361691445E-2,-1.738139725E1,-6.994334698E0
1.352600000E1,-1.457379222E0,-1.161320019E1,-7.899151325E0
1.354600156E1,-2.356593609E0,-5.098538399E0,-6.509212017E0
1.356600625E1,-6.696974754E0,-4.305655956E0,-4.929632664E0
1.358600781E1,-7.459623814E0,-9.536095619E0,7.443046570E0
1.360800156E1,-1.065327835E1,-2.282812881E1,-9.430051804E0
1.363000000E1,-8.211259842E0,-1.141900063E1,4.416344166E0
1.365000000E1,-2.788411856E0,-6.463118553E0,4.482012749E0
1.367000000E1,-1.110947847E0,-6.659826279E0,4.015593529E0
1.369000000E1,-1.199686646E0,-1.040155220E1,3.911876440E0
1.371000000E1,-1.837080598E0,-1.347429848E1,4.240552902E0
1.373000000E1,-7.372800112E-1,-1.452199173E1,3.502315044E0
1.375000156E1,1.053515792E0,-1.297195721E1,2.859280348E0
1.377200000E1,1.414542198E0,-9.581968307E0,2.437938929E0
1.379200000E1,1.819535851E0,-7.202017307E0,2.186136007E0
1.381200000E1,3.645047665E0,-4.418930054E0,-1.204190540E1
1.383200000E1,1.711949944E0,-8.244729996E0,-3.875657082E0
1.385200000E1,5.995463729E-1,-9.740178108E0,2.507782578E-1
1.387200000E1,-7.317541838E-1,-7.821090698E0,1.068608880E0
1.389200000E1,-9.608505964E-1,-6.784889698E0,1.635115266E0
1.391200156E1,-9.957580566E-1,-7.084212780E0,2.200165987E0
1.393400156E1,-1.279700756E0,-9.550230980E0,1.861884475E0
1.395600156E1,-7.116525173E-1,-1.171606445E1,1.097980887E-1
1.397600781E1,1.682261825E-1,-1.102272224E1,-1.278676152E0
1.399800156E1,-1.208880320E-1,-9.897131920E0,-4.392948151E0
1.402000156E1,-3.476572335E-1,-1.138543415E1,-6.082211018E0
1.404200000E1,1.711356163E0,-1.266150570E1,5.780465007E-1
1.406200156E1,2.425182581E0,-1.188587093E1,2.982801676E0
1.408400156E1,1.789081573E0,-1.106796360E1,6.074472666E-1
1.410601406E1,5.592375994E-1,-1.218768406E1,-6.085687160E0
1.412800156E1,-5.551770926E-1,-1.401237202E1,-5.944218636E0
1.414800156E1,-1.828729630E0,-1.388561344E1,-2.677924156E0
1.417000156E1,-2.851877213E0,-1.332980347E1,-5.465962291E-1
1.419200156E1,-2.879286051E0,-1.506708527E1,2.228781462E0
1.421400000E1,-2.870753288E0,-1.699328804E1,3.106170177E0
1.423400156E1,-4.407006741E0,-1.684853363E1,2.712065458E0
1.425600156E1,-7.798087597E0,-1.412654686E1,-6.413875222E-1
1.427600156E1,-8.303857803E0,-1.225827408E1,-1.703053117E0
1.429600156E1,-5.944898605E0,-1.035500908E1,-6.069780141E-2
1.431600156E1,-3.418939114E0,-8.261662483E0,2.177382857E-1
1.433600156E1,-1.496538877E0,-7.220787525E0,-2.195645809E0
1.435800156E1,-1.208123803E0,-6.157245159E0,-4.369992614E-1
1.438000156E1,-3.154695928E-1,-5.573194027E0,2.974814653E0
1.440200156E1,4.674822390E-1,-5.669814587E0,3.883778334E0
1.442400156E1,-5.771271586E-1,-5.423019886E0,2.886851788E0
1.444400156E1,-7.685291767E-1,-4.722668171E0,2.628699541E0
1.446600938E1,-6.980055571E-1,-4.053067207E0,2.441376925E0
1.448802344E1,-8.241512179E-1,-3.244133711E0,1.742969275E0
1.451000000E1,-8.254632354E-1,-2.895269871E0,-7.477570772E-1
1.453000156E1,-8.274073601E-1,-4.409334660E0,-4.837724209E0
1.455200156E1,-2.261371464E-1,-9.462354660E0,-1.635137367E1
1.457400156E1,5.915210843E-1,-1.505025864E1,-2.612200356E1
1.459400156E1,1.418114424E0,-1.800028992E1,-1.046746922E1
1.461600156E1,8.035898209E-1,-1.262208748E1,-7.837275505E0
1.463600469E1,-1.539079070E0,-8.820018768E0,-7.965777397E0
1.465600469E1,-6.785464287E0,-9.963078499E0,-6.047858715E0
1.467800156E1,-8.942324638E0,-1.081751060E1,7.714395523E0
1.470000000E1,-1.524348927E1,-1.685193443E1,-6.436984062E0
1.472000000E1,-7.796248436E0,-6.750671864E0,4.766443729E0
1.474000156E1,-2.589673758E0,-4.791707516E0,5.124798298E0
1.476000156E1,-1.890212655E0,-9.093139648E0,3.264245033E0
1.478000156E1,-2.507189035E0,-1.428673840E1,3.686735392E0
1.480200000E1,-3.112060070E0,-1.633630943E1,3.581687450E0
1.482200000E1,2.515156567E-1,-1.556871796E1,3.570214272E0
1.484200156E1,2.619840860E0,-1.276068401E1,3.932102680E0
1.486400156E1,3.056073904E0,-9.067895889E0,4.013342857E0
1.488600156E1,2.306056976E0,-7.021503925E0,3.009367943E0
1.490602344E1,3.754414797E0,-5.251346111E0,-1.277791214E1
1.492800156E1,1.881478667E0,-8.781682968E0,-5.315395832E0
1.494800156E1,6.724163294E-1,-1.025405025E1,-6.081272364E-1
1.497000000E1,-9.501532912E-1,-7.498562813E0,-2.995816767E-1
1.499000156E1,-1.031412482E0,-6.505170345E0,4.188416302E-1
1.501000156E1,-8.130613565E-1,-6.815966606E0,1.026030421E0
1.503000938E1,-1.421590805E0,-8.403206825E0,1.283253789E0
1.505200000E1,-2.163084745E0,-1.092252064E1,-3.643687665E-1
1.507200000E1,-1.895144820E0,-1.036351299E1,-3.375613689E0
1.509200000E1,-1.438819468E-1,-9.798021317E0,-6.835158467E-1
1.511200000E1,1.185378790E0,-1.039554691E1,1.825540543E0
1.513200156E1,1.843822598E0,-1.304865837E1,1.026624203E0
1.515400156E1,1.746206164E0,-1.305660629E1,-1.989169836E0
1.517600156E1,4.837341011E-1,-1.258525467E1,-3.738373518E0
1.519600156E1,8.348485827E-1,-1.424045277E1,-2.898592949E0
1.521600156E1,2.299103975E0,-1.531240463E1,1.246038377E-1
1.523600156E1,1.541741490E0,-1.412740803E1,-3.160346299E-3
1.525600156E1,-2.191546917E0,-1.220395470E1,-8.734526634E0
1.527600625E1,-4.672657967E0,-1.278033543E1,-6.682140350E0
1.529800000E1,-3.195301533E0,-1.390161610E1,3.797223091E0
1.531800156E1,-2.585871935E0,-1.416519833E1,4.209524155E0
1.533800156E1,-3.203116179E0,-1.481102085E1,4.364361286E0
1.535800156E1,-3.418853045E0,-1.416786098E1,3.620013952E0
1.538000156E1,-3.201785088E0,-1.356071091E1,2.705668211E0
1.540200156E1,-3.689771175E0,-1.336565018E1,-2.558252335E0
1.542400000E1,-3.355540752E0,-8.845875740E0,-1.216340661E0
1.544400156E1,-2.033836126E0,-6.303971291E0,-1.553185701E0
1.546600312E1,-4.185734987E-1,-5.733490944E0,-4.156430066E-1
1.548802031E1,9.722374082E-1,-5.966877460E0,2.984870434E0
1.551000000E1,5.435795188E-1,-5.972853661E0,3.534502506E0
1.553000000E1,-9.542617798E-1,-5.707777023E0,3.149476528E0
1.555000000E1,-2.075523853E0,-4.479866982E0,3.080226660E0
1.557000000E1,-2.421936035E0,-3.494366169E0,2.849789619E0
1.559000156E1,-2.904798746E0,-2.372864485E0,2.721125126E0
1.561200000E1,-2.822428703E0,-1.113887906E0,1.021739960E0
1.563200156E1,-2.063007116E0,-1.840671897E0,-2.313967228E0
1.565400156E1,-1.171980858E0,-7.527111530E0,-1.276469612E1
1.567600156E1,2.387794971E0,-2.077692032E1,-3.462825012E1
1.569600781E1,2.864269733E0,-2.068852806E1,-1.213407326E1
1.571800156E1,1.177382231E0,-1.243114567E1,-7.044756413E0
1.573800156E1,4.936460853E-1,-9.749333382E0,-1.210731506E1
1.576000000E1,-3.464141607E0,-1.487557697E1,-6.845137596E0
1.578000000E1,-8.654608727E0,-1.292661095E1,1.247025681E1
1.580000000E1,-9.608382225E0,-9.966937065E0,4.610485554E0
1.582000781E1,-5.941451073E0,-3.554901123E0,1.674600482E0
1.584200156E1,-3.090119600E0,-5.111898422E0,3.624878883E0
1.586400000E1,-4.768043041E0,-1.359512997E1,3.950691462E0
1.588400000E1,-4.754061222E0,-1.822549629E1,4.435258865E0
1.590400000E1,-2.484587669E0,-1.662751961E1,3.719574213E0
1.592400000E1,-7.795808315E-1,-1.337112808E1,2.231338739E0
1.594400625E1,3.224079847E0,-8.078372002E0,-9.061210632E0
1.596600156E1,1.608204484E0,-7.558992863E0,-4.085657299E-1
1.598601562E1,2.471773885E-2,-9.226611137E0,-1.026308060E0
1.600800156E1,-2.574341297E-1,-8.307295799E0,-2.029612660E-1
1.602800312E1,-1.092196584E0,-6.183255672E0,-7.885925770E-1
1.605000156E1,-1.159732223E0,-6.607306957E0,-1.888507962E0
1.607000469E1,-7.759224772E-1,-7.095619202E0,-6.708553433E-1
1.609200000E1,-5.162473917E-1,-6.859387875E0,9.954611659E-1
1.611200000E1,-4.901409745E-1,-6.975937366E0,1.628114581E0
1.613200156E1,-8.395028710E-1,-8.788281441E0,1.906474113E0
1.615400156E1,-7.649378777E-1,-1.030176163E1,2.270373553E-1
1.617600625E1,-2.996391356E-1,-1.010877895E1,-1.712543726E0
1.619800000E1,-1.192120910E-1,-1.134099770E1,-5.563683987E0
1.621800156E1,8.664041162E-1,-1.262581348E1,-5.441627979E0
1.624000156E1,2.015515566E0,-1.244159412E1,5.873551369E-1
1.626000625E1,2.244104385E0,-1.213411140E1,1.934926748E0
1.628200000E1,2.252675533E0,-1.301364517E1,-2.035511971E0
1.630200313E1,2.682482719E0,-1.479420280E1,-4.613578796E0
1.632400156E1,4.184394181E-1,-1.412107849E1,-2.853600979E0
1.634400156E1,-2.362885475E0,-1.285220909E1,-3.953918695E0
1.636400156E1,-2.258009911E0,-1.426251888E1,1.389958620E0
1.638600000E1,-2.033002853E0,-1.548825359E1,3.170497656E0
1.640600312E1,-3.114253283E0,-1.575087833E1,2.923473358E0
1.642601406E1,-3.758906364E0,-1.447270966E1,2.158602715E0
1.644800156E1,-4.185409069E0,-1.309411907E1,5.449585915E-1
1.646800156E1,-6.193665504E0,-1.272448349E1,-1.617130041E0
1.648802344E1,-4.847683430E0,-1.074870110E1,1.060593009E0
1.651000156E1,-3.569141865E0,-8.055913925E0,-1.290953457E-1
1.653000156E1,-1.934850216E0,-6.842465878E0,-1.259924650E0
1.655200156E1,-1.057298541E0,-5.774335384E0,-1.298231930E-1
1.657400156E1,-3.723749816E-1,-5.406624317E0,2.188903809E0
1.659400156E1,2.396500111E-1,-5.810401917E0,3.136174202E0
1.661600156E1,-3.709288836E-1,-6.121896744E0,3.250578880E0
1.663601875E1,-1.361151457E0,-5.734524727E0,2.346978426E0
1.665800000E1,-2.000891924E0,-4.819068432E0,1.977543592E0
1.667800156E1,-2.303452015E0,-3.312435627E0,2.275296211E0
1.669800156E1,-2.307866812E0,-2.046544552E0,1.465414286E0
1.671800156E1,-1.705849648E0,-2.577003956E0,-1.086536646E0
1.674000156E1,3.020429015E-1,-1.093257618E1,-1.225934696E1
1.676200156E1,3.991900384E-1,-1.807725716E1,-3.449580002E1
1.678400000E1,1.249457240E0,-1.857631493E1,-9.909753799E0
1.680400156E1,-3.850355148E-1,-1.245753860E1,-8.217369080E0
1.682601094E1,-8.850789070E-1,-8.818601608E0,-7.500391960E0
1.684800156E1,-5.023398876E0,-1.249534893E1,-8.855108261E0
1.686800156E1,-6.286608219E0,-1.269458389E1,8.105943680E0
1.688802188E1,-8.687351227E0,-1.085480309E1,4.705966473E0
1.691000000E1,-5.172778130E0,-4.818943977E0,3.496070862E0
1.693000000E1,-2.715867519E0,-4.675320148E0,3.043853998E0
1.695000156E1,-2.960669994E0,-9.440299034E0,3.185830116E0
1.697200000E1,-3.735136747E0,-1.543237305E1,3.523795605E0
1.699200000E1,-2.832628012E0,-1.578974152E1,2.877543211E0
1.701200000E1,-8.307879567E-1,-1.364965057E1,2.205059767E0
1.703200000E1,3.024575949E0,-1.039280891E1,-6.743451118E0
1.705200156E1,1.964547873E0,-6.569181919E0,-1.332679629E0
1.707400156E1,6.672544479E-1,-8.492558479E0,-2.253125668E0
1.709400156E1,5.995081067E-1,-9.532896996E0,2.814719379E-1
1.711600156E1,5.189671740E-2,-7.993300915E0,5.860431194E-1
1.713600156E1,-1.086440802E0,-6.193234921E0,-8.442242146E-1
1.715600156E1,-1.030703902E0,-6.839755535E0,-2.133980751E0
1.717600156E1,-6.443083882E-1,-7.669404030E0,-1.335571885E0
1.719600156E1,-7.117578983E-1,-7.884738445E0,3.460483253E-1
1.721600156E1,-8.492137194E-1,-8.146165848E0,1.505215406E0
1.723800156E1,-8.870421648E-1,-9.383470535E0,2.003822327E0
1.726000000E1,-5.225872397E-1,-1.045626354E1,1.330735564E0
1.728000156E1,-4.316266775E-1,-1.051294899E1,2.881565392E-1
1.730200000E1,-8.247737288E-1,-1.143904591E1,-2.671986580E0
1.732200000E1,-4.459823370E-1,-1.224744320E1,-9.203819275E0
1.734200156E1,1.569791913E0,-1.285783005E1,-3.608521700E0
1.736400156E1,1.600121617E0,-1.240286541E1,2.152885199E0
1.738601563E1,1.297753096E0,-1.221505451E1,8.276659250E-1
1.740800156E1,1.594796896E0,-1.394066143E1,-7.021005630E0
1.742800156E1,8.220826983E-1,-1.399812222E1,-5.857864857E0
1.745000469E1,-8.065873981E-1,-1.311000729E1,-1.083203912E0
1.747200156E1,-8.604186177E-1,-1.339213943E1,3.351307869E0
1.749200156E1,-1.156945348E0,-1.486422825E1,3.280295610E0
1.751400000E1,-2.159071922E0,-1.563612938E1,3.077918768E0
1.753400000E1,-3.278236866E0,-1.459005451E1,2.102578402E0
1.755400000E1,-3.697088003E0,-1.316123295E1,5.740146637E-1
1.757400000E1,-4.728787422E0,-1.286783791E1,-3.095779181E0
1.759400000E1,-4.189680576E0,-1.126701736E1,2.847471833E-1
1.761400000E1,-3.546320200E0,-8.653717995E0,1.916022182E0
1.763400000E1,-1.731783628E0,-6.944113731E0,-8.060989976E-1
1.765400156E1,-8.001805544E-1,-5.729046822E0,-6.814855933E-1
1.767400156E1,-4.922478460E-3,-5.381447315E0,2.575835466E0
1.769600000E1,6.074090004E-1,-5.873216152E0,3.763790607E0
1.771600625E1,-2.227756828E-1,-5.988032818E0,3.270833969E0
1.773800156E1,-1.310107231E0,-5.712708950E0,2.490831852E0
1.775800156E1,-1.915677309E0,-5.472915173E0,2.154044151E0
1.777800156E1,-2.646349430E0,-4.565531731E0,1.842874527E0
1.779800156E1,-3.412790775E0,-3.089755535E0,2.127631426E0
1.781800156E1,-3.941641331E0,-2.040309906E0,-1.061847687E0
1.783800156E1,-3.391788721E0,-5.259572983E0,-5.902827740E0
1.785800156E1,-4.878425226E-2,-1.497777176E1,-1.817856979E1
1.788000156E1,1.139352694E-1,-1.844237328E1,-2.635181808E1
1.790200156E1,5.440871119E-1,-1.576686192E1,-9.888417244E0
1.792200156E1,6.514527202E-1,-1.145291328E1,-9.122052193E0
1.794400156E1,1.126414418E0,-8.488785744E0,-5.623912811E0
1.796600156E1,-1.724064708E0,-1.049333572E1,-6.412581921E0
1.798802031E1,-5.661453724E0,-1.145638943E1,9.782851219E0
1.801000000E1,-7.741900444E0,-1.285777283E1,8.330098391E-1
1.803000156E1,-6.133781910E0,-6.096135616E0,1.506872177E0
1.805200000E1,-3.289384127E0,-4.905862808E0,3.313651800E0
1.807200000E1,-3.327059269E0,-8.987028122E0,3.664689779E0
1.809200000E1,-3.627474070E0,-1.367729855E1,3.121138811E0
1.811200000E1,-2.779620409E0,-1.462952995E1,2.555302620E0
1.813200156E1,-1.370383501E0,-1.368870449E1,2.451174021E0
1.815200156E1,5.845491290E-1,-1.163130951E1,1.509496272E-1
1.817200156E1,2.573479414E0,-7.695586681E0,-4.123629570E0
1.819200156E1,8.828762174E-1,-7.898787498E0,-2.638075113E0
1.821400000E1,3.532213867E-1,-1.011026382E1,1.007192731E-1
1.823400312E1,1.232822314E-1,-8.742647171E0,3.737348914E-1
1.825600156E1,-1.151170492E0,-6.362610340E0,-6.471144557E-1
1.827600156E1,-1.502246737E0,-6.200110912E0,-1.415346622E0
1.829600156E1,-1.094734430E0,-6.941949844E0,-1.151879191E0
1.831800000E1,-8.906143308E-1,-7.454845428E0,-1.327058077E-1
1.833800156E1,-1.013427258E0,-8.127040863E0,1.279624104E0
1.835800156E1,-9.401934147E-1,-9.411004066E0,2.020246506E0
1.838000000E1,-3.774794340E-1,-1.058106899E1,1.386041641E0
1.840000000E1,3.886747062E-1,-1.032645988E1,2.273246646E-1
1.842000156E1,1.030426145E0,-1.132964897E1,-3.623270035E0
1.844200000E1,1.671229362E0,-1.327556992E1,-7.644360542E0
1.846200000E1,2.005584478E0,-1.305067825E1,-1.497774243E0
1.848200156E1,1.539318442E0,-1.222492790E1,2.122708797E0
1.850400156E1,5.978992581E-1,-1.228549099E1,2.107376456E-1
1.852600000E1,3.937025070E-1,-1.366346931E1,-6.719767570E0
1.854601094E1,2.826211452E-1,-1.462228012E1,-5.138694286E0
1.856800156E1,-1.856521487E0,-1.318034840E1,-2.484961271E0
1.858802031E1,-1.297954202E0,-1.354293537E1,2.752987385E0
1.861000156E1,-1.131758332E0,-1.457427120E1,3.378841162E0
1.863200156E1,-2.338847637E0,-1.524679375E1,2.578670263E0
1.865200156E1,-3.570904016E0,-1.464343548E1,2.215881586E0
1.867400000E1,-5.163536549E0,-1.296872902E1,2.021185160E-1
1.869400000E1,-5.522293568E0,-1.222106838E1,-1.321944118E0
1.871400000E1,-4.676163197E0,-1.039517403E1,5.834860802E-1
1.873400000E1,-3.587203503E0,-8.608323097E0,4.800565839E-1
1.875400000E1,-1.688113332E0,-7.360628605E0,-1.417013049E0
1.877400000E1,-1.064663172E0,-5.830311775E0,-1.416754484E0
1.879400156E1,-4.773367941E-1,-5.130419731E0,1.376560688E0
1.881600156E1,2.534310520E-1,-5.576871395E0,4.354124069E0
1.883600156E1,2.109866291E-1,-6.491197586E0,3.307436466E0
1.885600156E1,-7.152629495E-1,-6.315645695E0,2.299381733E0
1.887600156E1,-1.194342732E0,-6.030850410E0,1.949081302E0
1.889600156E1,-1.700304508E0,-5.035666943E0,2.131050348E0
1.891600938E1,-2.343607426E0,-3.372300148E0,1.847634196E0
1.893800156E1,-2.424722910E0,-2.388264179E0,-6.800490618E-2
1.896000000E1,-1.318783760E0,-5.739629269E0,-3.409266710E0
1.898000000E1,2.398798466E-1,-1.374578190E1,-1.695472145E1
1.900000000E1,1.143403649E0,-1.825906181E1,-3.016569710E1
1.902000000E1,7.904791832E-1,-1.770912552E1,-1.016725445E1
1.904000000E1,-8.726577759E-1,-1.297655392E1,-9.252345085E0
1.906000000E1,-1.140789241E-1,-9.080192566E0,-6.538602829E0
1.908000000E1,-1.678009748E0,-9.039308548E0,-6.334406376E0
1.910000000E1,-2.253930092E0,-1.241795826E1,-3.154590607E0
1.912000000E1,-6.154027462E0,-1.191565418E1,9.587637901E0
1.914000000E1,-6.843413353E0,-8.816226959E0,-1.370824128E-1
1.916000156E1,-5.237536430E0,-4.252370834E0,1.238482237E0
1.918000156E1,-3.488562584E0,-5.531429768E0,2.790796280E0
1.920200000E1,-4.341367722E0,-1.107289505E1,5.427751064E0
1.922200000E1,-3.502075434E0,-1.539263821E1,2.376111031E0
1.924200000E1,-1.901848555E0,-1.476689911E1,1.743955731E0
1.926200156E1,1.095586643E-2,-1.238923740E1,1.143279225E-1
1.928400000E1,1.684004903E0,-9.840370178E0,-2.147301912E0
1.930400000E1,1.647986412E0,-7.121246815E0,-2.885491960E-2
1.932400000E1,5.759491324E-1,-8.768964767E0,-2.559832573E0
1.934400000E1,5.823081732E-1,-1.000732231E1,2.381081581E-1
1.936400156E1,-8.207323402E-2,-8.082911491E0,1.987570524E-1
1.938600781E1,-8.653123975E-1,-6.626183033E0,-6.207494736E-1
1.940600781E1,-6.170337200E-1,-7.130794525E0,-8.856726885E-1
1.942601875E1,-4.827189445E-1,-7.545048714E0,-2.282631844E-1
1.944800156E1,-7.256729603E-1,-7.600565910E0,5.723482370E-1
1.946800156E1,-9.024608135E-1,-8.271995544E0,1.281041503E0
1.948802031E1,-9.329916835E-1,-9.600404739E0,1.205470920E0
1.951000625E1,-8.329523206E-1,-1.083314037E1,3.408385515E-1
1.953200000E1,-6.922211647E-1,-1.075359535E1,-1.078147292E0
1.955200156E1,-4.257178009E-1,-1.131136703E1,-3.961694956E0
1.957400156E1,1.294429898E0,-1.243733215E1,-5.153260708E0
1.959400312E1,2.289862394E0,-1.289777565E1,-3.736965656E-1
1.961601094E1,1.782090545E0,-1.222917938E1,2.005775928E0
1.963800156E1,7.283545136E-1,-1.290663338E1,-1.256486535E0
1.965800156E1,6.618340015E-1,-1.418940926E1,-6.305101395E0
1.967800156E1,-2.521668971E-1,-1.360023403E1,-5.297525406E0
1.970000000E1,-1.996103406E0,-1.267616844E1,-1.945030332E0
1.972000000E1,-1.754557252E0,-1.416112900E1,1.315345645E0
1.974000156E1,-1.263583064E0,-1.506482410E1,3.538563013E0
1.976000156E1,-2.028367758E0,-1.533943939E1,3.144276381E0
1.978200000E1,-3.294316053E0,-1.414262581E1,2.809212685E0
1.980200000E1,-3.790279865E0,-1.296441078E1,2.448818207E0
1.982200000E1,-6.189548016E0,-1.281131554E1,-1.765627980E0
1.984200156E1,-4.973273754E0,-1.067214489E1,2.852835059E-1
1.986400156E1,-4.034382820E0,-7.964082241E0,-7.342825532E-1
1.988600000E1,-1.682750225E0,-7.031119347E0,-1.018321037E0
1.990600156E1,-9.783474207E-1,-5.830781460E0,-6.455342174E-1
1.992600156E1,-6.015958190E-1,-5.264523983E0,2.039869308E0
1.994601562E1,1.799577773E-1,-5.632120132E0,3.380842447E0
1.996800156E1,-7.419343591E-1,-5.680846691E0,3.041440725E0
1.998802031E1,-1.535353661E0,-5.560370445E0,2.510837555E0
2.001000000E1,-1.763233781E0,-5.014924049E0,2.706453323E0
2.003000156E1,-1.892003536E0,-3.863839388E0,2.600907564E0
2.005000156E1,-1.946974397E0,-2.588859797E0,9.330587387E-1
2.007200000E1,-1.663548827E0,-2.786190033E0,-1.671842337E0
2.009200000E1,-7.150235772E-1,-8.907943726E0,-9.320752144E0
2.011200156E1,6.898077726E-1,-1.764395523E1,-3.031346703E1
2.013200156E1,2.012949139E-1,-2.012648201E1,-1.815715599E1
2.015400156E1,-1.537173241E-1,-1.468779469E1,-7.561061382E0
2.017600156E1,-3.538247049E-1,-9.158290863E0,-7.979538918E0
2.019600156E1,-2.592010736E0,-8.789727211E0,-7.013995647E0
2.021600156E1,-4.510340691E0,-1.379634762E1,-5.665150166E0
2.023800000E1,-7.919683933E0,-1.378012466E1,7.598411083E0
2.025800156E1,-7.557067871E0,-8.188294411E0,4.167826176E0
2.027800156E1,-3.475873232E0,-3.670608044E0,3.822850704E0
2.030000000E1,-2.608032703E0,-4.311947823E0,2.433217525E0
2.032000156E1,-3.605188847E0,-1.047516918E1,3.240848780E0
2.034200000E1,-4.456317902E0,-1.655979347E1,3.155241728E0
2.036200000E1,-2.458462238E0,-1.514967442E1,2.768013239E0
2.038200000E1,-5.397296548E-1,-1.187901402E1,2.416343212E0
2.040200000E1,2.212031841E0,-9.023496628E0,-2.211112261E0
2.042200000E1,4.966254234E0,-6.135046005E0,-8.606579781E0
2.044200000E1,1.714612246E0,-8.428490639E0,-2.488245964E0
2.046200000E1,1.000115514E0,-1.031659603E1,1.380027413E0
2.048200156E1,8.554004133E-2,-8.264764786E0,9.017329812E-1
2.050400156E1,-1.074335814E0,-6.650585175E0,-3.380613029E-2
2.052400156E1,-1.270497441E0,-6.732389450E0,-3.083923459E-1
2.054600156E1,-1.145003080E0,-7.064838886E0,3.331675529E-1
2.056800156E1,-1.086057782E0,-7.580214977E0,1.082447290E0
2.058802031E1,-9.679182768E-1,-8.750903130E0,1.191891074E0
2.061000156E1,-8.312764168E-1,-1.043447685E1,9.442731142E-1
2.063000156E1,-7.668819427E-1,-1.085901642E1,4.414620697E-1
2.065000156E1,-9.554396868E-1,-1.043378735E1,-7.037516236E-1
2.067000156E1,-4.100309610E-1,-1.115477753E1,-4.184595108E0
2.069200156E1,1.745842338E0,-1.230815029E1,-5.746419430E0
2.071400000E1,2.184124708E0,-1.247136784E1,2.348903418E-1
2.073400156E1,1.384700894E0,-1.159456348E1,2.046812534E0
2.075600156E1,1.883662045E-1,-1.214019203E1,-2.989696980E0
2.077600156E1,-2.661203146E-1,-1.421093750E1,-1.157168484E1
2.079600156E1,-6.398360729E-1,-1.410184765E1,-5.826836109E0
2.081600156E1,1.386338472E-1,-1.356873608E1,3.097398043E0
2.083600156E1,2.756875157E-1,-1.409160995E1,4.643659592E0
2.085800156E1,-3.065823019E-1,-1.641965675E1,4.014798641E0
2.087800156E1,-1.661939979E0,-1.683868980E1,2.977783680E0
2.089800156E1,-3.322088957E0,-1.544010162E1,1.416084051E0
2.091800156E1,-4.001754761E0,-1.442863750E1,-2.996985197E0
2.093800156E1,-4.194526196E0,-1.248605824E1,-9.499330521E-1
2.096000156E1,-4.232450485E0,-9.694458008E0,6.434081793E-1
2.098200156E1,-3.494385242E0,-7.781116962E0,-2.813282907E-1
2.100400156E1,-2.011876583E0,-6.847867012E0,-1.391653657E0
2.102600000E1,-1.024153352E0,-5.796362400E0,1.503731132E0
2.104600156E1,-4.692635266E-4,-5.317847729E0,4.027478218E0
2.106601406E1,-2.663310058E-2,-5.066456318E0,3.422472954E0
2.108802031E1,-1.471447587E0,-4.309285164E0,2.416994333E0
2.111000156E1,-2.131452322E0,-4.101171970E0,2.244372606E0
2.113200156E1,-2.466832161E0,-3.854501963E0,1.780203819E0
2.115400156E1,-2.743295431E0,-2.499316692E0,1.906091094E0
2.117600156E1,-1.833479643E0,-2.038902283E0,-1.384633899E0
2.119600156E1,-1.520854354E0,-5.080400467E0,-5.661242962E0
2.121600156E1,8.087326288E-1,-1.499399376E1,-1.748290062E1
2.123600156E1,6.860441566E-1,-1.987756157E1,-2.730278778E1
2.125600156E1,2.045807123E0,-1.635775185E1,-1.187057590E1
2.127600156E1,3.580183744E0,-1.145408058E1,-7.767584801E0
2.129600625E1,3.591331244E0,-8.426354408E0,-4.862451077E0
2.131800000E1,-1.386348128E0,-1.198614979E1,-2.144917488E0
2.133800000E1,-8.326823235E0,-1.550852776E1,9.034998894E0
2.135800156E1,-1.150342083E1,-1.881453705E1,-9.099240303E0
2.137800156E1,-6.141999245E0,-7.025852203E0,6.552671432E0
2.139800156E1,-3.679782629E0,-3.304256916E0,7.103165627E0
2.141804375E1,-5.474188805E0,-6.842206955E0,3.893450737E0
2.144000156E1,-5.642022610E0,-1.472986603E1,5.579926968E-1
2.146000156E1,-3.529762030E0,-1.458828354E1,7.545949221E-1
2.148200000E1,-1.954520822E0,-1.158744812E1,1.623661399E0
2.150200000E1,-3.831967711E-1,-9.639142990E0,2.177890301E0
2.152200000E1,4.335209846E0,-7.595786572E0,-3.160767555E0
2.154200156E1,4.434770107E0,-8.219438553E0,-3.124883413E0
2.156200156E1,1.808465123E0,-9.573349953E0,-8.691813946E-1
2.158400156E1,1.013829470E0,-9.394263268E0,-1.851292551E-1
2.160600156E1,3.181989789E-1,-8.053826332E0,-1.865466088E-1
2.162800000E1,-5.766482353E-1,-7.429791927E0,2.570223510E-1
2.164800781E1,-6.612401605E-1,-6.753698349E0,8.479017615E-1
2.167000156E1,-5.316085219E-1,-6.724795341E0,1.147052526E0
2.169200156E1,-8.289013505E-1,-8.215904236E0,1.031833887E0
2.171400000E1,-1.448195219E0,-1.032468891E1,5.489329696E-1
2.173400156E1,-1.363239288E0,-1.061214542E1,-7.634821534E-1
2.175400156E1,-7.219858766E-1,-1.080986786E1,-3.388915777E0
2.177600156E1,1.494259596E0,-1.285223770E1,-8.093953133E0
2.179600156E1,2.353069305E0,-1.302365208E1,-2.854434252E0
2.181600156E1,1.650380731E0,-1.190575218E1,9.494063258E-1
2.183600156E1,3.965564370E-1,-1.168559074E1,-2.095999002E0
2.185800156E1,1.324472278E-1,-1.306990910E1,-6.519411087E0
2.188000156E1,1.595821619E0,-1.488204193E1,-1.478046060E0
2.190200000E1,9.195649624E-2,-1.479996872E1,-1.091190934E0
2.192200156E1,-1.345445514E-1,-1.537824535E1,3.317405701E0
2.194400156E1,-1.047788858E0,-1.535826778E1,4.003248692E0
2.196600156E1,-2.602679253E0,-1.527201843E1,2.926087856E0
2.198600938E1,-3.886450291E0,-1.409078693E1,1.818693161E0
2.200800156E1,-6.905270576E0,-1.341167641E1,-3.913801432E0
2.202800156E1,-5.196567059E0,-1.228850842E1,-4.536629021E-1
2.205000000E1,-4.044553757E0,-1.007554817E1,-1.267586201E-1
2.207000156E1,-2.153977156E0,-8.534783363E0,-2.322730064E0
2.209000156E1,-1.513384581E0,-6.793518543E0,-7.164025903E-1
2.211000156E1,-1.585900068E0,-5.951621532E0,4.459899902E0
2.213200156E1,-4.062098265E-1,-5.970344067E0,5.014799118E0
2.215400156E1,-2.122258902E0,-5.188752651E0,2.415232420E0
2.217400156E1,-2.383552313E0,-4.722725391E0,1.976911545E0
2.219600156E1,-1.698341250E0,-4.462916374E0,2.882274151E0
2.221600156E1,-1.387210131E0,-3.827897549E0,1.637701035E0
2.223600156E1,-1.501911521E0,-2.090243340E0,2.978386823E-3
2.225600156E1,-1.230753779E0,-7.743422985E-1,-1.246651292E0
2.227601563E1,-2.600773275E-1,-2.839628696E0,-4.416316032E0
2.229800000E1,9.470791817E-1,-1.285227585E1,-1.935504341E1
2.231800000E1,2.399708271E0,-2.343711853E1,-2.664227295E1
2.233800156E1,3.403214216E-1,-1.710629272E1,-8.586211205E0
2.235800312E1,2.864901721E-1,-9.303388596E0,-9.822998047E0
2.238000156E1,-1.562187910E0,-8.589533806E0,-1.359133720E1
2.240200000E1,-2.074403286E0,-1.623412323E1,-4.462791979E-1
2.242200156E1,-7.485749722E0,-1.316354084E1,1.273498821E1
2.244400156E1,-5.297439575E0,-6.747090340E0,6.296577930E0
2.246600156E1,-3.032763958E0,-3.399057627E0,1.173484445E0
2.248600156E1,-3.953344345E0,-9.380357742E0,1.841026187E0
2.250600625E1,-5.487864971E0,-1.641035461E1,2.858705521E0
2.252800156E1,-3.744722843E0,-1.731888962E1,3.966502666E0
2.255000000E1,-1.588246346E0,-1.332066822E1,4.650813580E0
2.257000000E1,2.874842644E0,-9.929032326E0,-8.224724770E0
2.259000156E1,9.751392007E-1,-7.129108906E0,-1.834782124E0
2.261000156E1,-4.761875570E-1,-8.449578285E0,-9.573933482E-2
2.263000156E1,-1.092225194E0,-8.429131508E0,-1.588380456E0
2.265200000E1,-1.005631804E0,-7.986414909E0,-1.542124510E0
2.267200000E1,-1.476963878E0,-6.473950386E0,-2.613759518E0
2.269200156E1,-6.429485083E-1,-6.734946728E0,-3.163746119E0
2.271400000E1,7.824251056E-2,-7.811695576E0,-1.494317055E0
2.273400156E1,5.863878503E-2,-7.522753716E0,5.094478130E-1
2.275600156E1,-7.860642672E-2,-6.753497124E0,1.760379910E0
2.277800156E1,-4.175200462E-1,-8.143675804E0,3.502697945E0
2.279800156E1,-7.239012718E-1,-1.052022743E1,2.770550966E0
2.282000156E1,-7.993856072E-1,-1.117651653E1,-2.611882687E-1
2.284200156E1,-8.700529337E-1,-1.245223331E1,-6.722410679E0
2.286200156E1,7.682705522E-1,-1.345066261E1,-1.161203098E1
2.288200156E1,1.338492751E0,-1.294045925E1,-1.480057120E0
2.290400000E1,7.461673021E-1,-1.311138535E1,1.397438169E0
2.292400000E1,-1.427997649E-1,-1.396827984E1,-2.638640165E0
2.294400156E1,1.147387743E0,-1.441762447E1,-5.432520390E0
2.296600156E1,-1.867190152E-1,-1.347138786E1,-3.742673635E0
2.298601562E1,-2.640612721E-1,-1.499253941E1,1.807200909E0
2.300800156E1,-5.741678476E-1,-1.595639610E1,4.355886459E0
2.303000156E1,-1.307626843E0,-1.689835167E1,3.580452204E0
2.305200156E1,-2.262195110E0,-1.545002365E1,2.302733660E0
2.307400000E1,-2.951648474E0,-1.314783478E1,1.760274529E0
2.309400156E1,-4.194392681E0,-1.266257858E1,-2.216647625E0
2.311600469E1,-4.172480583E0,-1.067697144E1,2.252177596E-1
2.313800156E1,-4.052128792E0,-8.198789597E0,1.033050179E0
2.315800156E1,-2.525040150E0,-7.134711266E0,-5.743211135E-2
2.317800156E1,-1.560942888E0,-6.122500420E0,-2.433849573E-1
2.320000156E1,-8.275222778E-1,-5.362293243E0,2.181615829E0
2.322000156E1,-2.718855739E-1,-5.230593204E0,3.106438398E0
2.324000156E1,-1.198690534E0,-4.963496208E0,3.176349163E0
2.326200156E1,-2.035933256E0,-4.415922642E0,2.435295820E0
2.328200313E1,-2.326647043E0,-3.905431509E0,2.505254507E0
2.330400156E1,-2.628747225E0,-2.887436152E0,2.510770559E0
2.332600156E1,-2.131529093E0,-2.260001898E0,1.338531137E0
2.334601250E1,-1.578841925E0,-3.612496138E0,-9.342462420E-1
2.336800156E1,-4.625597503E-3,-1.184116554E1,-1.253253555E1
2.338802031E1,2.597507715E0,-2.030630684E1,-3.534282303E1
2.341000000E1,-4.016895890E-1,-1.747286606E1,-1.372778702E1
2.343000469E1,-2.019087791E0,-9.489552498E0,-1.031559086E1
2.345200000E1,-1.710436940E0,-5.370854855E0,-7.889469147E0
2.347200000E1,-5.103652954E0,-7.843012333E0,-8.822174072E0
2.349200156E1,-6.061017513E0,-1.129223347E1,1.159250355E1
2.351400156E1,-7.015375137E0,-1.605712509E1,6.286311626E0
2.353600156E1,-4.872392178E0,-9.422083855E0,3.427155972E0
2.355600156E1,-2.583132982E0,-1.000345325E1,3.133301258E0
2.357800156E1,-2.925963402E0,-1.300429821E1,3.068820715E0
2.359800156E1,-2.243970156E0,-1.386890125E1,3.728471279E0
2.361800156E1,-8.959773183E-1,-1.357910728E1,3.446156502E0
2.363800156E1,-8.734048344E-3,-1.244801998E1,2.974182606E0
2.366000000E1,6.318106651E-1,-1.012305832E1,1.707065850E-1
2.368000156E1,1.205576301E0,-5.651436329E0,-6.330834389E0
2.370200156E1,-8.431995511E-1,-7.292996883E0,-4.194268227E0
2.372400156E1,-5.287450552E-1,-9.354864120E0,-1.557409048E0
2.374600312E1,-2.437967658E-1,-8.511961937E0,-1.610340178E-1
2.376800000E1,-1.181691766E0,-6.198980808E0,-1.344047308E0
2.378802344E1,-1.234900475E0,-6.067175388E0,-2.690144300E0
2.381000156E1,-7.493277192E-1,-7.269246578E0,-1.351881266E0
2.383000156E1,-8.029865026E-1,-7.691995621E0,8.152065277E-1
2.385000156E1,-1.115180731E0,-8.571299553E0,2.276387930E0
2.387200000E1,-8.704647422E-1,-9.969954491E0,1.778834343E0
2.389200000E1,-5.853823423E-1,-1.008669567E1,5.470846295E-1
2.391200156E1,-4.007127285E-1,-1.047273636E1,-6.473634243E-1
2.393400156E1,-2.367961258E-1,-1.246971130E1,-4.659413338E0
2.395400156E1,1.159856677E0,-1.251790142E1,-6.943490982E0
2.397600781E1,1.302589297E0,-1.254121208E1,6.008393168E-1
2.399800156E1,5.294824839E-1,-1.207640171E1,2.156419277E0
2.401800156E1,2.229384929E-1,-1.308951283E1,-1.960937381E0
2.403800156E1,1.091056943E0,-1.434387302E1,-8.557633400E0
2.405800156E1,8.374247551E-1,-1.391711140E1,-4.347908497E0
2.407800156E1,-3.833308518E-1,-1.269130898E1,-9.554109573E-1
2.409800156E1,1.702660471E-1,-1.375237083E1,3.693898916E0
2.411800156E1,-2.272097468E-1,-1.512250614E1,3.999418259E0
2.413800156E1,-4.950155616E-1,-1.567631340E1,3.600314140E0
2.415800156E1,-2.023952723E0,-1.478713608E1,2.622177601E0
2.418000156E1,-3.490726709E0,-1.377924442E1,-1.422806978E0
2.420000156E1,-3.723299503E0,-1.288001060E1,-2.840538263E0
2.422000156E1,-4.036365509E0,-1.090625858E1,3.762248456E-1
2.424000156E1,-3.590957880E0,-8.740752220E0,9.590118527E-1
2.426200156E1,-2.306075811E0,-7.793787003E0,-9.766235948E-1
2.428200156E1,-1.584693313E0,-7.104975700E0,7.682418823E-1
2.430400156E1,1.041669324E-1,-6.367197037E0,2.649241686E0
2.432600156E1,7.576307654E-1,-6.360321522E0,2.718826771E0
2.434601406E1,-2.108621299E-1,-5.757059097E0,2.151736021E0
2.436800156E1,-1.443483353E0,-4.785243034E0,2.375335455E0
2.438802031E1,-2.217595816E0,-4.463817120E0,2.322567225E0
2.441000000E1,-3.358806372E0,-3.945510149E0,2.044715405E0
2.443000156E1,-3.820944786E0,-2.378725529E0,8.777621984E-1
2.445000156E1,-3.397171259E0,-1.316581011E0,-6.749063134E-1
2.447000156E1,-2.595381498E0,-3.599069357E0,-2.987283707E0
2.449000156E1,-2.005575001E-1,-1.270835590E1,-1.244050217E1
2.451000156E1,1.813837647E0,-2.082399940E1,-3.349131012E1
2.453000156E1,3.452256918E0,-2.105778885E1,-1.392589378E1
2.455000156E1,1.728220940E0,-1.285972691E1,-6.837648392E0
2.457000156E1,2.222087383E0,-8.300966263E0,-6.835981846E0
2.459200156E1,-2.811616421E0,-9.264248848E0,-7.643756866E0
2.461200156E1,-4.282613754E0,-1.257522869E1,5.353109360E0
2.463200156E1,-7.807999611E0,-1.413737774E1,3.109493494E0
2.465200156E1,-8.596409798E0,-6.978446960E0,1.265728235E0
2.467400000E1,-4.139507771E0,-4.378017902E0,2.975207567E0
2.469400000E1,-3.759279728E0,-8.830965042E0,5.379215717E0
2.471400156E1,-3.780090094E0,-1.477324867E1,2.644108295E0
2.473400156E1,-2.259982586E0,-1.536144733E1,2.179403543E0
2.475600156E1,-8.142488599E-1,-1.288247204E1,2.043767214E0
2.477600156E1,3.464888632E-1,-1.047197914E1,2.014471769E0
2.479600156E1,1.077046037E0,-8.758717537E0,4.891641140E-1
2.481600312E1,1.664640456E-1,-5.859895229E0,-6.146461487E0
2.483600312E1,-1.024086356E0,-8.046078682E0,-2.732147932E0
2.485800156E1,-1.351191700E-1,-1.006593227E1,-1.392276138E-1
2.487800156E1,-7.810843587E-1,-8.031177521E0,-7.838999629E-1
2.489800156E1,-1.554928660E0,-6.436744213E0,-1.522798419E0
2.492000000E1,-8.279054165E-1,-6.614624023E0,3.600879340E-3
2.494000000E1,-3.627215624E-1,-6.668799877E0,1.302790523E0
2.496000156E1,-6.757490635E-1,-7.074310780E0,2.435027599E0
2.498200156E1,-8.960060477E-1,-9.502998352E0,2.125150919E0
2.500200156E1,-1.001858473E0,-1.164545441E1,7.226849794E-1
2.502400156E1,-1.254532933E0,-1.140953922E1,-1.328054070E0
2.504400156E1,-1.626812100E0,-1.044093132E1,-5.532856464E0
2.506601875E1,-1.163007468E-1,-1.170368195E1,-5.872191429E0
2.508802188E1,1.946715832E0,-1.313510704E1,3.326982856E-1
2.511000156E1,2.403002739E0,-1.261727047E1,3.209599972E0
2.513200156E1,2.620606899E0,-1.240897465E1,8.783464432E-1
2.515400156E1,2.436751366E0,-1.353527451E1,-8.814684868E0
2.517400156E1,1.010123253E0,-1.370372105E1,-5.104763508E0
2.519600156E1,-1.013810396E0,-1.278382111E1,-3.430603743E-1
2.521600469E1,-2.622081757E0,-1.305446053E1,3.937982768E-2
2.523800156E1,-1.879831433E0,-1.535319138E1,2.423123598E0
2.525800156E1,-2.797117233E0,-1.577856445E1,2.922668934E0
2.527800156E1,-3.755276680E0,-1.448301506E1,2.553032875E0
2.529800156E1,-5.256067276E0,-1.330007839E1,1.280936122E0
2.532000156E1,-5.342057705E0,-1.232994747E1,-8.653985858E-1
2.534200156E1,-4.316803455E0,-9.971045494E0,-2.523297071E-1
2.536400156E1,-3.122891426E0,-8.378279686E0,-1.451173574E-1
2.538601406E1,-1.558625340E0,-7.423643589E0,-1.058830976E0
2.540800000E1,-9.654762149E-1,-5.857759476E0,6.746286154E-1
2.542800156E1,-1.395436525E-1,-5.547499657E0,2.740834236E0
2.544800156E1,-6.787082553E-2,-5.699253559E0,2.433016539E0
2.546800156E1,-6.879116297E-1,-5.761540890E0,1.665243864E0
2.548802031E1,-1.505943179E0,-5.722937107E0,2.103718042E0
2.551000000E1,-2.195272207E0,-5.264667511E0,1.865274668E0
2.553000156E1,-2.454353571E0,-4.693813324E0,1.578698277E0
2.555200156E1,-2.434194326E0,-3.480566025E0,1.009663582E0
2.557400000E1,-2.244382143E0,-3.159675837E0,-5.351424217E-1
2.559400000E1,-1.078042030E0,-6.425663948E0,-4.706004620E0
2.561400000E1,4.302954972E-1,-1.424059677E1,-1.771666145E1
2.563400000E1,1.591473699E0,-2.030028343E1,-2.963271904E1
2.565400156E1,2.434615791E-1,-1.773114967E1,-8.946969032E0
2.567400156E1,-9.036579132E-1,-1.099420357E1,-8.673867226E0
2.569600156E1,-1.130044103E0,-7.165472031E0,-7.210224628E0
2.571600156E1,-4.192630291E0,-9.545615196E0,-8.011439323E0
2.573600156E1,-4.325881958E0,-1.206369209E1,6.054753780E0
2.575600156E1,-7.144163609E0,-1.198067188E1,5.277749538E0
2.577600781E1,-7.633653164E0,-7.263548374E0,-7.157610059E-1
2.579800156E1,-3.057385921E0,-5.354880810E0,3.727877378E0
2.582000156E1,-2.796810627E0,-9.916131973E0,4.920323849E0
2.584000313E1,-2.869824171E0,-1.481942844E1,3.023924589E0
2.586200000E1,-1.732664704E0,-1.552544975E1,2.174270153E0
2.588200781E1,-6.405829787E-1,-1.340993404E1,1.723145247E0
2.590400000E1,8.943876028E-1,-1.032669926E1,-5.223861337E-1
2.592400469E1,1.727129221E0,-6.995828629E0,-3.410310507E0
2.594601250E1,-8.531977236E-2,-6.853076458E0,-3.186912298E0
2.596800000E1,-2.633717656E-1,-1.017428398E1,-6.773867011E-1
2.598802031E1,-1.024718280E-3,-9.502635002E0,2.554325759E-1
2.601000000E1,-6.438104510E-1,-6.759482384E0,-7.747636642E-3
2.603000156E1,-9.628138542E-1,-6.354651928E0,-3.099341989E-1
2.605200000E1,-6.755575538E-1,-7.275165081E0,5.598218441E-1
2.607200000E1,-9.020202756E-1,-7.671683311E0,1.142350197E0
2.609200000E1,-1.445925474E0,-8.519882202E0,1.707822442E0
2.611200000E1,-1.848764300E0,-9.919503212E0,1.002787471E0
2.613200000E1,-1.709048271E0,-1.054176521E1,6.970957667E-2
2.615200156E1,-1.560425758E0,-1.002093124E1,-9.764894843E-1
2.617200781E1,-6.141702533E-1,-1.056001949E1,-4.112788677E0
2.619400000E1,2.275382280E0,-1.307663155E1,-5.541456699E0
2.621400625E1,2.935846567E0,-1.331657791E1,-2.262616456E-1
2.623600156E1,2.397812366E0,-1.188814068E1,2.727647066E0
2.625601719E1,2.071501732E0,-1.220850372E1,-1.878299117E-1
2.627800156E1,1.431330442E0,-1.387735844E1,-7.203195095E0
2.629800156E1,2.782732844E-1,-1.350928307E1,-4.123160362E0
2.632000156E1,-1.389537215E0,-1.299325562E1,-9.451925159E-1
2.634200156E1,-2.835951090E0,-1.350053024E1,1.771900803E-1
2.636400156E1,-2.466688395E0,-1.487114334E1,2.872151375E0
2.638400156E1,-3.621105433E0,-1.473363972E1,2.721680641E0
2.640600469E1,-5.381322861E0,-1.396790695E1,2.054493189E0
2.642800156E1,-5.631861210E0,-1.307158470E1,-1.745756119E-1
2.645000156E1,-3.771863699E0,-1.154974461E1,-1.013398528E0
2.647000156E1,-3.092791557E0,-9.741221428E0,-6.141989231E-1
2.649200156E1,-1.378811121E0,-8.340670586E0,4.814260826E-2
2.651400156E1,-7.855376005E-1,-6.894036770E0,-2.576160990E-2
2.653600156E1,-3.801513314E-1,-6.192736626E0,1.936430335E0
2.655600781E1,4.216093421E-1,-6.384598732E0,3.191413403E0
2.657800156E1,-2.135723680E-1,-6.406290054E0,2.098498583E0
2.659800156E1,-1.009012341E0,-6.216123581E0,1.726487517E0
2.661800156E1,-1.841303945E0,-6.023725033E0,2.251038074E0
2.663800156E1,-2.266590834E0,-5.441196918E0,2.369158506E0
2.665800156E1,-2.522109509E0,-4.185945988E0,1.613069415E0
2.668000156E1,-2.419426918E0,-2.632434368E0,5.049084425E-1
2.670200156E1,-2.381052732E0,-2.596770287E0,-7.754340172E-1
2.672400156E1,-2.208143473E0,-7.406712055E0,-5.051315308E0
2.674600000E1,3.875350654E-1,-1.887871170E1,-2.168245506E1
2.676600156E1,2.243405342E0,-2.376110077E1,-2.269935036E1
2.678802188E1,1.516516089E0,-1.500855160E1,-8.743165016E0
2.681000156E1,-1.150730014E0,-9.769702911E0,-8.515380859E0
2.683000625E1,-4.771567345E0,-1.298982716E1,-7.943578243E0
2.685200156E1,-4.906820774E0,-1.293581486E1,-3.608981371E0
2.687400000E1,-5.217022896E0,-7.627418995E0,7.963440418E0
2.689400000E1,-5.181320667E0,-4.261382103E0,6.088014126E0
2.691400000E1,-4.815716267E0,-2.776067495E0,2.693888664E0
2.693400000E1,-3.913351297E0,-4.601626873E0,1.851033926E0
2.695400000E1,-5.292124748E0,-1.133667850E1,3.858418941E0
2.697400000E1,-2.855420589E0,-1.738165665E1,5.172815919E-1
2.699400000E1,-1.490601182E0,-1.534001446E1,-6.241204962E-2
2.701400156E1,4.591695964E-1,-1.183226013E1,-1.983222604E0
2.703600156E1,2.500111580E0,-8.123200417E0,5.222385883E0
2.705600156E1,3.302264929E0,-8.797091484E0,-4.474772453E0
2.707600156E1,1.203871727E0,-1.012964725E1,-1.957470536E0
2.709600156E1,9.807704091E-1,-9.748950005E0,1.696885586E0
2.711600156E1,-2.695870996E-1,-7.355226994E0,1.568211675E0
2.713600156E1,-1.246871471E0,-6.769299030E0,2.840864062E-1
2.715600156E1,-1.438618302E0,-7.461634636E0,-8.686450720E-1
2.717600938E1,-1.106963992E0,-7.704799652E0,-6.362734437E-1
2.719800156E1,-1.151821613E0,-7.462047100E0,4.469687343E-1
2.721800156E1,-1.399133205E0,-7.664969921E0,1.474703789E0
2.723800156E1,-1.590784192E0,-9.122885704E0,1.555723548E0
2.725800781E1,-1.575480461E0,-1.108380413E1,1.097396731E0
2.728000000E1,-1.934246778E0,-1.131066895E1,8.341399021E-3
2.730000000E1,-1.511746883E0,-1.048792458E1,-2.900996923E0
2.732000156E1,8.913708329E-1,-1.128144932E1,-7.342556953E0
2.734200156E1,2.920044899E0,-1.299670410E1,-2.047837257E0
2.736400156E1,2.493398190E0,-1.230063248E1,2.819364071E0
2.738400156E1,2.246364594E0,-1.165685081E1,2.324013233E0
2.740604531E1,1.828911543E0,-1.291434288E1,-4.601023674E0
2.742800156E1,4.169262648E-1,-1.307971573E1,-8.090811729E0
2.744801406E1,-5.855642557E-1,-1.311526489E1,-1.274060011E0
2.747000156E1,-1.894579768E0,-1.336026764E1,-4.286578670E-2
2.749200156E1,-1.595409751E0,-1.520500946E1,2.490850925E0
2.751400156E1,-2.536465168E0,-1.530432129E1,3.119338274E0
2.753600156E1,-3.936738014E0,-1.463065052E1,2.809394598E0
2.755600156E1,-6.050885201E0,-1.364122295E1,1.810495377E0
2.757800156E1,-5.907932281E0,-1.209802532E1,-1.623239994E0
2.759800156E1,-4.685385704E0,-1.014285374E1,-1.568786263E0
2.761800156E1,-3.649615765E0,-9.246626854E0,-8.734813929E-1
2.763800156E1,-1.733909488E0,-8.376306534E0,1.820646673E-1
2.765800156E1,-1.477212906E0,-6.624487877E0,-3.708139434E-2
2.768000000E1,-5.049275756E-1,-5.845759392E0,1.871020794E0
2.770000000E1,2.235801220E-1,-6.377655506E0,2.601912975E0
2.772000000E1,-2.213583142E-1,-6.528011322E0,1.885673165E0
2.774000156E1,-1.251066208E0,-5.963525295E0,2.166407824E0
2.776200000E1,-2.010899544E0,-4.926625252E0,2.598944426E0
2.778200156E1,-2.222728968E0,-4.088769913E0,2.292582273E0
2.780400000E1,-2.097330332E0,-3.000624180E0,1.329595923E0
2.782400000E1,-1.846130610E0,-2.518767357E0,2.287228703E-1
2.784400000E1,-7.612124681E-1,-4.613731861E0,-9.607356787E-1
2.786400156E1,1.362875402E-1,-1.261138058E1,-9.987613678E0
2.788400156E1,3.023484230E0,-1.983900642E1,-3.389048004E1
2.790600156E1,1.848620653E0,-2.016277885E1,-1.202403545E1
2.792600156E1,-5.066992640E-1,-1.234763527E1,-7.638662338E0
2.794600156E1,7.603313923E-1,-7.162206650E0,-7.468970776E0
2.796600156E1,-2.308364630E0,-7.032220840E0,-7.003921032E0
2.798600156E1,-4.553349972E0,-1.130202007E1,2.102041960E0
2.800600156E1,-7.765420914E0,-1.426292992E1,6.356279850E0
2.802600313E1,-8.483403206E0,-9.841193199E0,-7.868016958E-1
2.804800156E1,-3.283839226E0,-4.329741001E0,4.262425900E0
2.806800156E1,-2.068321943E0,-8.523233414E0,6.592089653E0
2.808802031E1,-2.916022778E0,-1.552352524E1,3.063112974E0
2.811000156E1,-2.089755058E0,-1.586704445E1,1.922285438E0
2.813200156E1,-6.941460967E-1,-1.319824791E1,1.355060697E0
2.815400156E1,1.243050456E0,-1.009158897E1,-2.416601896E0
2.817600156E1,8.755691648E-1,-7.555544853E0,-1.822351456E0
2.819600156E1,-7.191798687E-1,-6.609692097E0,-1.522338748E0
2.821600156E1,-1.435371876E0,-9.085315704E0,-2.353461981E0
2.823600156E1,-6.164973974E-1,-9.795780182E0,-3.294613063E-1
2.825600625E1,-1.096314549E0,-7.551647663E0,-3.783317506E-1
2.827800156E1,-1.251200199E0,-6.481075287E0,-1.578545123E-1
2.829800156E1,-1.446883202E0,-7.029672623E0,2.400809675E-1
2.831800156E1,-1.497649789E0,-7.353254318E0,6.464536190E-1
2.833800156E1,-1.232056141E0,-7.439742088E0,1.631322861E0
2.835800156E1,-1.157366753E0,-8.429888725E0,1.836965561E0
2.837800156E1,-9.619327784E-1,-9.784891129E0,1.939226866E0
2.839800156E1,-5.328343511E-1,-1.116499615E1,1.206687212E0
2.842000000E1,2.558827102E-1,-1.214019203E1,-1.080972552E0
2.844000312E1,1.738410592E0,-1.271347904E1,-7.196156025E0
2.846200000E1,2.936948061E0,-1.306232452E1,-6.291703701E0
2.848200156E1,2.290264606E0,-1.257738304E1,-1.506144404E-1
2.850400000E1,1.257655025E0,-1.159163284E1,-1.838459671E-1
2.852400000E1,-1.035444364E-1,-1.198825550E1,-4.453502655E0
2.854400000E1,8.055052161E-2,-1.349445820E1,-5.056534767E0
2.856400000E1,8.289684355E-2,-1.379796696E1,-1.313478112E0
2.858400156E1,-7.703104019E-1,-1.449132729E1,1.804691792E0
2.860600156E1,-1.375248671E0,-1.592413235E1,3.130897522E0
2.862600156E1,-2.484127998E0,-1.582524204E1,2.711289883E0
2.864600312E1,-3.826221704E0,-1.472164917E1,2.187888622E0
2.866601406E1,-6.367092133E0,-1.287122822E1,1.629053116E0
2.868802031E1,-6.411365509E0,-1.100802231E1,-6.337547898E-1
2.871000156E1,-4.588133335E0,-9.606236458E0,-1.075647831E0
2.873200000E1,-3.442680120E0,-9.354922295E0,-1.536608219E0
2.875200156E1,-1.359590530E0,-8.635425568E0,-8.786528707E-1
2.877400000E1,-9.807894826E-1,-6.971034050E0,-4.016799927E-1
2.879400156E1,-4.267041981E-1,-6.295399666E0,2.730644464E0
2.881400156E1,3.824881017E-1,-6.664288998E0,3.119175434E0
2.883400156E1,-5.582224727E-1,-6.319112301E0,2.429329395E0
2.885600156E1,-1.337104201E0,-5.683978558E0,1.932092071E0
2.887600156E1,-1.595993996E0,-5.309008121E0,2.391500950E0
2.889600156E1,-1.998765707E0,-4.534091473E0,2.708770990E0
2.891800000E1,-2.045701742E0,-3.164282322E0,1.391538858E0
2.893800156E1,-1.767169833E0,-2.556385040E0,-5.387719870E-1
2.896000156E1,-1.179326296E0,-4.834247589E0,-2.700065613E0
2.898200156E1,-3.644932508E-1,-1.423210239E1,-1.434953308E1
2.900400000E1,2.780817270E0,-2.263463783E1,-2.928305054E1
2.902400156E1,2.263689041E0,-1.712854195E1,-1.015107059E1
2.904600156E1,-4.373727739E-2,-8.556580544E0,-9.387549400E0
2.906601094E1,-2.530910730E0,-9.330309868E0,-9.638155937E0
2.908802188E1,-7.775036335E0,-1.613593292E1,-8.312659264E0
2.911000156E1,-5.418710232E0,-1.484278584E1,8.324936867E0
2.913000156E1,-5.528499126E0,-5.152293682E0,1.061757660E1
2.915000156E1,-2.753964186E0,-1.206275344E0,4.912988186E0
2.917000156E1,-1.539682388E0,-1.323600888E0,1.943315983E0
2.919000469E1,-3.374263525E0,-6.587943077E0,2.093892097E0
2.921200000E1,-4.021492481E0,-2.064051819E1,1.893306017E0
2.923200000E1,-2.438513756E0,-2.031981087E1,1.769506574E0
2.925200000E1,-2.510559857E-1,-1.326659775E1,-1.653713346E0
2.927200000E1,2.503722191E0,-9.069322586E0,-1.766987920E0
2.929200000E1,1.317529202E0,-8.673733711E0,-2.077161551E0
2.931200000E1,-3.802375495E-1,-8.977193832E0,-8.529391289E-1
2.933200000E1,-5.634226799E-1,-9.155101776E0,5.970660448E-1
2.935200156E1,-9.827814698E-1,-8.024358749E0,5.054543018E-1
2.937200156E1,-2.046362638E0,-6.687982559E0,-1.147809029E0
2.939400000E1,-1.972209215E0,-7.351769924E0,-2.021089315E0
2.941400000E1,-1.473305583E0,-8.089738846E0,-1.227823257E0
2.943400000E1,-9.655624032E-1,-7.624258995E0,5.565944314E-1
2.945400156E1,-8.073248267E-1,-7.180536747E0,1.524733067E0
2.947400938E1,-6.685664654E-1,-7.602634430E0,2.571573734E0
2.949600156E1,-7.825496197E-1,-9.755194664E0,2.253269434E0
2.951600469E1,-6.783539653E-1,-1.046055508E1,8.599302173E-1
2.953800156E1,2.208986133E-1,-1.158321476E1,-4.149457932E0
2.955800469E1,3.186443090E0,-1.365150738E1,-1.416023827E1
2.958000000E1,2.458950520E0,-1.314017391E1,-1.097865939E0
2.960000156E1,1.925627708E0,-1.188454914E1,3.171273470E0
2.962000156E1,1.805888891E0,-1.189725780E1,1.271464705E0
2.964000781E1,2.482059240E0,-1.447962379E1,-4.943222046E0
2.966200000E1,1.413584590E0,-1.402698612E1,-3.665426970E0
2.968200312E1,-1.069269657E0,-1.330289364E1,-7.763246894E-1
2.970400000E1,-2.995739937E0,-1.442720127E1,2.494375110E-1
2.972400313E1,-2.921366692E0,-1.606486320E1,2.677378416E0
2.974600469E1,-4.043366432E0,-1.542814922E1,2.758149147E0
2.976600938E1,-5.727016449E0,-1.384828281E1,2.137878418E0
2.978802344E1,-6.363740444E0,-1.257550621E1,-6.919051409E-1
2.981000156E1,-4.182095528E0,-1.107597923E1,-6.656360030E-1
2.983000156E1,-3.438322783E0,-9.423797607E0,2.125476599E-1
2.985000156E1,-1.528314710E0,-8.378795624E0,5.933981538E-1
2.987000156E1,-7.775887847E-1,-7.262226582E0,-1.122985959E0
2.989000156E1,-4.721174240E-1,-6.465962887E0,1.021203637E0
2.991000156E1,5.901611447E-1,-6.583910942E0,2.434443474E0
2.993000156E1,3.389806449E-1,-6.603782654E0,1.836410165E0
2.995200000E1,-7.655028701E-1,-6.258481503E0,2.262568712E0
2.997200000E1,-1.826076746E0,-5.690691948E0,2.171349287E0
2.999200156E1,-2.448348761E0,-5.043241978E0,2.046410322E0
3.001400000E1,-2.642643213E0,-4.017891884E0,1.905008793E0
3.003400000E1,-2.574561834E0,-2.899857283E0,7.887170911E-1
3.005400000E1,-2.553646088E0,-2.485554934E0,-8.938608170E-1
3.007400000E1,-2.057327986E0,-4.329865932E0,-3.440228462E0
3.009400000E1,-1.077524781E0,-1.224278927E1,-1.076012707E1
3.011400000E1,9.663285613E-1,-2.017217445E1,-3.233706284E1
3.013400000E1,2.346145153E0,-2.263344193E1,-1.305712414E1
3.015400156E1,3.113419712E-1,-1.375860500E1,-8.080775261E0
3.017600156E1,1.003888845E0,-6.245389938E0,-8.067684174E0
3.019600156E1,-3.062624454E0,-7.069924355E0,-7.478557110E0
3.021600156E1,-3.963562489E0,-1.254931355E1,2.767859936E0
3.023800156E1,-6.908210278E0,-1.371101856E1,4.375547409E0
3.025800156E1,-8.444895744E0,-7.464948654E0,4.959923923E-1
3.028000000E1,-2.938059092E0,-4.782408237E0,4.116629124E0
3.030000000E1,-2.396634340E0,-8.282108307E0,6.971350193E0
3.032000000E1,-2.746474743E0,-1.489249039E1,3.188540220E0
3.034000000E1,-1.998928547E0,-1.610433960E1,1.915840268E0
3.036000000E1,-7.129741311E-1,-1.389697170E1,1.486013889E0
3.038000156E1,8.826943040E-1,-1.077683830E1,-2.874095440E-1
3.040004375E1,1.502217889E0,-7.924405098E0,-3.165335655E0
3.042200156E1,-6.764864326E-1,-6.726960182E0,-2.598216295E0
3.044400156E1,-9.133975506E-1,-9.676137924E0,-1.563519001E0
3.046600156E1,-4.489415586E-1,-9.677793503E0,-7.038952783E-3
3.048600156E1,-1.007585406E0,-7.226112366E0,-8.534850180E-2
3.050600781E1,-1.049445629E0,-6.488727093E0,-2.090521157E-1
3.052800156E1,-6.996719241E-1,-6.822986126E0,4.080390036E-1
3.054800938E1,-7.371746898E-1,-7.104305267E0,1.046084285E0
3.057000000E1,-1.049359441E0,-7.955309391E0,1.639760017E0
3.059000156E1,-1.115812898E0,-9.700836182E0,1.180360556E0
3.061000156E1,-1.182544112E0,-1.090453529E1,4.303242564E-1
3.063000156E1,-1.372174382E0,-1.026784039E1,-1.300520778E0
3.065000156E1,-7.652539015E-1,-1.026059055E1,-5.124711990E0
3.067000156E1,1.639482260E0,-1.229465580E1,-6.108250141E0
3.069200000E1,2.652038097E0,-1.304546833E1,-3.387508094E-1
3.071200156E1,2.410692930E0,-1.202432251E1,2.676411152E0
3.073400156E1,1.912430882E0,-1.245998192E1,-1.097214743E-1
3.075600156E1,1.155317307E0,-1.432013226E1,-7.160923481E0
3.077800000E1,4.708915949E-1,-1.402975368E1,-2.745507717E0
3.079800156E1,-1.121664286E0,-1.353657722E1,-3.666863441E-1
3.082000156E1,-2.293788910E0,-1.465836620E1,5.711799264E-1
3.084200156E1,-2.105384350E0,-1.571440029E1,2.930234671E0
3.086200156E1,-3.063007593E0,-1.520003033E1,2.863379240E0
3.088200156E1,-4.351490021E0,-1.420440578E1,2.457398891E0
3.090400000E1,-6.332318783E0,-1.318469620E1,7.489063591E-2
3.092400000E1,-4.780742168E0,-1.123521328E1,-4.211783707E-1
3.094400156E1,-3.950480700E0,-9.240019798E0,-3.341730833E-1
3.096600156E1,-2.015745401E0,-7.968755245E0,1.890653223E-1
3.098601562E1,-1.030148387E0,-6.604146957E0,-1.102692723E0
3.100800156E1,-5.371822715E-1,-5.672620773E0,1.668710709E0
3.103000156E1,6.418663263E-1,-6.203299999E0,2.677952766E0
3.105000156E1,4.243483022E-2,-6.558580399E0,1.427978516E0
3.107000156E1,-7.398849726E-1,-6.417389870E0,2.039687395E0
3.109200000E1,-1.365872979E0,-6.264840126E0,2.561479807E0
3.111200156E1,-2.001696348E0,-5.428526878E0,2.355520964E0
3.113400000E1,-2.717093229E0,-3.728375435E0,1.415796757E0
3.115400156E1,-2.928137541E0,-2.581073999E0,6.164302826E-1
3.117600156E1,-2.698859215E0,-2.893938780E0,-7.047476172E-1
3.119600156E1,-2.068638086E0,-7.744074345E0,-4.446990013E0
3.121600156E1,2.031911165E-1,-1.678017426E1,-2.205169868E1
3.123600156E1,1.873644829E0,-2.361748886E1,-2.614476967E1
3.125600156E1,1.230303645E0,-1.590904903E1,-9.279294014E0
3.127800000E1,3.125678003E-1,-7.371201038E0,-7.492098808E0
3.129800156E1,-1.418756127E0,-5.459431171E0,-7.172596931E0
3.132000156E1,-6.241386890E0,-9.214612007E0,-1.381339431E0
3.134200156E1,-7.116161346E0,-1.429692745E1,8.779029846E0
3.136400000E1,-8.974214554E0,-1.275981140E1,-1.565214157E0
3.138400000E1,-4.147379875E0,-6.542702198E0,3.606740475E0
3.140400000E1,-1.928424120E0,-8.609329224E0,4.177422523E0
3.142400000E1,-1.816911697E0,-1.203465652E1,3.623193264E0
3.144400156E1,-1.814067483E0,-1.358993816E1,2.929257870E0
3.146602656E1,-1.010966063E0,-1.362835121E1,2.643696785E0
3.148802188E1,2.730347514E-1,-1.185150909E1,1.939427853E0
3.151000156E1,1.038978100E0,-9.317993164E0,1.317548394E0
3.153000156E1,1.327537000E-1,-6.340363503E0,-6.377233982E0
3.155200156E1,-1.093546867E0,-7.396024227E0,-3.264245033E0
3.157200156E1,-4.228064716E-1,-9.483489990E0,-7.582245469E-1
3.159400156E1,-3.489501178E-1,-8.510180473E0,8.340441436E-2
3.161600156E1,-1.034467578E0,-6.546819687E0,-5.130774379E-1
3.163800156E1,-1.038183331E0,-6.221553326E0,8.984959871E-2
3.165800156E1,-1.054665089E0,-6.919769764E0,9.646238685E-1
3.168000000E1,-1.288674355E0,-8.833502769E0,1.519283772E0
3.170000000E1,-9.394463897E-1,-1.077706814E1,1.230600476E0
3.172000000E1,-2.001935691E-1,-1.093202019E1,4.919988811E-1
3.174000156E1,5.870582536E-2,-1.019613838E1,-9.875698686E-1
3.176200000E1,6.078399345E-2,-1.110178947E1,-4.014961243E0
3.178200156E1,1.973166943E0,-1.289273834E1,-4.146872044E0
3.180400156E1,2.489423752E0,-1.295722866E1,5.174922943E-1
3.182600156E1,1.783680320E0,-1.171391869E1,2.233675241E0
3.184800000E1,7.943577766E-1,-1.302437115E1,-1.677703381E0
3.186800156E1,1.155537516E-1,-1.401966000E1,-7.883656025E0
3.188802031E1,-2.678441405E-1,-1.364237213E1,-4.094573021E0
3.191000000E1,-1.221780300E0,-1.264627838E1,-1.167307377E0
3.193000156E1,-2.998775959E0,-1.216908550E1,1.467166692E-1
3.195000156E1,-2.657793760E0,-1.365612411E1,2.163783789E0
3.197000312E1,-2.548780918E0,-1.463249874E1,2.727129936E0
3.199200156E1,-4.150281906E0,-1.443011189E1,2.619381189E0
3.201400156E1,-5.878579140E0,-1.383545017E1,1.337334037E0
3.203600156E1,-4.253356934E0,-1.238466930E1,-1.026901841E0
3.205600156E1,-3.210088253E0,-9.852982521E0,-1.242016077E0
3.207800156E1,-2.092034101E0,-8.711053848E0,-4.594568908E-1
3.210000156E1,-1.115056396E0,-7.511501312E0,-1.008016348E0
3.212200000E1,-7.084634304E-1,-6.616759300E0,2.867956877E0
3.214200156E1,2.767026722E-1,-6.611539841E0,3.139861584E0
3.216400156E1,-9.059659205E-3,-6.738538265E0,1.610004902E0
3.218600781E1,-9.223805666E-1,-6.318576336E0,1.824985027E0
3.220800156E1,-1.638783216E0,-5.265021801E0,2.277106285E0
3.223000000E1,-2.051438332E0,-4.184939861E0,1.955641389E0
3.225000156E1,-2.381694317E0,-2.967057705E0,1.464150190E0
3.227200156E1,-2.445044994E0,-1.868798971E0,3.538630009E-1
3.229400000E1,-1.913599253E0,-2.828098059E0,-2.137083530E0
3.231400156E1,-1.252081275E0,-9.820584297E0,-7.792934895E0
3.233600156E1,1.394881129E0,-2.093539810E1,-3.245811462E1
3.235800156E1,1.585823298E-1,-2.239469147E1,-1.232544613E1
3.237800156E1,-6.052254438E-1,-1.354802132E1,-7.816838741E0
3.239800156E1,8.181561828E-1,-6.976655960E0,-7.354001045E0
3.241800156E1,-2.901283979E0,-6.772459030E0,-6.510600567E0
3.243800156E1,-3.881192446E0,-1.256225204E1,-8.779059052E-1
3.245800156E1,-6.584342003E0,-1.341221333E1,5.057377338E0
3.247800156E1,-7.688930511E0,-7.179444790E0,3.736525059E0
3.249800156E1,-3.730731249E0,-3.283839226E0,3.685356379E0
3.251800156E1,-2.732128859E0,-5.717746258E0,5.561797142E0
3.254000156E1,-3.910439968E0,-1.567859268E1,2.435937405E0
3.256200156E1,-2.267472029E0,-1.721354485E1,1.064883471E0
3.258200156E1,-8.386888504E-1,-1.387344170E1,5.186128020E-1
3.260400000E1,1.480880737E0,-1.006319332E1,-2.348098993E0
3.262400000E1,1.409073830E0,-7.122989178E0,4.009330273E0
3.264400000E1,3.943058848E-1,-7.007061958E0,-2.043374538E0
3.266400156E1,-5.838500261E-1,-9.094968796E0,-1.624312639E0
3.268600156E1,-1.650371104E-1,-9.276209831E0,3.165517449E-1
3.270600156E1,-7.993186116E-1,-7.258635044E0,3.657382429E-1
3.272600156E1,-1.313219547E0,-6.517285347E0,-2.715982497E-1
3.274600938E1,-1.318534732E0,-7.057483673E0,-3.871807158E-1
3.276800156E1,-1.092646599E0,-7.116764545E0,2.064951062E-1
3.278802188E1,-1.098411918E0,-7.538891315E0,1.264636517E0
3.281000156E1,-1.236557245E0,-9.471021652E0,1.795718312E0
3.283000156E1,-1.168418288E0,-1.109216404E1,1.104167461E0
3.285200156E1,-1.045011640E0,-1.103188801E1,2.665225267E-1
3.287400156E1,-7.111449838E-1,-1.056968307E1,-1.875272870E0
3.289600156E1,8.558600545E-1,-1.224687767E1,-6.717421532E0
3.291601719E1,2.879985094E0,-1.352739239E1,-4.020678520E0
3.293800156E1,2.760141134E0,-1.279709435E1,1.617091656E0
3.296000156E1,3.013639212E0,-1.287186050E1,1.516688466E0
3.298200156E1,3.408328056E0,-1.414685917E1,-4.733557224E0
3.300400000E1,2.245454788E0,-1.321918297E1,-4.551262856E0
3.302400156E1,-6.584054232E-2,-1.315636826E1,-5.348455310E-1
3.304600156E1,-2.509860754E0,-1.302394009E1,-1.673163921E-1
3.306800156E1,-2.658607721E0,-1.481194878E1,1.817687511E0
3.308802188E1,-3.484032631E0,-1.526507664E1,2.371428013E0
3.311000156E1,-5.301931381E0,-1.402621937E1,2.091067076E0
3.313000156E1,-7.411567211E0,-1.253242970E1,7.144010663E-1
3.315000156E1,-6.672142029E0,-1.179223824E1,-6.848949194E-1
3.317000156E1,-4.926577568E0,-1.065202332E1,-7.924616337E-1
3.319200000E1,-3.298041582E0,-9.297882080E0,-7.654166818E-1
3.321200156E1,-1.290493846E0,-8.070624352E0,-5.328630805E-1
3.323400156E1,-5.938960910E-1,-6.648927689E0,6.074951887E-1
3.325600781E1,8.278766274E-1,-6.729602814E0,2.683775663E0
3.327600781E1,7.728675008E-1,-7.110932350E0,1.979526043E0
3.329800156E1,-4.728548229E-1,-6.704914093E0,1.995854378E0
3.332000156E1,-1.442113876E0,-6.025688648E0,2.589003325E0
3.334200156E1,-2.202847481E0,-4.811809063E0,2.475183010E0
3.336400000E1,-2.570807695E0,-3.264647245E0,1.927092910E0
3.338400156E1,-2.336779118E0,-2.188032150E0,9.606974125E-1
3.340600156E1,-2.012996912E0,-1.754786968E0,-4.629811347E-1
3.342600156E1,-9.213271737E-1,-3.348032475E0,-1.246057510E0
3.344601562E1,9.858748317E-1,-1.258910561E1,-1.026912403E1
3.346800156E1,4.803477287E0,-3.027504539E1,-4.899387741E1
3.348802188E1,6.247908622E-2,-2.156581116E1,-4.376753807E0
3.351000000E1,-1.672397703E-1,-1.105680656E1,-6.158681870E0
3.353000156E1,-1.002787501E-1,-3.936795473E0,-1.123883343E1
3.355200000E1,-4.961619377E0,-6.232930660E0,6.726749539E-1
3.357200156E1,-8.076666832E0,-1.125260448E1,1.179096508E1
3.359400156E1,-1.008501911E1,-1.461116219E1,-4.392220497E0
3.361601562E1,-5.971627235E0,-8.522898674E0,2.307340145E0
3.363800156E1,-2.076060057E0,-8.877038956E0,4.360770226E0
3.365800156E1,-1.623728395E0,-1.075279140E1,6.584140778E0
3.368000156E1,-1.369703650E0,-1.372382259E1,3.348109245E0
3.370200156E1,-7.787284255E-1,-1.401712227E1,2.138261557E0
3.372400156E1,6.112109423E-1,-1.192860222E1,1.415978789E0
3.374400156E1,1.322480321E0,-9.435501099E0,1.064806938E0
3.376600156E1,2.960669994E-1,-6.043578148E0,-7.535730362E0
3.378601719E1,-1.253900886E0,-6.802913666E0,-3.815361500E0
3.380800156E1,-7.836509347E-1,-9.074206352E0,-9.980277419E-1
3.382800156E1,-7.225030661E-1,-8.762854576E0,-7.039144039E-1
3.385000000E1,-1.385993719E0,-6.927938461E0,-1.221895099E0
3.387000000E1,-1.060343981E0,-6.766847134E0,-3.505111206E-3
3.389000156E1,-5.408309698E-1,-7.094862461E0,1.585507393E0
3.391200156E1,-5.863112807E-1,-7.981875896E0,2.943489075E0
3.393400000E1,-4.683441520E-1,-9.692063332E0,2.507236719E0
3.395400156E1,-3.922372758E-1,-1.054592228E1,1.453606129E0
3.397600156E1,-6.031472683E-1,-1.056893539E1,4.801236391E-1
3.399800156E1,-8.370703459E-1,-1.147103214E1,-2.908083439E0
3.401800156E1,7.723886371E-1,-1.282971287E1,-1.042354012E1
3.404000156E1,2.207013369E0,-1.286380672E1,-2.348395824E0
3.406200156E1,2.016827583E0,-1.173843575E1,2.643840313E0
3.408400156E1,1.944264174E0,-1.203161049E1,1.319923282E0
3.410600000E1,1.633180737E0,-1.429433250E1,-4.434751034E0
3.412600156E1,1.542823613E-1,-1.395198059E1,-4.948949337E0
3.414600312E1,-1.643159747E0,-1.318740654E1,-2.423602581E0
3.416800156E1,-2.200654507E0,-1.359064770E1,1.042109847E0
3.418802031E1,-1.815226316E0,-1.482194710E1,2.623604536E0
3.421000000E1,-3.253432751E0,-1.541706944E1,2.620262146E0
3.423000156E1,-4.453961849E0,-1.479016209E1,2.568221807E0
3.425000156E1,-6.604424477E0,-1.366551971E1,9.230509400E-1
3.427000156E1,-5.570464134E0,-1.160087395E1,-7.579085231E-1
3.429200000E1,-3.949178219E0,-9.408618927E0,-6.921158433E-1
3.431200000E1,-2.536541700E0,-8.541161537E0,-1.278120577E-1
3.433200000E1,-1.622435570E0,-7.466231823E0,-7.793318033E-1
3.435200156E1,-1.080397844E0,-6.100339890E0,6.741401553E-1
3.437400156E1,-4.174242914E-1,-5.682781219E0,1.809767485E0
3.439600156E1,1.421389580E-1,-6.409881115E0,2.797701359E0
3.441600156E1,-6.178572178E-1,-6.549951553E0,2.584636450E0
3.443600156E1,-1.154445767E0,-6.262283802E0,2.029976606E0
3.445800156E1,-1.743352294E0,-5.653419018E0,2.213870287E0
3.447800156E1,-2.164904356E0,-4.412331581E0,1.835816383E0
3.449800156E1,-2.288071632E0,-2.833556890E0,9.443402290E-1
3.451800156E1,-2.188913345E0,-2.208497763E0,-2.783594728E-1
3.454000156E1,-1.220726848E0,-5.566308022E0,-3.942646980E0
3.456200156E1,1.195999503E0,-1.603771210E1,-2.191986465E1
3.458400156E1,2.009223700E0,-2.239813995E1,-2.395524216E1
3.460400156E1,1.095414281E0,-1.651982880E1,-8.277368546E0
3.462600156E1,-4.114196301E-1,-9.690722466E0,-7.874146461E0
3.464600625E1,-4.248712063E0,-1.060396671E1,-8.674106598E0
3.466800156E1,-7.162609100E0,-1.381363392E1,-3.712056398E0
3.468802031E1,-7.292451382E0,-1.015232563E1,1.103288364E1
3.471000000E1,-5.321688175E0,-4.296040535E0,5.511126518E0
3.473000156E1,-3.483276129E0,-1.737433791E0,1.731525064E0
3.475000312E1,-2.893632174E0,-6.002225399E0,2.085359335E0
3.477200156E1,-3.352725029E0,-1.665571404E1,2.502793312E0
3.479400000E1,-2.374397039E0,-1.869778633E1,3.128340483E0
3.481400156E1,-9.257898927E-1,-1.495330238E1,3.074739218E0
3.483400156E1,8.133773804E-1,-1.138785744E1,2.675970554E0
3.485600000E1,3.430680513E0,-5.979289055E0,-6.822728157E0
3.487601406E1,6.085295081E-1,-6.713427544E0,-5.563904285E0
3.489800156E1,3.888087869E-1,-1.038002300E1,4.961456358E-1
3.491800156E1,-1.011310797E-2,-9.667642593E0,1.153143287E0
3.493800156E1,-5.916646719E-1,-7.184510708E0,4.841554463E-1
3.496000156E1,-9.504118562E-1,-6.374207497E0,-7.515494823E-1
3.498200156E1,-8.590108752E-1,-6.942226887E0,-8.927499652E-1
3.500200156E1,-9.653421044E-1,-7.197142601E0,-9.473377466E-2
3.502400156E1,-8.910261393E-1,-7.981406689E0,1.139726162E0
3.504600156E1,-6.548908353E-1,-9.562116623E0,1.552390695E0
3.506800156E1,-6.833147407E-1,-1.039105606E1,9.981522560E-1
3.508802031E1,-9.133879542E-1,-9.799983978E0,-7.940130681E-2
3.511000156E1,-5.714384913E-1,-1.095498657E1,-2.182726622E0
3.513200156E1,4.966436028E-1,-1.327056217E1,-5.383190155E0
3.515400156E1,1.546137214E0,-1.247221088E1,-2.303825378E0
3.517600156E1,9.364489317E-1,-1.201528263E1,1.050547004E0
3.519600156E1,3.901016414E-1,-1.266907120E1,-9.905387163E-1
3.521800156E1,1.331760406E0,-1.426465321E1,-5.514947891E0
3.523800156E1,1.175045371E0,-1.388076782E1,-4.133407116E0
3.525800156E1,-7.776463032E-1,-1.277087307E1,-2.590708256E0
3.528000000E1,-1.604555607E0,-1.402930355E1,2.336262017E-1
3.530000000E1,-1.088892460E0,-1.502822208E1,3.557860374E0
3.532000156E1,-1.973214865E0,-1.541040325E1,3.184546947E0
3.534200156E1,-3.492470026E0,-1.470484161E1,2.667054415E0
3.536400000E1,-4.033080578E0,-1.349117374E1,1.758962512E0
3.538400156E1,-6.051315784E0,-1.278157043E1,-7.655987144E-1
3.540600156E1,-4.730712891E0,-9.625658035E0,-9.440433383E-1
3.542600938E1,-3.235399723E0,-7.610468388E0,-1.471380591E0
3.544800156E1,-1.072219253E0,-6.804130077E0,-1.061349630E0
3.547000156E1,-6.182786226E-1,-5.376496315E0,1.604833364E0
3.549200156E1,4.522742927E-1,-5.533153534E0,2.348347902E0
3.551400156E1,-3.761003315E-1,-5.974538803E0,2.029497862E0
3.553600156E1,-1.450110435E0,-5.925697327E0,2.205126762E0
3.555600156E1,-1.712965131E0,-5.537999153E0,2.377729416E0
3.557601719E1,-2.184364319E0,-4.911207199E0,2.623709917E0
3.559800156E1,-2.476361036E0,-3.601588249E0,2.358652592E0
3.561800156E1,-2.414121389E0,-2.591732979E0,2.017450035E-1
3.563800156E1,-1.631887913E0,-3.703858614E0,-1.863177419E0
3.565800156E1,-1.005919099E0,-9.963096619E0,-8.748126030E0
3.568000000E1,5.386571288E-1,-1.813982201E1,-2.843570328E1
3.570000000E1,2.574724674E0,-2.241479492E1,-1.885809135E1
3.572000156E1,1.136000872E0,-1.411520767E1,-6.344826221E0
3.574000156E1,4.636611044E-1,-8.031665802E0,-7.269103050E0
3.576000156E1,-1.537920237E0,-6.326304913E0,-7.383995533E0
3.578200156E1,-5.311038494E0,-9.171047211E0,-6.423834562E-1
3.580200469E1,-7.387806892E0,-1.210621357E1,8.520083427E0
3.582400000E1,-8.583404541E0,-1.400922108E1,-3.499058723E0
3.584400000E1,-4.845873833E0,-6.277060509E0,3.979977369E0
3.586400000E1,-2.577262402E0,-7.553294659E0,4.354286671E0
3.588400156E1,-2.189296484E0,-1.166508675E1,3.401825428E0
3.590600625E1,-1.888211012E0,-1.366606522E1,2.245990992E0
3.592601406E1,-1.150979042E0,-1.356038475E1,2.259743452E0
3.594800156E1,-1.053448766E-2,-1.165261841E1,1.967937946E0
3.597000000E1,1.104751706E0,-9.232386589E0,1.791006446E0
3.599000156E1,1.214827538E0,-6.845951557E0,-2.057768583E0
3.601200000E1,-4.980226755E-1,-6.899782658E0,-5.370233059E0
3.603200156E1,-1.739435494E-1,-9.588011742E0,-1.684723139E0
3.605200156E1,-3.636983931E-1,-9.649839401E0,-7.439072132E-1
3.607200156E1,-9.723523855E-1,-7.785254478E0,-1.065678358E0
3.609400469E1,-7.375482321E-1,-6.786173344E0,-3.186011910E-1
3.611600156E1,-2.968043685E-1,-6.469008446E0,9.859035015E-1
3.613601406E1,-6.696007848E-1,-7.019196033E0,2.111513376E0
3.615800156E1,-1.294698119E0,-9.263855934E0,2.455359221E0
3.618000156E1,-1.325420499E0,-1.117348003E1,8.958049417E-1
3.620200156E1,-9.969742894E-1,-1.078482533E1,-1.714822948E-1
3.622400000E1,-8.512727618E-1,-1.058245754E1,-2.165574789E0
3.624400156E1,1.912584007E-1,-1.200999641E1,-5.438821793E0
3.626600313E1,2.350330353E0,-1.301235294E1,-2.734992504E0
3.628802031E1,2.317309618E0,-1.233543491E1,1.759996772E0
3.631000000E1,1.534644961E0,-1.232278442E1,7.281054854E-1
3.633000156E1,8.819377422E-1,-1.380708313E1,-7.267675877E0
3.635200156E1,2.494087815E-1,-1.376597977E1,-7.300380707E0
3.637400000E1,-7.792264223E-1,-1.272263432E1,-2.892578602E0
3.639400000E1,-1.905037642E0,-1.242630005E1,7.035313845E-1
3.641400000E1,-1.255538583E0,-1.422598267E1,3.844532490E0
3.643400000E1,-1.334805727E0,-1.546811295E1,3.795978069E0
3.645400156E1,-2.396299124E0,-1.523312759E1,2.832024574E0
3.647600156E1,-3.838470459E0,-1.403765392E1,1.634626865E0
3.649600156E1,-5.121618748E0,-1.340593910E1,-1.302531838E0
3.651600156E1,-4.129375458E0,-1.124880314E1,-1.019135118E0
3.653800000E1,-3.720694780E0,-9.045983315E0,-1.197349906E0
3.655800156E1,-2.122172594E0,-8.253435135E0,-1.937004924E0
3.657800156E1,-1.443224788E0,-6.970737457E0,-3.946218789E-1
3.660000156E1,-4.953411818E-1,-5.619603157E0,3.303059816E0
3.662200000E1,5.150310397E-1,-5.741353035E0,3.720149040E0
3.664200156E1,-6.159610748E-1,-5.603811264E0,2.442909479E0
3.666400156E1,-1.370871902E0,-5.108383656E0,1.674667478E0
3.668600156E1,-2.005958080E0,-4.590307236E0,2.168744564E0
3.670600156E1,-2.511450529E0,-4.421142578E0,2.794205904E0
3.672800156E1,-2.845068216E0,-3.811377764E0,1.502045512E0
3.674800156E1,-2.783077717E0,-2.997827768E0,-4.458003640E-1
3.676800156E1,-2.385094166E0,-3.859941721E0,-3.283350945E0
3.678802188E1,-1.213122845E0,-1.027815437E1,-1.043154621E1
3.681000000E1,2.611710310E0,-2.149556351E1,-3.438735580E1
3.683000156E1,2.649126768E0,-2.150546646E1,-1.221058178E1
3.685000156E1,3.573202491E-1,-1.364277458E1,-8.101816177E0
3.687000156E1,1.446988583E0,-7.754464626E0,-7.929251671E0
3.689000156E1,-1.434117198E0,-7.753708363E0,-8.844670296E0
3.691000156E1,-2.896754265E0,-1.241496944E1,7.030525804E-1
3.693200156E1,-7.681422710E0,-1.211520576E1,9.502673149E0
3.695400156E1,-9.427964211E0,-7.893712044E0,-6.372886300E-1
3.697601406E1,-4.995808125E0,-4.990186691E0,1.762486815E0
3.699800156E1,-4.086394787E0,-1.038689899E1,6.187737942E0
3.701800156E1,-3.403022528E0,-1.539931393E1,3.333648205E0
3.703800156E1,-1.943574548E0,-1.521321774E1,1.850756168E0
3.706000000E1,-8.072195053E-1,-1.262276745E1,1.501672029E0
3.708000000E1,1.829169989E0,-1.046903038E1,-1.786888599E0
3.710000156E1,2.089046478E0,-7.626125813E0,-2.451796532E0
3.712000156E1,6.979002357E-1,-6.457516193E0,-1.903696775E0
3.714200000E1,-9.739612229E-3,-9.589544296E0,-1.550168991E0
3.716200000E1,-1.743649095E-1,-9.367227554E0,-5.239949822E-1
3.718200000E1,-7.372130156E-1,-6.922594547E0,-2.901197672E-1
3.720200156E1,-1.133999228E0,-6.280297279E0,-2.405406535E-1
3.722400000E1,-9.545586705E-1,-6.732351780E0,6.695528626E-1
3.724400156E1,-8.812673092E-1,-7.343160152E0,1.361103654E0
3.726600313E1,-9.776195884E-1,-8.427330971E0,1.511765957E0
3.728802031E1,-6.839372516E-1,-1.031900024E1,1.011080980E0
3.731000000E1,-8.162025213E-1,-1.106898785E1,3.116771877E-1
3.733000156E1,-9.943311214E-1,-1.031559944E1,-1.260872841E0
3.735000156E1,-4.039880037E-1,-1.113637066E1,-5.354747295E0
3.737200000E1,2.501662970E0,-1.341274929E1,-6.750097275E0
3.739200156E1,2.929947615E0,-1.312871933E1,-2.475891858E-1
3.741200156E1,2.559334517E0,-1.210633755E1,1.734072447E0
3.743200156E1,2.169855356E0,-1.322988033E1,-2.337507010E0
3.745400156E1,1.083155990E0,-1.410127354E1,-5.090857983E0
3.747600156E1,-4.528201520E-1,-1.368662643E1,-1.429261804E0
3.749800156E1,-1.951427579E0,-1.434562588E1,-1.363737285E-1
3.751800156E1,-1.455502152E0,-1.601175117E1,3.012949705E0
3.753800156E1,-2.784657717E0,-1.679450226E1,2.935980797E0
3.756000000E1,-4.310750484E0,-1.576479435E1,2.759451389E0
3.758000000E1,-6.859138489E0,-1.386234188E1,1.695439577E0
3.760000156E1,-7.660861492E0,-1.121789837E1,-9.528827071E-1
3.762200000E1,-5.072480202E0,-9.159411430E0,-9.048166871E-1
3.764200156E1,-3.359112740E0,-8.433757782E0,-1.383369714E-1
3.766200469E1,-1.779236555E0,-7.251797199E0,-5.347880125E-1
3.768400000E1,-7.740166783E-1,-5.781221390E0,7.425664663E-1
3.770400000E1,6.365703791E-2,-5.686191082E0,2.147119999E0
3.772400000E1,1.228129715E-1,-6.138350010E0,2.051361561E0
3.774400156E1,-6.208643913E-1,-6.095877171E0,2.148173571E0
3.776601875E1,-1.397466779E0,-5.322367668E0,2.642700672E0
3.778802188E1,-1.851244688E0,-4.579696178E0,2.542527437E0
3.781000000E1,-1.872179508E0,-3.768368244E0,2.019595385E0
3.783000156E1,-1.559697866E0,-2.841495991E0,9.182720780E-1
3.785000156E1,-1.572358370E0,-2.511919975E0,-3.308595419E-1
3.787200000E1,-1.610770941E0,-5.161573410E0,-3.728068829E0
3.789200000E1,-4.845481217E-1,-1.562186909E1,-1.672711945E1
3.791200156E1,2.460473180E-1,-2.414280510E1,-3.706175995E1
3.793200156E1,-6.705105305E-1,-1.894389153E1,-7.299748421E0
3.795400156E1,-5.241673589E-1,-1.076993370E1,-8.696525574E0
3.797600156E1,-2.138232946E0,-5.952416420E0,-8.492855072E0
3.799600156E1,-6.500515938E0,-1.026032257E1,-6.480596066E0
3.801600156E1,-7.121035576E0,-1.201900768E1,1.143143177E1
3.803600156E1,-7.910873413E0,-1.115833950E1,2.968187571E0
3.805601406E1,-4.314179420E0,-4.379052162E0,4.006275177E0
3.807800156E1,-1.890145659E0,-6.854436398E0,3.137323380E0
3.809800156E1,-2.198719978E0,-1.379876041E1,3.278543234E0
3.811800156E1,-2.807919741E0,-1.703161240E1,3.416085243E0
3.813800156E1,-7.353455424E-1,-1.550197792E1,3.020888567E0
3.815800156E1,8.220635653E-1,-1.227602005E1,2.411890030E0
3.818000156E1,1.295224905E0,-9.044375420E0,1.555656552E0
3.820200156E1,1.238807917E0,-4.959933758E0,-5.452641010E0
3.822400000E1,-5.080400109E-1,-7.610305309E0,-2.472865582E0
3.824400000E1,-4.129327834E-1,-1.014605141E1,1.074613482E-1
3.826400000E1,-8.023927808E-1,-8.653516769E0,2.586982846E-1
3.828400000E1,-9.115204215E-1,-6.752721310E0,4.769920111E-1
3.830400156E1,-9.618465900E-1,-6.145398617E0,8.922806382E-1
3.832600156E1,-8.826751113E-1,-6.419573307E0,1.273686528E0
3.834601406E1,-1.039581537E0,-7.751036644E0,1.489873409E0
3.836800156E1,-1.332239151E0,-1.001368141E1,1.132773399E0
3.838802031E1,-9.672766328E-1,-1.127504253E1,2.623278797E-1
3.841000000E1,-6.354785562E-1,-1.030507565E1,-1.230830312E0
3.843000156E1,-3.597719073E-1,-1.095660496E1,-6.031424999E0
3.845200000E1,1.670338750E0,-1.289332199E1,-6.770246983E0
3.847200000E1,2.264656305E0,-1.285895157E1,5.773761272E-1
3.849200156E1,2.297715425E0,-1.135468388E1,3.378505945E0
3.851400156E1,2.135359764E0,-1.099079418E1,7.021714449E-1
3.853400156E1,1.564754486E0,-1.266339302E1,-8.775840759E0
3.855600156E1,7.407755852E-1,-1.406298542E1,-5.068898201E0
3.857600625E1,-4.809663892E-1,-1.402785778E1,-1.560540676E0
3.859800156E1,-1.042895198E0,-1.489544964E1,2.024680614E0
3.861800156E1,-1.444144130E0,-1.613147163E1,3.417282581E0
3.863800156E1,-2.633372784E0,-1.665672112E1,3.007088661E0
3.865800156E1,-4.120248318E0,-1.605797768E1,2.466343641E0
3.867800156E1,-6.907003880E0,-1.455904484E1,5.805747509E-1
3.869800156E1,-6.048826218E0,-1.195396233E1,-1.181394935E0
3.871800156E1,-4.236003399E0,-9.335155487E0,-1.557897449E0
3.874000000E1,-2.337411165E0,-7.920421600E0,-1.064002395E0
3.876000156E1,-8.878370523E-1,-7.279675961E0,-1.052605987E0
3.878200000E1,-2.345551401E-1,-5.948441982E0,1.671315551E0
3.880200000E1,1.061885834E0,-5.465857029E0,3.887302399E0
3.882200000E1,3.454833031E-1,-5.489579201E0,2.628795147E0
3.884200156E1,-7.591534853E-1,-5.000232697E0,2.518594742E0
3.886200156E1,-1.202425480E0,-4.633355141E0,2.653292656E0
3.888400156E1,-1.684502840E0,-4.487710953E0,2.478353024E0
3.890601562E1,-2.049704790E0,-4.408625603E0,2.720272779E0
3.892800156E1,-2.844646692E0,-3.841400862E0,2.403108031E-1
3.894800156E1,-2.889552593E0,-3.550486088E0,-1.931584477E0
3.897000156E1,-2.616536856E0,-6.093626499E0,-5.027134418E0
3.899200156E1,-1.011406541E0,-1.586416245E1,-1.419897556E1
3.901400156E1,2.089965820E0,-2.672134018E1,-3.296347427E1
3.903400156E1,5.738230944E-1,-1.774006653E1,-6.156421185E0
3.905600156E1,5.056745410E-1,-9.693662643E0,-8.758918762E0
3.907600625E1,1.074709222E-1,-5.748689175E0,-7.467036247E0
3.909800000E1,-3.060977221E0,-9.930755615E0,-6.742445469E0
3.911800156E1,-4.649788380E0,-1.338784981E1,8.331123352E0
3.913800156E1,-6.780350685E0,-1.038521385E1,6.527274132E0
3.915800156E1,-5.111400604E0,-5.034460545E0,4.353022575E0
3.918000156E1,-3.910995722E0,-4.217846394E0,1.796982408E0
3.920200156E1,-4.318775654E0,-1.088632965E1,4.494874477E0
3.922400312E1,-3.298166037E0,-1.711587143E1,1.991123557E0
3.924600156E1,-2.112949848E0,-1.433170128E1,1.274816632E0
3.926601406E1,3.704883456E-1,-1.065913963E1,-1.074546456E0
3.928601875E1,2.803313255E0,-7.539686203E0,6.574478149E-1
3.930800156E1,1.384193301E0,-7.685348988E0,-3.860516071E0
3.932800156E1,-1.344583742E-2,-9.560315132E0,-2.942971945E0
3.935000000E1,2.513816059E-1,-9.663591385E0,4.851610363E-1
3.937000000E1,-3.163602352E-1,-7.475961685E0,7.549684048E-1
3.939000156E1,-7.843979597E-1,-6.492385387E0,8.352124691E-1
3.941200000E1,-1.056063175E0,-7.012846470E0,4.087189734E-1
3.943200938E1,-1.265661240E0,-7.634965420E0,4.693688750E-1
3.945400156E1,-1.336855173E0,-8.112493515E0,7.258166075E-1
3.947600156E1,-1.125734448E0,-9.275443077E0,9.045772552E-1
3.949800156E1,-9.618370533E-1,-1.070553875E1,1.004185677E0
3.951800156E1,-7.976139784E-1,-1.072203064E1,7.411682010E-1
3.953800156E1,-3.642921448E-1,-1.051987267E1,-8.946844339E-1
3.955800156E1,1.322528362E0,-1.213799858E1,-6.696658611E0
3.957800156E1,3.516746998E0,-1.320646477E1,-7.542760372E0
3.959800156E1,2.574130774E0,-1.242231560E1,-3.562476635E-1
3.961800156E1,1.716288328E0,-1.141293907E1,1.371216774E0
3.964000000E1,8.655614257E-1,-1.263318729E1,-2.961100817E0
3.966000000E1,9.070193768E-2,-1.390129948E1,-5.905030251E0
3.968000000E1,-8.796009421E-1,-1.429080772E1,-2.299113512E0
3.970000000E1,-9.366500378E-1,-1.539961052E1,1.175687075E0
3.972000000E1,-1.140023112E0,-1.640614319E1,3.206037045E0
3.974000000E1,-2.946697235E0,-1.722158813E1,2.692672253E0
3.976000156E1,-4.077095509E0,-1.661090469E1,2.524599552E0
3.978200156E1,-7.564777374E0,-1.405955696E1,1.611671209E0
3.980400156E1,-7.056162834E0,-1.038703346E1,-6.758927107E-1
3.982600312E1,-4.415262222E0,-8.770851135E0,-1.392697453E0
3.984600625E1,-2.910228729E0,-7.526776314E0,-7.304422259E-1
3.986601562E1,-1.602209330E0,-6.357601643E0,-1.643571556E-1
3.988802031E1,-5.749723315E-1,-5.296931744E0,1.757746220E0
3.991000000E1,3.735433221E-1,-5.389127731E0,2.951226950E0
3.993000469E1,4.221456349E-1,-6.071954250E0,2.374837399E0
3.995200000E1,-5.948729515E-1,-5.775178432E0,2.689703703E0
3.997200000E1,-1.084563851E0,-5.247956276E0,2.975341558E0
3.999200156E1,-1.551126719E0,-4.561097622E0,2.423209906E0
4.001400156E1,-1.958160162E0,-3.642251253E0,2.489146233E0
4.003400156E1,-2.052347898E0,-2.663041830E0,9.182242155E-1
4.005600781E1,-1.444460154E0,-3.616039515E0,-9.685024619E-1
4.007800156E1,-3.677780926E-1,-1.216448784E1,-9.273451805E0
4.010000156E1,5.396818519E-1,-2.069610214E1,-3.777556229E1
4.012000156E1,1.995461822E0,-2.193337631E1,-1.206014919E1
4.014200156E1,9.842084348E-2,-1.347696114E1,-6.488813400E0
4.016400156E1,8.998367190E-2,-7.805691242E0,-7.259066582E0
4.018600781E1,-3.990425587E0,-8.344663620E0,-6.607862949E0
4.020800000E1,-4.477645397E0,-1.096965694E1,5.576564789E0
4.022800156E1,-6.920555115E0,-1.102888966E1,4.707967758E0
4.024800156E1,-8.187882423E0,-7.253473759E0,-8.784900308E-1
4.026800156E1,-3.352418661E0,-5.561155796E0,3.770005941E0
4.028802031E1,-2.725539923E0,-8.421891212E0,4.404095650E0
4.031000000E1,-2.497085333E0,-1.396794510E1,3.573604584E0
4.033000156E1,-1.925330758E0,-1.528460217E1,2.565052032E0
4.035200156E1,-8.631575704E-1,-1.315996838E1,1.840432405E0
4.037400156E1,8.028429151E-1,-1.036759281E1,1.870417356E0
4.039600156E1,1.731898427E0,-7.745616436E0,-2.638841391E0
4.041600156E1,6.659232974E-1,-6.139633179E0,-4.835607529E0
4.043800156E1,1.905592978E-1,-9.600337029E0,-6.282576919E-1
4.045800156E1,-2.437201589E-1,-9.899985313E0,-1.310202926E-1
4.047800156E1,-8.350783587E-1,-7.906180859E0,1.108515412E-1
4.049800156E1,-8.485338092E-1,-7.001019001E0,5.475347638E-1
4.051800156E1,-5.873456001E-1,-6.953891754E0,1.152444243E0
4.053800781E1,-6.909282804E-1,-7.222243786E0,1.826833367E0
4.056000000E1,-1.050480008E0,-8.524105072E0,1.744980335E0
4.058000469E1,-1.081278920E0,-1.042342472E1,6.999496222E-1
4.060200000E1,-1.112020493E0,-1.139165878E1,2.146737128E-1
4.062200156E1,-1.229068279E0,-1.061117840E1,-1.603952408E0
4.064200156E1,-1.605647504E-1,-1.103006840E1,-6.839631081E0
4.066200781E1,2.286424398E0,-1.239733887E1,-5.654222965E0
4.068400000E1,2.660714626E0,-1.228425598E1,5.929767489E-1
4.070400312E1,2.517800093E0,-1.124853420E1,2.119069576E0
4.072600000E1,1.517454624E0,-1.196766567E1,-1.347533345E0
4.074601563E1,-2.122124583E-1,-1.326533318E1,-8.917778969E0
4.076800156E1,-5.912433267E-1,-1.403561497E1,-4.364074230E0
4.078802500E1,-1.004607007E-1,-1.443438339E1,1.613854766E0
4.081000000E1,2.285600752E-1,-1.535402584E1,3.807019949E0
4.083000625E1,-1.632730603E0,-1.635260773E1,3.546894789E0
4.085200156E1,-3.503875971E0,-1.644382858E1,2.741801500E0
4.087400156E1,-4.149084568E0,-1.512149048E1,2.126041412E0
4.089600312E1,-9.126313210E0,-1.188923264E1,-3.851983249E-1
4.091800000E1,-6.379858017E0,-1.005929565E1,-1.097540379E0
4.093800156E1,-4.301537514E0,-9.015634537E0,-1.588773012E0
4.095800156E1,-2.688698053E0,-7.620131016E0,-3.000509441E-1
4.097800156E1,-1.498023272E0,-5.952358723E0,5.521029234E-2
4.099800156E1,-7.852215767E-1,-4.886172771E0,1.307971597E0
4.101800156E1,2.435573637E-1,-5.008478642E0,2.529895544E0
4.104000156E1,-1.950508207E-1,-5.728050709E0,2.805324554E0
4.106200156E1,-9.598162770E-1,-5.869385242E0,2.839791298E0
4.108400000E1,-1.332085967E0,-5.539636612E0,3.149237156E0
4.110400156E1,-1.486655593E0,-4.952435017E0,2.609861851E0
4.112600156E1,-1.772025228E0,-3.319905519E0,2.011713505E0
4.114600156E1,-1.750496626E0,-2.689186573E0,6.490489244E-1
4.116600156E1,-7.569124699E-1,-5.970669746E0,-3.141412735E0
4.118600312E1,1.643954664E-1,-1.453846359E1,-1.551036644E1
4.120800000E1,1.861281157E0,-2.194677544E1,-3.484706879E1
4.122800156E1,2.202388048E0,-1.800702095E1,-7.317896366E0
4.124800156E1,7.026503086E-1,-1.175895882E1,-6.556617260E0
4.126800156E1,5.473623872E-1,-7.308089733E0,-6.479246140E0
4.128802031E1,-3.792606831E0,-8.048348427E0,-6.508483887E0
4.131000000E1,-5.826222420E0,-1.156868649E1,4.382375717E0
4.133000156E1,-7.055655003E0,-1.247635746E1,2.073168039E0
4.135200156E1,-7.670974255E0,-6.088751793E0,1.153995633E0
4.137400156E1,-2.936009407E0,-4.310472488E0,3.638985395E0
4.139600156E1,-3.050462008E0,-9.441898346E0,5.009809494E0
4.141600156E1,-2.774534941E0,-1.613665199E1,1.079727530E0
4.143800156E1,-1.839187384E0,-1.627070618E1,7.698124647E-1
4.145800156E1,-4.887331724E-1,-1.342404938E1,1.010266900E0
4.147800156E1,1.093929887E0,-1.032247639E1,1.722417474E0
4.150000000E1,1.575710297E0,-7.708553791E0,2.552027404E-1
4.152000000E1,2.314905673E-1,-5.663465023E0,-4.118362427E0
4.154000156E1,-4.433199763E-1,-8.765545845E0,-2.334892511E0
4.156200156E1,2.120305002E-1,-1.048045540E1,-4.839160666E-2
4.158200156E1,-2.140033245E-1,-8.532743454E0,-3.509229422E-1
4.160200156E1,-4.500237405E-1,-7.074693680E0,2.504909635E-1
4.162400000E1,-1.564946026E-1,-6.697376728E0,9.887382984E-1
4.164400000E1,-2.057289630E-1,-6.689016819E0,1.397984028E0
4.166400156E1,-8.102552891E-1,-7.707117081E0,1.951303124E0
4.168600156E1,-1.292849779E0,-9.947697639E0,8.277137876E-1
4.170602656E1,-1.194055438E0,-1.117141247E1,-6.528509408E-2
4.172800156E1,-1.291681409E0,-1.068677807E1,-8.291982412E-1
4.174800156E1,-9.541755915E-1,-1.054507065E1,-3.984679461E0
4.176800156E1,1.425842881E0,-1.264842415E1,-6.969530582E0
4.178802188E1,2.764268637E0,-1.327283192E1,-1.789598703E0
4.181000000E1,2.603617668E0,-1.230180073E1,1.786074519E0
4.183000156E1,2.752460480E0,-1.239170837E1,2.956168950E-1
4.185200156E1,2.744674444E0,-1.420528698E1,-4.176321030E0
4.187400156E1,4.262828231E-1,-1.374641418E1,-3.925466061E0
4.189600000E1,-2.458825827E0,-1.295427799E1,-2.211428165E0
4.191601250E1,-3.337842703E0,-1.395118523E1,-1.774869561E-1
4.193601875E1,-2.256994963E0,-1.502211189E1,2.381684780E0
4.195800000E1,-4.094477654E0,-1.502669907E1,2.573728561E0
4.197800156E1,-4.463845253E0,-1.430708885E1,2.389700651E0
4.200000000E1,-8.527877808E0,-1.252578354E1,1.698896885E0
4.202000000E1,-7.286341190E0,-1.111095428E1,4.593802691E-1
4.204000156E1,-5.043692589E0,-9.367304802E0,-1.505589008E0
4.206200000E1,-2.825703859E0,-8.002063751E0,-1.617493868E0
4.208200000E1,-1.612408638E0,-6.604654312E0,-7.167186141E-1
4.210200000E1,-9.860663414E-1,-5.608417511E0,1.152147293E0
4.212200000E1,8.527188748E-2,-5.552392960E0,1.650170088E0
4.214200000E1,1.622119546E-1,-5.907176018E0,1.945346355E0
4.216200000E1,3.487873077E-2,-6.344308853E0,2.675386190E0
4.218200000E1,-4.396233261E-1,-6.150187016E0,2.393837929E0
4.220200000E1,-8.531211019E-1,-4.895711422E0,2.239766121E0
4.222200000E1,-1.179977536E0,-3.555207491E0,2.574092627E0
4.224200000E1,-1.326445222E0,-2.545409918E0,2.176798582E0
4.226200000E1,-1.107107520E0,-3.185389757E0,6.104639769E-1
4.228200000E1,-2.324003726E-1,-9.144797325E0,-6.408885479E0
4.230200000E1,1.092167735E0,-1.842538261E1,-3.286325455E1
4.232200000E1,2.181826353E0,-2.239534378E1,-1.875654793E1
4.234200000E1,2.006532550E-1,-1.486095333E1,-6.262149334E0
4.236200000E1,-8.643068075E-1,-8.958747864E0,-8.529975891E0
4.238200000E1,-6.172002792E0,-1.127600002E1,-1.044306755E1
4.240200000E1,-7.588038921E0,-1.744294739E1,-6.982085705E0
4.242200000E1,-5.993855476E0,-9.823705673E0,1.520360279E1
4.244200000E1,-4.441751957E0,-2.660245419E0,8.751659393E0
4.246200000E1,-3.151142836E0,-8.436879516E-1,2.659958124E0
