"Time (s)","Gyroscope x (rad/s)","Gyroscope y (rad/s)","Gyroscope z (rad/s)"
1.528510000E-1,-1.771631360E0,-1.423525453E0,6.106034517E-1
1.728510000E-1,-1.045940876E0,1.231678873E-1,3.650006950E-1
1.928510000E-1,-6.789331138E-2,7.256555557E-1,-4.996877536E-2
2.128510000E-1,8.751604557E-1,1.263496161E0,-4.240102768E-1
2.328541250E-1,1.050984859E0,6.428745985E-1,-3.303384781E-1
2.548510000E-1,3.308097124E-1,4.610985219E-1,-2.531076372E-1
2.748510000E-1,-4.242895544E-1,-1.566956639E-1,-9.959197640E-1
2.948510000E-1,-1.497318000E-1,-2.193878889E-1,2.513623238E-1
3.148619370E-1,8.735372871E-2,-3.565009534E-1,2.439272106E-1
3.368525620E-1,3.096737564E-1,-8.569566905E-2,-1.668185741E-1
3.568525620E-1,2.499835044E-1,-2.532996237E-1,4.537856206E-2
3.768525620E-1,-3.640756905E-1,-3.343876302E-1,-6.684611086E-3
3.968525620E-1,-6.681993008E-1,2.494075522E-2,-2.619564533E-1
4.188525620E-1,-1.800830662E-1,2.928313315E-1,-9.053023160E-2
4.408556870E-1,9.702285379E-2,2.293362655E-2,4.513944983E-1
4.608931870E-1,2.258979678E-1,3.284535110E-1,4.190186560E-1
4.828510000E-1,2.030865103E-1,-1.226809382E0,-3.727150559E-1
5.028525620E-1,8.712683618E-2,-8.529249430E-1,-9.964608550E-1
5.228588120E-1,2.143264264E-1,5.536184311E-1,-8.532216549E-1
5.448510000E-1,-2.765474319E-1,-1.336049587E-1,-3.159045875E-1
5.648556870E-1,-5.295503736E-1,-1.189057946E0,-2.846980989E-1
5.868650620E-1,-1.995609403E-1,-1.954349875E0,-5.490631461E-1
6.088510000E-1,-4.864232615E-2,-2.794202328E0,-2.616597712E-1
6.288525620E-1,2.006430477E-1,-3.300976038E0,2.434385270E-1
6.488525620E-1,4.648684561E-1,-3.535042286E0,7.101744413E-1
6.688525620E-1,-3.443360031E-1,-2.502278566E0,1.480789661E0
6.888713120E-1,-6.599788070E-1,-2.764898300E0,2.318704844E0
7.108510000E-1,-1.529606581E-1,-3.407702923E0,3.161559105E0
7.308525620E-1,1.244943365E-1,-5.028590202E0,3.331135511E0
7.528525620E-1,1.150172018E-2,-5.602663994E0,3.342986107E0
7.748510000E-1,5.715953186E-2,-5.446876049E0,3.755651712E0
7.948525620E-1,2.989574373E-1,-5.417100430E0,4.063213825E0
8.168525620E-1,3.277553916E-1,-4.542725563E0,4.041658878E0
8.368525620E-1,-1.978330761E-1,-3.607054472E0,3.681807041E0
8.588525620E-1,-2.022313029E-1,-3.078341961E0,3.580473185E0
8.808525620E-1,2.596875429E-1,-2.530884504E0,3.178261995E0
9.028510000E-1,3.373197913E-1,-2.048650026E0,2.692973137E0
9.228525620E-1,4.326147735E-1,-1.488277197E0,2.303642511E0
9.428525620E-1,7.167369127E-1,-1.077845573E0,1.873069882E0
9.628525620E-1,8.518777490E-1,-5.080304146E-1,1.478154302E0
9.848510000E-1,7.125656009E-1,9.347983450E-2,9.661444426E-1
1.004852562E0,6.216164827E-1,3.310540617E-1,4.576951265E-1
1.026854125E0,6.439566612E-1,2.872113883E-1,2.169095129E-1
1.048852562E0,7.950673103E-1,-1.942027807E-1,3.084520400E-1
1.068852562E0,1.117097974E0,-9.455321431E-1,3.606897295E-1
1.088871312E0,1.460386753E0,-1.530444264E0,2.951177359E-1
1.110851000E0,1.526569724E0,-1.500791192E0,1.803099662E-1
1.130852562E0,1.230177879E0,-8.425053358E-1,-3.961897455E-3
1.152851000E0,6.204296350E-1,-5.427973811E-3,-2.164208293E-1
1.172851000E0,-2.228785492E-2,6.613925099E-1,-4.439594150E-1
1.192852562E0,-7.195643187E-1,1.554651976E0,-8.210726976E-1
1.214852562E0,-1.365423441E0,2.645290852E0,-1.533743024E0
1.236852562E0,-1.493303657E0,3.122498751E0,-1.914975286E0
1.256852562E0,-1.590221882E0,3.128799438E0,-1.865023971E0
1.276852562E0,-1.280007005E0,2.583645821E0,-1.255764365E0
1.296852562E0,4.392993748E-1,1.111739874E0,1.303237379E-1
1.316852562E0,2.584692955E0,-1.517808080E0,1.145791173E0
1.336852562E0,3.855536938E0,-3.905697823E0,1.674835443E0
1.356852562E0,4.183292389E0,-4.907900810E0,2.168763638E0
1.376852562E0,3.790593386E0,-5.158460140E0,2.548564672E0
1.396852562E0,3.016627073E0,-4.698478699E0,2.285508633E0
1.416863500E0,1.854028344E0,-3.203866005E0,1.570168018E0
1.438852562E0,7.877543569E-1,-1.026672482E0,3.356268108E-1
1.458893187E0,5.253964663E-1,-6.418622732E-1,-9.052150249E-1
1.480851000E0,3.650356233E-1,-4.946612120E-1,-1.835335851E0
1.500851000E0,3.767642379E-1,7.803367078E-2,-2.164155960E0
1.520852562E0,3.920533061E-1,5.346816182E-1,-2.203233719E0
1.542852562E0,9.503666759E-1,3.569023907E-1,-1.589942575E0
1.562852562E0,1.484018564E0,-4.343775511E-1,-3.458544314E-1
1.582852562E0,2.063590050E0,-1.743880630E0,6.006724834E-1
1.604851000E0,1.962308526E0,-2.972365618E0,7.685208321E-1
1.624852562E0,1.207034826E0,-2.707476854E0,1.030791402E0
1.644852562E0,-5.796762109E-1,-5.433908105E-1,1.784878373E0
1.666855687E0,-1.291177154E0,9.893922210E-1,2.266083241E0
1.688871312E0,5.878269076E-1,1.735031754E-1,1.369699478E0
1.710851000E0,1.490214467E0,8.521569967E-1,1.163314342E0
1.730852562E0,-1.570447236E-1,-8.386830688E-1,8.545655608E-1
1.752852562E0,-1.047197580E0,-1.890662789E0,1.630050302E0
1.772852562E0,-5.686457157E-1,-8.597666621E-1,3.030572176E0
1.794852562E0,-9.770178795E-1,1.464680284E-1,3.510537863E0
1.816852562E0,-1.451346040E0,2.967583239E-1,2.268107653E0
1.836852562E0,-1.420715451E0,5.553986430E-1,1.319992542E0
1.858852562E0,-1.783743978E0,7.783994079E-1,1.515329719E0
1.878852562E0,-1.706513166E0,-2.397209704E-1,2.158727884E0
1.900851000E0,-1.565525413E0,7.370001674E-1,2.880945206E0
1.920851000E0,-9.087056518E-1,1.580308318E0,3.194982290E0
1.940852562E0,-5.260946155E-1,1.777548075E0,3.382046700E0
1.962851000E0,-2.832494974E-1,1.928780794E0,3.926030874E0
1.982851000E0,2.653074861E-1,5.702863336E-1,4.689001560E0
2.002851000E0,6.226287484E-1,-1.181500673E0,3.681475401E0
2.022851000E0,9.540667534E-1,-3.096371174E0,1.958730698E0
2.042852562E0,6.220702529E-1,-2.567257166E0,1.913928092E-1
2.064851000E0,-1.090342045E0,-1.642354876E-1,-5.001938939E-1
2.084852562E0,-1.352246165E0,9.948377265E-4,-8.020486236E-1
2.106852562E0,-1.484001040E0,-2.738421559E-1,-2.903006077E-1
2.126852562E0,-1.938816428E0,1.074075624E-1,1.770915747E0
2.146861937E0,-2.049208403E0,1.001487374E0,3.264952421E0
2.168852562E0,-2.265053272E0,2.220442772E0,3.981933832E0
2.188871312E0,-1.615057826E0,8.231845498E-1,2.983710051E0
2.210851000E0,-1.208256483E0,-1.335002303E0,9.619731307E-1
2.230852562E0,-8.947430253E-1,-7.373666763E-1,6.815510988E-2
2.250852562E0,-4.626169801E-1,3.405486345E-1,-3.501479626E-1
2.272860375E0,-2.394417226E-1,1.004576564E0,-2.554463744E-1
2.294852562E0,-2.342057377E-1,8.233590722E-1,-1.801179796E-1
2.314857250E0,-7.091272622E-2,2.086366564E-1,-1.472359747E-1
2.336852562E0,1.970127672E-1,-3.441614807E-1,8.761553094E-3
2.356852562E0,4.070107937E-1,-2.210110426E-1,1.637293398E-1
2.376852562E0,6.330658197E-1,-2.047445774E-1,1.749867052E-1
2.396860375E0,9.492322206E-1,-4.451287687E-1,3.256784379E-2
2.418852562E0,1.157764196E0,-1.450019479E-1,-1.899267286E-1
2.438858812E0,1.193735361E0,8.868541718E-1,-4.451985955E-1
2.460852562E0,1.529728770E0,1.662216663E0,-8.964883685E-1
2.480854125E0,1.793203592E0,1.589035034E0,-1.494124055E0
2.502851000E0,1.349122047E0,2.062525272E0,-2.267863274E0
2.522851000E0,2.979975045E-1,2.488298416E0,-2.271598339E0
2.542852562E0,-5.751557946E-1,5.083795190E-1,-1.260214925E0
2.564851000E0,-1.472708881E-1,-2.481386900E0,4.072551131E-1
2.584852562E0,7.987673879E-1,-1.585404754E0,1.829558849E0
2.604855687E0,5.257280469E-1,-2.580469251E-1,3.662678242E0
2.626854125E0,-3.064100146E-1,2.203478217E-1,5.618075371E0
2.646863500E0,1.068298578E0,-2.047986746E0,5.795156479E0
2.668852562E0,3.178122282E0,-3.836617708E0,4.767803192E0
2.688871312E0,2.709833145E0,-1.880993724E0,9.826727509E-1
2.710851000E0,1.153645158E0,1.592979431E0,-1.126592517E0
2.730852562E0,1.557270050E0,1.080934763E0,-3.394141793E-1
2.750852562E0,1.533795357E0,7.946833372E-1,-1.421570629E-1
2.770852562E0,1.273653984E0,8.265355825E-1,-2.195973247E-1
2.790852562E0,9.646609426E-1,8.400967717E-1,-1.959306598E-1
2.810852562E0,8.932943940E-1,7.205417156E-1,-2.233672440E-1
2.832852562E0,1.064179659E0,6.518979073E-1,-2.722015381E-1
2.854852562E0,9.090372920E-1,8.126078248E-1,-1.507440805E-1
2.876852562E0,8.931722641E-1,9.158789515E-1,2.537708730E-2
2.896852562E0,1.290566206E0,5.807583332E-1,3.317870945E-2
2.916852562E0,1.661710501E0,2.116037160E-1,5.480333697E-3
2.936852562E0,1.906248569E0,1.872214675E-1,-6.440265104E-3
2.956854125E0,2.064916372E0,2.660405338E-1,-1.012290944E-3
2.978851000E0,1.312592268E0,1.696425080E0,3.862588108E-1
2.998852562E0,2.003812492E-1,2.805075645E0,2.582214475E-1
3.018852562E0,7.014477998E-2,1.888428807E0,5.796238407E-2
3.038852562E0,3.553839326E-1,3.740065992E-1,-8.250171691E-2
3.058852562E0,-3.422416151E-1,6.735749245E-1,-3.546334505E-1
3.078852562E0,-1.973147035E0,1.926459551E0,-6.787585616E-1
3.098852562E0,-2.792142868E0,1.966811538E0,-9.030682445E-1
3.120851000E0,-3.075427294E0,1.283235908E0,-1.200123310E0
3.140851000E0,-3.081396341E0,7.919431329E-1,-1.405356526E0
3.160852562E0,-2.825600863E0,5.108054876E-1,-1.420296550E0
3.182852562E0,-2.394207716E0,8.129917979E-1,-9.844878912E-1
3.202852562E0,-2.577903748E0,1.450700164E0,-4.272566140E-1
3.224852562E0,-3.306823015E0,1.599140525E0,-1.639213264E-1
3.246854125E0,-2.904594421E0,9.847496748E-1,-3.427826613E-2
3.268852562E0,-2.119772196E0,1.071056247E0,2.372949570E-1
3.288874437E0,-1.693248630E0,2.141047716E0,3.472681642E-1
3.310852562E0,-1.347446561E0,2.920494318E0,2.241700888E-1
3.332852562E0,-1.077671051E0,2.349038601E0,-2.724459022E-2
3.354852562E0,-1.147693634E0,1.106922746E0,-1.865756959E-1
3.376871312E0,-1.268697262E0,-3.340734839E-1,-1.793849468E-1
3.398851000E0,-1.233965278E0,-1.465029359E0,-2.472084314E-1
3.418852562E0,-9.492322206E-1,-1.921083927E0,-3.198315799E-1
3.438852562E0,-3.941476941E-1,-2.504687071E0,-2.202780098E-1
3.458852562E0,3.642153144E-1,-2.752384186E0,-6.525786221E-2
3.480851000E0,1.175915599E0,-2.720584393E0,1.100430116E-1
3.500851000E0,1.654711723E0,-2.113419294E0,-7.717845589E-2
3.520851000E0,1.224453211E0,-1.827708781E-1,-5.818578601E-1
3.540851000E0,-1.135162115E-1,-2.857976556E-1,-8.444601297E-1
3.560851000E0,-5.028642416E-1,-1.683178067E0,-5.384864211E-1
3.580851000E0,-8.369027972E-1,-1.625076056E0,-2.753256857E-1
3.600851000E0,-1.004559159E0,-1.565473080E0,-5.156400800E-1
3.620858812E0,-8.914269209E-1,9.971240759E-1,-1.992118806E-1
3.642851000E0,6.997897625E-1,2.385515928E0,2.741737664E-1
3.662851000E0,-5.246634483E-1,2.227249622E0,4.391422868E-1
3.682861937E0,1.102664113E0,2.331724882E0,5.070181489E-1
3.704851000E0,2.514007092E0,2.468646049E0,8.048236966E-1
3.724854125E0,3.055966854E0,2.604397774E0,5.929232240E-1
3.746869750E0,3.282650232E0,2.448103428E0,2.009746581E-1
3.768852562E0,3.118467093E0,1.950527549E0,8.261166811E-1
3.788871312E0,2.698244095E0,1.532713294E0,1.539136052E0
3.810852562E0,2.215747833E0,1.061020613E0,1.458257437E0
3.830852562E0,1.711644411E0,1.462271690E0,9.743824005E-1
3.852852562E0,2.613072157E0,6.577098966E-1,7.462853193E-1
3.874858812E0,2.302037001E0,3.990171850E-1,4.982391298E-1
3.896852562E0,1.490563512E0,-2.018473297E-1,4.327369332E-1
3.916866625E0,1.128372788E0,-5.501278043E-1,3.503224850E-1
3.938852562E0,1.013896704E0,-4.294207990E-1,1.291718185E-1
3.958852562E0,8.522617221E-1,-1.056098714E-1,7.988371700E-2
3.978852562E0,8.860862255E-1,3.532546461E-1,1.000248194E-1
3.998852562E0,1.235658169E0,8.051204085E-1,1.302015632E-1
4.020852562E0,1.691433430E0,9.600183368E-1,2.640334070E-1
4.040858812E0,1.803396344E0,8.019962311E-1,3.873758316E-1
4.062851000E0,1.881150723E0,4.207814336E-1,4.245862365E-1
4.082852562E0,1.455901265E0,1.064825416E0,6.298369765E-1
4.104851000E0,1.818633080E-2,1.869683981E0,3.589269519E-1
4.124851000E0,-1.662251502E-1,6.027494669E-1,1.536936909E-1
4.144851000E0,3.371975943E-2,-4.913800061E-1,1.272345036E-1
4.164851000E0,-6.543762684E-1,-4.914847016E-2,-2.086715698E-1
4.184851000E0,-2.094901323E0,4.404861927E-1,-9.165596366E-1
4.204860375E0,-2.810172081E0,2.471909821E-1,-1.287093043E0
4.226852562E0,-3.290102720E0,4.647986293E-1,-1.346800804E0
4.248851000E0,-3.111764908E0,2.811550796E-1,-1.602666020E0
4.268852562E0,-2.832372665E0,2.624800801E-1,-1.478538275E0
4.288871312E0,-2.588707209E0,8.451582193E-1,-9.960768819E-1
4.310851000E0,-2.646948814E0,9.797230959E-1,-6.655638814E-1
4.330851000E0,-3.237690449E0,1.989326328E-1,-2.394940853E-1
4.350851000E0,-3.070418119E0,-5.452408642E-2,-1.669058353E-1
4.370851000E0,-2.539401770E0,4.365766644E-1,1.637118869E-2
4.390851000E0,-2.000042677E0,1.425707102E0,1.747423708E-1
4.410851000E0,-1.510058880E0,1.913142681E0,2.642428502E-2
4.430851000E0,-1.090987802E0,1.639213204E0,-3.264812827E-1
4.450851000E0,-8.952666521E-1,7.177143097E-1,-6.973288655E-1
4.470851000E0,-9.680643082E-1,-2.312386781E-1,-7.052526474E-1
4.490851000E0,-1.066151857E0,-1.080079556E0,-4.978551567E-1
4.510851000E0,-9.981538057E-1,-1.788229465E0,-2.989400029E-1
4.530851000E0,-6.460510492E-1,-2.197718620E0,-2.138901055E-1
4.550851000E0,1.855983138E-1,-2.760691881E0,-1.227490082E-1
4.570851000E0,1.338056684E0,-3.131661654E0,4.049163777E-3
4.590852562E0,2.310466766E0,-3.137421370E0,3.206169978E-2
4.612852562E0,2.287812471E0,-2.030550957E0,-8.375835419E-2
4.634851000E0,-5.542293191E-1,8.668701053E-1,-5.886646509E-1
4.654851000E0,-1.079486132E0,-1.250214219E0,-5.728344917E-1
4.674851000E0,-1.902583390E-1,-9.994104505E-1,-4.040088058E-1
4.694851000E0,-5.025849938E-1,-3.910235763E-1,-7.052526474E-1
4.714852562E0,-1.661047339E0,1.443945765E0,-6.108129025E-1
4.736851000E0,4.441862926E-2,1.995958567E0,-2.283937782E-1
4.756852562E0,9.465967417E-1,1.009917259E0,1.021890268E-1
4.776857250E0,-1.792627722E-1,-2.574186027E-1,2.044478655E-1
4.798851000E0,-6.988298148E-2,1.039867178E-1,3.843913078E-1
4.818852562E0,1.025450706E0,1.088492036E0,5.640380383E-1
4.838852562E0,2.344378710E0,1.351879716E0,6.067113280E-1
4.858852562E0,3.315532207E0,1.053061843E0,7.958177924E-1
4.878852562E0,3.484811544E0,5.276653767E-1,9.577319622E-1
4.900851000E0,1.993445277E0,1.043497443E0,5.328664780E-1
4.920851000E0,2.342720509E0,-5.404586792E-1,7.717846036E-1
4.940852562E0,2.311531544E0,-1.283323169E0,7.144680023E-1
4.960852562E0,1.862405896E0,-1.364236593E0,5.432162881E-1
4.980852562E0,1.664153934E0,-1.396403074E0,4.915545285E-1
5.000852562E0,1.727509379E0,-1.075070500E0,4.061032236E-1
5.022851000E0,1.557968140E0,-1.846209317E-1,2.367364615E-1
5.042852562E0,1.346905470E0,4.705582261E-1,1.811128110E-1
5.064851000E0,1.194712758E0,6.241297126E-1,2.277480066E-1
5.084851000E0,1.404658437E0,3.335847855E-1,2.618691921E-1
5.104851000E0,1.904328704E0,-6.485643238E-2,2.087937444E-1
5.124851000E0,2.018735170E0,5.164429173E-2,1.672374457E-1
5.144852562E0,1.913195014E0,3.619638383E-1,7.562511414E-2
5.166852562E0,1.746341586E0,1.296116352E0,2.720270157E-1
5.186860375E0,2.989400029E-1,2.643370867E0,2.800729871E-1
5.208852562E0,-1.847605556E-1,1.494490504E0,1.928588748E-2
5.228852562E0,3.912853599E-1,-3.993138671E-1,7.433357090E-2
5.248852562E0,7.550293952E-2,-7.730412483E-1,4.764748737E-3
5.268852562E0,-1.661605835E0,5.243667364E-1,-5.106484294E-1
5.288874437E0,-2.557849884E0,4.468217492E-1,-1.017457128E0
5.310852562E0,-3.188559532E0,-1.037598252E-1,-1.133277178E0
5.332852562E0,-3.430165291E0,-3.978478014E-1,-1.231713772E0
5.354852562E0,-2.928941727E0,-6.640453935E-1,-1.441031098E0
5.376851000E0,-2.470042229E0,-4.243069887E-1,-1.229165554E0
5.396852562E0,-2.349213123E0,1.621061862E-1,-7.597069144E-1
5.416858812E0,-3.063820839E0,2.470862567E-1,-1.739918739E-1
5.438852562E0,-3.567749739E0,-5.462880433E-2,-1.114218161E-1
5.458852562E0,-3.159464836E0,3.216641769E-2,-1.007753089E-1
5.480851000E0,-2.352599144E0,5.295852423E-1,1.281944364E-1
5.500852562E0,-1.977196217E0,1.437069178E0,1.126435474E-1
5.520852562E0,-1.594654918E0,1.907225966E0,-4.707153141E-2
5.542852562E0,-1.038662910E0,1.422408462E0,-2.482905388E-1
5.562852562E0,-7.677528858E-1,2.901784480E-1,-4.431565404E-1
5.584851000E0,-7.274183035E-1,-1.094426155E0,-3.914424479E-1
5.604851000E0,-7.347137928E-1,-1.781213164E0,-1.301666498E-1
5.624851000E0,-5.415407419E-1,-1.797916055E0,4.818854108E-2
5.644852562E0,-1.182285994E-1,-2.034093857E0,5.206317082E-2
5.666858812E0,6.394013762E-1,-2.812283993E0,9.026842564E-2
5.686866625E0,1.332750916E0,-3.203359842E0,4.085815698E-2
5.708854125E0,4.144458771E-1,-2.102807522E0,-5.207015276E-1
5.730852562E0,5.803219602E-2,-6.723706126E-1,-8.947430253E-1
5.750852562E0,3.199537694E-1,-1.467245936E0,-2.631956525E-2
5.772852562E0,6.568895578E-1,-1.439599872E0,-3.882659376E-1
5.794852562E0,7.008369565E-1,4.269599020E-1,-8.015249968E-1
5.816852562E0,-9.416924119E-1,1.605999589E0,-7.475943565E-1
5.836852562E0,-7.283433676E-1,1.357342601E0,-3.298148811E-1
5.856852562E0,4.662123621E-1,1.534283996E0,1.118057892E-1
5.876852562E0,6.405358315E-1,1.684574366E0,1.347045153E-1
5.896863500E0,1.355038762E0,1.433107257E0,2.865132391E-1
5.918852562E0,1.751856804E0,1.156263113E0,5.433035493E-1
5.938852562E0,2.046590567E0,8.343895674E-1,5.171759725E-1
5.958852562E0,2.383788109E0,3.595378101E-1,4.877497256E-1
5.980852562E0,2.491248131E0,-7.257079333E-2,7.245385051E-1
6.002851000E0,2.488123894E0,-3.456101120E-1,6.552664042E-1
6.022851000E0,2.392410040E0,-2.579945624E-1,6.092770100E-1
6.042851000E0,2.121186018E0,5.878443718E-1,4.194375277E-1
6.062851000E0,2.553224802E0,2.664419711E-1,3.031636775E-1
6.082852562E0,2.231595516E0,3.414736688E-1,6.571164727E-2
6.104851000E0,1.561947465E0,5.919632912E-1,-3.089232743E-2
6.124851000E0,1.285347700E0,8.353843689E-1,1.100953668E-1
6.144852562E0,1.106119871E0,9.898285866E-1,2.388832122E-1
6.166851000E0,1.214993477E0,8.925788403E-1,3.202330172E-1
6.186854125E0,1.602002859E0,4.813967049E-1,3.163758218E-1
6.208852562E0,2.077028990E0,4.537856206E-2,3.882135749E-1
6.228852562E0,2.183372021E0,1.037249193E-1,4.456698298E-1
6.248852562E0,1.871132612E0,6.410594583E-1,4.822519124E-1
6.268852562E0,1.098649859E0,1.355981231E0,3.857177496E-1
6.288874437E0,3.215594590E-1,1.434206843E0,2.498264313E-1
6.310852562E0,1.253844500E-1,5.027595162E-1,1.382300723E-2
6.332852562E0,3.279997110E-1,-6.392966509E-1,-1.141270772E-1
6.354852562E0,1.945693046E-1,-4.525638819E-1,-3.301639259E-1
6.376851000E0,-1.316589117E0,1.189721107E0,-6.219829917E-1
6.396851000E0,-2.439481497E0,1.364498377E0,-8.895070553E-1
6.416858812E0,-3.048514128E0,8.845677972E-1,-9.949598312E-1
6.438851000E0,-3.361539125E0,4.967730641E-1,-1.140084028E0
6.458852562E0,-2.953393698E0,1.127482671E-2,-1.455744267E0
6.480851000E0,-2.545650005E0,3.967133537E-2,-1.340203404E0
6.500851000E0,-2.409863472E0,6.101496220E-1,-8.000938296E-1
6.520852562E0,-2.938366413E0,8.673413396E-1,-2.226865590E-1
6.540852562E0,-3.553123713E0,2.380454540E-1,-1.843067706E-1
6.560852562E0,-3.278915167E0,-3.428350091E-1,-1.813222617E-1
6.580852562E0,-2.667369127E0,-5.462880712E-3,1.529955566E-1
6.600852562E0,-2.292140961E0,1.209774971E0,3.197268546E-1
6.620852562E0,-1.989396095E0,2.055736065E0,1.892635077E-1
6.642851000E0,-1.418673396E0,1.688099861E0,-4.394739121E-2
6.662851000E0,-1.071003795E0,7.543138266E-1,-2.206270695E-1
6.682852562E0,-1.017841101E0,-4.195596874E-1,-2.937389016E-1
6.702852562E0,-9.629679322E-1,-1.379176617E0,-1.603259444E-1
6.724852562E0,-6.100798249E-1,-1.788246870E0,7.370525599E-2
6.746858812E0,4.675737023E-2,-2.027513981E0,1.967160553E-1
6.768852562E0,8.047538400E-1,-2.422482014E0,2.256885320E-1
6.788872875E0,1.796031117E0,-3.126582861E0,1.640958488E-1
6.810852562E0,2.842024326E0,-3.226415634E0,-4.271867871E-1
6.830852562E0,1.662705302E0,-4.532445371E-1,-1.282624960E0
6.852851000E0,-1.049536347E0,-1.832770258E-1,-7.730761170E-1
6.872852562E0,-8.049982190E-1,-2.133787155E0,-1.756499410E-1
6.894851000E0,-2.171014994E-1,-8.371297121E-1,-3.923849165E-1
6.914851000E0,-2.331236303E-1,2.581341863E-1,-5.632875562E-1
6.934852562E0,-9.650972486E-1,1.811913610E0,-4.330860078E-1
6.956852562E0,-2.057917714E-1,2.142513752E0,-1.798736304E-1
6.976852562E0,5.581039190E-1,1.069747210E0,3.611435294E-1
6.998852562E0,1.041333199E0,4.774871767E-1,4.949230254E-1
7.020852562E0,1.292782784E0,4.198563993E-1,4.330685437E-1
7.042852562E0,1.548752785E0,4.185124934E-1,1.468171030E-1
7.064851000E0,1.827359676E0,1.988977194E-1,3.660653532E-1
7.084852562E0,1.975450873E0,-2.480112910E-1,5.596922040E-1
7.106852562E0,1.613347411E0,1.565211266E-1,1.271646917E-1
7.128852562E0,2.270463943E0,-7.234040499E-1,1.702045053E-1
7.150851000E0,2.474056482E0,-9.625316262E-1,1.282991469E-1
7.170852562E0,2.214334011E0,-7.013081908E-1,-5.131267942E-3
7.190852562E0,1.891605258E0,-3.413689435E-1,-7.204718888E-2
7.210854125E0,1.827743649E0,5.731661245E-2,3.682644805E-3
7.232851000E0,1.805246353E0,6.621255279E-1,1.334653348E-1
7.252851000E0,1.592368603E0,1.361601114E0,1.994911283E-1
7.272852562E0,1.355509996E0,1.687977672E0,2.530727386E-1
7.292855687E0,1.340447783E0,1.490022540E0,3.834488392E-1
7.314851000E0,1.676196814E0,6.644468307E-1,5.268101692E-1
7.334854125E0,1.800917983E0,-2.644522786E-1,5.008396506E-1
7.356852562E0,1.795664549E0,-9.598438144E-1,3.641280532E-1
7.376854125E0,1.904887199E0,-9.604197741E-1,1.855285019E-1
7.398851000E0,8.993507028E-1,1.059240341E0,2.665641308E-1
7.418852562E0,-2.467197478E-1,2.299471378E0,1.266759932E-1
7.438852562E0,-1.282642484E-1,1.337567925E0,-1.759291887E-1
7.458858812E0,2.245191485E-1,-2.512226999E-1,-2.238210291E-1
7.480851000E0,2.635447085E-1,-9.291085601E-1,-1.949532777E-1
7.500851000E0,-1.056674719E0,3.971671164E-1,-4.933696687E-1
7.520852562E0,-2.559630156E0,1.165722847E0,-8.085587025E-1
7.540855687E0,-3.297642469E0,8.035845160E-1,-8.887216449E-1
7.562851000E0,-3.480570555E0,3.707253933E-1,-8.739212751E-1
7.582860375E0,-3.092950344E0,6.092944369E-2,-1.039448261E0
7.604851000E0,-2.585792542E0,5.426577926E-1,-1.014298081E0
7.624851000E0,-2.223165512E0,1.409632564E0,-6.228731275E-1
7.644852562E0,-2.592180490E0,1.487404466E0,-2.966535985E-1
7.666854125E0,-3.631192446E0,-4.290368259E-1,-2.509783395E-2
7.688871312E0,-3.079249382E0,-1.160539269E0,1.178271770E-1
7.710852562E0,-2.423599005E0,-1.069188714E-1,3.167423606E-1
7.730852562E0,-2.206253290E0,1.357150555E0,2.306452543E-1
7.750852562E0,-1.725798965E0,2.051477432E0,1.671501845E-1
7.770852562E0,-1.112856865E0,1.798177838E0,1.184729487E-1
7.790852562E0,-7.052875757E-1,8.143531680E-1,-1.113520097E-2
7.810852562E0,-5.392718315E-1,-4.532271028E-1,-1.637642384E-1
7.832852562E0,-5.595874786E-1,-1.386908412E0,-1.659284532E-1
7.852852562E0,-3.963991702E-1,-1.650034308E0,-6.450736523E-2
7.874852562E0,2.028770745E-1,-1.985748291E0,8.866272867E-3
7.896852562E0,1.081440926E0,-2.669306517E0,7.949974388E-2
7.916852562E0,1.932952166E0,-3.480814934E0,-6.126105785E-2
7.938851000E0,1.989256501E0,-2.479693890E0,-9.157568216E-1
7.958851000E0,-1.052957177E0,5.903401375E-1,-9.752376080E-1
7.978851000E0,-1.233179808E0,-1.523148775E0,-2.701071501E-1
7.998851000E0,-4.792848527E-1,-1.507702708E0,-2.682222128E-1
8.018851000E0,-4.544662833E-1,-6.863507032E-1,-6.262241602E-1
8.038851000E0,-8.807106018E-1,-6.060655713E-1,-4.909262061E-1
8.058851000E0,-8.649851680E-1,1.054824591E0,-5.065469146E-1
8.078851000E0,1.559277177E-1,1.750303388E0,-3.929085135E-1
8.098851000E0,-3.939731717E-1,1.762293816E0,3.081727922E-1
8.118851000E0,7.126179338E-2,9.865473509E-1,3.297275901E-1
8.138852562E0,1.253931761E0,-7.771427631E-1,3.110002279E-1
8.160851000E0,2.483376741E0,1.616524011E-1,3.350857496E-1
8.180851000E0,2.936219692E0,1.354358077E0,9.590584040E-2
8.200851000E0,2.104151487E0,2.486151695E0,1.485100687E-1
8.220851000E0,1.801493883E0,2.552142620E0,6.011437774E-1
8.240851000E0,2.309472084E0,9.596867561E-1,6.558423638E-1
8.260851000E0,2.522035599E0,-1.159055710E0,3.909013867E-1
8.280851000E0,1.970145106E0,-1.648533344E0,3.980048895E-1
8.300851000E0,1.831007481E0,-1.818336368E0,4.325624108E-1
8.320851000E0,1.929758191E0,-1.865198493E0,2.275211215E-1
8.340852562E0,2.038370132E0,-1.446075082E0,2.093347907E-1
8.362851000E0,1.968190312E0,-3.247185051E-1,2.174505740E-1
8.382851000E0,1.709550023E0,8.604996800E-1,1.688257009E-1
8.402851000E0,1.310497880E0,1.577568173E0,1.506044567E-1
8.422851000E0,1.114253044E0,1.672007918E0,2.228261828E-1
8.442851000E0,1.403698444E0,1.445726037E0,2.598969638E-1
8.462851000E0,2.078687191E0,7.128622532E-1,2.858325839E-1
8.482852562E0,2.212117434E0,-5.726425350E-2,3.162012994E-1
8.504852562E0,2.197631359E0,-5.825560093E-1,2.903878689E-1
8.526851000E0,1.145494461E0,6.912027597E-1,3.369358182E-1
8.546851000E0,-2.068389654E-1,1.945082188E0,2.166651785E-1
8.566852562E0,-2.755525708E-1,1.410330772E0,3.799581900E-2
8.588872875E0,-2.289872058E-2,-5.276130140E-2,4.506440088E-2
8.610851000E0,-2.511528730E-1,-6.514790654E-1,-3.635520861E-2
8.630852562E0,-1.796362638E0,1.352281123E-1,-5.355368257E-1
8.652851000E0,-3.084275961E0,2.242748141E-1,-8.922646642E-1
8.672851000E0,-3.393094540E0,-2.353576422E-1,-1.074023247E0
8.692852562E0,-3.157318115E0,-5.921552777E-1,-1.251453400E0
8.714852562E0,-2.876965761E0,-5.440191031E-1,-1.327288032E0
8.736851000E0,-2.519941330E0,-3.132865950E-2,-8.480904102E-1
8.756854125E0,-2.170561314E0,8.177565932E-1,-5.766044259E-1
8.776858812E0,-2.285334110E0,9.805085063E-1,-6.649879217E-1
8.798852562E0,-3.323281527E0,-1.439198554E-1,-2.701769769E-1
8.818852562E0,-3.212348223E0,-3.223623037E-1,-4.789183289E-2
8.838852562E0,-2.511703253E0,-5.105087906E-2,1.101651788E-1
8.858861937E0,-1.917156935E0,5.122715831E-1,1.372003257E-1
8.880852562E0,-1.495677352E0,1.095700264E0,8.374089748E-2
8.902852562E0,-1.110326052E0,1.182355881E0,1.410226058E-2
8.924851000E0,-7.835655808E-1,4.593183100E-1,-2.579596639E-2
8.944851000E0,-5.759062767E-1,-6.105335951E-1,1.588249579E-2
8.964851000E0,-4.181808829E-1,-1.068996668E0,6.352998316E-2
8.984851000E0,-1.577254087E-1,-1.168131351E0,6.813765317E-2
9.004851000E0,2.942450643E-1,-1.637659907E0,7.881906629E-2
9.024851000E0,9.714328051E-1,-2.508823633E0,1.585806161E-1
9.044851000E0,1.891989231E0,-3.737849474E0,1.462585926E-1
9.064851000E0,2.122774124E0,-3.425226212E0,-5.935166478E-1
9.084852562E0,-3.692243993E-1,-1.093972400E-1,-1.011819720E0
9.106854125E0,-1.534790158E0,-1.602910399E0,-3.330437243E-1
9.128852562E0,-3.347541392E-1,-1.548159361E0,-3.531150222E-1
9.148852562E0,9.410814941E-2,-1.143365204E-1,-7.675259709E-1
9.168852562E0,-1.784948260E-1,-3.634124696E-1,-8.014028072E-1
9.188871312E0,-3.535513580E-1,8.149815202E-1,-6.511823535E-1
9.210851000E0,9.706997871E-1,2.072718143E0,-1.668883860E-1
9.230852562E0,-7.496538162E-1,2.485837460E0,3.312809467E-1
9.252851000E0,-7.391469181E-2,1.828040361E0,3.370754421E-1
9.272852562E0,1.295959353E0,-2.669306695E-1,2.920633852E-1
9.294852562E0,2.740201712E0,-7.937932014E-1,4.899139106E-1
9.316852562E0,2.976118088E0,1.441118419E-1,4.180761576E-1
9.336860375E0,2.743483067E0,7.594102025E-1,4.617268443E-1
9.358852562E0,2.503552675E0,9.931796193E-1,5.614374876E-1
9.380851000E0,2.084743500E0,1.119750857E0,4.915545285E-1
9.400851000E0,1.992677331E0,7.313452959E-1,3.894004226E-1
9.420851000E0,2.639618397E0,-6.562612653E-1,4.648858905E-1
9.440851000E0,2.233742237E0,-7.270169258E-1,2.460565120E-1
9.460852562E0,1.578405976E0,-3.622954488E-1,1.608320922E-1
9.482851000E0,1.390922666E0,2.096140385E-1,2.281494439E-1
9.502851000E0,1.407101870E0,5.787162781E-1,2.819404900E-1
9.522851000E0,1.418673396E0,6.758787632E-1,3.067765236E-1
9.542851000E0,1.846523404E0,3.774972558E-1,2.789734304E-1
9.562851000E0,2.326611042E0,8.080874570E-3,2.876127958E-1
9.582851000E0,2.109946012E0,7.454301417E-2,3.827681541E-1
9.602851000E0,1.845720530E0,4.332256317E-1,4.435056150E-1
9.622852562E0,1.014577389E0,1.570639253E0,3.501653969E-1
9.642852562E0,1.422268748E-1,2.101027250E0,1.189965457E-1
9.664851000E0,2.761110850E-2,1.246723533E0,-6.565928459E-2
9.684851000E0,1.625250578E-1,9.716247767E-2,-1.195375994E-1
9.704851000E0,-4.771555662E-1,2.051459998E-1,-2.616074085E-1
9.724852562E0,-2.189864635E0,6.983935237E-1,-7.286051512E-1
9.746860375E0,-3.102881193E0,3.941127956E-1,-1.111582756E0
9.768851000E0,-3.277449131E0,1.162389293E-2,-1.412320375E0
9.788871312E0,-2.987323046E0,-2.708227336E-1,-1.609525204E0
9.810852562E0,-2.640735626E0,3.256260753E-1,-1.389264584E0
9.830852562E0,-2.407001019E0,1.019394398E0,-1.094792724E0
9.852851000E0,-2.206864119E0,1.508365870E0,-1.107673168E0
9.872852562E0,-2.301321268E0,9.516058564E-1,-1.156402826E0
9.894851000E0,-2.934840918E0,-1.242622018E0,-3.698876202E-1
9.914851000E0,-2.846666813E0,-1.247997642E0,3.832742944E-2
9.934852562E0,-2.525962591E0,-4.101523664E-3,2.833891213E-1
9.956852562E0,-1.870923162E0,1.000841618E0,2.694613934E-1
9.976852562E0,-1.254577518E0,1.022099733E0,7.267551124E-2
9.998852562E0,-8.638507128E-1,3.710221052E-1,-3.084695041E-1
1.002085256E1,-8.366934061E-1,-3.548952341E-1,-4.715705216E-1
1.004285256E1,-7.857123017E-1,-1.181046844E0,-2.368935347E-1
1.006485100E1,-6.166422963E-1,-1.783935905E0,6.241297349E-2
1.008485100E1,-3.512300551E-1,-1.838128448E0,1.464505792E-1
1.010485100E1,1.769763827E-1,-2.086453915E0,1.346870512E-1
1.012485100E1,1.369821668E0,-3.418349504E0,1.860695481E-1
1.014485100E1,2.522594213E0,-4.108191013E0,-6.630505621E-2
1.016485100E1,2.176320791E0,-1.629596472E0,-9.462127686E-1
1.018485100E1,-1.170801759E0,1.539083719E0,-9.849591255E-1
1.020486194E1,-1.448082209E0,-1.709707022E0,-3.372499645E-1
1.022685100E1,-4.388106763E-1,-8.912872672E-1,-2.364746630E-1
1.024685100E1,-3.116110861E-1,-1.588075012E-1,-6.817081571E-1
1.026685881E1,-6.644992232E-1,5.650154352E-1,-7.843335271E-1
1.028887131E1,9.037140012E-1,1.664712429E0,-2.007303238E-1
1.031085100E1,9.209927917E-1,1.565176368E0,1.921432912E-1
1.033085100E1,3.370230645E-2,1.574025154E0,2.480287403E-1
1.035085100E1,2.430720031E-1,1.136139512E0,3.000919223E-1
1.037085256E1,8.005999923E-1,9.307142496E-1,2.976309955E-1
1.039285100E1,1.744194746E0,3.340734839E-1,5.999918580E-1
1.041285100E1,2.466220140E0,-5.172632337E-1,7.273310423E-1
1.043285100E1,2.905467033E0,-1.070689678E0,6.092944145E-1
1.045285100E1,3.021391869E0,-1.374045372E0,5.780879259E-1
1.047285100E1,2.159705400E0,-4.228583574E-1,4.113042951E-1
1.049285100E1,2.309611559E0,1.594183743E-1,2.054776102E-1
1.051285100E1,2.497688293E0,3.356617093E-1,1.171290427E-1
1.053285100E1,2.012731075E0,6.797533631E-1,-9.567894787E-2
1.055285100E1,1.544459343E0,1.126400590E0,-1.834340952E-2
1.057285100E1,1.520757675E0,1.392598152E0,1.234820411E-1
1.059285100E1,1.499045849E0,1.420314074E0,2.520779073E-1
1.061285100E1,1.435201645E0,1.098667264E0,3.441963792E-1
1.063285100E1,1.694383144E0,4.478689432E-1,4.016002715E-1
1.065285100E1,1.971087575E0,-6.736970972E-3,5.191133022E-1
1.067285100E1,1.874780297E0,9.948377265E-4,5.620658398E-1
1.069285256E1,1.648952127E0,4.082325101E-1,4.356690943E-1
1.071485256E1,6.442010403E-1,1.674730659E0,3.275983036E-1
1.073485256E1,-1.007753089E-1,1.983793616E0,1.626995951E-1
1.075685256E1,1.217890754E-1,9.109047651E-1,-5.508258939E-2
1.077885256E1,3.855083287E-1,-1.739569604E-1,-1.369559914E-1
1.079885256E1,-3.196395934E-1,3.203900754E-1,-3.124313951E-1
1.082085256E1,-2.284095049E0,1.381654978E0,-7.540171146E-1
1.084285256E1,-3.043505192E0,9.102764726E-1,-1.028749466E0
1.086485100E1,-3.243345261E0,2.148849368E-1,-1.207087159E0
1.088485100E1,-2.948402166E0,-7.131415606E-2,-1.475448966E0
1.090485100E1,-2.563574553E0,3.767118752E-1,-1.492780089E0
1.092485100E1,-2.277864218E0,1.097236156E0,-1.201397419E0
1.094485100E1,-2.455137253E0,1.060636640E0,-7.863057256E-1
1.096485100E1,-3.062040567E0,-3.823492825E-1,-5.075417161E-1
1.098485100E1,-2.921646357E0,-8.409519792E-1,-1.664869636E-1
1.100485256E1,-2.449866295E0,-1.359785944E-1,2.035228461E-1
1.102685725E1,-1.950754523E0,1.151463509E0,1.865931451E-1
1.104885100E1,-1.500826120E0,2.149076223E0,3.141592606E-4
1.106885256E1,-8.837299943E-1,1.839018464E0,-1.935570091E-1
1.108887131E1,-5.809328556E-1,5.281191468E-1,-4.868421257E-1
1.111085100E1,-7.303853631E-1,-6.908187866E-1,-5.410869718E-1
1.113085100E1,-8.961043954E-1,-1.323657751E0,-3.106860518E-1
1.115085100E1,-8.036019206E-1,-1.740913510E0,-1.027824357E-1
1.117085256E1,-5.198463202E-1,-1.984317183E0,-3.338814899E-2
1.119285256E1,-4.115486518E-2,-2.157418966E0,-4.834562074E-3
1.121485256E1,9.671218395E-1,-2.981196880E0,1.189790964E-1
1.123485256E1,2.288737535E0,-3.843232393E0,2.820452116E-2
1.125685256E1,3.022194624E0,-2.560816765E0,-8.612152338E-1
1.127685256E1,6.693162918E-1,8.891230822E-1,-1.197697282E0
1.129685256E1,-1.723861694E0,-2.010968328E-1,-6.519851685E-1
1.131685881E1,-1.024386048E0,-1.511629701E0,-2.420946211E-1
1.133885256E1,-3.387684003E-2,-3.125884533E-1,-6.886370778E-1
1.135885256E1,-1.648114473E-1,3.033382259E-2,-7.101570368E-1
1.138085256E1,-2.427927554E-1,1.635460734E0,-4.709247351E-1
1.140285256E1,1.204870582E0,1.140764594E0,8.063420653E-3
1.142285256E1,9.270665646E-1,9.083740711E-1,1.470265388E-1
1.144485256E1,3.626270592E-1,4.801226258E-1,3.253817260E-1
1.146686975E1,8.003730774E-1,6.537654400E-1,5.648583770E-1
1.148887288E1,1.329417229E0,7.496363521E-1,6.470982432E-1
1.151085100E1,1.741018295E0,5.363397002E-1,6.336941719E-1
1.153085256E1,2.068023205E0,1.332384348E-1,7.723081708E-1
1.155085256E1,2.636284828E0,-8.547575474E-1,8.465545177E-1
1.157285100E1,2.710496426E0,-1.516743422E0,3.678455949E-1
1.159285256E1,2.002660513E0,-6.134832278E-2,1.357167959E-1
1.161485100E1,1.991211176E0,3.389778435E-1,4.588470608E-2
1.163485100E1,1.775855064E0,4.550073445E-1,-3.893829510E-2
1.165485256E1,1.594881892E0,5.186420679E-1,3.679154068E-2
1.167685256E1,1.521613002E0,5.320461392E-1,1.219810620E-1
1.169885256E1,1.463441133E0,4.073249400E-1,1.565211266E-1
1.171885256E1,1.357133150E0,2.505071163E-1,2.085842937E-1
1.173885256E1,1.360833168E0,2.415535599E-2,3.151366413E-1
1.176085100E1,1.373923182E0,-5.431464687E-2,3.849323690E-1
1.178085569E1,1.419703126E0,6.881833076E-2,3.443185389E-1
1.180285100E1,1.525627255E0,3.846880198E-1,3.034778535E-1
1.182285100E1,1.169091344E0,1.111827135E0,3.582986295E-1
1.184285256E1,4.824962616E-1,1.842474222E0,2.823768258E-1
1.186485256E1,4.979424179E-2,1.362892747E0,-6.752678752E-2
1.188685256E1,9.007643908E-2,1.705361158E-1,-2.324429452E-1
1.190685412E1,-1.981821358E-1,-2.643999159E-1,-3.059562147E-1
1.192885256E1,-1.541230440E0,3.259925842E-1,-8.547575474E-1
1.194885256E1,-2.662918568E0,4.535761774E-1,-1.190681100E0
1.196885256E1,-3.189344883E0,2.391973734E-1,-1.174397111E0
1.198887131E1,-3.307154655E0,1.864011586E-2,-1.110779881E0
1.201085100E1,-2.979975224E0,3.632902801E-1,-1.229270339E0
1.203085256E1,-2.525159836E0,1.252832294E0,-1.214277864E0
1.205285256E1,-2.092981339E0,1.808597445E0,-1.104077816E0
1.207485256E1,-2.742383480E0,1.560673416E-1,-2.404889166E-1
1.209685100E1,-3.075374842E0,-4.617966712E-1,3.484375179E-1
1.211685256E1,-2.881049871E0,3.766769469E-1,4.809080064E-1
1.213685256E1,-2.518544912E0,1.257754087E0,5.652423501E-1
1.215685256E1,-2.114955187E0,1.778316021E0,6.111095548E-1
1.217685256E1,-1.701189876E0,2.033535480E0,6.897541285E-1
1.219686662E1,-1.098894238E0,1.576817751E0,6.328563690E-1
1.221885256E1,-5.784893632E-1,2.729694843E-1,2.500707805E-1
1.223885256E1,-4.177969098E-1,-4.015828073E-1,-3.633775562E-2
1.226085100E1,-2.692344785E-1,-7.974584103E-1,-9.529497474E-2
1.228085100E1,-2.745402977E-2,-9.553408623E-1,-6.518805027E-2
1.230085256E1,3.144385219E-1,-1.312731981E0,3.920009360E-2
1.232085256E1,8.885820508E-1,-2.073119640E0,7.415904105E-2
1.234285256E1,1.545227289E0,-2.784341097E0,-1.728923172E-1
1.236485256E1,1.315140486E0,-2.109980822E0,-8.603949547E-1
1.238685256E1,-4.532271028E-1,-3.469016552E-1,-8.476365805E-1
1.240885100E1,-1.096206427E0,-2.331288576E0,-2.019520402E-1
1.242885881E1,-6.774321198E-1,-1.800848126E0,-3.891037107E-1
1.245085256E1,-6.686879992E-1,5.837427974E-1,-6.935589314E-1
1.247285256E1,-1.417102575E0,1.736759663E0,-4.199262336E-2
1.249285256E1,-2.669830024E-1,1.648847461E0,4.773126543E-1
1.251485256E1,2.512226999E-1,1.720859766E0,2.968805134E-1
1.253686819E1,9.169436097E-1,1.557130337E0,2.589195967E-1
1.255885256E1,2.176443100E0,6.698573828E-1,7.014303803E-1
1.257885256E1,2.831482649E0,1.487282276E0,9.892351627E-1
1.260085256E1,3.312983990E0,2.530186415E0,5.211204290E-1
1.262285256E1,2.988893747E0,3.240011692E0,6.115459204E-1
1.264485256E1,2.408152819E0,3.215385199E0,8.447917104E-1
1.266485256E1,2.212937832E0,2.382828236E0,7.840368152E-1
1.268686662E1,2.711019993E0,7.991862297E-2,6.637836099E-1
1.270885256E1,1.935378194E0,-4.902978837E-1,5.280144811E-1
1.272885256E1,1.366435766E0,-1.000841618E0,5.045921206E-1
1.275085256E1,1.225797057E0,-1.394867182E0,2.419724464E-1
1.277285256E1,1.325891733E0,-8.429242373E-1,1.163261905E-1
1.279285569E1,1.112542629E0,-9.531243145E-2,9.269443899E-2
1.281485100E1,9.253735542E-1,5.106484294E-1,1.546361670E-2
1.283485100E1,1.119436741E0,8.661021590E-1,-2.235766686E-2
1.285485100E1,1.762625456E0,8.157494068E-1,-2.893755957E-2
1.287485256E1,2.232572794E0,4.866850674E-1,-3.351031989E-2
1.289685412E1,2.220477581E0,2.744181156E-1,-1.185078546E-2
1.291885256E1,1.996325016E0,5.056742430E-1,4.646066576E-2
1.293885256E1,2.668783069E-1,2.364048481E0,2.491806597E-1
1.296085256E1,-4.197691381E-1,2.311165094E0,1.215796322E-1
1.298285256E1,-2.731265724E-1,7.195119858E-1,-3.347541392E-2
1.300485256E1,2.897246554E-2,-4.776791632E-1,8.203047328E-3
1.302685569E1,-1.096223831E0,7.519925833E-1,-4.099254906E-1
1.304885256E1,-3.041445732E0,1.792365909E0,-1.092942595E0
1.306885256E1,-3.507151842E0,1.191204667E0,-1.282049060E0
1.308887131E1,-3.281341076E0,2.824117243E-1,-1.409039259E0
1.311085100E1,-2.825688124E0,-4.845033959E-2,-1.353450418E0
1.313085100E1,-2.433041334E0,4.040960670E-1,-1.057477593E0
1.315085100E1,-2.354431629E0,1.005309701E0,-7.926936150E-1
1.317085256E1,-3.036174774E0,5.143659711E-1,-3.620162010E-1
1.319085256E1,-3.280817509E0,-3.534466326E-1,-1.263618376E-2
1.321285100E1,-2.716063976E0,-1.341983676E-1,3.189065456E-1
1.323285256E1,-2.072403908E0,7.394261956E-1,4.948531985E-1
1.325485100E1,-1.717944980E0,2.360627651E0,3.704810441E-1
1.327485100E1,-1.293864965E0,2.750830889E0,2.323207706E-1
1.329485256E1,-9.257924557E-1,1.612980962E0,-4.555309191E-3
1.331685256E1,-8.679347634E-1,3.804817796E-2,-1.484926194E-1
1.333685256E1,-9.486911893E-1,-1.127081275E0,-1.536936909E-1
1.335685881E1,-9.481326342E-1,-1.546640992E0,-1.399754081E-2
1.337885100E1,-6.288595796E-1,-1.666353106E0,9.122835845E-2
1.339885256E1,9.759881347E-2,-1.896265268E0,9.393361956E-2
1.341885256E1,1.143155694E0,-2.389809608E0,1.021890268E-1
1.343885256E1,2.228157043E0,-2.757393360E0,-5.649630725E-2
1.346085256E1,2.650317430E0,-1.192513704E0,-8.660498261E-1
1.348285256E1,5.205270052E-1,1.614778638E0,-1.236845016E0
1.350485256E1,-9.025970101E-1,-1.679896832E0,-5.300739408E-1
1.352685100E1,-4.841892421E-1,-3.487167954E-1,-2.028421611E-1
1.354685256E1,-5.655041337E-1,6.853908300E-2,-6.268001199E-1
1.356685725E1,-3.228684664E-1,5.943020582E-1,-2.965838015E-1
1.358685881E1,9.752725363E-1,2.221926212E0,1.905725002E-1
1.360885256E1,6.828426123E-1,2.286660671E0,-3.553490341E-2
1.363085100E1,-4.320038855E-1,2.093295574E0,6.045820713E-1
1.365085100E1,8.594175577E-1,2.239397049E0,8.932943940E-1
1.367085100E1,1.586242437E0,1.758890510E0,6.768037677E-1
1.369085100E1,2.249956369E0,1.233005285E0,4.051432908E-1
1.371085100E1,2.828428268E0,7.479434013E-1,6.071825624E-1
1.373085100E1,3.042999029E0,4.958829582E-1,9.808226824E-1
1.375085256E1,2.819649220E0,3.565358520E-1,9.197361469E-1
1.377285100E1,2.462118626E0,3.373721614E-2,6.648308039E-1
1.379285100E1,2.335093498E0,-3.080331683E-1,4.671373665E-1
1.381285100E1,2.489398003E0,5.464974642E-1,4.437150657E-1
1.383285100E1,2.189183950E0,1.922305584E0,3.233920634E-1
1.385285100E1,1.608233690E0,1.883384824E0,-1.982519478E-1
1.387285100E1,1.048070192E0,1.711539626E0,-1.887748092E-1
1.389285100E1,8.774991632E-1,1.363119602E0,9.819222242E-2
1.391285256E1,1.102629185E0,7.625867128E-1,2.509085238E-1
1.393485256E1,1.584043384E0,-8.190830052E-2,3.361504078E-1
1.395685256E1,1.787234545E0,-3.492752910E-1,4.837005436E-1
1.397685881E1,1.780968904E0,-1.636246145E-1,4.239055812E-1
1.399885256E1,1.573798299E0,4.624075294E-1,1.863138974E-1
1.402085256E1,4.509930909E-1,1.797025919E0,8.724901080E-2
1.404285100E1,-1.893682182E-1,1.954506993E0,1.007229537E-1
1.406285256E1,2.914699912E-2,8.205839992E-1,-5.878268927E-2
1.408485256E1,2.400874943E-1,-3.029367924E-1,-2.760063708E-1
1.410686506E1,-2.271545976E-1,2.053379864E-1,-5.372472405E-1
1.412885256E1,-1.790219069E0,1.612282753E0,-9.273458123E-1
1.414885256E1,-2.829004288E0,1.674748182E0,-1.176613688E0
1.417085256E1,-3.491950035E0,1.361286998E0,-1.159893513E0
1.419285256E1,-3.388643980E0,7.372968793E-1,-1.298786759E0
1.421485100E1,-2.941874504E0,6.706078649E-1,-1.335752845E0
1.423485256E1,-2.486448288E0,1.316466928E0,-9.631250501E-1
1.425685256E1,-2.360208750E0,1.646473765E0,-5.298994184E-1
1.427685256E1,-3.340926647E0,-9.354964830E-3,-1.008800268E-1
1.429685256E1,-3.346057892E0,-7.706152201E-1,1.534144431E-1
1.431685256E1,-2.631467819E0,1.095892265E-1,4.647811651E-1
1.433685256E1,-2.082875967E0,1.673229694E0,5.086063743E-1
1.435885256E1,-1.660244465E0,2.943043947E0,3.903079927E-1
1.438085256E1,-1.077828050E0,2.393544436E0,1.293114424E-1
1.440285256E1,-7.740011811E-1,6.898239255E-1,-2.025629133E-1
1.442485256E1,-8.697324991E-1,-5.057265759E-1,-2.752035260E-1
1.444485256E1,-1.014978766E0,-1.319905281E0,-8.494517207E-2
1.446686038E1,-8.972912431E-1,-1.722465396E0,8.827875555E-2
1.448887444E1,-2.824117243E-1,-2.059872389E0,2.120749503E-1
1.451085100E1,7.346614599E-1,-2.442204237E0,3.530626595E-1
1.453085256E1,1.826155424E0,-2.763519526E0,2.611361742E-1
1.455285256E1,2.476430178E0,-1.412215710E0,-5.114163756E-1
1.457485256E1,1.256532311E0,1.329207897E0,-1.115055919E0
1.459485256E1,-5.168443322E-1,-1.249987364E0,-6.512696147E-1
1.461685256E1,-5.555557609E-1,-1.295069218E0,-2.431941777E-1
1.463685569E1,-9.903521538E-1,-8.148942143E-2,-4.802971482E-1
1.465685569E1,-9.601754546E-1,1.109418511E0,-3.237236738E-1
1.467885256E1,6.459463835E-1,3.004130602E0,1.566781998E-1
1.470085100E1,-1.209129214E0,1.443561792E0,7.309613228E-1
1.472085100E1,-6.724579334E-1,1.349837661E0,7.243465185E-1
1.474085256E1,1.246601462E0,1.640993476E0,9.792343974E-1
1.476085256E1,2.438050508E0,1.849001765E0,8.555778265E-1
1.478085256E1,3.172921419E0,1.906178832E0,4.046022296E-1
1.480285100E1,3.516349792E0,1.869526863E0,9.569116831E-1
1.482285100E1,3.145920992E0,1.663455844E0,1.416613936E0
1.484285256E1,2.717547417E0,1.263496161E0,1.114933729E0
1.486485256E1,2.569316626E0,5.042256117E-1,7.161085606E-1
1.488685256E1,2.540047407E0,-4.323704243E-1,6.521597505E-1
1.490687444E1,2.953969717E0,1.159596741E-1,1.038593054E0
1.492885256E1,2.671243906E0,1.665899277E0,8.859989643E-1
1.494885256E1,1.944890141E0,1.140153766E0,1.502204835E-1
1.497085100E1,1.121862769E0,6.495940685E-1,-1.731366664E-2
1.499085256E1,7.606319189E-1,5.537406206E-1,1.742885858E-1
1.501085256E1,5.942147970E-1,4.537332356E-1,2.440668344E-1
1.503086038E1,8.486837745E-1,2.757271230E-1,1.862964481E-1
1.505285100E1,1.461346745E0,1.767843962E-1,2.439621240E-1
1.507285100E1,1.444172740E0,1.050827861E0,4.218111634E-1
1.509285100E1,6.231349111E-1,1.440926313E0,5.566552877E-1
1.511285100E1,5.032308102E-1,8.272686005E-1,5.068086982E-1
1.513285256E1,1.099347949E0,2.401573025E-2,2.357590795E-1
1.515485256E1,7.017096281E-1,7.661995478E-3,2.534218132E-2
1.517685256E1,2.024756521E-1,7.448018193E-1,-1.356818974E-1
1.519685256E1,-4.069060683E-1,1.180034518E0,-1.845336556E-1
1.521685256E1,-1.009864926E0,6.864903569E-1,-4.038517475E-1
1.523685256E1,-1.296657443E0,-3.730815649E-1,-7.852585316E-1
1.525685256E1,-2.371727943E0,4.930555075E-2,-1.109418511E0
1.527685725E1,-3.935350895E0,1.739482403E0,-1.092192173E0
1.529885100E1,-3.573107958E0,1.391324162E0,-1.513985872E0
1.531885256E1,-3.063279629E0,1.031768799E0,-1.381009221E0
1.533885256E1,-2.730654955E0,1.132247448E0,-1.076693654E0
1.535885256E1,-2.433477640E0,1.238345981E0,-8.239873648E-1
1.538085256E1,-2.182080507E0,1.159666538E0,-6.931226254E-1
1.540285256E1,-3.039089441E0,-6.192427874E-1,-6.231697798E-1
1.542485100E1,-3.021513939E0,-1.511472583E0,-5.154480934E-1
1.544485256E1,-2.520080805E0,-4.797561169E-1,-1.873960048E-1
1.546685413E1,-1.788945079E0,1.273252606E0,-2.324429452E-1
1.548887131E1,-8.807803988E-1,1.190332055E0,-6.466619372E-1
1.551085100E1,-5.429545045E-1,-5.532693863E-2,-9.789726138E-1
1.553085100E1,-7.155675292E-1,-1.205760717E0,-8.592430353E-1
1.555085100E1,-9.187238812E-1,-2.068302393E0,-4.990245402E-1
1.557085100E1,-8.028863668E-1,-2.301199198E0,-1.969778538E-1
1.559085256E1,-2.323731333E-1,-2.480514288E0,-2.862340026E-2
1.561285100E1,1.001242995E0,-3.006102800E0,1.613033265E-1
1.563285256E1,2.239588976E0,-3.467096567E0,3.001442850E-1
1.565485256E1,2.561794281E0,-3.218980551E0,1.892984062E-1
1.567685256E1,-3.316823840E-1,-2.232974172E-1,-6.940127015E-1
1.569685881E1,-1.245449543E0,-1.050321698E0,-7.704930305E-1
1.571885256E1,-1.940806210E-2,-9.089151025E-1,-3.100577295E-1
1.573885256E1,-2.949780822E-1,1.000422761E-1,-7.198086977E-1
1.576085100E1,-9.979443550E-1,2.278858900E0,-7.922922373E-1
1.578085100E1,3.131469786E-1,2.326000214E0,-2.286206782E-1
1.580085100E1,2.335250527E-1,1.054248691E0,9.105382860E-2
1.582085881E1,-4.062079191E-1,-8.239699155E-2,1.233424172E-1
1.584285256E1,8.515461534E-2,-1.514771283E-1,3.208962381E-1
1.586485100E1,1.400993228E0,1.037947312E-1,4.762828946E-1
1.588485100E1,2.429812431E0,-1.132718697E-1,5.956459641E-1
1.590485100E1,2.982104540E0,-6.281439662E-1,7.327764630E-1
1.592485100E1,3.080366611E0,-9.455321431E-1,8.351923823E-1
1.594485725E1,1.671292424E0,7.572983503E-1,5.583831668E-1
1.596685256E1,2.631764412E0,-8.670097589E-1,4.632278383E-1
1.598686663E1,2.671819925E0,-1.185986161E0,4.127703607E-1
1.600885256E1,2.024389982E0,-9.869313240E-1,2.328269184E-1
1.602885413E1,1.725938678E0,-7.199482918E-1,2.250078470E-1
1.605085256E1,1.618461251E0,-6.398376822E-2,2.882062197E-1
1.607085569E1,1.286237836E0,6.091198921E-1,2.888170779E-1
1.609285100E1,1.077444077E0,7.940201163E-1,3.039316237E-1
1.611285100E1,1.213597178E0,5.692566037E-1,3.326772153E-1
1.613285256E1,1.781073570E0,4.127703607E-2,3.410198689E-1
1.615485256E1,2.042070150E0,-3.650530577E-1,3.763802648E-1
1.617685725E1,1.779118776E0,-1.948485523E-1,3.860144615E-1
1.619885100E1,1.368442893E0,6.830520630E-1,2.802300751E-1
1.621885256E1,4.225616753E-1,1.820238829E0,2.099107504E-1
1.624085256E1,-1.419999897E-1,1.562488556E0,1.176351905E-1
1.626085725E1,7.637561113E-2,3.280346394E-1,3.115412779E-2
1.628285100E1,-1.714262366E-1,-5.885424614E-1,-9.866346419E-2
1.630285412E1,-1.321353912E0,-2.799857259E-1,-5.189038515E-1
1.632485256E1,-2.430335999E0,-1.243547052E-1,-9.291958213E-1
1.634485256E1,-3.458142996E0,-4.642575979E-3,-9.636835456E-1
1.636485256E1,-3.624455452E0,-2.591639459E-1,-1.097323418E0
1.638685100E1,-3.039892197E0,-4.161562920E-1,-1.334269285E0
1.640685413E1,-2.581743479E0,4.352851212E-2,-1.099103689E0
1.642686506E1,-2.257879972E0,1.074424624E0,-7.253588438E-1
1.644885256E1,-2.228820324E0,1.823135972E0,-6.603103876E-1
1.646885256E1,-3.156759501E0,7.123910189E-1,-4.793197811E-1
1.648887444E1,-3.044046164E0,-5.821720362E-1,-4.106236100E-1
1.651085256E1,-2.346350908E0,-5.449790359E-1,-1.202008277E-1
1.653085256E1,-1.964507699E0,4.768937528E-1,2.373647690E-2
1.655285256E1,-1.580046535E0,1.419511199E0,-5.689773336E-2
1.657485256E1,-1.095508218E0,1.366418242E0,-1.463284045E-1
1.659485256E1,-6.516535878E-1,4.628962278E-1,-3.443709016E-1
1.661685256E1,-4.786739945E-1,-8.266403079E-1,-5.108927488E-1
1.663686975E1,-4.981693327E-1,-1.563431025E0,-3.726452589E-1
1.665885100E1,-4.242895544E-1,-1.613399863E0,-1.369559914E-1
1.667885256E1,-1.144412383E-1,-1.772312045E0,2.061233856E-2
1.669885256E1,6.397504210E-1,-2.808653593E0,1.544092745E-1
1.671885256E1,1.690787673E0,-3.804014921E0,3.171961308E-1
1.674085256E1,2.437491894E0,-3.637842178E0,-3.304431736E-1
1.676285256E1,-2.574011683E-1,2.850297093E-1,-1.103187680E0
1.678485100E1,-1.391585946E0,-1.797200441E0,-6.170786023E-1
1.680485256E1,-2.754129469E-1,-1.723285794E0,-2.644872069E-1
1.682686194E1,2.322335094E-1,-2.192133479E-2,-6.590014100E-1
1.684885256E1,-5.245587230E-1,1.019062877E0,-5.928185582E-1
1.686885256E1,-5.679301545E-2,2.267776012E0,-3.554362953E-1
1.688887288E1,6.271840930E-1,1.385599494E0,2.263517529E-1
1.691085100E1,2.220058814E-2,3.270747066E-1,4.836307466E-1
1.693085100E1,4.864058197E-1,1.243896186E-1,4.341157377E-1
1.695085256E1,1.257474780E0,3.776543438E-1,3.589618802E-1
1.697285100E1,2.069471836E0,3.274935782E-1,2.525142431E-1
1.699285100E1,2.492208004E0,1.178795397E-1,5.660975575E-1
1.701285100E1,2.552404404E0,-1.161516607E-1,7.777187228E-1
1.703285100E1,1.735188842E0,6.955311298E-1,4.034677744E-1
1.705285256E1,2.081828833E0,-2.450093180E-1,3.354173601E-1
1.707485256E1,2.514722824E0,-9.277995825E-1,3.574957848E-1
1.709485256E1,2.143368959E0,-5.425181389E-1,1.635722518E-1
1.711685256E1,1.739272952E0,-3.350334167E-1,-1.003215238E-1
1.713685256E1,1.712953329E0,-1.585108042E-1,-7.243116386E-3
1.715685256E1,1.570639253E0,3.591364026E-1,1.304109991E-1
1.717685256E1,1.226739526E0,9.716771245E-1,1.134638563E-1
1.719685256E1,9.899856448E-1,1.178900123E0,1.594183743E-1
1.721685256E1,1.086624503E0,8.332551122E-1,2.652900517E-1
1.723885256E1,1.394221306E0,-1.356120780E-2,4.032583237E-1
1.726085100E1,1.608547807E0,-7.735124826E-1,4.511676133E-1
1.728085256E1,1.712569475E0,-1.045417309E0,3.492752910E-1
1.730285100E1,1.777827263E0,-6.581985354E-1,2.250951082E-1
1.732285100E1,1.084163666E0,1.097305894E0,2.618168294E-1
1.734285256E1,-1.367116421E-1,2.603926420E0,1.631882787E-1
1.736485256E1,-1.891413331E-1,1.671850920E0,-1.146506816E-1
1.738686662E1,-4.316199198E-2,-1.803623289E-1,-1.554739326E-1
1.740885256E1,-9.227206707E-1,-5.375962853E-1,-2.456201911E-1
1.742885256E1,-2.562981129E0,1.613207757E-1,-5.531646609E-1
1.745085569E1,-3.580543041E0,3.103195429E-1,-7.616791129E-1
1.747285256E1,-3.397824526E0,-2.302787453E-1,-1.011924386E0
1.749285256E1,-2.986363173E0,-6.552140713E-1,-1.173297644E0
1.751485100E1,-2.585007191E0,-5.245935917E-1,-1.101180553E0
1.753485100E1,-2.284007549E0,2.024058253E-1,-7.238578796E-1
1.755485100E1,-2.167192698E0,1.209321141E0,-4.825835228E-1
1.757485100E1,-3.107576132E0,1.356888771E0,-3.780557811E-1
1.759485100E1,-3.358955860E0,4.883605838E-1,-4.266980886E-1
1.761485100E1,-2.428905010E0,-3.425906897E-1,-2.498438805E-1
1.763485100E1,-1.727893353E0,7.869689912E-2,-1.081580520E-1
1.765485256E1,-1.454155922E0,1.187871099E0,-1.283689588E-1
1.767485256E1,-1.077793121E0,1.227071166E0,-3.149970174E-1
1.769685100E1,-6.769259572E-1,3.471459821E-2,-5.814564228E-1
1.771685725E1,-6.530149579E-1,-1.314442396E0,-6.467317343E-1
1.773885256E1,-6.940476298E-1,-2.103505611E0,-4.036946595E-1
1.775885256E1,-5.696580410E-1,-2.103017092E0,-1.936442852E-1
1.777885256E1,-2.855358720E-1,-1.810203075E0,-1.082453206E-1
1.779885256E1,3.561868072E-1,-2.376684666E0,-1.517563760E-1
1.781885256E1,1.356714249E0,-3.290975332E0,9.040805697E-2
1.783885256E1,2.169252157E0,-3.548917532E0,2.978055179E-1
1.785885256E1,1.986655951E0,-1.952080965E0,-5.180835128E-1
1.788085256E1,-5.409822464E-1,8.315621018E-1,-1.054440618E0
1.790285256E1,-9.233140945E-1,-1.369263172E0,-3.022735715E-1
1.792285256E1,-2.120051384E-1,-2.667735815E-1,-1.533097178E-1
1.794485256E1,2.975786328E-1,2.697755396E-1,-7.853807211E-1
1.796685256E1,-6.974335760E-2,2.469466329E-1,-6.407801509E-1
1.798887131E1,6.515139341E-1,1.227647185E0,-2.954318821E-1
1.801085100E1,8.332027197E-1,1.125650048E0,4.787437990E-2
1.803085256E1,-3.955963254E-1,1.161202431E0,1.917069703E-1
1.805285100E1,-4.106759652E-2,4.797211885E-1,1.909564734E-1
1.807285100E1,7.827103734E-1,1.628566682E-1,2.415012121E-1
1.809285100E1,1.661850095E0,-2.552718520E-1,3.052580953E-1
1.811285100E1,2.117223978E0,-3.873583674E-1,4.319864511E-1
1.813285256E1,2.299610853E0,-6.221225858E-1,5.529726744E-1
1.815285256E1,2.284339190E0,-7.583630085E-1,5.286078453E-1
1.817285256E1,1.812175393E0,-3.853337765E-1,2.132268697E-1
1.819285256E1,2.241299391E0,-8.119795322E-1,1.760688126E-1
1.821485100E1,2.247704744E0,-3.544065654E-1,3.951425478E-2
1.823485413E1,1.992328286E0,6.845181435E-2,-2.065597177E-1
1.825685256E1,1.804862380E0,5.418549180E-1,-1.494525373E-1
1.827685256E1,1.755940795E0,1.027929068E0,1.219985168E-2
1.829685256E1,1.535854816E0,1.514579296E0,1.197819486E-1
1.831885100E1,1.178725600E0,1.743217349E0,2.280970812E-1
1.833885256E1,1.172407508E0,1.357255340E0,3.308097124E-1
1.835885256E1,1.419825315E0,4.687779844E-1,4.940503538E-1
1.838085100E1,1.527093291E0,-4.289844632E-1,6.155427098E-1
1.840085100E1,1.681781769E0,-8.162381053E-1,5.583308339E-1
1.842085256E1,1.761106968E0,-4.495968223E-1,4.381125569E-1
1.844285100E1,6.717073917E-1,1.312121034E0,2.311165035E-1
1.846285100E1,-1.280897111E-1,1.904450893E0,-4.139921069E-2
1.848285256E1,-3.607595712E-2,8.621577621E-1,-1.950405389E-1
1.850485256E1,-1.480039209E-2,-7.612078786E-1,-2.633876503E-1
1.852685100E1,-8.859116435E-1,-7.246956229E-1,-2.807711065E-1
1.854686194E1,-2.301565647E0,1.752310544E-1,-6.005154252E-1
1.856885256E1,-3.390214682E0,6.044948101E-1,-7.444876432E-1
1.858887131E1,-3.484026194E0,3.844087720E-1,-8.814436197E-1
1.861085256E1,-3.034621477E0,7.405432314E-2,-1.104077816E0
1.863285256E1,-2.634766579E0,3.824889064E-1,-1.043183327E0
1.865285256E1,-2.296748638E0,1.089958072E0,-7.356213927E-1
1.867485100E1,-2.210599184E0,1.495904207E0,-4.842765033E-1
1.869485100E1,-3.138171911E0,3.344923556E-1,-3.487342298E-1
1.871485100E1,-3.168924570E0,-4.972791970E-1,-1.841496825E-1
1.873485100E1,-2.504303217E0,-5.187467337E-1,1.270948797E-1
1.875485100E1,-2.043065071E0,1.024333760E-1,2.168222517E-1
1.877485100E1,-1.842386961E0,1.371374965E0,1.865756959E-1
1.879485256E1,-1.408707619E0,1.834829688E0,1.150171980E-1
1.881685256E1,-7.593404055E-1,9.517803788E-1,-1.282118857E-1
1.883685256E1,-5.529028773E-1,-4.979249835E-1,-4.156850576E-1
1.885685256E1,-6.477615237E-1,-1.386821151E0,-3.608817160E-1
1.887685256E1,-6.123661995E-1,-1.522380829E0,-2.020218670E-1
1.889685256E1,-3.314903975E-1,-1.457890987E0,-9.958848357E-2
1.891686038E1,2.829004228E-1,-1.999676108E0,-2.645919099E-2
1.893885256E1,1.280740023E0,-2.748858690E0,1.657190174E-1
1.896085100E1,2.508683920E0,-3.340176105E0,7.176794112E-2
1.898085100E1,2.449395180E0,-1.895026088E0,-6.675011516E-1
1.900085100E1,-4.318817258E-1,7.885397673E-1,-1.135144711E0
1.902085100E1,-1.417381883E0,-1.395163894E0,-4.687430859E-1
1.904085100E1,-5.585751534E-1,-1.209600449E0,-1.057844087E-1
1.906085100E1,2.161590308E-1,-1.649859697E-1,-5.351179242E-1
1.908085100E1,4.330860078E-1,-4.842590392E-1,-8.319460750E-1
1.910085100E1,-1.440769285E-1,6.578844190E-1,-6.000092626E-1
1.912085100E1,8.539546728E-1,8.809200525E-1,-3.256086111E-1
1.914085100E1,7.114310861E-1,1.141881704E0,-7.367035002E-2
1.916085256E1,-2.615026832E-1,1.226617336E0,4.255287349E-1
1.918085256E1,1.506219152E-2,7.019539475E-1,3.826285303E-1
1.920285100E1,1.267231226E0,-1.895776689E-1,4.488637745E-1
1.922285100E1,2.182359695E0,-6.368008256E-1,5.759586692E-1
1.924285100E1,2.376038790E0,-2.936342061E-1,4.804193377E-1
1.926285256E1,2.176006794E0,-3.914773464E-2,4.919210374E-1
1.928485100E1,1.388269782E0,8.176692724E-1,2.744006515E-1
1.930485100E1,2.325563908E0,-5.708972216E-1,3.728023171E-1
1.932485100E1,2.487513065E0,-9.424079657E-1,3.446501791E-1
1.934485100E1,2.048807144E0,-5.956285000E-1,9.185668081E-2
1.936485256E1,1.722168684E0,-3.192556202E-1,-8.475318551E-2
1.938685881E1,1.728504300E0,1.272170544E-1,1.827359758E-2
1.940685881E1,1.627868533E0,5.179787874E-1,7.805112749E-2
1.942686975E1,1.346434236E0,7.770205736E-1,9.086184204E-2
1.944885256E1,1.218274713E0,9.076409936E-1,1.798736304E-1
1.946885256E1,1.426283002E0,6.733305454E-1,2.605427504E-1
1.948887131E1,1.634186625E0,1.188918278E-1,3.648785353E-1
1.951085725E1,1.619002342E0,-3.311936855E-1,4.316199124E-1
1.953285100E1,1.555786490E0,-4.452683926E-1,3.782128394E-1
1.955285256E1,1.264909863E0,1.879719645E-2,3.219957948E-1
1.957485256E1,4.057192504E-1,1.264107108E0,3.305130005E-1
1.959485412E1,-1.520356238E-1,1.484978437E0,8.822639287E-2
1.961686194E1,-5.394812673E-2,2.397209704E-1,-2.319018990E-1
1.963885256E1,-1.944645792E-1,-8.393288255E-1,-3.673568964E-1
1.965885256E1,-1.163576126E0,-4.297524095E-1,-4.998972118E-1
1.967885256E1,-2.486169100E0,4.328416586E-1,-6.942396164E-1
1.970085100E1,-3.511515141E0,6.943443418E-1,-7.464773059E-1
1.972085100E1,-3.686362267E0,5.960299373E-1,-8.370773792E-1
1.974085256E1,-3.174230337E0,4.030838013E-1,-1.153802276E0
1.976085256E1,-2.714266300E0,7.762002945E-1,-1.158532143E0
1.978285100E1,-2.242817879E0,1.479707599E0,-8.824908137E-1
1.980285100E1,-2.005610228E0,1.804268956E0,-7.045196295E-1
1.982285100E1,-2.919883490E0,2.816612422E-1,-4.604876637E-1
1.984285256E1,-3.193271875E0,-1.378967166E0,-2.302438319E-1
1.986485256E1,-2.714370966E0,-9.024050236E-1,1.691573113E-1
1.988685100E1,-2.207108498E0,3.758741021E-1,2.567204833E-1
1.990685256E1,-1.847919703E0,1.333501339E0,5.946336687E-2
1.992685256E1,-1.263077378E0,1.441467404E0,-6.129596382E-2
1.994686663E1,-7.627612352E-1,6.506412625E-1,-2.165604532E-1
1.996885256E1,-6.599788070E-1,-6.280741692E-1,-2.192133516E-1
1.998887131E1,-6.863507032E-1,-1.256392717E0,-6.122614816E-2
2.001085100E1,-4.818679392E-1,-1.488818169E0,-3.712315485E-2
2.003085256E1,3.473205119E-2,-1.716444016E0,-5.658357590E-2
2.005085256E1,8.315970302E-1,-2.194210529E0,8.721410483E-2
2.007285100E1,1.871638775E0,-2.911889791E0,2.767044902E-1
2.009285100E1,2.670196772E0,-3.037466288E0,-1.223475765E-2
2.011285256E1,1.455150843E0,-3.284360468E-1,-9.814684391E-1
2.013285256E1,-1.196911931E0,3.657512069E-1,-8.142135739E-1
2.015485256E1,-4.799830019E-1,-1.882023454E0,-1.861044616E-1
2.017685256E1,1.405339092E-1,4.475024343E-2,-4.908564091E-1
2.019685256E1,6.705555320E-2,1.169021502E-1,-7.717148066E-1
2.021685256E1,-5.128300786E-1,1.045696616E0,-4.635943472E-1
2.023885100E1,5.774247050E-1,2.109212875E0,-9.861110151E-2
2.025885256E1,6.020687819E-1,1.803937435E0,2.134886682E-1
2.027885256E1,6.946759224E-1,1.119000435E0,2.482556254E-1
2.030085100E1,1.010685205E0,6.597170234E-1,3.989822567E-1
2.032085256E1,1.580081463E0,3.713187873E-1,4.531049132E-1
2.034285100E1,2.054025650E0,2.504547499E-2,5.253440738E-1
2.036285100E1,2.260951757E0,-1.580919176E-1,7.509453893E-1
2.038285100E1,2.301164150E0,-4.317421019E-1,8.983035088E-1
2.040285100E1,2.234213352E0,-7.090051174E-1,6.874153614E-1
2.042285100E1,2.302612782E0,-3.754028678E-1,9.721484035E-2
2.044285100E1,2.192500114E0,5.593780279E-1,1.042310596E-1
2.046285100E1,1.958590984E0,6.657034755E-1,-6.841690745E-3
2.048285256E1,1.484838843E0,5.684362650E-1,-1.603783071E-1
2.050485256E1,1.344793677E0,4.885700047E-1,-7.035422325E-2
2.052485256E1,1.186649323E0,5.441762209E-1,9.374163300E-2
2.054685256E1,1.000283122E0,5.641602278E-1,1.898394674E-1
2.056885256E1,1.044265389E0,2.812947035E-1,3.085916638E-1
2.058887131E1,1.209966898E0,-1.286307722E-1,4.091749787E-1
2.061085256E1,1.373486876E0,-4.597371817E-1,4.726526141E-1
2.063085256E1,1.554809093E0,-4.601909518E-1,3.875154555E-1
2.065085256E1,1.773394108E0,-2.240130156E-1,3.052580953E-1
2.067085256E1,1.646578550E0,5.776341558E-1,3.495370746E-1
2.069285256E1,5.859070420E-1,2.144119501E0,2.934247553E-1
2.071485100E1,-3.921754658E-2,2.159862280E0,-9.072221071E-2
2.073485256E1,5.483824387E-2,7.606668472E-1,-2.791828513E-1
2.075685256E1,2.103121765E-2,-3.354348242E-1,-2.176250964E-1
2.077685256E1,-1.389718413E0,7.131938934E-1,-2.016727924E-1
2.079685256E1,-3.380231619E0,1.576294065E0,-3.881612122E-1
2.081685256E1,-3.457200527E0,9.739635587E-1,-7.365463972E-1
2.083685256E1,-3.101031303E0,1.407433450E-1,-1.016759038E0
2.085885256E1,-2.711333990E0,-4.098905623E-1,-1.249847770E0
2.087885256E1,-2.449831486E0,-3.742684126E-1,-1.248573661E0
2.089885256E1,-2.257513523E0,1.547234356E-1,-8.538325429E-1
2.091885256E1,-2.695661068E0,5.690296888E-1,-5.148197412E-1
2.093885256E1,-3.015841722E0,2.055648714E-1,-4.500680566E-1
2.096085256E1,-2.471595764E0,-4.745899141E-1,-3.935543001E-1
2.098285256E1,-1.921188593E0,-4.064871743E-2,-1.578999311E-1
2.100485256E1,-1.560551286E0,1.253216267E0,-2.176774591E-1
2.102685100E1,-1.089643955E0,1.823991179E0,-4.458618164E-1
2.104685256E1,-5.910557508E-1,9.186191559E-1,-7.030186057E-1
2.106686506E1,-4.423013330E-1,-5.778610706E-1,-8.126776814E-1
2.108887131E1,-6.458590627E-1,-1.602177382E0,-5.335296988E-1
2.111085256E1,-6.813939810E-1,-1.714925647E0,-1.192059889E-1
2.113285256E1,-4.352501929E-1,-1.425829291E0,7.532840967E-2
2.115485256E1,2.590243220E-1,-2.176006794E0,1.402895600E-1
2.117685256E1,1.185270548E0,-2.937493801E0,4.621980786E-1
2.119685256E1,1.769257665E0,-3.232576609E0,6.500304341E-1
2.121685256E1,1.150416374E0,-2.260672569E0,-7.051130384E-2
2.123685256E1,-6.772575378E-1,-4.846779257E-2,-1.053986907E0
2.125685256E1,-7.436149716E-1,-1.215813756E0,-7.035771012E-1
2.127685256E1,-1.606401056E-1,4.677482322E-2,-6.344271898E-1
2.129685725E1,2.665117756E-2,4.485146999E-1,-1.034090161E0
2.131885100E1,-3.149272203E-1,-7.194247097E-2,-9.166643620E-1
2.133885100E1,6.300987601E-1,3.373721540E-1,-2.442937344E-1
2.135885256E1,-8.161333799E-1,2.290744543E0,1.216494478E-2
2.137885256E1,-1.094775200E0,1.743671179E0,4.052654654E-2
2.139885256E1,-1.696285456E-1,-3.384891450E-1,-6.174974889E-2
2.141889475E1,1.959934950E0,-2.642777443E0,1.877450645E-1
2.144085256E1,2.788844109E0,-6.779556870E-1,5.655390620E-1
2.146085256E1,2.762943506E0,8.814785480E-1,4.736474454E-1
2.148285100E1,2.560799360E0,1.687942863E0,6.845879555E-1
2.150285100E1,2.427997351E0,1.706024408E0,9.953612685E-1
2.152285100E1,2.131256342E0,1.296308398E0,7.508406639E-1
2.154285256E1,2.453095198E0,1.011418328E-1,3.541447520E-1
2.156285256E1,2.296678782E0,2.021091245E-2,3.730292320E-1
2.158485256E1,1.694557667E0,2.565634064E-2,4.327194691E-1
2.160685256E1,1.393401027E0,-6.841690745E-3,2.671226263E-1
2.162885100E1,1.259080529E0,-4.909611121E-2,1.982344985E-1
2.164885881E1,1.170889020E0,-2.506292798E-2,3.254864514E-1
2.167085256E1,1.307059646E0,-6.672393531E-2,3.756297529E-1
2.169285256E1,1.531439185E0,-2.588672340E-1,3.361853063E-1
2.171485100E1,1.896282792E0,-4.108504951E-1,3.693640232E-1
2.173485256E1,2.023813963E0,-2.188119292E-1,4.218111634E-1
2.175485256E1,1.885339499E0,3.653497696E-1,5.004731417E-1
2.177685256E1,9.765117168E-1,1.831216931E0,4.307123423E-1
2.179685256E1,5.743878707E-2,2.262330770E0,4.577998444E-2
2.181685256E1,-7.648032904E-2,8.903273344E-1,-2.007826716E-1
2.183685256E1,-1.690176874E-1,-3.652799726E-1,-2.554289401E-1
2.185885256E1,-1.543708801E0,-4.864232615E-2,-2.437177747E-1
2.188085256E1,-2.825897455E0,4.719195664E-1,-5.682617426E-1
2.190285100E1,-3.479802608E0,5.902878046E-1,-9.144303799E-1
2.192285256E1,-3.410931826E0,1.504473854E-2,-1.383871555E0
2.194485256E1,-2.917439938E0,-5.074893832E-1,-1.573711038E0
2.196685256E1,-2.522524357E0,-1.019272283E-1,-1.302626491E0
2.198686038E1,-2.228453875E0,6.566103101E-1,-8.469384909E-1
2.200885256E1,-3.102462292E0,6.261543036E-1,-2.744704783E-1
2.202885256E1,-3.438804865E0,-6.092420816E-1,-2.632654607E-1
2.205085100E1,-2.662255526E0,-1.168340802E0,-1.758419275E-1
2.207085256E1,-2.097798586E0,-2.179916203E-2,1.558579039E-2
2.209085256E1,-1.648009658E0,2.288336039E0,7.784168236E-3
2.211085256E1,-8.649502397E-1,3.108344078E0,-1.773603559E-1
2.213285256E1,-5.710193515E-1,1.327200770E0,-6.725625992E-1
2.215485256E1,-1.278296590E0,-7.394611239E-1,-6.102369428E-1
2.217485256E1,-1.729446769E0,-1.730057597E0,-1.384744197E-1
2.219685256E1,-1.328282833E0,-2.429061890E0,6.920230389E-2
2.221685256E1,-4.579918385E-1,-2.533118486E0,1.399754081E-2
2.223685256E1,4.769112170E-1,-2.288667679E0,3.839724232E-3
2.225685256E1,1.558596492E0,-2.485767841E0,1.544092745E-1
2.227686662E1,2.572161436E0,-2.805040836E0,2.844886780E-1
2.229885100E1,1.943825483E0,-1.767756701E0,-3.735004691E-3
2.231885100E1,-1.828284740E0,1.670280099E-1,-8.824384809E-1
2.233885256E1,-1.258295178E0,-1.967387438E0,-4.595102966E-1
2.235885412E1,-1.185951233E-1,-1.099033833E0,-4.091051817E-1
2.238085256E1,-3.240029216E-1,4.593881071E-1,-6.825808287E-1
2.240285100E1,-7.087432742E-1,2.410194874E0,-7.111518383E-1
2.242285256E1,7.067536116E-1,1.667801738E0,-2.357416153E-1
2.244485256E1,1.089382172E0,5.298296213E-1,-2.108357660E-2
2.246685256E1,5.649979711E-1,-5.654866807E-3,-6.565928459E-2
2.248685256E1,5.816658735E-1,3.072128594E-1,5.195845291E-2
2.250685725E1,9.039409161E-1,4.846604764E-1,2.599493265E-1
2.252885256E1,1.511298060E0,-6.033603102E-2,3.753505051E-1
2.255085100E1,2.515508175E0,-1.454086185E0,6.910805702E-1
2.257085100E1,2.183878183E0,-1.655863643E0,3.651228845E-1
2.259085256E1,1.792592764E0,-1.397048831E0,2.323382348E-1
2.261085256E1,2.551845789E0,-2.215154409E0,2.609965205E-1
2.263085256E1,2.516782284E0,-1.932428598E0,2.531599998E-1
2.265285100E1,2.175919533E0,-1.153610229E0,1.311789453E-1
2.267285100E1,2.006221056E0,-3.431317210E-1,1.126610041E-1
2.269285256E1,1.994876385E0,5.053949952E-1,1.710771769E-1
2.271485100E1,1.782644391E0,1.389299512E0,1.365545541E-1
2.273485256E1,1.404169679E0,1.655968428E0,1.452986598E-1
2.275685256E1,1.133608818E0,1.396088839E0,1.997005790E-1
2.277885256E1,1.524021506E0,3.871663809E-1,2.571044564E-1
2.279885256E1,2.336367607E0,-9.628981352E-1,2.707005739E-1
2.282085256E1,2.354012728E0,-1.492622972E0,2.397733331E-1
2.284285256E1,2.051390171E0,-9.430363178E-1,2.122669369E-1
2.286285256E1,3.973940015E-1,1.458781123E0,2.528283894E-1
2.288285256E1,-4.418126345E-1,1.916982412E0,1.411971357E-2
2.290485100E1,-3.108256757E-1,5.930628777E-1,-2.093522400E-1
2.292485100E1,-7.634593844E-1,-2.734232843E-1,-2.066295296E-1
2.294485256E1,-2.377696991E0,7.176794112E-2,-3.418227434E-1
2.296685256E1,-3.741392374E0,6.553013325E-1,-6.120694876E-1
2.298686662E1,-3.818326712E0,6.079505086E-1,-9.323723316E-1
2.300885256E1,-2.990359783E0,-1.710422635E-1,-1.226146102E0
2.303085256E1,-2.556505919E0,-3.525215983E-1,-1.044788957E0
2.305285256E1,-2.429323673E0,2.061408311E-1,-8.186990619E-1
2.307485100E1,-2.349614620E0,9.840864539E-1,-5.476145148E-1
2.309485256E1,-2.955296278E0,9.300510287E-1,-3.600090742E-1
2.311685569E1,-3.159429789E0,-3.598868847E-2,-3.677932322E-1
2.313885256E1,-2.421714067E0,-3.360631466E-1,-2.671400905E-1
2.315885256E1,-1.835597634E0,2.013411820E-1,-2.761983573E-1
2.317885256E1,-1.549538255E0,1.009812593E0,-4.612381458E-1
2.320085256E1,-1.141201019E0,1.052747726E0,-5.915793180E-1
2.322085256E1,-8.753873110E-1,1.777268797E-1,-6.687054634E-1
2.324085256E1,-7.933394313E-1,-8.636761904E-1,-5.560444593E-1
2.326285256E1,-7.315547466E-1,-1.279099464E0,-2.014808059E-1
2.328285412E1,-5.396208763E-1,-1.315210342E0,-1.809906401E-2
2.330485256E1,-2.488839440E-2,-1.705657959E0,1.454906464E-1
2.332685256E1,9.006248116E-1,-2.600104332E0,4.309217930E-1
2.334686350E1,1.931887507E0,-3.741636753E0,5.766742229E-1
2.336885256E1,2.209831238E0,-4.373585701E0,1.050688177E-1
2.338887131E1,-9.318138361E-1,-1.540829062E0,-1.153226256E0
2.341085100E1,-1.709008932E0,-1.608076572E0,-6.737145185E-1
2.343085569E1,-1.389107555E-1,-1.113170981E-1,-2.541199327E-2
2.345285100E1,6.113713980E-1,1.450857282E0,-5.893278718E-1
2.347285100E1,-6.834535003E-1,1.175566554E0,-7.001039386E-1
2.349285256E1,-6.876597553E-2,2.383212090E0,1.438325793E-1
2.351485256E1,8.780053258E-1,1.429511905E0,3.619114757E-1
2.353685256E1,3.442836404E-1,1.174676418E0,1.899441779E-1
2.355685256E1,5.172981620E-1,8.521046638E-1,1.461015046E-1
2.357885256E1,9.465967417E-1,5.810549855E-1,-3.275983036E-2
2.359885256E1,1.500703931E0,7.726572454E-2,1.907819360E-1
2.361885256E1,2.003219128E0,-5.297946930E-1,4.066966176E-1
2.363885256E1,2.364345074E0,-1.197051525E0,4.203974605E-1
2.366085100E1,2.511040211E0,-1.750059128E0,3.230429888E-1
2.368085256E1,1.921048999E0,-1.611584663E0,1.412669420E-1
2.370285256E1,2.497496367E0,-1.602159858E0,6.230825558E-2
2.372485256E1,2.301059484E0,-5.734628439E-1,8.302531391E-2
2.374685413E1,1.910995841E0,9.541714936E-2,-1.576381326E-1
2.376885100E1,1.835039139E0,5.045572519E-1,-1.053306237E-1
2.378887444E1,1.760234356E0,1.022413850E0,7.023204863E-2
2.381085256E1,1.266690135E0,1.659476519E0,1.145634130E-1
2.383085256E1,9.472948909E-1,1.558788419E0,1.350710243E-1
2.385085256E1,1.269761920E0,8.294502497E-1,2.870194018E-1
2.387285100E1,1.771352053E0,-2.556732893E-1,4.420919120E-1
2.389285100E1,1.809906483E0,-6.274807453E-1,4.842939675E-1
2.391285256E1,1.713634014E0,-5.443682075E-1,4.730540514E-1
2.393485256E1,1.577341318E0,2.310466915E-1,3.763104379E-1
2.395485256E1,4.939630926E-1,1.932079434E0,2.828131616E-1
2.397685881E1,-1.856506765E-1,2.027618885E0,-2.361430414E-2
2.399885256E1,1.772730947E-1,4.313406646E-1,-8.745844662E-2
2.401885256E1,8.403760195E-2,-6.843959689E-1,9.529497474E-3
2.403885256E1,-1.117132902E0,-5.108578876E-2,-7.312929723E-3
2.405885256E1,-2.714179039E0,8.311432600E-1,-2.708925605E-1
2.407885256E1,-3.678124189E0,8.652469516E-1,-3.974812925E-1
2.409885256E1,-3.594383478E0,1.590518504E-1,-7.198610306E-1
2.411885256E1,-3.058933735E0,-4.922352135E-1,-1.026672482E0
2.413885256E1,-2.621816158E0,-4.936314821E-1,-1.159230232E0
2.415885256E1,-2.259084463E0,-3.977605328E-2,-1.036900163E0
2.418085256E1,-2.185571194E0,8.255407214E-1,-6.625793576E-1
2.420085256E1,-2.934038162E0,9.985901117E-1,-5.856975913E-1
2.422085256E1,-2.803627014E0,4.243418872E-1,-5.289744139E-1
2.424085256E1,-2.124536991E0,1.573937982E-1,-3.840771616E-1
2.426285256E1,-1.651674867E0,8.968548775E-1,-3.774623573E-1
2.428285256E1,-1.340744495E0,1.443910837E0,-5.351877809E-1
2.430485256E1,-8.969945312E-1,8.512319922E-1,-7.356911898E-1
2.432685256E1,-8.944812417E-1,-4.606272876E-1,-9.564578533E-1
2.434686506E1,-1.095979452E0,-1.423246145E0,-8.462403417E-1
2.436885256E1,-1.218937993E0,-2.178537369E0,-4.385663271E-1
2.438887131E1,-1.062102675E0,-2.288807392E0,-1.595405489E-1
2.441085100E1,-5.422388911E-1,-2.234911442E0,-8.299040794E-2
2.443085256E1,3.030415177E-1,-2.383666039E0,4.909611121E-2
2.445085256E1,1.301125526E0,-2.640491247E0,4.454080164E-1
2.447085256E1,2.336716652E0,-3.072564840E0,7.099650502E-1
2.449085256E1,2.523746014E0,-2.639653444E0,1.144063324E-1
2.451085256E1,-2.375393175E-2,3.742334843E-1,-9.558993578E-1
2.453085256E1,-1.471609235E0,-5.502673984E-1,-8.437794447E-1
2.455085256E1,-4.760036469E-1,-1.013041496E0,-3.043155968E-1
2.457085256E1,1.814444214E-1,-1.614080518E-1,-6.658954620E-1
2.459285256E1,9.669124149E-3,2.618168294E-1,-6.126105785E-1
2.461285256E1,1.547408849E-1,1.445621252E0,-1.602386832E-1
2.463285256E1,4.502251446E-1,1.528611660E0,-1.030965969E-1
2.465285256E1,-5.349434018E-1,1.205219626E0,1.182460561E-1
2.467485100E1,-3.941476941E-1,1.385442317E-1,1.563291401E-1
2.469485100E1,1.013250947E0,-1.135895133E0,3.192556202E-1
2.471485256E1,2.020201206E0,-1.125248671E0,3.858748376E-1
2.473485256E1,2.282820940E0,-9.229301214E-1,3.066194355E-1
2.475685256E1,2.178415298E0,-9.018290639E-1,3.654544950E-1
2.477685256E1,2.099159956E0,-1.084983945E0,4.163133800E-1
2.479685256E1,1.949253559E0,-1.429686427E0,3.160442114E-1
2.481685413E1,1.617256999E0,-8.876046538E-1,1.247561350E-1
2.483685413E1,2.261440516E0,-6.249151230E-1,4.022983834E-2
2.485885256E1,2.314201832E0,-1.283689588E-1,-2.124065757E-1
2.487885256E1,2.009449959E0,4.498062432E-1,-3.134785891E-1
2.489885256E1,1.741943359E0,1.235082269E0,-9.026842564E-2
2.492085100E1,1.414746404E0,1.799224973E0,1.194154248E-1
2.494085100E1,1.130711555E0,1.664503098E0,1.698205322E-1
2.496085256E1,1.298908949E0,9.797580242E-1,2.206445187E-1
2.498285256E1,1.786519051E0,-2.655169368E-1,3.445978165E-1
2.500285256E1,1.846034765E0,-8.838172555E-1,3.660478890E-1
2.502485256E1,1.847675323E0,-9.983981252E-1,2.734407187E-1
2.504485256E1,1.520600677E0,-2.219360620E-1,2.900737226E-1
2.506686975E1,3.580019474E-1,1.453318238E0,4.554960132E-1
2.508887288E1,-2.777691483E-1,1.772346973E0,3.951599896E-1
2.511085256E1,-7.597418129E-2,6.181257963E-1,1.478293836E-1
2.513285256E1,3.252072036E-1,-7.738265991E-1,1.432915311E-2
2.515485256E1,-4.527733028E-1,-2.664594054E-1,-3.184004128E-1
2.517485256E1,-2.261876822E0,7.961319089E-1,-7.384837270E-1
2.519685256E1,-3.104085445E0,3.717027605E-1,-9.275203347E-1
2.521685569E1,-3.517379522E0,1.086292937E-1,-8.487536311E-1
2.523885256E1,-3.237777710E0,3.844785690E-1,-1.169929147E0
2.525885256E1,-2.669184446E0,7.616093159E-1,-1.381445527E0
2.527885256E1,-2.239728689E0,1.397258282E0,-1.129646897E0
2.529885256E1,-2.052454948E0,1.662932277E0,-7.177666426E-1
2.532085256E1,-2.654645681E0,2.265088260E-1,-5.054822564E-1
2.534285256E1,-2.710304260E0,-5.673542023E-1,-3.600963354E-1
2.536485256E1,-2.274844646E0,-1.485275179E-1,-8.265879005E-2
2.538686506E1,-1.874134541E0,5.878967047E-1,-1.650208831E-1
2.540885100E1,-1.438482881E0,1.273427129E0,-2.643475533E-1
2.542885256E1,-1.012448072E0,7.735822797E-1,-3.921754956E-1
2.544885256E1,-8.812865615E-1,-1.932603121E-1,-5.515589714E-1
2.546885256E1,-9.410117269E-1,-7.770380378E-1,-4.941027164E-1
2.548887131E1,-8.587368727E-1,-1.313796639E0,-3.066892624E-1
2.551085100E1,-5.679126978E-1,-1.756010652E0,-1.514073163E-1
2.553085256E1,-9.986773878E-2,-1.766203403E0,-6.138322875E-2
2.555285256E1,5.771978498E-1,-1.965345502E0,1.274963021E-1
2.557485100E1,1.438063979E0,-2.517026663E0,3.607246578E-1
2.559485100E1,2.160595417E0,-3.071971416E0,1.421221644E-1
2.561485100E1,1.919181466E0,-1.920263648E0,-6.839945316E-1
2.563485100E1,-8.460832834E-1,6.274284124E-1,-9.242216349E-1
2.565485256E1,-1.396368146E0,-1.334565997E0,-2.913129032E-1
2.567485256E1,-4.034503102E-1,-1.035242081E0,-1.657539159E-1
2.569685256E1,2.365968376E-1,-1.089085452E-2,-5.800427198E-1
2.571685256E1,-1.017526984E-1,7.775616050E-1,-4.873657525E-1
2.573685256E1,-5.710717291E-2,1.587638736E0,-1.715134978E-1
2.575685256E1,8.705353141E-1,1.455185771E0,1.436231434E-1
2.577685881E1,-2.265786380E-1,1.488032818E0,4.590390325E-1
2.579885256E1,-1.361182332E-1,5.798158050E-1,4.821821153E-1
2.582085256E1,1.022745490E0,-2.455154657E-1,3.813369870E-1
2.584085412E1,2.070571423E0,-7.087432742E-1,3.747745454E-1
2.586285100E1,2.423948050E0,-6.416354179E-1,3.168819845E-1
2.588285881E1,2.384084940E0,-5.825036168E-1,4.080056250E-1
2.590485100E1,2.170945168E0,-5.364269614E-1,4.550422430E-1
2.592485569E1,1.497806668E0,1.951278150E-1,2.548878789E-1
2.594686350E1,2.407594442E0,-5.877570510E-1,1.691573113E-1
2.596885100E1,2.290133715E0,-1.961400956E-1,9.641198814E-2
2.598887131E1,1.901798010E0,1.574461460E-1,-1.407084465E-1
2.601085100E1,1.669756532E0,5.576501489E-1,-7.716100663E-2
2.603085256E1,1.583327770E0,9.053720832E-1,9.002408385E-2
2.605285100E1,1.319625974E0,1.108825088E0,1.653524935E-1
2.607285100E1,1.173245192E0,9.312553406E-1,1.652128696E-1
2.609285100E1,1.436109304E0,3.889291584E-1,1.751088798E-1
2.611285100E1,1.713075519E0,-2.117608041E-1,3.090105355E-1
2.613285100E1,1.677558064E0,-4.024031162E-1,3.884404898E-1
2.615285256E1,1.658062816E0,-2.896548510E-1,3.802374303E-1
2.617285881E1,1.518069983E0,4.108504951E-1,5.015901923E-1
2.619485100E1,6.060307026E-1,1.905620337E0,5.405633450E-1
2.621485725E1,-9.053023160E-2,2.106368065E0,1.439547539E-1
2.623685256E1,5.368632823E-2,6.630156636E-1,-1.404640973E-1
2.625686819E1,1.259778589E-1,-7.438942194E-1,-1.330813617E-1
2.627885256E1,-9.272236228E-1,-4.942947030E-1,-3.506191969E-1
2.629885256E1,-2.331183910E0,4.116010070E-1,-6.796835661E-1
2.632085256E1,-3.123598337E0,9.060178399E-1,-8.820195794E-1
2.634285256E1,-3.416377306E0,1.333222151E0,-9.517803788E-1
2.636485256E1,-3.047275066E0,1.214155793E0,-1.366592765E0
2.638485256E1,-2.571079493E0,1.308996916E0,-1.435358763E0
2.640685569E1,-2.218592644E0,1.376610994E0,-1.041420460E0
2.642885256E1,-2.328792810E0,7.143807411E-1,-5.667956471E-1
2.645085256E1,-2.742627859E0,-1.212305725E-1,-4.304156601E-1
2.647085256E1,-2.667735815E0,-1.725781560E-1,-1.676912308E-1
2.649285256E1,-2.114763021E0,3.862588108E-1,-3.206169978E-2
2.651485256E1,-1.716444016E0,1.068752408E0,-2.116735280E-1
2.653685256E1,-1.180732727E0,1.341372848E0,-3.505668342E-1
2.655685881E1,-8.987224102E-1,4.319689870E-1,-5.757666826E-1
2.657885256E1,-1.046586633E0,-8.563109040E-1,-6.951297522E-1
2.659885256E1,-1.181430817E0,-1.396088839E0,-5.623625517E-1
2.661885256E1,-1.023565769E0,-1.740878701E0,-3.606548309E-1
2.663885256E1,-5.278748274E-1,-2.073887587E0,-3.260624111E-1
2.665885256E1,1.274090409E-1,-2.127451658E0,-3.174055815E-1
2.668085256E1,1.005327106E0,-2.144643068E0,-4.738568887E-2
2.670285256E1,2.028072596E0,-2.401119232E0,2.868274152E-1
2.672485256E1,2.842408419E0,-2.702275753E0,2.492679209E-1
2.674685100E1,1.928274632E0,-1.026463032E0,-7.383615375E-1
2.676685256E1,-1.544459343E0,-1.647590846E-2,-9.555503130E-1
2.678887288E1,-1.326083660E0,-2.380803585E0,-2.849250138E-1
2.681085256E1,1.912706345E-1,-3.034952879E-1,-2.843839526E-1
2.683085725E1,9.415004253E-1,8.496437073E-1,-4.715530574E-1
2.685285256E1,-1.149124801E-1,1.759536266E0,-3.030589819E-1
2.687485100E1,-1.501157731E-1,2.190946817E0,-3.267430961E-1
2.689485100E1,1.490511149E-1,1.544913054E0,-3.495894372E-2
2.691485100E1,2.240828276E-1,1.071038723E0,2.310641408E-1
2.693485100E1,5.121843219E-1,4.368559122E-1,6.284756064E-1
2.695485100E1,2.061984301E0,-1.588197231E0,1.166420937E0
2.697485100E1,2.262470245E0,-6.510078311E-1,8.383514285E-1
2.699485100E1,1.809225798E0,1.357517093E-1,4.596848190E-1
2.701485256E1,1.058664322E0,1.189040422E0,5.906194448E-1
2.703685256E1,1.953930974E0,-8.721410483E-2,7.872831225E-1
2.705685256E1,2.933601856E0,-1.074738860E0,3.774972558E-1
2.707685256E1,2.051913738E0,-3.228859045E-3,1.274264902E-1
2.709685256E1,1.492099404E0,1.113520041E-1,-1.296954155E-1
2.711685256E1,1.492972136E0,4.148647562E-2,-1.601165086E-1
2.713685256E1,1.944959998E0,-1.450543106E-1,-8.157669008E-2
2.715685256E1,1.899913073E0,1.440071166E-1,3.064798191E-2
2.717686038E1,1.378740311E0,6.447595358E-1,1.032711342E-1
2.719885256E1,9.752550721E-1,1.008224368E0,1.755975783E-1
2.721885256E1,1.162005305E0,9.466491342E-1,2.525666058E-1
2.723885256E1,1.506079555E0,5.290092826E-1,3.818082213E-1
2.725885881E1,1.582420230E0,1.207244247E-1,4.250051379E-1
2.728085100E1,1.710667014E0,-2.761285305E-1,3.932052255E-1
2.730085100E1,1.609455347E0,-9.358455241E-2,4.730540514E-1
2.732085256E1,8.423656821E-1,1.196388245E0,6.247231364E-1
2.734285256E1,-1.727177799E-1,2.156703234E0,3.628015816E-1
2.736485256E1,-3.170739710E-1,1.097009301E0,-4.399975017E-2
2.738485256E1,2.961823717E-2,-4.146902263E-1,-8.937831223E-2
2.740689631E1,-1.466600150E-1,-8.990016580E-1,-2.886425555E-1
2.742885256E1,-1.919408441E0,5.266705751E-1,-6.445850134E-1
2.744886506E1,-2.900213718E0,7.747691274E-1,-8.887216449E-1
2.747085256E1,-3.323927164E0,7.195817828E-1,-9.650099874E-1
2.749285256E1,-3.182311058E0,1.011715055E0,-1.261052728E0
2.751485256E1,-2.689412832E0,1.204696059E0,-1.421029568E0
2.753685256E1,-2.245366096E0,1.567707062E0,-1.216756225E0
2.755685256E1,-1.920595169E0,1.064685702E0,-9.342921972E-1
2.757885256E1,-2.460634947E0,-7.321830988E-1,-5.853310823E-1
2.759885256E1,-2.827381134E0,-8.969246745E-1,-1.770636588E-1
2.761885256E1,-2.579142809E0,1.084198505E-1,1.137431040E-1
2.763885256E1,-2.009414911E0,8.352447748E-1,-4.815363511E-2
2.765885256E1,-1.483791709E0,1.341407657E0,-2.171189636E-1
2.768085100E1,-9.584301114E-1,1.306710601E0,-2.723411620E-1
2.770085100E1,-8.014726639E-1,4.600687921E-1,-4.346567988E-1
2.772085100E1,-9.372069240E-1,-3.746698201E-1,-4.841543436E-1
2.774085256E1,-1.000719428E0,-9.880309105E-1,-2.842617631E-1
2.776285100E1,-7.179760933E-1,-1.453387976E0,-1.063080058E-1
2.778285256E1,-1.857728511E-1,-1.698903441E0,-1.532399096E-2
2.780485100E1,5.792747736E-1,-1.987650752E0,1.772730947E-1
2.782485100E1,1.404815555E0,-2.444804907E0,4.558276534E-1
2.784485100E1,2.389931679E0,-3.159691811E0,4.581838250E-1
2.786485256E1,2.795179605E0,-2.902534962E0,-2.167873383E-1
2.788485256E1,-3.196046948E-1,1.979901493E-1,-1.059851170E0
2.790685256E1,-2.278265476E0,-1.465256214E0,-7.596021891E-1
2.792685256E1,-8.689296246E-1,-1.454662085E0,-2.243446261E-1
2.794685256E1,3.443883657E-1,-9.730210900E-2,-6.011263132E-1
2.796685256E1,4.156152606E-1,5.410346389E-1,-7.188487649E-1
2.798685256E1,-3.782128543E-2,1.723599911E0,-1.849699914E-1
2.800685256E1,4.976108074E-1,1.712307572E0,-4.227187485E-2
2.802685413E1,-8.497135639E-1,1.663438439E0,1.460491568E-1
2.804885256E1,-6.098529696E-1,6.761405468E-1,4.853062630E-1
2.806885256E1,6.552489400E-1,-1.151062131E0,4.044451416E-1
2.808887131E1,1.988715410E0,-1.898569107E0,1.958957613E-1
2.811085256E1,2.456044674E0,-1.560690880E0,6.087708473E-2
2.813285256E1,2.384433985E0,-1.209879637E0,2.904053330E-1
2.815485256E1,1.961907148E0,-7.218856215E-1,3.035825789E-1
2.817685256E1,1.074703932E0,2.244668007E-1,1.000597253E-1
2.819685256E1,2.305248260E0,-1.368425369E0,-5.288347602E-2
2.821685256E1,2.325145006E0,-9.342398643E-1,-2.069960535E-2
2.823685256E1,2.009083509E0,4.726351425E-2,-2.098234892E-1
2.825685725E1,1.733059525E0,1.022012472E0,-1.883035749E-1
2.827885256E1,1.668587089E0,1.711225510E0,-6.620033830E-2
2.829885256E1,1.588441610E0,1.944715619E0,3.085742146E-2
2.831885256E1,1.437627673E0,1.883768797E0,1.778665036E-1
2.833885256E1,1.429965734E0,1.448885083E0,2.695311904E-1
2.835885256E1,1.487701178E0,7.769856453E-1,3.858224750E-1
2.837885256E1,1.609629869E0,3.841469809E-2,5.091823339E-1
2.839885256E1,1.844638467E0,-6.039188504E-1,5.487489700E-1
2.842085100E1,1.945466161E0,-7.775965333E-1,5.286777020E-1
2.844085412E1,1.531055212E0,2.358637899E-1,4.318118989E-1
2.846285100E1,1.725083441E-1,2.133333445E0,8.890707046E-2
2.848285256E1,-3.099704720E-2,1.946216583E0,-2.095965892E-1
2.850485100E1,-1.067268848E-1,4.451287687E-1,-3.864856958E-1
2.852485100E1,-8.986002207E-1,-2.454282045E-1,-3.666064143E-1
2.854485100E1,-2.307901144E0,3.593109250E-1,-4.393691719E-1
2.856485100E1,-3.165940046E0,1.324390769E0,-6.212150455E-1
2.858485256E1,-3.288305044E0,1.159265161E0,-8.852484226E-1
2.860685256E1,-2.950531483E0,5.880363584E-1,-1.236042142E0
2.862685256E1,-2.627104521E0,7.412064075E-1,-1.336590648E0
2.864685412E1,-2.432220936E0,1.364044666E0,-1.176700950E0
2.866686506E1,-2.247879267E0,1.237386107E0,-9.036616683E-1
2.868887131E1,-2.627243996E0,-5.006651282E-1,-4.432263672E-1
2.871085256E1,-2.837626219E0,-7.956606746E-1,-2.220058814E-2
2.873285100E1,-2.551619053E0,2.957285941E-1,2.494599074E-1
2.875285256E1,-2.075685263E0,1.236461043E0,6.274458766E-2
2.877485100E1,-1.527651787E0,1.829523921E0,-1.275835633E-1
2.879485256E1,-1.013093829E0,1.535959601E0,-1.898220032E-1
2.881485256E1,-8.646361232E-1,3.466398418E-1,-4.157199860E-1
2.883485256E1,-1.087008476E0,-7.849443555E-1,-3.909886479E-1
2.885685256E1,-1.239899397E0,-1.240964055E0,-6.351253390E-2
2.887685256E1,-9.480105042E-1,-1.290147424E0,6.990043819E-2
2.889685256E1,-2.678382397E-1,-1.581128716E0,3.398156166E-2
2.891885100E1,7.268249393E-1,-2.056905508E0,9.719738364E-2
2.893885256E1,1.644763350E0,-2.397436619E0,2.645570040E-1
2.896085256E1,2.633213043E0,-2.766853094E0,1.931555867E-1
2.898285256E1,2.662185669E0,-1.984177589E0,-5.011887550E-1
2.900485100E1,-1.077862978E0,2.534567118E-1,-1.069450498E0
2.902485256E1,-1.837622285E0,-2.248263359E0,-5.594129562E-1
2.904685256E1,-1.707630157E-1,-1.058245540E0,-2.631607354E-1
2.906686194E1,6.331007481E-1,7.406828403E-1,-5.568124056E-1
2.908887288E1,-5.053600669E-1,2.365462065E0,-1.060287505E-1
2.911085256E1,-1.148060083E0,2.977531672E0,-4.239230156E-1
2.913085256E1,-2.548180707E-2,1.627414823E0,-3.889291584E-1
2.915085256E1,4.697030187E-1,4.092971683E-1,-1.037598252E-1
2.917085256E1,7.974060178E-1,4.747295752E-3,2.990098000E-1
2.919085569E1,1.386280060E0,-2.478367537E-1,9.885021448E-1
2.921285100E1,1.697437406E0,-2.351307571E-1,1.070619822E0
2.923285100E1,1.753654480E0,-3.086440265E-1,2.640159428E-1
2.925285100E1,1.556554437E0,-3.176150024E-1,4.621980786E-1
2.927285100E1,1.708729744E0,-1.182687402E0,4.615872204E-1
2.929285100E1,2.097763538E0,-1.639300466E0,1.567654759E-1
2.931285100E1,2.084429264E0,-1.261768341E0,5.253440887E-2
2.933285100E1,2.005470514E0,-9.082693458E-1,2.263692021E-2
2.935285256E1,1.954245210E0,-5.958030224E-1,-1.143190637E-2
2.937285256E1,1.990164042E0,-2.427229434E-1,9.807004780E-2
2.939485100E1,1.871499062E0,4.215319157E-1,2.100154608E-1
2.941485100E1,1.567375422E0,1.192094803E0,2.356892675E-1
2.943485100E1,1.303813338E0,1.583223104E0,2.830924094E-1
2.945485256E1,1.257108331E0,1.511140943E0,4.042706192E-1
2.947486038E1,1.560830474E0,9.310284257E-1,4.978551567E-1
2.949685256E1,2.037584543E0,-3.691371530E-2,5.213472843E-1
2.951685569E1,2.194036007E0,-6.199234724E-1,5.148721337E-1
2.953885256E1,2.195729017E0,-5.797285438E-1,5.761681199E-1
2.955885569E1,5.472654104E-1,1.807742238E0,3.460289836E-1
2.958085100E1,-3.839549720E-1,2.634888649E0,-9.426523000E-2
2.960085256E1,-2.496344447E-1,1.103781104E0,-2.718175650E-1
2.962085256E1,-2.894105017E-1,-7.912624478E-1,-1.798387319E-1
2.964085881E1,-1.124533057E0,-1.332192302E0,-2.238035649E-1
2.966285100E1,-2.622688770E0,-4.684812725E-1,-6.742556095E-1
2.968285413E1,-3.381994247E0,-1.060811132E-1,-9.312204123E-1
2.970485100E1,-3.663620710E0,6.766467094E-1,-9.508030415E-1
2.972485412E1,-3.132848501E0,1.198098660E0,-1.255031347E0
2.974685569E1,-2.428905010E0,1.621690154E0,-1.406124473E0
2.976686038E1,-2.049557686E0,1.851567388E0,-1.141427875E0
2.978887444E1,-2.434594631E0,9.520422220E-1,-6.188064814E-1
2.981085256E1,-2.966396570E0,-4.129448906E-2,-3.104242682E-1
2.983085256E1,-2.783939838E0,-2.179218084E-1,4.590216093E-3
2.985085256E1,-2.198224783E0,-1.162214726E-1,9.316567332E-2
2.987085256E1,-1.892198682E0,5.424832106E-1,-9.794788063E-2
2.989085256E1,-1.486165285E0,1.010283828E0,-2.037322819E-1
2.991085256E1,-1.120291948E0,4.352676570E-1,-4.270820618E-1
2.993085256E1,-1.090778470E0,-3.564834893E-1,-6.213895679E-1
2.995285100E1,-1.149229527E0,-1.151358843E0,-4.850968122E-1
2.997285100E1,-1.033566475E0,-1.795594692E0,-3.336720467E-1
2.999285256E1,-6.955485940E-1,-1.953355074E0,-2.427229434E-1
3.001485100E1,2.357939817E-2,-1.988837600E0,-1.594532728E-1
3.003485100E1,9.365262389E-1,-2.082404613E0,7.559020817E-2
3.005485100E1,1.955990434E0,-2.221332788E0,3.727674186E-1
3.007485100E1,2.844694614E0,-2.422883511E0,3.838502467E-1
3.009485100E1,3.088569641E0,-1.922515035E0,-2.224073112E-1
3.011485100E1,5.407727957E-1,3.191159964E-1,-8.993856311E-1
3.013485100E1,-2.347066402E0,-1.242866397E0,-6.287373900E-1
3.015485256E1,-1.105631113E0,-1.831984878E0,-2.104692608E-1
3.017685256E1,1.985661089E-1,-5.443681777E-2,-6.589839458E-1
3.019685256E1,4.828628004E-1,7.314151525E-1,-5.822418332E-1
3.021685256E1,3.982143104E-1,2.309594154E0,-2.119353265E-1
3.023885256E1,7.226535678E-1,2.319891691E0,-1.768018454E-1
3.025885256E1,-6.803293228E-1,1.758942842E0,2.559350729E-1
3.028085100E1,-5.171061754E-1,5.563237071E-1,5.003335476E-1
3.030085100E1,8.382990956E-1,-9.166468978E-1,4.735776484E-1
3.032085100E1,2.171852827E0,-1.729778409E0,4.417602718E-1
3.034085100E1,2.478123188E0,-1.401080489E0,3.212453127E-1
3.036085100E1,2.350836277E0,-1.031227827E0,3.982317746E-1
3.038085256E1,2.033203840E0,-7.571936250E-1,4.213224947E-1
3.040089475E1,1.146908164E0,1.403419226E-1,2.057045102E-1
3.042285256E1,2.280866146E0,-1.121723056E0,1.232726052E-1
3.044485256E1,2.230216503E0,-6.526135206E-1,1.281769872E-1
3.046685256E1,1.788351655E0,-6.089453772E-2,-1.285434961E-1
3.048685256E1,1.578964472E0,4.470486343E-1,-6.394886225E-2
3.050685881E1,1.579086661E0,9.058782458E-1,5.857324973E-2
3.052885256E1,1.444434524E0,1.265957117E0,1.534842551E-1
3.054886038E1,1.280617833E0,1.121915102E0,1.824741662E-1
3.057085100E1,1.478189111E0,5.317668915E-1,2.891486883E-1
3.059085256E1,1.702010155E0,-1.722116321E-1,4.404512942E-1
3.061085256E1,1.727247596E0,-6.138846278E-1,4.403640330E-1
3.063085256E1,1.802453876E0,-6.655114889E-1,4.000818133E-1
3.065085256E1,1.472831011E0,1.230806187E-1,4.703662395E-1
3.067085256E1,5.184151530E-1,1.606209040E0,4.975235462E-1
3.069285100E1,-1.464156657E-1,2.009851456E0,1.703266799E-1
3.071285256E1,-1.210385859E-1,8.325220346E-1,-1.612509638E-1
3.073485256E1,-1.473057922E-2,-6.914820075E-1,-2.884680033E-1
3.075685256E1,-1.175706148E0,-4.871563017E-1,-5.473003387E-1
3.077885100E1,-2.750534058E0,2.509783506E-1,-7.230375409E-1
3.079885256E1,-3.313455105E0,1.843765825E-1,-9.121265411E-1
3.082085256E1,-3.403304815E0,6.587046981E-1,-9.554455876E-1
3.084285256E1,-2.896914959E0,1.129873753E0,-1.236426115E0
3.086285256E1,-2.471211672E0,1.532084942E0,-1.246287227E0
3.088285256E1,-2.177036524E0,1.791597962E0,-1.049239635E0
3.090485100E1,-2.341079950E0,6.451784372E-1,-7.419743538E-1
3.092485100E1,-2.789751768E0,-6.701191664E-1,-5.042605400E-1
3.094485256E1,-2.765037775E0,-7.145377994E-1,-1.818109453E-1
3.096685256E1,-2.277619839E0,-8.206538111E-2,3.420845373E-3
3.098686662E1,-1.977562785E0,7.402814031E-1,-1.670803726E-1
3.100885256E1,-1.423822165E0,1.016636848E0,-2.459168881E-1
3.103085256E1,-9.695827365E-1,1.245816052E-1,-4.827755094E-1
3.105085256E1,-1.001504779E0,-5.866749883E-1,-6.113015413E-1
3.107085256E1,-1.075489283E0,-1.151987076E0,-4.533841908E-1
3.109285100E1,-8.599935174E-1,-1.781701922E0,-3.664144278E-1
3.111285256E1,-3.576703370E-1,-2.041389465E0,-3.857003152E-1
3.113485100E1,3.994884193E-1,-2.044723034E0,-2.611361742E-1
3.115485256E1,1.213614702E0,-2.193285465E0,1.188569237E-2
3.117685256E1,2.272104502E0,-2.647420168E0,2.313783020E-1
3.119685256E1,3.016086102E0,-2.861432314E0,5.668829381E-2
3.121685256E1,1.934139013E0,-1.362246871E0,-7.655887008E-1
3.123685256E1,-2.275054216E0,-1.658586413E-1,-9.568069577E-1
3.125685256E1,-1.669389963E0,-2.044059753E0,-3.169517815E-1
3.127885100E1,1.638166010E-1,8.923868090E-2,-2.238559276E-1
3.129885256E1,8.313003182E-1,1.081563115E0,-6.618637443E-1
3.132085256E1,2.626546025E-1,2.367643833E0,1.240929123E-2
3.134285256E1,7.110995054E-1,2.303886890E0,1.057669520E-1
3.136485100E1,-5.366887450E-1,1.367133856E0,1.091354340E-1
3.138485100E1,-5.926265717E-1,7.305599451E-1,5.784893632E-1
3.140485100E1,2.976833582E-1,7.190756500E-3,4.618490338E-1
3.142485100E1,1.390818000E0,-9.162978530E-1,1.716356725E-1
3.144485256E1,2.080345154E0,-1.039500594E0,1.938537210E-1
3.146687756E1,2.484703064E0,-1.068542957E0,4.303981960E-1
3.148887288E1,2.549489737E0,-1.075367212E0,5.383816957E-1
3.151085256E1,2.407943487E0,-1.189668775E0,2.922379375E-1
3.153085256E1,1.781562328E0,-4.908564091E-1,9.274679422E-2
3.155285256E1,2.084603786E0,2.242224514E-1,-1.188569237E-2
3.157285256E1,2.470810175E0,6.554933190E-1,-1.594358236E-1
3.159485256E1,2.193599701E0,1.122072220E0,-2.880491316E-1
3.161685256E1,1.658743501E0,1.721121550E0,-1.850049011E-2
3.163885256E1,1.281630158E0,2.038509607E0,1.976061761E-1
3.165885256E1,1.235728025E0,1.790166736E0,2.297551483E-1
3.168085100E1,1.358564258E0,8.772024512E-1,3.862413764E-1
3.170085100E1,1.348179579E0,3.886848316E-2,5.542293191E-1
3.172085100E1,1.438831925E0,-4.920257628E-1,5.464974642E-1
3.174085256E1,1.513636827E0,-4.944866896E-1,4.138350189E-1
3.176285100E1,1.215953469E0,2.566157579E-1,3.876550794E-1
3.178285256E1,4.383918047E-1,1.426160932E0,3.876027167E-1
3.180485256E1,-1.082104146E-1,1.510966420E0,2.684316412E-2
3.182685256E1,1.128529906E-1,2.646268308E-1,-2.013062686E-1
3.184885100E1,8.876744658E-2,-8.424355388E-1,-2.845584750E-1
3.186885256E1,-9.830915928E-1,-2.099281996E-1,-4.451462328E-1
3.188887131E1,-2.333766937E0,6.969448924E-1,-6.162233949E-1
3.191085100E1,-3.160669088E0,1.008695602E0,-7.878241539E-1
3.193085256E1,-3.423149109E0,1.314965963E0,-7.692887783E-1
3.195085256E1,-3.196413517E0,1.107987404E0,-9.797754884E-1
3.197085413E1,-2.830051422E0,1.162581205E0,-1.249760509E0
3.199285256E1,-2.439115047E0,1.854866147E0,-1.025084257E0
3.201485256E1,-2.143368959E0,1.343502045E0,-6.021735072E-1
3.203685256E1,-2.585548162E0,-5.699721575E-1,-3.912504613E-1
3.205685256E1,-2.770989418E0,-8.233241439E-1,-1.256462485E-1
3.207885256E1,-2.473585367E0,1.087689176E-1,1.522974372E-1
3.210085256E1,-2.021318197E0,1.283550024E0,3.047344834E-2
3.212285100E1,-1.285539746E0,1.324635029E0,-1.838529855E-1
3.214285256E1,-8.119446039E-1,3.478790224E-1,-4.359658062E-1
3.216485256E1,-8.870635629E-1,-6.038141251E-1,-6.744475961E-1
3.218685881E1,-1.077409148E0,-1.207732916E0,-5.454677343E-1
3.220885256E1,-8.698546290E-1,-1.735345960E0,-3.980397880E-1
3.223085100E1,-3.439520299E-1,-1.915463924E0,-3.199363053E-1
3.225085256E1,3.414038420E-1,-1.880714417E0,-2.182708681E-1
3.227285256E1,1.365021944E0,-2.243568420E0,8.787732571E-2
3.229485100E1,2.424838305E0,-2.776888609E0,3.688927889E-1
3.231485256E1,2.996712923E0,-2.721003294E0,1.007578596E-1
3.233685256E1,7.510326505E-1,1.570796303E-4,-8.925613761E-1
3.235885256E1,-2.407611847E0,-1.074913383E0,-5.660102963E-1
3.237885256E1,-1.285609484E0,-1.690106988E0,-1.792976707E-1
3.239885256E1,-1.263094842E-1,-1.506219152E-2,-5.908637643E-1
3.241885256E1,4.724257290E-1,5.436351299E-1,-5.731486678E-1
3.243885256E1,7.496189326E-2,1.575054884E0,-1.814444214E-1
3.245885256E1,2.690075934E-1,2.259991884E0,-3.317870945E-2
3.247885256E1,-2.246587873E-1,1.862440825E0,1.373748630E-1
3.249885256E1,-1.420348883E-1,7.571063638E-1,3.360806108E-1
3.251885256E1,7.272612453E-1,-1.008852720E0,5.445427299E-1
3.254085256E1,2.309524298E0,-1.593607783E0,6.827902794E-1
3.256285256E1,2.591028452E0,-6.953915358E-1,2.168222517E-1
3.258285256E1,2.377522469E0,-7.096508890E-2,3.078935444E-1
3.260485100E1,1.453929067E0,1.065959811E0,3.299370408E-1
3.262485100E1,1.753427625E0,2.449744195E-1,3.959279358E-1
3.264485100E1,2.630525351E0,-1.423926830E0,2.381850779E-1
3.266485256E1,2.168205023E0,-9.860063195E-1,1.794198453E-1
3.268685256E1,1.657451868E0,-3.338814974E-1,-7.136651129E-2
3.270685256E1,1.493233919E0,2.374345958E-1,-8.117526025E-2
3.272685256E1,1.713197708E0,7.368256450E-1,-3.544763848E-2
3.274686038E1,1.681834221E0,1.276114941E0,7.340855151E-2
3.276885256E1,1.363503575E0,1.628025651E0,2.065248042E-1
3.278887288E1,1.334548593E0,1.470788956E0,3.081553280E-1
3.281085256E1,1.610048771E0,6.571339369E-1,4.755847752E-1
3.283085256E1,1.634500861E0,-1.369385272E-1,5.772676468E-1
3.285285256E1,1.549887300E0,-5.745449066E-1,5.279097557E-1
3.287485256E1,1.540427566E0,-4.669802785E-1,4.734729230E-1
3.289685256E1,9.778730869E-1,7.818900347E-1,4.740663171E-1
3.291686819E1,-2.129301615E-2,2.112808228E0,2.810329199E-1
3.293885256E1,-2.498264313E-1,1.537338376E0,-6.682865322E-2
3.296085256E1,-2.179916203E-2,-9.532988071E-2,-1.435184181E-1
3.298285256E1,-5.594652891E-1,-7.685208321E-1,-2.958507538E-1
3.300485100E1,-2.178380251E0,-1.008102149E-1,-7.217634320E-1
3.302485256E1,-3.108902693E0,-1.456651837E-1,-1.024263978E0
3.304685256E1,-3.409587860E0,1.119279638E-1,-1.076082706E0
3.306885256E1,-3.162990332E0,3.644596636E-1,-1.264857531E0
3.308887288E1,-2.819928408E0,6.990916133E-1,-1.413821459E0
3.311085256E1,-2.411992550E0,1.284387827E0,-1.203910708E0
3.313085256E1,-2.320554972E0,1.124253869E0,-8.332899809E-1
3.315085256E1,-2.792649031E0,-1.747074537E-2,-3.977954388E-1
3.317085256E1,-2.961073160E0,-2.173982114E-1,-1.708328277E-1
3.319285100E1,-2.604293108E0,4.888318181E-1,4.782202095E-2
3.321285256E1,-2.141693592E0,1.086746693E0,-4.129448906E-2
3.323485256E1,-1.593066692E0,1.496637225E0,-1.159771308E-1
3.325685881E1,-1.021960139E0,8.133932352E-1,-3.275459409E-1
3.327685881E1,-9.593027830E-1,-8.447393775E-2,-6.660176516E-1
3.329885256E1,-1.143627048E0,-8.939925432E-1,-5.969200730E-1
3.332085256E1,-1.085298061E0,-1.616907954E0,-3.976558149E-1
3.334285256E1,-6.906965971E-1,-2.085179806E0,-3.632902801E-1
3.336485100E1,1.213003844E-1,-2.189306021E0,-2.284636050E-1
3.338485256E1,1.090202451E0,-2.152217865E0,3.035127558E-2
3.340685256E1,2.208696604E0,-2.162550211E0,3.446676135E-1
3.342685256E1,3.246469498E0,-2.481072903E0,3.289422095E-1
3.344686663E1,3.591224432E0,-2.284321785E0,-3.419449031E-1
3.346885256E1,-1.742170215E0,1.962256193E0,-1.344793677E0
3.348887288E1,-2.351412296E0,-1.566467881E0,-2.453060299E-1
3.351085100E1,-6.687577963E-1,-1.740407467E0,-1.224522963E-1
3.353085256E1,-7.771950960E-2,-4.659854472E-1,-7.950673103E-1
3.355285100E1,4.607145488E-1,2.298197269E0,-5.035798550E-1
3.357285256E1,1.672130108E0,2.219465494E0,4.125958309E-2
3.359485256E1,4.464377761E-1,2.163248301E0,3.144385219E-1
3.361686662E1,-1.164134622E0,1.587219834E0,9.538224339E-1
3.363885256E1,-1.925447285E-1,9.086707830E-1,5.836380720E-1
3.365885256E1,1.522346020E0,-8.254185319E-1,3.929259777E-1
3.368085256E1,2.662953615E0,-1.479812264E0,4.164181054E-1
3.370285256E1,2.861589432E0,-1.531700969E0,5.812469721E-1
3.372485256E1,2.557919741E0,-1.553901553E0,5.710193515E-1
3.374485256E1,2.185065031E0,-1.657731175E0,3.081553280E-1
3.376685256E1,1.266777396E0,-4.091749787E-1,1.003738865E-1
3.378686819E1,2.004126549E0,2.184279561E-1,-4.576253146E-2
3.380885256E1,2.284758091E0,7.648905516E-1,-1.208465993E-1
3.382885256E1,1.941469312E0,1.179737806E0,-2.625149786E-1
3.385085100E1,1.432234645E0,1.832072139E0,-9.114108980E-2
3.387085100E1,1.043532372E0,2.134014130E0,1.152964532E-1
3.389085256E1,8.403585553E-1,1.943459034E0,2.228785455E-1
3.391285256E1,1.082470655E0,9.417796731E-1,3.480186462E-1
3.393485100E1,1.505625725E0,-3.531673849E-1,5.004382730E-1
3.395485256E1,1.549939632E0,-1.017876029E0,4.891110659E-1
3.397685256E1,1.766011357E0,-1.276917815E0,3.746000230E-1
3.399885256E1,1.941609025E0,-7.473325133E-1,3.109129667E-1
3.401885256E1,1.159073114E0,1.400696516E0,3.838851750E-1
3.404085256E1,-2.137853801E-1,2.739765406E0,8.763298392E-2
3.406285256E1,-1.473057866E-1,1.296640038E0,-1.467298269E-1
3.408485256E1,-1.797863692E-1,-6.560867429E-1,-2.106437832E-1
3.410685100E1,-9.597390890E-1,-1.150486112E0,-4.661774337E-1
3.412685256E1,-2.313591003E0,-3.031986058E-1,-7.625867128E-1
3.414685413E1,-3.392885208E0,1.184554994E-1,-9.194219708E-1
3.416885256E1,-3.653532505E0,4.864756167E-1,-1.002761483E0
3.418887131E1,-3.154420853E0,1.024839878E0,-1.274736166E0
3.421085100E1,-2.628535748E0,1.765435457E0,-1.232568979E0
3.423085256E1,-2.220774412E0,2.274792433E0,-1.035207152E0
3.425085256E1,-2.104360819E0,1.230841041E0,-8.551589847E-1
3.427085256E1,-2.654418945E0,-7.170684934E-1,-4.481830895E-1
3.429285100E1,-2.818985939E0,-8.484394550E-1,-7.103490178E-3
3.431285100E1,-2.507531881E0,-1.231504306E-1,1.918116808E-1
3.433285100E1,-2.125618935E0,7.194421887E-1,3.490658477E-2
3.435285256E1,-1.573868155E0,1.316501856E0,-9.578366578E-2
3.437485256E1,-1.003058195E0,1.316536784E0,-2.245715111E-1
3.439685256E1,-7.382917404E-1,4.147949517E-1,-4.303109348E-1
3.441685256E1,-8.098327518E-1,-7.140840292E-1,-4.392644763E-1
3.443685256E1,-8.938180208E-1,-1.395041704E0,-2.722539008E-1
3.445885256E1,-6.938905716E-1,-1.524213433E0,-1.517389268E-1
3.447885256E1,-1.559626162E-1,-1.761857510E0,-4.249876738E-2
3.449885256E1,6.003932357E-1,-2.044618368E0,2.127207220E-1
3.451885256E1,1.539991260E0,-2.581254721E0,5.075591803E-1
3.454085256E1,2.610209703E0,-3.309004545E0,3.961897492E-1
3.456285256E1,2.106926441E0,-1.706984401E0,-7.160038948E-1
3.458485256E1,-1.361426592E0,1.209862232E-1,-8.835904002E-1
3.460485256E1,-1.244349957E0,-1.662827492E0,-2.650457025E-1
3.462685256E1,-4.799655639E-3,-7.030186057E-2,-3.225368559E-1
3.464685725E1,1.009498462E-1,6.484421492E-1,-6.318091750E-1
3.466885256E1,-7.572110891E-1,2.596334219E0,-1.829454154E-1
3.468887131E1,2.317448109E-1,2.637262344E0,-8.347909898E-2
3.471085100E1,7.042752504E-1,1.193805218E0,-8.011060953E-2
3.473085256E1,4.782027602E-1,4.222823977E-1,4.810650945E-1
3.475085413E1,8.257152438E-1,4.624947906E-1,1.015607119E0
3.477285256E1,1.354951501E0,5.389576554E-1,9.827425480E-1
3.479485100E1,1.888481140E0,4.048291147E-1,4.958480299E-1
3.481485256E1,2.172062159E0,7.225662936E-3,6.337465048E-1
3.483485256E1,2.349562168E0,-5.650328994E-1,6.777637005E-1
3.485685100E1,2.411329508E0,-1.217855811E0,3.886324763E-1
3.487686506E1,2.111883402E0,-6.088231802E-1,2.491457462E-1
3.489885256E1,1.973129630E0,-3.049962819E-1,1.498888731E-1
3.491885256E1,1.755382299E0,-2.796191871E-1,-6.410594285E-2
3.493885256E1,1.714803457E0,-1.695761830E-1,1.204277156E-3
3.496085256E1,1.710841537E0,1.708153784E-1,1.230108067E-1
3.498285256E1,1.367727280E0,6.808354855E-1,1.643925607E-1
3.500285256E1,1.106660962E0,9.734573960E-1,1.955117881E-1
3.502485256E1,1.202968240E0,7.383615375E-1,2.945243120E-1
3.504685256E1,1.456791401E0,7.822565734E-2,3.720343709E-1
3.506885256E1,1.617448926E0,-5.195845366E-1,3.286105990E-1
3.508887131E1,1.694522738E0,-6.419146657E-1,3.263067603E-1
3.511085256E1,1.487439394E0,-1.436405927E-1,4.173955023E-1
3.513285256E1,9.194219708E-1,1.048227310E0,3.035476506E-1
3.515485256E1,3.672172874E-2,1.857361913E0,6.492624432E-2
3.517685256E1,-1.027126238E-1,8.992111087E-1,-1.966113448E-1
3.519685256E1,-2.049714625E-1,-1.807986498E-1,-2.204699963E-1
3.521885256E1,-1.202444553E0,-5.426228791E-2,-3.315252960E-1
3.523885256E1,-2.384678364E0,5.095489025E-1,-6.526483893E-1
3.525885256E1,-3.314188242E0,6.715328693E-1,-8.205665350E-1
3.528085100E1,-3.732037544E0,6.910631061E-1,-1.018870831E0
3.530085100E1,-3.187477350E0,6.277076602E-1,-1.336485863E0
3.532085256E1,-2.724668503E0,9.935635924E-1,-1.280530572E0
3.534285256E1,-2.332492828E0,1.668080926E0,-9.272934198E-1
3.536485100E1,-2.077378035E0,2.006570101E0,-7.980517745E-1
3.538485256E1,-2.694840670E0,-3.437426090E-1,-6.727197170E-1
3.540685256E1,-2.801864386E0,-1.485728979E0,-3.482280970E-1
3.542686038E1,-2.506903648E0,-3.642851114E-1,7.923794538E-2
3.544885256E1,-2.114117384E0,1.067844748E0,-5.710717291E-2
3.547085256E1,-1.348720670E0,1.485257745E0,-2.748020887E-1
3.549285256E1,-6.532418132E-1,7.141363621E-1,-4.272391498E-1
3.551485256E1,-7.231597304E-1,-3.846356571E-1,-4.989896417E-1
3.553685256E1,-9.755343199E-1,-1.259499431E0,-2.357067168E-1
3.555685256E1,-9.755692482E-1,-1.527372479E0,-6.044075266E-2
3.557686819E1,-6.327167749E-1,-1.655357480E0,-3.361504152E-2
3.559885256E1,1.830326766E-1,-2.081933498E0,1.101128235E-1
3.561885256E1,1.098894238E0,-2.554341793E0,3.781081140E-1
3.563885256E1,2.112406969E0,-3.049666166E0,4.502251446E-1
3.565885256E1,2.782456160E0,-2.948332310E0,-3.591887653E-2
3.568085100E1,1.336555719E0,-3.595029116E-1,-9.003280997E-1
3.570085100E1,-1.748296261E0,8.286823332E-2,-7.023205161E-1
3.572085256E1,-9.826203585E-1,-1.619543314E0,-2.147802114E-1
3.574085256E1,2.473829687E-1,1.774301678E-1,-3.033556640E-1
3.576085256E1,2.494250089E-1,7.110645771E-1,-6.982189417E-1
3.578285256E1,1.296779606E-2,1.857379436E0,-1.889667958E-1
3.580285569E1,1.027719617E0,1.916720629E0,2.695660889E-1
3.582485100E1,-4.929682314E-1,1.334531069E0,2.571742535E-1
3.584485100E1,-5.174377561E-1,7.586597204E-1,4.931602180E-1
3.586485100E1,4.609588981E-1,1.589296758E-1,5.376137495E-1
3.588485256E1,1.698624253E0,-6.321233511E-1,3.219085336E-1
3.590685725E1,2.293502331E0,-4.399625957E-1,2.031737715E-1
3.592686506E1,2.428503513E0,-3.569372892E-1,3.981096148E-1
3.594885256E1,2.326855421E0,-4.588121474E-1,6.107081771E-1
3.597085100E1,2.118009329E0,-8.657007813E-1,4.904026091E-1
3.599085256E1,1.937542319E0,-1.201484680E0,2.158797681E-1
3.601285100E1,1.972030044E0,-5.947732925E-1,1.968905926E-1
3.603285256E1,2.051355362E0,5.660102889E-2,5.838126317E-2
3.605285256E1,1.947735071E0,5.518905520E-1,-2.200511098E-1
3.607285256E1,1.702359200E0,1.043218255E0,-1.564687639E-1
3.609485569E1,1.357482195E0,1.561458826E0,9.278170019E-2
3.611685256E1,9.378875494E-1,1.596365452E0,1.767669469E-1
3.613686506E1,9.436646104E-1,1.031454682E0,1.896649301E-1
3.615885256E1,1.458501816E0,-1.631708294E-1,3.108606040E-1
3.618085256E1,1.551266074E0,-8.756491542E-1,4.683940113E-1
3.620285256E1,1.539327979E0,-9.114981890E-1,4.282688797E-1
3.622485100E1,1.621794820E0,-4.605574906E-1,3.770260215E-1
3.624485256E1,1.102419734E0,8.046665788E-1,4.527733028E-1
3.626685412E1,7.613126189E-2,1.990844727E0,3.209311366E-1
3.628887131E1,-1.470439881E-1,1.277633309E0,-4.405210912E-2
3.631085100E1,2.188119292E-1,-2.779262364E-1,-1.884257495E-1
3.633085256E1,-2.218488008E-1,-3.698178232E-1,-2.518335581E-1
3.635285256E1,-2.085232019E0,9.032427669E-1,-5.309989452E-1
3.637485100E1,-3.086911440E0,1.268906713E0,-7.621852756E-1
3.639485100E1,-3.525826931E0,1.344200253E0,-8.306196332E-1
3.641485100E1,-3.247220039E0,6.279345751E-1,-1.080899835E0
3.643485100E1,-2.781915188E0,9.128072113E-2,-1.330639005E0
3.645485256E1,-2.488281012E0,4.659680128E-1,-1.165077090E0
3.647685256E1,-2.286538363E0,1.047249913E0,-7.733553648E-1
3.649685256E1,-2.534427404E0,2.540326715E-1,-5.493074656E-1
3.651685256E1,-2.743971825E0,-7.916988134E-1,-5.578944683E-1
3.653885100E1,-2.476447582E0,-3.238981962E-1,-3.167074323E-1
3.655885256E1,-2.037252903E0,9.143430591E-1,-2.062630057E-1
3.657885256E1,-1.544860721E0,2.091846943E0,-3.872362077E-1
3.660085256E1,-7.652221322E-1,1.666108727E0,-5.860990286E-1
3.662285100E1,-4.942947030E-1,-1.396612525E-1,-8.322253227E-1
3.664285256E1,-7.719067931E-1,-1.423665047E0,-7.293730974E-1
3.666485256E1,-1.063464046E0,-1.801808119E0,-3.242996335E-1
3.668685256E1,-1.031664133E0,-1.728067994E0,1.005309634E-2
3.670685256E1,-5.665163994E-1,-1.864029050E0,5.337216705E-2
3.672885256E1,4.368210137E-1,-2.393352509E0,7.904595882E-2
3.674885256E1,1.472289920E0,-2.677143097E0,2.718001306E-1
3.676885256E1,2.436532021E0,-2.894139767E0,3.766769469E-1
3.678887288E1,2.703724384E0,-2.452536583E0,1.260651350E-1
3.681085100E1,-6.349507719E-2,4.126656353E-1,-8.616166711E-1
3.683085256E1,-2.151607037E0,-7.439640164E-1,-6.894923449E-1
3.685085256E1,-8.887914419E-1,-1.106870413E0,-5.525712296E-2
3.687085256E1,1.970476657E-1,-2.729694843E-1,-4.639957845E-1
3.689085256E1,3.032858670E-1,2.084097713E-1,-6.828600764E-1
3.691085256E1,-2.341708243E-1,1.881430030E0,-4.751833379E-1
3.693285256E1,9.188809395E-1,1.812367320E0,-1.341111064E-1
3.695485256E1,2.116909772E-1,1.734979391E0,-9.346237779E-2
3.697686506E1,-5.865353346E-1,4.501553178E-1,5.356590152E-1
3.699885256E1,7.174175978E-1,-5.181533694E-1,7.962890267E-1
3.701885256E1,2.196985483E0,-1.342332721E0,7.419045568E-1
3.703885256E1,2.679167747E0,-9.588140845E-1,4.799830019E-1
3.706085100E1,2.657577991E0,-6.413910389E-1,6.202376485E-1
3.708085100E1,2.282646418E0,-3.718423843E-1,5.824338198E-1
3.710085256E1,1.469689369E0,4.946961105E-1,2.417804599E-1
3.712085256E1,2.585199118E0,-6.259623170E-1,2.620262802E-1
3.714285100E1,2.571009636E0,-3.834663033E-1,2.431941777E-1
3.716285100E1,1.983636498E0,1.143365204E-1,-3.796090931E-2
3.718285100E1,1.501018047E0,5.988573432E-1,-3.083996847E-2
3.720285256E1,1.347463965E0,9.685180783E-1,1.209338605E-1
3.722485100E1,1.249900103E0,1.165077090E0,2.078338116E-1
3.724485256E1,1.257492304E0,8.515985012E-1,2.210284919E-1
3.726685412E1,1.441537261E0,2.155132592E-1,3.766595125E-1
3.728887131E1,1.619281530E0,-3.464653194E-1,5.085191131E-1
3.731085100E1,1.752345443E0,-5.859768391E-1,4.275707603E-1
3.733085256E1,1.797078252E0,-4.694063067E-1,3.735702634E-1
3.735085256E1,1.459357023E0,3.680550456E-1,4.102919996E-1
3.737285100E1,3.537084162E-1,2.187595606E0,3.373546898E-1
3.739285256E1,-3.004584312E-1,2.185867786E0,-2.900737152E-2
3.741285256E1,-1.824043542E-1,6.974859238E-1,-2.649235129E-1
3.743285256E1,-5.559222698E-1,-4.930555224E-1,-4.191408157E-1
3.745485256E1,-2.006063938E0,-4.118627906E-1,-7.593404055E-1
3.747685256E1,-3.163479090E0,-2.324778587E-1,-1.022728086E0
3.749885256E1,-3.695490360E0,2.298947722E-1,-1.102262735E0
3.751885256E1,-3.281917095E0,6.596995592E-1,-1.441956162E0
3.753885256E1,-2.757410765E0,1.335264087E0,-1.511228204E0
3.756085100E1,-2.262208462E0,2.028386831E0,-1.257876277E0
3.758085100E1,-1.959550977E0,1.437767267E0,-1.149107337E0
3.760085256E1,-2.648432493E0,-8.460134268E-1,-6.377432942E-1
3.762285100E1,-2.960078478E0,-9.768782258E-1,-9.670869261E-2
3.764285256E1,-2.664437056E0,1.240405515E-1,7.318165898E-2
3.766285569E1,-2.204682350E0,8.118050098E-1,-7.538077235E-2
3.768485100E1,-1.668988585E0,1.256183267E0,-1.810604632E-1
3.770485100E1,-1.209932089E0,8.770279288E-1,-3.323805034E-1
3.772485100E1,-1.149910212E0,1.276359260E-1,-5.128650069E-1
3.774485256E1,-1.222952247E0,-4.844859540E-1,-4.721988142E-1
3.776686975E1,-1.064162135E0,-1.330080509E0,-3.433062732E-1
3.778887288E1,-5.889438987E-1,-1.743828297E0,-2.209935933E-1
3.781085100E1,1.092227027E-1,-1.984369516E0,-2.686061710E-2
3.783085256E1,8.665559888E-1,-2.191854239E0,2.404191047E-1
3.785085256E1,1.762154222E0,-2.518841743E0,4.943819642E-1
3.787285100E1,2.822075129E0,-3.147771120E0,4.268551767E-1
3.789285100E1,2.806279898E0,-2.099561214E0,-5.318541527E-1
3.791285256E1,-1.126156211E0,1.044160724E0,-1.103571653E0
3.793285256E1,-1.973600864E0,-2.008455038E0,-2.712590694E-1
3.795485256E1,-3.355046511E-1,-8.055043817E-1,-8.265879005E-2
3.797685256E1,2.267357260E-1,6.135355830E-1,-6.946759224E-1
3.799685256E1,-1.852667034E-1,2.182272434E0,-2.349038571E-1
3.801685256E1,5.626243353E-1,2.808147430E0,6.386159360E-2
3.803685256E1,1.851096153E-1,1.664642692E0,1.396263391E-1
3.805686506E1,-1.365371048E-1,6.085613966E-1,5.866400599E-1
3.807885256E1,5.907067060E-1,3.423463404E-1,7.033153176E-1
3.809885256E1,1.369263172E0,2.811725438E-1,3.454006612E-1
3.811885256E1,2.153317451E0,6.787585467E-2,3.244741559E-1
3.813885256E1,2.558460712E0,-1.473755985E-1,5.671970844E-1
3.815885256E1,2.732085943E0,-3.244741559E-1,4.928984344E-1
3.818085256E1,2.723900557E0,-6.263986826E-1,3.036698401E-1
3.820285256E1,2.014424086E0,2.545911670E-1,1.717578471E-1
3.822485100E1,2.412935019E0,2.064026296E-1,1.768542081E-1
3.824485100E1,2.214840174E0,3.227462769E-1,-4.647811875E-2
3.826485100E1,1.639248133E0,5.373868942E-1,-9.887290001E-2
3.828485100E1,1.296133876E0,8.178263903E-1,7.717845589E-2
3.830485256E1,1.273514390E0,1.051351428E0,1.954768747E-1
3.832685256E1,1.383662105E0,1.051334023E0,2.463008612E-1
3.834686506E1,1.545384288E0,6.617415547E-1,2.736152709E-1
3.836885256E1,1.810307860E0,8.939576149E-2,4.155628979E-1
3.838887131E1,1.846156955E0,-2.526364028E-1,4.618839324E-1
3.841085100E1,1.814898014E0,-2.672797143E-1,4.268726408E-1
3.843085256E1,1.533952475E0,4.781678617E-1,3.652101457E-1
3.845285100E1,1.846383810E-1,2.424890757E0,3.210533261E-1
3.847285100E1,-3.183306158E-1,2.519592285E0,9.121090919E-2
3.849285256E1,-6.707300246E-2,9.685180783E-1,-8.557349443E-2
3.851485256E1,1.140572652E-1,-7.982263565E-1,-1.365545541E-1
3.853485256E1,-6.053500175E-1,-5.362349749E-1,-3.081727922E-1
3.855685256E1,-2.649113178E0,8.750382662E-1,-6.927909851E-1
3.857685725E1,-3.464495897E0,9.640500546E-1,-1.024927139E0
3.859885256E1,-3.500275373E0,9.914692044E-1,-1.300933480E0
3.861885256E1,-3.029263258E0,5.724331141E-1,-1.648428559E0
3.863885256E1,-2.714720011E0,6.601358652E-1,-1.566467881E0
3.865885256E1,-2.416931868E0,1.244576812E0,-1.104479313E0
3.867885256E1,-2.286904812E0,1.026602626E0,-7.092145681E-1
3.869885256E1,-2.777517080E0,-1.018294930E0,-3.896796703E-1
3.871885256E1,-2.903424978E0,-1.424310803E0,-5.827654526E-2
3.874085100E1,-2.559333324E0,-5.677555874E-2,3.226241171E-1
3.876085256E1,-2.116089582E0,1.356714249E0,1.426283121E-1
3.878285100E1,-1.359297276E0,1.930979967E0,-2.386039644E-1
3.880285100E1,-6.711488962E-1,9.113062024E-1,-6.569768190E-1
3.882285100E1,-6.923197508E-1,-3.999247551E-1,-9.349030852E-1
3.884285256E1,-1.009899855E0,-1.277022481E0,-7.309264541E-1
3.886285256E1,-1.170330524E0,-1.850415468E0,-3.512125909E-1
3.888485256E1,-9.955357909E-1,-1.994300485E0,-1.928588748E-2
3.890686662E1,-2.874382734E-1,-2.381100416E0,5.654866621E-2
3.892885256E1,9.196314216E-1,-2.651469231E0,1.551423222E-1
3.894885256E1,2.113209724E0,-2.589038849E0,2.430545539E-1
3.897085256E1,3.158923864E0,-2.121831656E0,7.166321576E-2
3.899285256E1,3.161489487E0,-8.341801167E-1,-4.894601405E-1
3.901485256E1,-1.978086352E0,1.362299323E0,-9.564753175E-1
3.903485256E1,-2.241561174E0,-2.264913797E0,-2.747671902E-1
3.905685256E1,-4.577649534E-1,-4.393517375E-1,-8.874998987E-2
3.907685725E1,9.366832972E-1,6.021211147E-1,-5.979847312E-1
3.909885100E1,6.677803993E-1,1.620712757E0,-2.994810343E-1
3.911885256E1,5.884203315E-1,2.208696604E0,-3.473205259E-3
3.913885256E1,3.494149148E-1,2.100224495E0,7.927285135E-2
3.915885256E1,3.710919023E-1,1.214784026E0,7.574728876E-2
3.918085256E1,4.201705754E-1,3.286978602E-1,4.757767618E-1
3.920285256E1,1.242430091E0,-4.110075831E-1,7.971791625E-1
3.922485412E1,2.089630365E0,-8.738863468E-1,6.868568659E-1
3.924685256E1,2.076208830E0,-5.937610269E-1,4.956735075E-1
3.926686506E1,1.857937932E0,-2.906322181E-1,6.446373463E-1
3.928686975E1,1.844376683E0,-5.950350761E-1,4.305727184E-1
3.930885256E1,2.677876234E0,-1.644536495E0,1.794023961E-1
3.932885256E1,2.149582386E0,-4.391248524E-1,1.640783995E-1
3.935085100E1,1.685342312E0,3.801501691E-1,-4.813618213E-2
3.937085100E1,1.586225033E0,7.726921439E-1,-1.368163526E-1
3.939085256E1,1.630120039E0,8.723853827E-1,-1.808161102E-2
3.941285100E1,1.516132593E0,8.746193647E-1,1.314756572E-1
3.943286038E1,1.380066752E0,7.446970940E-1,1.535191536E-1
3.945485256E1,1.315105557E0,4.680972993E-1,2.694264650E-1
3.947685256E1,1.362997413E0,1.510058790E-1,4.280594587E-1
3.949885256E1,1.468869090E0,-9.737192094E-2,4.857076705E-1
3.951885256E1,1.660436392E0,-2.448696941E-1,4.349884093E-1
3.953885256E1,1.773219585E0,-1.423490494E-1,4.211305082E-1
3.955885256E1,1.455779076E0,7.789928317E-1,4.743455946E-1
3.957885256E1,1.537809670E-1,2.472869635E0,1.085943878E-1
3.959885256E1,-4.657061994E-1,2.267374754E0,-3.626968563E-1
3.961885256E1,-3.914948106E-1,6.978524327E-1,-4.443782866E-1
3.964085100E1,-1.098457813E0,-6.511998177E-1,-5.107182264E-1
3.966085100E1,-2.550938368E0,-3.624874353E-1,-7.169812322E-1
3.968085100E1,-3.487935781E0,3.943047822E-1,-8.948652148E-1
3.970085100E1,-3.631681204E0,7.523066998E-1,-1.164221883E0
3.972085100E1,-3.229609489E0,9.352172017E-1,-1.519919991E0
3.974085100E1,-2.779017925E0,1.577795148E0,-1.410295844E0
3.976085256E1,-2.372059584E0,2.208976030E0,-1.170766830E0
3.978285256E1,-2.091288328E0,1.137116909E0,-1.110413432E0
3.980485256E1,-2.687178612E0,-1.426475048E0,-3.689800501E-1
3.982685413E1,-2.873998880E0,-9.109047651E-1,8.159413934E-2
3.984685725E1,-2.632340431E0,5.813516974E-1,1.724559814E-1
3.986686662E1,-2.109980822E0,1.342437387E0,3.598868847E-2
3.988887131E1,-1.415776134E0,1.305488825E0,-4.384266958E-2
3.991085100E1,-8.524013758E-1,6.070429683E-1,-3.148050308E-1
3.993085569E1,-8.004254699E-1,-2.801078856E-1,-5.741260648E-1
3.995285100E1,-9.190729260E-1,-1.075594068E0,-4.617966712E-1
3.997285100E1,-8.475667834E-1,-1.602055192E0,-1.699078083E-1
3.999285256E1,-5.888391733E-1,-1.606523156E0,-1.797689125E-3
4.001485256E1,8.154178411E-2,-1.911938429E0,9.899507463E-2
4.003485256E1,9.857270718E-1,-2.409374714E0,3.133913279E-1
4.005685881E1,2.310676336E0,-3.187494755E0,4.128227234E-1
4.007885256E1,3.386636972E0,-3.012368441E0,-3.494847417E-1
4.010085256E1,8.255756497E-1,6.702587605E-1,-1.122089624E0
4.012085256E1,-2.192307949E0,-5.930105448E-1,-7.312057018E-1
4.014285256E1,-8.548098803E-1,-1.715536475E0,-1.215098202E-1
4.016485256E1,2.704562247E-1,-3.903428912E-1,-6.305874586E-1
4.018685881E1,4.907516837E-1,3.323106766E-1,-5.296376348E-1
4.020885100E1,4.585328996E-1,1.982292652E0,-2.866179645E-1
4.022885256E1,9.679247141E-1,2.205258369E0,-9.470156580E-2
4.024885256E1,-3.993487954E-1,1.623767018E0,4.088259339E-1
4.026885256E1,-3.661002517E-1,7.697076797E-1,6.301336884E-1
4.028887131E1,6.046169400E-1,1.690700501E-1,5.487140417E-1
4.031085100E1,1.957194805E0,-7.487636805E-1,4.546582699E-1
4.033085256E1,2.480793476E0,-6.125756502E-1,3.285233378E-1
4.035285256E1,2.518108606E0,-4.137128592E-1,5.466545820E-1
4.037485256E1,2.356875181E0,-5.066167116E-1,5.266705751E-1
4.039685256E1,1.958433986E0,-5.585228205E-1,2.822197378E-1
4.041685256E1,1.993235826E0,-3.630284918E-3,2.335948646E-1
4.043885256E1,2.138098240E0,1.684417278E-1,1.513375044E-1
4.045885256E1,1.879841805E0,4.150393009E-1,-1.476024985E-1
4.047885256E1,1.531247139E0,8.278096318E-1,-9.073966742E-2
4.049885256E1,1.308490753E0,1.168113947E0,7.934267074E-2
4.051885256E1,1.149456382E0,1.281525493E0,1.969778538E-1
4.053885881E1,1.248468876E0,8.944987059E-1,2.383945286E-1
4.056085100E1,1.686214924E0,9.599310905E-2,3.214023709E-1
4.058085569E1,1.701818228E0,-3.203028142E-1,4.683067501E-1
4.060285100E1,1.690281510E0,-5.544561744E-1,4.680100381E-1
4.062285256E1,1.801354289E0,-5.547180176E-1,4.328765571E-1
4.064285256E1,1.345020533E0,4.723210037E-1,4.854633212E-1
4.066285881E1,1.950754523E-1,2.063223600E0,3.666936755E-1
4.068485100E1,-2.211681157E-1,1.971314430E0,4.125958309E-2
4.070485413E1,-1.004611477E-1,6.769084930E-1,-1.724559814E-1
4.072685100E1,-2.223374993E-1,-5.724331141E-1,-3.337069452E-1
4.074686662E1,-1.426317930E0,-1.950929016E-1,-5.334075093E-1
4.076885256E1,-3.297694921E0,5.380675793E-1,-7.183077335E-1
4.078887600E1,-3.699801207E0,5.134060383E-1,-1.026148915E0
4.081085100E1,-3.258756638E0,8.174772859E-1,-1.462882638E0
4.083085725E1,-2.746397734E0,9.674010873E-1,-1.608390689E0
4.085285256E1,-2.295491934E0,1.352734923E0,-1.301474571E0
4.087485256E1,-1.990373492E0,1.703336596E0,-1.173716426E0
4.089685413E1,-2.396686077E0,-8.481951356E-1,-7.837401032E-1
4.091885100E1,-2.856615305E0,-1.782469869E0,-9.805259854E-2
4.093885256E1,-2.802806854E0,-7.119547129E-1,1.278453618E-1
4.095885256E1,-2.408903360E0,6.086137891E-1,1.864884347E-1
4.097885256E1,-1.734054446E0,1.240056396E0,8.396779001E-2
4.099885256E1,-1.156350493E0,1.524929047E0,5.113814771E-2
4.101885256E1,-7.659202814E-1,1.036359072E0,-1.083500385E-1
4.104085256E1,-6.701540947E-1,6.682865322E-2,-2.384992391E-1
4.106285256E1,-6.690719724E-1,-6.315473914E-1,-5.757841095E-2
4.108485100E1,-5.424658060E-1,-1.059118152E0,1.075646430E-1
4.110485256E1,-2.926393449E-1,-1.351408482E0,1.592612863E-1
4.112685256E1,3.536560535E-1,-1.953773975E0,3.248581290E-1
4.114685256E1,1.340936422E0,-2.823733330E0,5.756270289E-1
4.116685256E1,2.479240179E0,-3.652467966E0,3.719645739E-1
4.118685412E1,2.811062098E0,-2.374886990E0,-6.466619372E-1
4.120885100E1,-1.002604365E0,1.633697987E0,-1.034212351E0
4.122885256E1,-1.673666000E0,-1.084530115E0,-5.405284762E-1
4.124885256E1,-2.726728022E-1,-6.260845065E-1,-1.051037237E-1
4.126885256E1,3.794171214E-1,-6.778858602E-2,-5.394288898E-1
4.128887131E1,2.786069214E-1,4.688303471E-1,-5.536184311E-1
4.131085100E1,1.687733456E-2,1.573379397E0,1.188569237E-2
4.133085256E1,7.147122920E-2,1.441554666E0,2.218313515E-2
4.135285256E1,-9.373115897E-1,9.598438144E-1,4.316024780E-1
4.137485256E1,-3.431317210E-1,2.312735766E-1,6.376385689E-1
4.139685256E1,1.776692867E0,-1.851392865E0,5.391321778E-1
4.141685256E1,2.657089233E0,-8.673588037E-1,2.795144916E-1
4.143885256E1,2.661452532E0,2.831447721E-1,2.251823843E-1
4.145885256E1,2.312142372E0,8.979369998E-1,4.652873278E-1
4.147885256E1,2.021440268E0,8.623846173E-1,4.967905283E-1
4.150085100E1,1.709427834E0,3.596948981E-1,3.226590157E-1
4.152085100E1,2.098706007E0,-4.747121036E-1,2.937738299E-1
4.154085256E1,2.212187290E0,-4.533492625E-1,3.115238249E-1
4.156285256E1,1.959585905E0,-1.821425557E-1,-4.941027239E-2
4.158285256E1,1.651517749E0,2.976484597E-1,-1.194677874E-1
4.160285256E1,1.472516775E0,8.475842476E-1,6.396631896E-2
4.162485100E1,1.241732001E0,1.148566246E0,2.169444263E-1
4.164485100E1,1.138164163E0,9.334020615E-1,1.997703910E-1
4.166485256E1,1.499272704E0,3.162885606E-1,1.756324768E-1
4.168685256E1,1.767547250E0,-3.912504613E-1,3.264812827E-1
4.170687756E1,1.558055401E0,-5.978625417E-1,4.222649634E-1
4.172885256E1,1.525784254E0,-5.755048394E-1,3.790156841E-1
4.174885256E1,1.460072637E0,-4.155628756E-2,4.101698399E-1
4.176885256E1,6.177592874E-1,1.403698444E0,4.556531012E-1
4.178887288E1,-1.364323944E-1,2.031825066E0,2.015331686E-1
4.181085100E1,-2.762507200E-1,9.537351727E-1,-7.332128286E-2
4.183085256E1,-4.256508946E-1,-3.626270592E-1,-1.755626649E-1
4.185285256E1,-1.370257974E0,-8.094313741E-1,-5.846678615E-1
4.187485256E1,-2.674333096E0,-4.349011481E-1,-9.766513109E-1
4.189685100E1,-3.401227713E0,-1.887049973E-1,-1.091703415E0
4.191686350E1,-3.577628136E0,1.703615934E-1,-1.085874081E0
4.193686975E1,-3.195732832E0,7.002086639E-1,-1.258312583E0
4.195885100E1,-2.608586550E0,1.947228909E0,-1.050391555E0
4.197885256E1,-2.150437593E0,2.950566292E0,-9.321105480E-1
4.200085100E1,-2.132897139E0,1.698816180E0,-8.741830587E-1
4.202085100E1,-2.677143097E0,-1.549433470E0,-3.047693968E-1
4.204085256E1,-2.743762255E0,-1.231469393E0,4.206243530E-2
4.206285100E1,-2.646337986E0,4.167322516E-1,1.843067706E-1
4.208285100E1,-2.204298496E0,1.013198495E0,1.795245707E-1
4.210285100E1,-1.509081483E0,1.174641490E0,2.367364615E-1
4.212285100E1,-8.891405463E-1,9.981712699E-1,1.294685304E-1
4.214285100E1,-5.940926075E-1,4.458268881E-1,-5.115560070E-2
4.216285100E1,-4.563686848E-1,-3.415085673E-1,-1.237962022E-1
4.218285100E1,-3.076142669E-1,-9.876120090E-1,-4.485496134E-2
4.220285100E1,-5.265658349E-2,-1.072557211E0,3.752457723E-2
4.222285100E1,3.672172725E-1,-1.327061057E0,1.382649839E-1
4.224285100E1,1.018940687E0,-1.965275645E0,2.597399056E-1
4.226285100E1,2.083277464E0,-3.065548658E0,2.436654121E-1
