"Time (s)","Linear Acceleration x (m/s^2)","Linear Acceleration y (m/s^2)","Linear Acceleration z (m/s^2)"
4.001562000E-3,-6.839999557E-1,4.888999760E-1,1.063099980E0
2.400625000E-2,-7.032999992E-1,8.050999641E-1,1.993599892E0
5.400000000E-2,2.539000034E0,1.532199979E0,1.659099936E0
7.400468700E-2,1.064199924E0,8.825999498E-1,-4.519999921E-1
1.040000000E-1,3.950699806E0,-2.002199888E0,-4.074699879E0
1.240015620E-1,3.637399912E0,-3.722199917E0,-4.656099796E0
1.440015620E-1,6.745899677E0,-2.692600012E0,-1.137199998E0
1.740046870E-1,7.058099747E0,-4.780099869E0,1.091799974E0
2.040093750E-1,5.620999813E0,-4.804500103E0,3.691399813E0
2.340000000E-1,7.213000059E-1,-1.485199928E0,1.243700027E0
2.540000000E-1,4.214600086E0,-4.802999973E0,-5.863999724E-1
2.740000000E-1,5.812000036E-1,-2.577999830E-1,-3.367999792E-1
2.940000000E-1,-7.979199886E0,5.732100010E0,6.071000099E-1
3.140109370E-1,1.752200007E0,-1.093400002E0,5.234000087E-1
3.440000000E-1,2.766999900E-1,-2.656999826E-1,-1.314599991E0
3.640015620E-1,-3.639999926E-1,-2.960999906E-1,-2.522599936E0
3.940000000E-1,-5.917999744E-1,-6.179000139E-1,-6.101999879E-1
4.140031250E-1,-6.717000008E-1,-1.052799940E0,2.422999889E-1
4.440000000E-1,-2.591699839E0,-3.256999850E-1,-8.004999757E-1
4.640000000E-1,-7.831000090E-1,1.374300003E0,1.470199943E0
4.840000000E-1,2.339699984E0,-6.448000073E-1,-3.495299816E0
5.040015620E-1,4.059299946E0,6.798999906E-1,-2.918200016E0
5.340015620E-1,2.022099972E0,-4.306999743E-1,-1.867999882E-1
5.640046870E-1,1.225000024E0,-8.671000004E-1,-1.430999935E-1
5.940015620E-1,-1.083699942E0,-1.345399976E0,-4.379999936E-1
6.140015620E-1,-3.174399853E0,-1.839599967E0,-1.397699952E0
6.440015620E-1,-3.763599873E0,-1.836699963E0,-1.926099896E0
6.740000000E-1,-6.027699947E0,-2.482699871E0,-1.510599971E0
6.940000000E-1,-6.948099613E0,-2.987399817E0,-6.208999753E-1
7.140015620E-1,-5.464299679E0,-3.450699806E0,3.640999794E-1
7.440000000E-1,-2.525499821E0,-2.152999878E0,1.041999981E-1
7.640000000E-1,-3.253499985E0,-2.654099941E0,-1.878999919E-1
7.840015620E-1,-2.793699980E0,-2.051599979E0,-2.096000016E-1
8.140000000E-1,1.457000017E0,-1.709199905E0,-8.396999836E-1
8.340000000E-1,2.499399900E0,-9.675999880E-1,-1.297999918E-1
8.540015620E-1,3.093699932E0,-6.269999743E-1,1.999399900E0
8.840000000E-1,6.406199932E0,3.604999781E-1,2.680599928E0
9.040000000E-1,6.611599922E0,1.073499918E0,1.900799990E0
9.240015620E-1,7.596999645E0,1.173900008E0,2.243299961E0
9.440015620E-1,7.882699966E0,1.387099981E0,1.359099984E0
9.740000000E-1,7.491199970E0,2.106199980E0,2.477999926E-1
9.940015620E-1,7.029500008E0,2.664099932E0,-2.061000019E-1
1.014001562E0,5.016499996E0,2.782699823E0,2.734999955E-1
1.044000000E0,1.890699983E0,2.331899881E0,9.740999937E-1
1.064000000E0,1.280599952E0,1.684199929E0,1.655799985E0
1.084000000E0,1.284799933E0,1.343799949E0,6.067999601E-1
1.104000000E0,1.363499999E0,1.036499977E0,-1.061499953E0
1.124000000E0,1.996099949E0,7.330999970E-1,-2.663599968E0
1.144001562E0,1.839199901E0,7.110999823E-1,-3.599299908E0
1.174000000E0,1.852399945E0,1.045699954E0,-4.455199718E0
1.194000000E0,3.203999996E0,4.980999827E-1,-4.631000042E0
1.214001562E0,3.676100016E0,-6.686999798E-1,-3.544099808E0
1.244001562E0,7.541999817E-1,1.292999983E-1,-8.581999540E-1
1.274000000E0,-4.357699871E0,-8.886999488E-1,5.123499870E0
1.294001562E0,-7.801499844E0,-1.222399950E0,1.024289989E1
1.324000000E0,-6.544999599E0,-2.616199970E0,7.518699646E0
1.344000000E0,-5.568599701E0,-2.557999849E0,1.504699945E0
1.364001562E0,-4.613399982E0,-1.845699906E0,-2.823299885E0
1.394000000E0,1.408399940E0,8.419999480E-2,-6.270599842E0
1.414000000E0,5.116600037E0,1.518499970E0,-9.674300194E0
1.434001562E0,8.644899368E0,2.758699894E0,-8.201000214E0
1.464000000E0,7.612199783E0,2.220599890E0,-1.499799967E0
1.484000000E0,5.746099949E0,2.163699865E0,1.438999921E-1
1.504001562E0,4.014199734E0,1.286599994E0,5.909000039E-1
1.534000000E0,-1.119499922E0,6.019999981E-1,6.546999812E-1
1.554000000E0,-9.991399765E0,4.468999803E-1,1.983299971E0
1.574001562E0,-1.150339985E1,6.146000028E-1,3.149099827E0
1.604000000E0,-5.359899998E0,1.821699977E0,1.013599992E0
1.624001562E0,-6.206199646E0,5.210199833E0,-6.685699940E0
1.644001562E0,-6.304499626E0,3.375399828E0,-6.998299599E0
1.674000000E0,2.954999924E0,-5.655299664E0,1.145300007E1
1.694000000E0,5.557699680E0,-4.528800011E0,1.019460011E1
1.714001562E0,5.877999783E0,-3.839699984E0,6.216999888E-1
1.744000000E0,2.080399990E0,-1.601999998E0,-3.107299805E0
1.764001562E0,-1.832999945E0,-2.230599880E0,-4.348599911E0
1.784001562E0,-9.370999932E-1,-5.543699741E0,-5.789899826E0
1.814000000E0,2.458999902E-1,-6.234399796E0,-2.610499859E0
1.834000000E0,-1.480599999E0,-1.838799953E0,-1.490599990E0
1.854001562E0,-3.732199907E0,5.121999979E-1,-1.634499907E0
1.884000000E0,-4.488399982E0,2.195400000E0,-7.527999878E-1
1.904000000E0,-2.727499962E0,2.236700058E0,-2.372999936E-1
1.924000000E0,4.948000014E-1,3.739300013E0,6.419999897E-2
1.944001562E0,2.398099899E0,7.020499706E0,2.841300011E0
1.974000000E0,2.103299856E0,4.453799725E0,4.026400089E0
1.994001562E0,2.667999983E0,-6.728999615E-1,3.969999790E0
2.014001562E0,3.528299809E0,-7.106699944E0,4.336800098E0
2.044000000E0,5.719500065E0,-5.785399914E0,-5.573100090E0
2.064000000E0,3.803099871E0,-1.050699949E0,-9.374199867E0
2.084001562E0,2.433399916E0,9.994999766E-1,-1.409899950E0
2.114001562E0,-8.323000073E-1,6.730399609E0,1.251199961E0
2.144001562E0,-1.352800012E0,3.874699831E0,-2.954799891E0
2.174000000E0,-1.535399914E0,-5.292999744E-1,-3.126799822E0
2.194000000E0,-4.451999962E-1,-2.686399937E0,-4.500999749E-1
2.214004687E0,-2.290400028E0,-1.073499918E0,8.718999624E-1
2.244001562E0,-2.541999817E0,-4.077300072E0,-4.457999766E-1
2.274000000E0,5.155999660E-1,-9.052000046E-1,-4.131999910E-1
2.294001562E0,1.230599999E0,1.619899988E0,1.339299917E0
2.314006250E0,1.249599934E0,2.814199924E0,1.332299948E0
2.344000000E0,1.005200028E0,1.284500003E0,-1.496399999E0
2.364004687E0,1.029999971E0,6.790999770E-1,-2.040699959E0
2.394000000E0,1.510399938E0,3.017999828E-1,-2.085700035E0
2.414007812E0,3.075599909E0,5.590000004E-2,-3.585899830E0
2.444001562E0,3.821799994E0,9.771999717E-1,-3.674899817E0
2.464003125E0,3.347999811E0,1.382099986E0,-8.585999608E-1
2.494000000E0,1.691100001E0,-2.000499964E0,2.070800066E0
2.514003125E0,-9.772999883E-1,-8.960999846E-1,4.942999780E-1
2.544000000E0,-7.051199913E0,4.489900112E0,4.971999824E-1
2.564000000E0,-7.556999683E0,2.984799862E0,4.908099651E0
2.584001562E0,-6.146199703E0,2.734999955E-1,3.543999910E0
2.604004687E0,-6.573999882E0,-5.695399761E0,3.020099878E0
2.634000000E0,-2.620800018E0,-6.763899803E0,7.321899891E0
2.654001562E0,1.651399970E0,-3.341300011E0,1.022499943E1
2.684000000E0,7.126899719E0,-1.010089970E1,-3.707299948E0
2.704000000E0,1.590899944E0,-1.659399986E0,-9.923699379E0
2.724001562E0,-5.952999592E-1,-1.423999965E-1,9.275999665E-1
2.754001562E0,1.152300000E0,6.460999846E-1,1.056699991E0
2.784001562E0,9.411999583E-1,2.684200048E0,2.577999830E-1
2.814000000E0,7.864999771E-1,2.560199976E0,-6.438999772E-1
2.834000000E0,1.788000017E-1,1.523199916E0,-1.115399957E0
2.854001562E0,-3.434999883E-1,7.276999950E-1,-1.013599992E0
2.884000000E0,-2.140999883E-1,-4.685999751E-1,5.232999921E-1
2.904000000E0,-6.193999648E-1,-1.021399975E0,7.055999637E-1
2.924001562E0,-7.652999759E-1,-4.940999746E-1,-5.661000013E-1
2.954000000E0,-8.449999690E-1,1.371899962E0,-3.252300024E0
2.974000000E0,2.669999897E-1,-4.736000001E-1,-1.055259991E1
2.994001562E0,3.082999945E0,-4.349999905E0,-6.168699741E0
3.024000000E0,3.191900015E0,-3.959599972E0,9.510000050E-2
3.044000000E0,3.309599876E0,-3.575999975E0,-4.042200089E0
3.064000000E0,2.541399956E0,-3.708299875E0,-1.132739925E1
3.084000000E0,1.532199979E0,-2.632200003E0,-5.615599632E0
3.104000000E0,7.583999634E-1,-2.664399862E0,-1.271399975E0
3.124000000E0,-5.152999759E-1,-4.035099983E0,-1.820999980E-1
3.144001562E0,-1.839299917E0,-6.171700001E0,1.430499911E0
3.164001562E0,-2.732499838E0,-6.618299961E0,3.243000031E0
3.184001562E0,-4.635699749E0,-5.412699699E0,3.131299973E0
3.204009375E0,-7.487399578E0,-3.701399803E0,-1.664699912E0
3.234000000E0,-6.563899994E0,-1.996499896E0,1.265100002E0
3.254001562E0,-5.013000011E0,-1.549999975E-2,3.228399992E0
3.284001562E0,-2.689199924E0,1.917599916E0,2.441599846E0
3.314000000E0,-1.023900032E0,3.231599808E0,4.928999901E0
3.334000000E0,-1.843999922E-1,3.114099979E0,6.907399654E0
3.354001562E0,-4.263999760E-1,3.007099867E0,6.769799709E0
3.384000000E0,-6.646999717E-1,2.702299833E0,7.829799652E0
3.404001562E0,-4.111000001E-1,3.305199862E0,6.725299835E0
3.424001562E0,-2.021999955E-1,4.668299675E0,6.789999962E0
3.444001562E0,2.490999997E-1,5.885999680E0,5.679299831E0
3.474000000E0,1.327799916E0,6.702699661E0,3.568999767E-1
3.494000000E0,1.304799914E0,3.321499825E0,-7.085700035E0
3.514000000E0,2.311699867E0,-1.772099972E0,-1.604629898E1
3.534000000E0,2.243499994E0,-8.121699333E0,-1.404259968E1
3.554000000E0,2.978999913E-1,-9.173299789E0,-3.767099857E0
3.574000000E0,-1.988499999E0,-4.564699650E0,-2.847999811E0
3.594000000E0,-2.704599857E0,7.748000026E-1,-2.014099836E0
3.614001562E0,-7.366600037E0,5.314999819E-1,-5.181999683E0
3.644001562E0,-1.078539944E1,-3.398199797E0,7.831099987E0
3.674007812E0,-7.557199955E0,3.055999875E-1,1.156939983E1
3.704000000E0,-1.920899987E0,4.191199780E0,8.509099960E0
3.724003125E0,-1.681899905E0,2.569999993E-1,6.678299904E0
3.754001562E0,-4.520100117E0,-6.905299664E0,6.478099823E0
3.784001562E0,-1.556100011E0,-4.649099827E0,5.501999855E0
3.814000000E0,2.693099976E0,-9.174000025E-1,3.744400024E0
3.834000000E0,6.446599960E0,2.472199917E0,-2.081099987E0
3.854001562E0,6.847099781E0,1.579699993E0,-1.905399919E0
3.874007812E0,4.640999794E0,8.060000092E-2,-4.632000029E-1
3.904000000E0,2.515799999E0,1.578299999E0,1.696999967E-1
3.924003125E0,1.529799938E0,2.271399975E0,-1.139199972E0
3.954000000E0,6.225999594E-1,2.045199871E0,-1.291100025E0
3.974004687E0,4.320999980E-1,1.927399993E0,-1.130100012E0
4.004001562E0,-1.004999951E-1,7.452999949E-1,-6.873999834E-1
4.024003125E0,-5.819999576E-1,-4.458999932E-1,-8.514999747E-1
4.054000000E0,2.509000003E-1,1.255999953E-1,-2.047100067E0
4.074004687E0,1.018999934E0,3.619999811E-2,-6.761699677E0
4.104000000E0,4.830299854E0,-4.745599747E0,-5.222599983E0
4.124000000E0,4.395800114E0,-3.273099899E0,-1.096999943E-1
4.144000000E0,4.854499817E0,-2.745699883E0,-2.161700010E0
4.164000000E0,5.179500103E0,-4.776499748E0,-7.860599995E0
4.184000000E0,3.712699890E0,-5.737899780E0,-4.515199661E0
4.204009375E0,1.325999975E0,-4.887899876E0,-2.676199913E0
4.234000000E0,-1.424899936E0,-5.920199871E0,-4.315999746E-1
4.254000000E0,-2.163499832E0,-7.022999763E0,2.159199953E0
4.274000000E0,-3.787799835E0,-6.434999943E0,2.523999929E0
4.294000000E0,-4.955599785E0,-5.100299835E0,3.416499853E0
4.314000000E0,-7.849099636E0,-3.311599970E0,-1.292999983E-1
4.334000000E0,-6.569900036E0,-2.267600060E0,1.495299935E0
4.354000000E0,-4.738399982E0,-4.673999846E-1,3.014400005E0
4.374000000E0,-3.398599863E0,1.442600012E0,3.524399996E0
4.394000000E0,-1.462099910E0,3.077699900E0,3.765399933E0
4.414000000E0,-3.500000015E-2,3.749199867E0,5.395199776E0
4.434000000E0,1.023900032E0,3.641199827E0,6.743700027E0
4.454000000E0,6.036999822E-1,3.253199816E0,7.197799683E0
4.474000000E0,-4.941999912E-1,3.460299969E0,6.711199760E0
4.494000000E0,-1.030799985E0,3.937399864E0,7.437899590E0
4.514000000E0,-1.111999989E0,4.789599895E0,7.495999813E0
4.534000000E0,-1.131899953E0,5.705699921E0,7.506499767E0
4.554000000E0,-1.317799926E0,6.603199959E0,6.349699974E0
4.574000000E0,-1.239300013E0,6.901499748E0,3.359799862E0
4.594000000E0,-1.460099936E0,5.455800056E0,-2.375299931E0
4.614000000E0,7.787999511E-1,-2.013999969E-1,-1.425479984E1
4.634000000E0,3.408499956E0,-1.333850002E1,-2.707950020E1
4.654000000E0,3.791099787E0,-1.134959984E1,-5.296199799E0
4.674000000E0,2.411599874E0,-5.321399689E0,-3.030999899E0
4.694000000E0,-9.746999741E-1,-2.615399837E0,-7.750099659E0
4.714001562E0,-4.115600109E0,-1.013529968E1,-6.488599777E0
4.744000000E0,-8.350199699E0,-1.444999933E0,1.629559898E1
4.764000000E0,-6.514400005E0,5.460299969E0,7.748299599E0
4.784001562E0,-3.246999979E0,8.351399422E0,5.100399971E0
4.814000000E0,-3.610399961E0,1.221799970E0,7.475699902E0
4.834000000E0,-6.461999893E0,-8.495299339E0,8.284399986E0
4.854001562E0,-5.493799686E0,-1.067850018E1,7.326999664E0
4.884000000E0,2.527099848E0,-3.623099804E0,-3.942099810E0
4.904000000E0,2.935199976E0,5.396000147E-1,-4.014999866E-1
4.924001562E0,2.239599943E0,3.877999783E-1,3.870100021E0
4.944001562E0,2.525099993E0,1.075500011E0,1.948499918E0
4.974001562E0,1.949799895E0,3.164000034E0,5.564999580E-1
4.994001562E0,1.296399951E0,3.306900024E0,-1.030699968E0
5.014001562E0,9.096999764E-1,1.978099942E0,-1.688899994E0
5.044000000E0,6.502000093E-1,2.211699963E0,-4.391999841E-1
5.064000000E0,7.574999928E-1,2.894999981E0,1.495999992E-1
5.084000000E0,4.930000007E-1,2.468600035E0,5.133999586E-1
5.104000000E0,2.759000063E-1,4.623000026E-1,4.600000009E-2
5.124000000E0,2.035999894E-1,-7.956999540E-1,-1.371199965E0
5.144001562E0,2.949999869E-1,-8.319000006E-1,-2.703799963E0
5.174000000E0,2.653399944E0,-3.465899944E0,-1.185319996E1
5.194000000E0,4.533899784E0,-4.714799881E0,-3.922899961E0
5.214001562E0,4.404900074E0,-3.857999802E0,1.162199974E0
5.244001562E0,4.894999981E0,-3.762799978E0,-6.398399830E0
5.274000000E0,4.091599941E0,-4.905900002E0,-6.997599602E0
5.294000000E0,1.809099913E0,-3.865299940E0,-1.579100013E0
5.314000000E0,1.926999986E-1,-3.895200014E0,-7.206000090E-1
5.334000000E0,-1.324999928E-1,-6.276299953E0,2.052599907E0
5.354001562E0,-1.414399981E0,-7.424299717E0,3.549299955E0
5.384000000E0,-3.452499866E0,-5.448800087E0,3.288800001E0
5.404000000E0,-6.161099911E0,-3.123800039E0,9.815999866E-1
5.424000000E0,-6.939899921E0,-2.227699995E0,3.191999793E-1
5.444001562E0,-5.907199860E0,-1.070999980E0,2.428299904E0
5.474000000E0,-3.523499966E0,1.569399953E0,3.724499941E0
5.494009375E0,-1.363600016E0,2.550400019E0,2.506999969E0
5.524001562E0,-3.084999919E-1,3.403499842E0,5.488599777E0
5.544001562E0,1.190999970E-1,3.326999903E0,7.313799858E0
5.564001562E0,9.619999677E-2,3.000799894E0,8.522500038E0
5.594001562E0,-1.123799920E0,3.718299866E0,8.021599770E0
5.624000000E0,-9.554999471E-1,4.426599979E0,7.321399689E0
5.644001562E0,-6.937999725E-1,5.179699898E0,6.935799599E0
5.674000000E0,-8.035999537E-1,5.678299904E0,3.128199816E0
5.694000000E0,-1.238999963E-1,2.508399963E0,-7.219699860E0
5.714001562E0,1.771299958E0,-5.929699898E0,-1.773229980E1
5.744000000E0,-1.139500022E0,-5.867300034E0,-7.359299660E0
5.764000000E0,-1.020999998E-1,-6.581999660E-1,-5.844999790E0
5.784001562E0,-9.047999978E-1,1.850899935E0,-5.086100101E0
5.814000000E0,-3.856299877E0,-3.416499853E0,-6.571099758E0
5.834000000E0,-7.059899807E0,-8.150099754E0,6.115799904E0
5.854001562E0,-6.901799679E0,-8.840299606E0,6.143799782E0
5.874001562E0,-3.714699984E0,1.552599907E0,8.666799545E0
5.904000000E0,-1.581599951E0,6.184700012E0,7.452600002E0
5.924000000E0,-2.256899834E0,2.033699989E0,6.455899715E0
5.944000000E0,-4.011199951E0,-7.099299908E0,6.960099697E0
5.964000000E0,-3.324299812E0,-8.643499374E0,6.990299702E0
5.984000000E0,-6.832999587E-1,-5.029299736E0,5.634599686E0
6.004001562E0,1.115499973E0,-1.382099986E0,4.669099808E0
6.034000000E0,3.954799891E0,4.398499966E0,-6.779299736E0
6.054000000E0,2.873800039E0,3.523799896E0,-1.938299894E0
6.074001562E0,1.326699972E0,1.966999918E-1,-1.996999979E-1
6.104000000E0,4.725999832E-1,1.867499948E0,-2.522999942E-1
6.124000000E0,2.979999781E-1,2.980499983E0,-2.527999878E-1
6.144001562E0,4.544000030E-1,3.592799902E0,3.192999959E-1
6.174000000E0,6.775000095E-1,2.959899902E0,8.452999592E-1
6.194000000E0,3.226999938E-1,7.405999899E-1,5.433999896E-1
6.214001562E0,3.077999949E-1,-1.768099904E0,-1.097899914E0
6.244001562E0,1.230499983E0,-9.100999832E-1,-4.956099987E0
6.274000000E0,2.051899910E0,-1.951399922E0,-6.616499901E0
6.294001562E0,3.579699993E0,-3.830499887E0,-2.882400036E0
6.324000000E0,4.054999828E0,-2.936199903E0,-7.105000019E-1
6.344000000E0,3.179600000E0,-2.821199894E0,-4.313499928E0
6.364001562E0,1.781399965E0,-4.149199963E0,-1.095930004E1
6.394000000E0,1.106699944E0,-4.458399773E0,-4.259599686E0
6.414000000E0,4.013999999E-1,-3.576399803E0,-2.043900013E0
6.434001562E0,-2.333000004E-1,-4.705800056E0,-1.306999922E-1
6.464000000E0,-1.165300012E0,-6.690000057E0,3.500000000E0
6.484000000E0,-2.665999889E0,-5.990200043E0,3.269299984E0
6.504001562E0,-4.890599728E0,-4.246599674E0,2.025199890E0
6.534051562E0,-6.072599888E0,-2.762899876E0,4.612999856E-1
6.564000000E0,-5.145599842E0,7.199999876E-3,3.615700006E0
6.584001562E0,-3.877899885E0,1.679399967E0,2.676399946E0
6.614000000E0,-1.591300011E0,2.667199850E0,3.193699837E0
6.634001562E0,-7.507999539E-1,3.004199982E0,6.256399632E0
6.654001562E0,-1.507000029E-1,2.904199839E0,7.507799625E0
6.684000000E0,-4.289999977E-2,2.941099882E0,7.673099995E0
6.704000000E0,-6.419999599E-1,3.706499815E0,7.735799789E0
6.724001562E0,-8.154999614E-1,4.382999897E0,7.612299919E0
6.754000000E0,-3.815999925E-1,5.546799660E0,6.706099987E0
6.774000000E0,-7.639999688E-2,6.123699665E0,5.048799992E0
6.794000000E0,-1.165999994E-1,4.870299816E0,2.376999855E0
6.814000000E0,5.404999852E-1,-1.729999900E0,-9.123700142E0
6.834000000E0,-5.629999936E-2,-8.857199669E0,-2.743389893E1
6.854001562E0,-9.281999469E-1,-1.097319984E1,-9.955900192E0
6.884000000E0,-1.029099941E0,-1.575399995E0,-4.370399952E0
6.904000000E0,-1.557399988E0,5.568999648E-1,-2.922999859E0
6.924000000E0,-5.133100033E0,-3.857800007E0,-5.683499813E0
6.944000000E0,-4.447899818E0,-5.623499870E0,7.694999695E0
6.964000000E0,-5.975999832E0,-1.524799943E0,1.164750004E1
6.984000000E0,-3.300299883E0,5.109200001E0,1.032359982E1
7.004001562E0,-6.815999746E-1,6.799399853E0,6.792999744E0
7.034000000E0,-1.772599936E0,-8.884999752E-1,5.935100079E0
7.054000000E0,-3.827699900E0,-9.406700134E0,6.178799629E0
7.074001562E0,-2.212499857E0,-9.135499954E0,6.279599667E0
7.104000000E0,3.131199837E0,-2.594599962E0,-1.730499983E0
7.124000000E0,2.169100046E0,2.517799854E0,3.865000010E-1
7.144001562E0,6.945999861E-1,1.979200006E0,-2.489999980E-1
7.174000000E0,4.946999848E-1,1.261999965E0,1.132599950E0
7.194000000E0,5.519999936E-2,2.125099897E0,8.555999994E-1
7.214001562E0,-5.210999846E-1,3.214799881E0,-5.257999897E-1
7.234004687E0,-3.642999828E-1,2.739799976E0,-1.839899898E0
7.264000000E0,5.238999724E-1,2.122299910E0,-7.814999819E-1
7.284004687E0,5.439999700E-1,2.443099976E0,3.414999843E-1
7.314000000E0,7.723999619E-1,1.297199965E0,1.231400013E0
7.334003125E0,1.109799981E0,-4.353999794E-1,3.827999830E-1
7.364001562E0,1.192600012E0,-1.541399956E0,-1.860799909E0
7.394000000E0,4.497999847E-1,-2.655400038E0,-1.192990017E1
7.414000000E0,2.797399998E0,-3.385799885E0,-6.060400009E0
7.434003125E0,3.254199982E0,-3.280200005E0,3.143000007E-1
7.464000000E0,2.965099812E0,-3.416800022E0,-2.302999943E-1
7.484001562E0,3.359499931E0,-4.944900036E0,-6.839099884E0
7.504001562E0,2.999199867E0,-5.481100082E0,-1.177379990E1
7.534000000E0,-4.452999830E-1,-3.504199982E0,-3.698499918E0
7.554000000E0,-1.677399993E0,-2.918299913E0,-1.272099972E0
7.574001562E0,-1.508799911E0,-3.809899807E0,2.063099861E0
7.604000000E0,-1.910999894E0,-4.118799686E0,3.806799889E0
7.624000000E0,-3.568199873E0,-3.472100019E0,3.566099882E0
7.644001562E0,-5.653500080E0,-3.199899912E0,1.064999998E-1
7.674001562E0,-4.853300095E0,-2.324199915E0,3.038300037E0
7.704000000E0,-3.178799868E0,5.429999828E-1,2.539799929E0
7.724001562E0,-1.460699916E0,1.566900015E0,1.219200015E0
7.754000000E0,-8.073999882E-1,2.844799995E0,4.694200039E0
7.774000000E0,8.559999615E-2,2.817399979E0,6.692599773E0
7.794001562E0,2.881999910E-1,2.693399906E0,8.129400253E0
7.824000000E0,-6.049999967E-2,2.862999916E0,7.610099792E0
7.844000000E0,-5.911999941E-1,3.664399862E0,7.097099781E0
7.864001562E0,-9.274999499E-1,4.975500107E0,7.069099903E0
7.894000000E0,-7.563999891E-1,6.535299778E0,5.302700043E0
7.914000000E0,2.128999978E-1,5.281300068E0,1.490599990E0
7.934000000E0,1.698899984E0,-2.054399967E0,-1.161740017E1
7.954000000E0,7.580999732E-1,-8.955299377E0,-3.343560028E1
7.974000000E0,-1.224399924E0,-1.009649944E1,-5.370500088E0
7.994000000E0,-1.849299908E0,-4.349899769E0,-3.941699982E0
8.014000000E0,-9.664999843E-1,1.064299941E0,-2.517400026E0
8.034000000E0,-2.811499834E0,1.361799955E0,-2.280799866E0
8.054000000E0,-1.945499897E0,-4.666599751E0,1.089299917E0
8.074000000E0,-3.628399849E0,-4.010900021E0,9.566699982E0
8.094000000E0,-5.895400047E0,4.632999897E-1,4.940499783E0
8.114000000E0,-2.170300007E0,5.581399918E0,9.556799889E0
8.134000000E0,-1.540499926E0,5.111999989E0,9.274199486E0
8.154000000E0,-3.584599972E0,-2.564699888E0,6.368999958E0
8.174000000E0,-3.964099884E0,-9.739899635E0,4.990399837E0
8.194000000E0,-7.706999779E-1,-8.515199661E0,8.699999750E-2
8.214000000E0,-4.113999903E-1,-3.633699894E0,4.135999680E0
8.234000000E0,1.360199928E0,-8.454999924E-1,7.213099957E0
8.254000000E0,3.021299839E0,1.312099934E0,2.895799875E0
8.274000000E0,1.291999936E0,1.983199954E0,-8.361999989E-1
8.294000000E0,5.454999804E-1,7.831000090E-1,1.740799904E0
8.314000000E0,6.764999628E-1,5.084999800E-1,1.761699915E0
8.334000000E0,-4.939999804E-2,2.226599932E0,-8.524999619E-1
8.354000000E0,1.429999992E-2,2.553099871E0,-3.086899996E0
8.374000000E0,7.890999913E-1,2.088700056E0,-2.874699831E0
8.394000000E0,1.034600019E0,1.828199983E0,-1.380100012E0
8.414000000E0,9.006999731E-1,2.335700035E0,2.554000020E-1
8.434000000E0,9.186999798E-1,2.262799978E0,9.536999464E-1
8.454000000E0,7.540000081E-1,7.904999852E-1,1.775999904E0
8.474001562E0,9.555999637E-1,-7.671999931E-1,3.482999802E-1
8.494001562E0,1.215499997E0,-1.595399976E0,-1.493399978E0
8.524000000E0,1.207099915E0,-2.525499821E0,-1.323040009E1
8.544001562E0,2.627599955E0,-3.804199934E0,-7.587299824E0
8.574001562E0,3.420199871E0,-3.096799850E0,1.237999946E-1
8.594003125E0,3.632200003E0,-2.826499939E0,-1.150699973E0
8.624000000E0,5.193099976E0,-5.457900047E0,-9.931900024E0
8.644001562E0,3.123600006E0,-4.648099899E0,-5.413300037E0
8.674000000E0,1.386999935E-1,-3.583699942E0,1.598999947E-1
8.694000000E0,-5.029999837E-2,-5.119899750E0,2.587199926E0
8.714001562E0,-1.371899962E0,-6.546199799E0,2.953799963E0
8.744000000E0,-3.646499872E0,-5.333999634E0,3.506899834E0
8.764000000E0,-3.423599958E0,-3.712599993E0,3.479199886E0
8.784001562E0,-6.897799969E0,-2.043099880E0,-1.140999943E-1
8.804001562E0,-5.654599667E0,-6.653000116E-1,1.692299962E0
8.834000000E0,-3.586199999E0,1.819799900E0,4.126899719E0
8.854000000E0,-2.182100058E0,2.964399815E0,3.602899790E0
8.874000000E0,-9.502999783E-1,3.633799791E0,3.683799982E0
8.894000000E0,-2.466999888E-1,3.909799814E0,4.963399887E0
8.914000000E0,-8.190000057E-2,3.718299866E0,6.707900047E0
8.934001562E0,-3.538999856E-1,3.482899904E0,8.145699501E0
8.964000000E0,-7.691999674E-1,3.194399834E0,7.028999805E0
8.984000000E0,-8.675000072E-1,3.586299896E0,7.209300041E0
9.004000000E0,-8.152999878E-1,4.572099686E0,7.196899891E0
9.024000000E0,-6.503999829E-1,5.305799961E0,5.879299641E0
9.044000000E0,-8.500000089E-2,3.932199955E0,2.599299908E0
9.064000000E0,1.160799980E0,-3.934499979E0,-1.198149967E1
9.084001562E0,2.088999897E-1,-9.310599327E0,-3.178899956E1
9.114000000E0,-9.255999923E-1,-6.671099663E0,-2.902400017E0
9.134000000E0,-4.494999945E-1,-3.740999997E-1,-5.232599735E0
9.154000000E0,4.120000005E-1,3.370399952E0,-1.197199941E0
9.174000000E0,-1.784999967E0,1.002599955E0,-2.377199888E0
9.194000000E0,-3.260200024E0,-4.321799755E0,9.298199654E0
9.214001562E0,-6.850499630E0,-7.252199650E0,1.852599978E0
9.234001562E0,-6.380399704E0,4.993999898E-1,6.315499783E0
9.264000000E0,-2.087399960E0,4.870699883E0,9.824500084E0
9.284001562E0,-3.357299805E0,-3.744999766E-1,8.311999321E0
9.304001562E0,-3.773799896E0,-7.619699955E0,5.083399773E0
9.334000000E0,-9.868999720E-1,-5.680299759E0,4.574800014E0
9.354000000E0,6.908999681E-1,-2.049399853E0,4.574399948E0
9.374000000E0,1.748199940E0,5.931000113E-1,2.849200010E0
9.394000000E0,3.256699800E0,3.668299913E0,-2.842200041E0
9.414000000E0,1.846799970E0,2.342200041E0,3.847000003E-1
9.434000000E0,1.409299970E0,-5.651000142E-1,2.515999973E-1
9.454000000E0,1.077399969E0,8.423999548E-1,-3.700000048E-2
9.474000000E0,7.890999913E-1,2.934599876E0,-1.286000013E-1
9.494000000E0,6.269999743E-1,3.232199907E0,2.895999849E-1
9.514000000E0,8.823999763E-1,2.942099810E0,4.414999783E-1
9.534000000E0,7.942999601E-1,2.502300024E0,4.835999906E-1
9.554000000E0,4.712999761E-1,2.413999885E-1,-1.552999914E-1
9.574001562E0,3.601999879E-1,-1.730499983E0,-2.431099892E0
9.604000000E0,1.082700014E0,-1.242399931E0,-6.871500015E0
9.624001562E0,2.105900049E0,-1.720399976E0,-1.090749931E1
9.644001562E0,3.080399990E0,-3.194599867E0,-5.207999706E0
9.674000000E0,4.201600075E0,-3.511999846E0,-1.555099964E0
9.694000000E0,4.844599724E0,-3.190599918E0,-6.704899788E0
9.714001562E0,4.085499763E0,-4.281199932E0,-1.084639931E1
9.744000000E0,1.191999912E0,-3.998999834E0,-2.993000031E0
9.764000000E0,5.254999995E-1,-4.476999760E0,5.906000137E-1
9.784001562E0,1.458999962E-1,-6.825899601E0,3.586299896E0
9.814000000E0,-2.506700039E0,-8.170599937E0,3.233399868E0
9.834000000E0,-3.369199991E0,-6.825699806E0,3.355499983E0
9.854000000E0,-3.810999870E0,-4.792500019E0,3.517799854E0
9.874000000E0,-7.831499577E0,-2.241400003E0,9.772999883E-1
9.894000000E0,-7.342299938E0,-3.173999786E-1,1.626099944E0
9.914000000E0,-4.765699863E0,1.384099960E0,1.657199979E0
9.934001562E0,-3.397300005E0,2.757999897E0,1.896899939E0
9.964000000E0,-9.023999572E-1,4.105299950E0,5.519499779E0
9.984000000E0,5.080000162E-1,4.032299995E0,6.994699955E0
1.000400156E1,9.848999977E-1,3.412299871E0,6.611499786E0
1.003400000E1,-5.411999822E-1,3.555999994E0,7.400099754E0
1.005400000E1,-9.960999489E-1,3.968899965E0,7.662399769E0
1.007400000E1,-8.528999686E-1,4.447099686E0,6.789099693E0
1.009400000E1,-8.443999887E-1,5.188399792E0,6.312599659E0
1.011400000E1,-1.391099930E0,5.806299686E0,6.609299660E0
1.013400000E1,-1.453499913E0,4.735799789E0,2.651000023E0
1.015400000E1,-3.601000011E-1,-3.020599842E0,-9.114199638E0
1.017400000E1,6.018999815E-1,-8.327799797E0,-3.174020004E1
1.019400000E1,9.709999561E-1,-1.034490013E1,-1.016969967E1
1.021400000E1,-8.720000088E-2,-4.394799709E0,-3.324999809E0
1.023400000E1,7.960999608E-1,9.291999936E-1,-3.975499868E0
1.025400000E1,9.839999676E-2,1.331399918E0,-6.037699699E0
1.027400000E1,-2.459499836E0,-2.970099926E0,5.612599850E0
1.029400000E1,-7.430199623E0,-3.805099964E0,1.430849934E1
1.031400000E1,-6.944699764E0,-3.351699829E0,2.483999968E0
1.033400000E1,-4.407999992E0,3.156299829E0,6.973399639E0
1.035400000E1,-3.030999899E0,8.158999681E-1,6.852599621E0
1.037400000E1,-3.932299852E0,-4.560199738E0,7.383399963E0
1.039400000E1,-3.243099928E0,-6.233399868E0,8.288999557E0
1.041400000E1,-8.601999879E-1,-5.520199776E0,7.520599842E0
1.043400000E1,3.310000002E-1,-3.450199842E0,5.895499706E0
1.045400000E1,8.294000030E-1,-8.851000071E-1,4.069299698E0
1.047400000E1,2.851999998E0,3.233500004E0,-8.239299774E0
1.049400000E1,9.577999711E-1,3.369299889E0,-3.000200033E0
1.051400000E1,4.653999805E-1,4.097999930E-1,-8.339999616E-2
1.053400000E1,6.169999838E-1,4.550999999E-1,1.252000034E-1
1.055400000E1,3.252999783E-1,3.114899874E0,1.256999969E-1
1.057400000E1,2.588999867E-1,4.439199924E0,2.965999842E-1
1.059400156E1,2.863999903E-1,4.487400055E0,2.254000008E-1
1.062400000E1,1.039999947E-1,2.188299894E0,4.825999737E-1
1.064400000E1,-3.790000081E-2,-9.453999996E-1,-3.209999800E-1
1.066400000E1,6.234999895E-1,-2.772799969E0,-2.213500023E0
1.068400000E1,1.396199942E0,-1.676699996E0,-4.498699665E0
1.070400000E1,1.587700009E0,-1.668499947E0,-9.052199364E0
1.072400156E1,3.221999884E0,-3.559299946E0,-6.027999878E0
1.075400000E1,4.216799736E0,-3.212999821E0,3.969999775E-2
1.077400000E1,4.220699787E0,-2.473899841E0,-1.897300005E0
1.079400156E1,3.295300007E0,-3.643800020E0,-9.324600220E0
1.082400000E1,1.865099907E0,-5.098099709E0,-5.910299778E0
1.084400000E1,6.286999583E-1,-3.909399986E0,-1.909199953E0
1.086400000E1,2.806999981E-1,-3.857800007E0,1.428399920E0
1.088400000E1,9.139999747E-2,-5.483200073E0,3.212599993E0
1.090400000E1,-1.664499998E0,-6.589499950E0,2.989399910E0
1.092400000E1,-3.516499996E0,-5.898999691E0,2.785300016E0
1.094400000E1,-7.528699875E0,-4.434799671E0,-1.548999995E-1
1.096400000E1,-7.666299820E0,-2.434299946E0,8.348000050E-1
1.098400000E1,-5.534100056E0,-3.131999969E-1,2.009999990E0
1.100400156E1,-3.283699989E0,8.915999532E-1,1.793900013E0
1.103400000E1,-7.206999660E-1,1.936699986E0,1.986099958E0
1.105400000E1,-4.921999872E-1,2.797799826E0,4.966099739E0
1.107400156E1,2.076999992E-1,2.995399952E0,7.536799908E0
1.110400000E1,-2.211999893E-1,2.751799822E0,6.694599628E0
1.112400000E1,-1.032599926E0,3.254499912E0,6.539799690E0
1.114400156E1,-1.296599984E0,3.610699892E0,7.190099716E0
1.117400000E1,-1.438199997E0,4.204299927E0,6.867599964E0
1.119400000E1,-1.531499982E0,5.288799763E0,6.397799969E0
1.121400156E1,-1.928999901E0,5.868099689E0,5.627299786E0
1.123400156E1,-1.173099995E0,3.817299843E0,1.861099958E0
1.126400000E1,-6.286999583E-1,-5.359200001E0,-1.534789944E1
1.128400000E1,-1.908999979E-1,-1.051229954E1,-2.699930000E1
1.130400000E1,1.286299944E0,-7.977499962E0,-5.171099663E0
1.132400000E1,1.177099943E0,-2.742399931E0,-3.810599804E0
1.134400000E1,7.403999567E-1,6.809999794E-2,-3.146999836E0
1.136400156E1,-2.210700035E0,-3.795099974E0,-4.850800037E0
1.139400000E1,-7.057899952E0,-2.421000004E0,1.466339970E1
1.141400000E1,-6.410500050E0,1.647099972E0,7.337699890E0
1.143400000E1,-4.653500080E0,5.636499882E0,4.791999817E0
1.145400000E1,-3.842099905E0,3.155999899E0,5.717799664E0
1.147400000E1,-4.883800030E0,-3.126999855E0,5.857699871E0
1.149400000E1,-3.929499865E0,-6.624700069E0,6.064899921E0
1.151400000E1,-2.171700001E0,-4.579099655E0,5.799799919E0
1.153400000E1,-5.518999696E-1,-2.185199976E0,5.457099915E0
1.155400000E1,1.257900000E0,-2.352999896E-1,6.469799995E0
1.157400156E1,4.932799816E0,1.957999945E0,-8.829999924E0
1.159400156E1,2.345799923E0,1.319599986E0,-2.619699955E0
1.162400000E1,1.323599935E0,9.580999613E-1,1.235800028E0
1.164400156E1,6.987999678E-1,2.666199923E0,9.067999721E-1
1.166400625E1,1.745999902E-1,3.029399872E0,2.696000040E-1
1.169400000E1,-4.606999755E-1,2.332000017E0,-5.931999683E-1
1.171400469E1,-5.654000044E-1,1.619899988E0,-8.973000050E-1
1.174400000E1,-5.505999923E-1,9.179999679E-2,-1.506999969E0
1.176400625E1,-1.230999976E-1,-9.415999651E-1,-1.983899951E0
1.179400156E1,1.691000015E-1,-1.115800023E0,-3.069799900E0
1.182400000E1,1.947099924E0,-1.441399932E0,-6.661900043E0
1.184400000E1,3.911299944E0,-3.123699903E0,-5.522500038E0
1.186400156E1,4.352600098E0,-3.564999819E0,-1.947099924E0
1.189400000E1,4.089200020E0,-2.326799870E0,-2.974999905E0
1.191400000E1,3.319099903E0,-3.414299965E0,-8.065099716E0
1.193400156E1,1.714199901E0,-4.298599720E0,-6.858500004E0
1.196400000E1,-9.073999524E-1,-3.722699881E0,-1.836199999E0
1.198400000E1,-2.275599957E0,-4.461199760E0,1.710999906E-1
1.200400156E1,-2.098999977E0,-6.254799843E0,1.923900008E0
1.203400000E1,-4.398099899E0,-6.621199608E0,2.920300007E0
1.205400000E1,-7.610999584E0,-4.101900101E0,2.551800013E0
1.207400156E1,-1.074319935E1,-1.343500018E0,1.098299980E0
1.210400156E1,-5.846299648E0,-2.404999882E-1,1.883499980E0
1.213400156E1,-3.182499886E0,1.452099919E0,2.419199944E0
1.215400156E1,-2.167099953E0,2.485800028E0,2.499300003E0
1.218400000E1,-1.550799966E0,3.504599810E0,4.811399937E0
1.220401094E1,-1.935999990E-1,3.280499935E0,7.903699875E0
1.223400156E1,1.073400021E0,2.937000036E0,6.274999619E0
1.225400156E1,7.698000073E-1,3.087100029E0,6.367799759E0
1.228400000E1,6.572999954E-1,4.431200027E0,6.030399799E0
1.230400000E1,4.445999861E-1,5.491899967E0,5.953199863E0
1.232400000E1,6.638000011E-1,5.339900017E0,4.371200085E0
1.234400000E1,1.093400002E0,3.092999935E0,-1.230099916E0
1.236400156E1,5.047999620E-1,-2.585799932E0,-1.427259922E1
1.239400000E1,-1.049700022E0,-9.150499344E0,-1.454439926E1
1.241400000E1,-2.909699917E0,-6.208199978E0,-4.852200031E0
1.243400156E1,-2.776299953E0,-9.049999714E-2,-5.292599678E0
1.246400000E1,-8.150699615E0,-1.987499952E0,-3.192399979E0
1.248400000E1,-9.102000237E0,-5.695699692E0,8.586400032E0
1.250400156E1,-6.287399769E0,-3.402799845E0,8.109000206E0
1.253400000E1,-2.142600060E0,6.292399883E0,8.920700073E0
1.255400000E1,-1.291899920E0,6.038499832E0,8.119799614E0
1.257400156E1,-3.029899836E0,-1.789999902E-1,5.176300049E0
1.260400000E1,-2.916699886E0,-1.129589939E1,4.631999969E0
1.262400000E1,-9.903999567E-1,-7.628199577E0,2.770299911E0
1.264400156E1,9.909999967E-1,-2.911199808E0,3.812399864E0
1.266400156E1,2.438599825E0,7.430999875E-1,4.192899704E0
1.269400000E1,4.209799767E0,3.413699865E0,-2.465899944E0
1.271400156E1,2.233799934E0,2.378900051E0,-9.274999499E-1
1.274400156E1,1.061800003E0,8.629999757E-1,6.247999668E-1
1.277400000E1,4.292999804E-1,1.589499950E0,-1.394199967E0
1.279400156E1,5.407999754E-1,1.979699969E0,-1.447899938E0
1.282400000E1,4.892999828E-1,2.071199894E0,-2.372999936E-1
1.284400000E1,-1.379999984E-2,1.613699913E0,2.373999953E-1
1.286400156E1,-3.163999915E-1,8.349999785E-2,-1.870999932E-1
1.289400000E1,-6.273999810E-1,-4.003999829E-1,-2.538800001E0
1.291400000E1,-1.293999910E0,-1.127399921E0,-7.147999763E0
1.293400156E1,4.589999840E-2,-3.297499895E0,-1.492819977E1
1.296400000E1,3.065299988E0,-3.135299921E0,-1.149899960E0
1.298400000E1,3.068899870E0,-2.221799850E0,6.909999847E-1
1.300400156E1,3.409600019E0,-1.909500003E0,-2.661200047E0
1.303400000E1,2.940899849E0,-4.964099884E0,-1.225780010E1
1.305400000E1,4.429999739E-2,-4.310400009E0,-3.979199886E0
1.307400156E1,-5.336999893E-1,-4.334199905E0,1.250299931E0
1.310400000E1,-2.099900007E0,-7.641499996E0,2.797199965E0
1.312400000E1,-3.582899809E0,-8.465000153E0,2.502399921E0
1.314400156E1,-4.933199883E0,-6.261799812E0,2.022799969E0
1.317400000E1,-8.342999458E0,-1.675699949E0,1.002999991E-1
1.319400000E1,-6.693500042E0,1.687999964E-1,1.975399971E0
1.321400156E1,-4.321399689E0,1.244899988E0,2.326999903E0
1.323400156E1,-2.172499895E0,1.789299965E0,1.732800007E0
1.326400000E1,-1.192899942E0,2.991400003E0,2.884699821E0
1.328400000E1,-8.538999557E-1,3.500399828E0,6.566999912E0
1.330400156E1,-3.464999795E-1,3.722399950E0,7.445799828E0
1.333400000E1,-6.071999669E-1,3.698599815E0,7.212999821E0
1.335400000E1,-9.199000001E-1,4.114500046E0,6.357299805E0
1.337400156E1,-9.932999611E-1,4.454499722E0,6.389199734E0
1.340400000E1,-6.680999994E-1,4.994699955E0,5.597099781E0
1.342400000E1,-5.174999833E-1,4.932600021E0,3.177199841E0
1.344400156E1,1.115999967E-1,2.400099993E0,-3.492199898E0
1.347400000E1,1.074599981E0,-5.089200020E0,-2.387709999E1
1.349400000E1,1.195899963E0,-9.743000031E0,-1.221469975E1
1.351400156E1,-9.082999825E-1,-5.340199947E0,-3.297399998E0
1.354400000E1,-1.854799986E0,3.408099890E0,-3.071699858E0
1.356400000E1,-5.949800014E0,5.185699940E0,-1.949699998E0
1.358400000E1,-7.671899796E0,5.191999674E-1,1.011699963E1
1.360400000E1,-9.779500008E0,-9.442500114E0,6.971799850E0
1.362400000E1,-9.836999893E0,-7.528499603E0,2.408200026E0
1.364400156E1,-4.437599659E0,2.008300066E0,8.278399467E0
1.367400000E1,-1.290899992E0,2.046099901E0,6.947499752E0
1.369400000E1,-1.584199905E0,-1.577799916E0,6.777799606E0
1.371400000E1,-1.954999924E0,-4.322799683E0,6.476099968E0
1.373400000E1,-4.267999828E-1,-4.720799923E0,4.981599808E0
1.375400000E1,1.345299959E0,-2.753499985E0,3.948599815E0
1.377400000E1,1.725099921E0,4.966000021E-1,3.036999941E0
1.379400000E1,2.206500053E0,2.736899853E0,2.231299877E0
1.381400000E1,3.939299822E0,5.297699928E0,-1.186870003E1
1.383400000E1,2.206300020E0,1.166700006E0,-3.990099907E0
1.385400000E1,1.092899919E0,1.436000019E-1,-8.152999878E-1
1.387400000E1,-1.333999932E-1,2.048899889E0,-2.727999985E-1
1.389400000E1,-2.818999887E-1,2.916100025E0,8.879999816E-2
1.391400156E1,-2.500000000E-1,2.353699923E0,5.080999732E-1
1.393400156E1,-4.447999895E-1,2.829999849E-2,-1.235999987E-1
1.396400000E1,6.658999920E-1,-2.379600048E0,-2.915299892E0
1.398400000E1,1.238499999E0,-1.100899935E0,-4.877599716E0
1.400400156E1,7.432999611E-1,-7.872999907E-1,-8.734600067E0
1.403400000E1,2.211299896E0,-3.439100027E0,-5.081799984E0
1.405400000E1,3.624699831E0,-3.147399902E0,-6.189000010E-1
1.407400156E1,3.661899805E0,-2.134899855E0,-1.058099985E0
1.410400000E1,2.003200054E0,-2.878199816E0,-8.732500076E0
1.412400000E1,8.851000071E-1,-4.611599922E0,-1.006409931E1
1.414400156E1,-3.306999803E-1,-4.689099789E0,-5.638799667E0
1.416400156E1,-1.761699915E0,-3.717000008E0,-3.767199993E0
1.419400000E1,-2.060199976E0,-5.520999908E0,1.113699913E0
1.421400000E1,-2.317499876E0,-7.209899902E0,2.525399923E0
1.423400156E1,-4.113999844E0,-7.035599709E0,2.700700045E0
1.426400156E1,-8.977299690E0,-3.450500011E0,-1.436399937E0
1.429400156E1,-6.188399792E0,-9.100999832E-1,1.583099961E0
1.432400000E1,-2.262699842E0,1.614099979E0,1.942999959E0
1.434400000E1,-1.214499950E0,2.596400023E0,7.594000101E-1
1.436400156E1,-8.872999549E-1,3.234299898E0,3.813699961E0
1.439400000E1,2.645999789E-1,3.525300026E0,7.737699986E0
1.441400000E1,-1.943999976E-1,3.259399891E0,6.741399765E0
1.443400156E1,-9.863999486E-1,3.932199955E0,6.819699764E0
1.446400000E1,-8.341999650E-1,4.750499725E0,6.674299717E0
1.448400000E1,-7.707999945E-1,5.386099815E0,6.389800072E0
1.450400156E1,-5.559999943E-1,5.916899681E0,4.399399757E0
1.453400000E1,-9.939999878E-2,3.683699846E0,-2.322099924E0
1.455400000E1,7.217999697E-1,-1.031099916E0,-1.410229969E1
1.457400156E1,1.299999952E0,-5.812500000E0,-2.288369942E1
1.459400156E1,1.900699973E0,-8.699699402E0,-7.347899914E0
1.462400156E1,7.245000005E-1,-1.728099942E0,-4.582200050E0
1.464400156E1,-2.874099970E0,2.621999979E-1,-4.369499683E0
1.466400156E1,-8.270699501E0,-8.980000019E-1,2.598500013E0
1.469400000E1,-1.744529915E1,-6.204199791E0,-3.781699896E0
1.471400000E1,-1.010050011E1,-5.145999789E-1,6.938599586E0
1.473400156E1,-3.355399847E0,4.440000057E0,8.962200165E0
1.476400156E1,-1.662899971E0,-1.074499965E0,6.755399704E0
1.479400156E1,-3.222399950E0,-6.546099663E0,6.341499805E0
1.482400000E1,8.718000054E-1,-5.682099819E0,5.176799774E0
1.484400000E1,3.347999811E0,-2.671799898E0,4.993700027E0
1.486400156E1,3.813499928E0,7.095999718E-1,4.565199852E0
1.489400000E1,2.806699991E0,2.944499969E0,2.231899977E0
1.491400000E1,4.370100021E0,3.659600019E0,-1.155079937E1
1.493400156E1,2.749799967E0,1.899999939E-2,-4.475100040E0
1.496400000E1,8.503999710E-1,1.419799924E0,-2.194299936E0
1.498400000E1,4.046999812E-1,2.843899965E0,-1.872999907E0
1.500400156E1,7.071999907E-1,2.859599829E0,-1.226599932E0
1.503400000E1,1.059999987E-1,5.397999883E-1,-1.038100004E0
1.505400000E1,-4.790000021E-1,-1.692699909E0,-3.150499821E0
1.507400156E1,-3.000000026E-3,-9.391999841E-1,-6.080800056E0
1.510400000E1,2.782399893E0,-7.322999835E-1,-1.939000010E0
1.512400000E1,3.876599789E0,-3.121299982E0,-9.238999486E-1
1.514400156E1,4.189899921E0,-4.371099949E0,-3.845299959E0
1.516400156E1,3.443799973E0,-3.641999960E0,-6.317299843E0
1.519400000E1,3.005599976E0,-5.127199650E0,-6.391999722E0
1.521400000E1,4.543999672E0,-6.361199856E0,-3.320099831E0
1.523400156E1,4.012599945E0,-5.179299831E0,-2.645400047E0
1.526400000E1,-1.819000006E0,-2.536000013E0,-1.306799984E1
1.528400000E1,-2.432100058E0,-4.216399670E0,-4.010099888E0
1.530400156E1,-8.511999846E-1,-4.012700081E0,3.521699905E0
1.533400000E1,-1.850199938E0,-5.021199703E0,4.087500095E0
1.535400000E1,-2.336899996E0,-4.558300018E0,4.168699741E0
1.537400156E1,-2.433899879E0,-4.089900017E0,4.045099735E0
1.540400156E1,-2.977799892E0,-3.284399986E0,-6.166999936E-1
1.543400156E1,-2.197000027E0,2.050999880E0,1.347199917E0
1.545400156E1,-7.199999690E-1,3.484299898E0,1.425899982E0
1.547400156E1,6.227999926E-1,3.312299967E0,4.505300045E0
1.550400000E1,1.041100025E0,2.997699976E0,7.539399624E0
1.552400000E1,-6.306999922E-1,3.260399818E0,6.973799706E0
1.554400000E1,-1.925099969E0,4.105199814E0,7.055899620E0
1.556400156E1,-2.344799995E0,5.168399811E0,7.003900051E0
1.559400156E1,-2.736099958E0,6.723000050E0,6.866899967E0
1.562400000E1,-1.803799987E0,7.788300037E0,3.509199858E0
1.564400156E1,-6.049999595E-1,4.605599880E0,-2.882999897E0
1.566400156E1,1.339499950E0,-3.811100006E0,-1.982239914E1
1.569400000E1,4.113699913E0,-1.241939926E1,-1.100249958E1
1.571400000E1,2.358599901E0,-4.476200104E0,-3.880100012E0
1.573400156E1,2.134000063E0,-2.145999968E-1,-7.266299725E0
1.576400000E1,-3.765699863E0,-5.268300056E0,2.415699959E0
1.578400000E1,-8.506699562E0,-3.945999861E0,1.484359932E1
1.580400000E1,-8.612199783E0,8.040999770E-1,7.898299694E0
1.582400000E1,-4.778399944E0,6.072399616E0,4.948199749E0
1.584400000E1,-2.685600042E0,3.579499960E0,7.279599667E0
1.586400000E1,-4.247299671E0,-4.417099953E0,7.393699646E0
1.588400000E1,-4.152599812E0,-8.946899414E0,7.565499783E0
1.590400000E1,-1.742599964E0,-7.204799652E0,6.343599796E0
1.592400000E1,1.141999960E-1,-3.830299854E0,4.324199677E0
1.594400625E1,4.291599751E0,1.557099938E0,-7.529699802E0
1.597400000E1,1.975999951E0,1.166399956E0,9.799999744E-2
1.599400781E1,1.221400023E0,5.227999687E-1,-3.698999882E-1
1.602400000E1,4.572999775E-1,3.276999950E0,-9.583999515E-1
1.604400781E1,2.179999948E-1,3.381599903E0,-2.482399940E0
1.607400156E1,8.197999597E-1,2.546700001E0,-1.404299974E0
1.609400625E1,1.088400006E0,2.754799843E0,-2.361999899E-1
1.612400000E1,9.950999618E-1,1.611299992E0,4.057999849E-1
1.614400938E1,9.124999642E-1,-4.089999795E-1,-8.364999890E-1
1.617400000E1,1.539899945E0,-7.874000072E-1,-3.988099813E0
1.619400313E1,1.759499907E0,-1.776799917E0,-7.562999725E0
1.622400156E1,3.478199959E0,-3.541999817E0,-6.679399967E0
1.624400625E1,4.301199913E0,-3.296099901E0,-1.778100014E0
1.627400000E1,4.470699787E0,-3.288899899E0,-2.985899925E0
1.629400625E1,4.887300014E0,-5.112799644E0,-7.392999649E0
1.632400156E1,2.504199982E0,-4.872900009E0,-5.372799873E0
1.634400156E1,-4.348999858E-1,-3.446399927E0,-5.973199844E0
1.636400156E1,-4.939000010E-1,-4.714699745E0,-3.579999879E-2
1.639400156E1,-9.706999660E-1,-6.026499748E0,2.809099913E0
1.641400156E1,-2.310499907E0,-5.598999977E0,2.624899864E0
1.643400156E1,-2.689199924E0,-4.114599705E0,2.503099918E0
1.645400156E1,-4.881199837E0,-3.244299889E0,-6.428999901E-1
1.647400156E1,-4.985099792E0,-2.657999992E0,8.939999938E-1
1.650400156E1,-3.373099804E0,7.784999609E-1,2.873800039E0
1.653400156E1,-1.066100001E0,2.639099836E0,1.866599917E0
1.656400000E1,-1.802999973E-1,3.682399988E0,4.289199829E0
1.658400000E1,3.858000040E-1,3.467199802E0,6.850100040E0
1.660400000E1,3.786000013E-1,2.980199814E0,7.377499580E0
1.662400156E1,-6.516000032E-1,2.939999819E0,6.988999844E0
1.664400156E1,-1.443300009E0,3.397300005E0,6.254999638E0
1.667400000E1,-1.874399900E0,5.192499638E0,6.376399994E0
1.669400000E1,-1.797199965E0,6.600100040E0,6.162299633E0
1.671400000E1,-1.136600018E0,6.825399876E0,3.687199831E0
1.673400000E1,8.579999804E-1,1.224499941E0,-3.305899858E0
1.675400000E1,2.229500055E0,-6.587199688E0,-2.557709885E1
1.677400000E1,2.078199863E0,-1.092479992E1,-1.720730019E1
1.679400156E1,1.492200017E0,-6.381499767E0,-4.426499844E0
1.681400156E1,8.134999871E-1,-8.678999543E-1,-4.673899651E0
1.684400000E1,-3.488999844E0,-2.236999989E0,-5.816099644E0
1.686400156E1,-4.633100033E0,-4.323699951E0,7.784699917E0
1.689400156E1,-7.808099747E0,-2.536000013E-1,6.043600082E0
1.691400156E1,-3.495399952E0,4.662199974E0,7.291899681E0
1.693400156E1,-1.883399963E0,3.854399920E0,6.299999714E0
1.696400000E1,-2.657699823E0,-4.676300049E0,6.689199924E0
1.698400000E1,-2.705699921E0,-6.611099720E0,5.886499882E0
1.700400156E1,-7.404999733E-1,-5.202399731E0,4.835099697E0
1.702400156E1,2.803200006E0,-2.313799858E0,-6.581000090E-1
1.705400156E1,2.983000040E0,3.039299965E0,-9.300000034E-3
1.707400156E1,1.910299897E0,1.203799963E0,-1.369099975E0
1.709400156E1,1.922399998E0,1.872999966E-1,6.110999584E-1
1.712400000E1,9.386999607E-1,2.660399914E0,4.869999737E-2
1.714400000E1,5.359999835E-2,3.520499945E0,-2.288800001E0
1.716400000E1,5.873000026E-1,2.375399828E0,-2.885699987E0
1.718400000E1,7.550999522E-1,1.884199977E0,-1.815899968E0
1.720400938E1,6.926000118E-1,1.658899903E0,-4.332000017E-1
1.723400156E1,6.654999852E-1,4.335999787E-1,4.299999774E-1
1.726400000E1,1.205600023E0,-1.066200018E0,-8.750000000E-1
1.728400000E1,1.238399982E0,-1.171999931E0,-2.311800003E0
1.730400156E1,8.518999815E-1,-2.299499989E0,-5.847399712E0
1.733400000E1,2.673599958E0,-3.363799810E0,-1.039050007E1
1.735400000E1,3.730399847E0,-3.669199944E0,-2.678900003E0
1.737400000E1,3.528399944E0,-3.032699823E0,-4.025999904E-1
1.739400000E1,3.387199879E0,-3.514699936E0,-4.350100040E0
1.741400000E1,3.683300018E0,-5.043999672E0,-1.082159996E1
1.743400156E1,2.179699898E0,-4.348700047E0,-7.059199810E0
1.746400000E1,9.049999714E-1,-3.564699888E0,1.007499933E0
1.748400000E1,6.827999949E-1,-4.399600029E0,2.827999830E0
1.750400156E1,-2.329999954E-1,-5.809000015E0,2.995399952E0
1.753400000E1,-2.231899977E0,-4.843800068E0,2.599900007E0
1.755400000E1,-2.788800001E0,-3.432099819E0,1.514199972E0
1.757400000E1,-3.936599970E0,-3.185799837E0,-1.661099911E0
1.759400000E1,-3.515100002E0,-1.694999933E0,2.343400002E0
1.761400000E1,-2.963399887E0,7.786999941E-1,4.582900047E0
1.763400000E1,-1.160300016E0,2.346699953E0,2.287699938E0
1.765400156E1,-2.854000032E-1,3.454900026E0,2.755800009E0
1.767400156E1,3.840999901E-1,3.711599827E0,6.254099846E0
1.770400000E1,6.086999774E-1,2.989799976E0,7.639199734E0
1.772400156E1,-5.029999614E-1,2.998899937E0,6.997599602E0
1.774400156E1,-1.330099940E0,3.222899914E0,6.556399822E0
1.777400000E1,-2.071799994E0,4.003900051E0,6.212499619E0
1.779400156E1,-2.665499926E0,5.333699703E0,6.665499687E0
1.782400000E1,-3.048599958E0,6.678400040E0,2.049099922E0
1.784400000E1,-1.425300002E0,1.079399943E0,-4.925699711E0
1.786400156E1,2.145400047E0,-7.255300045E0,-1.989299965E1
1.789400000E1,1.433300018E0,-8.250499725E0,-9.356599808E0
1.791400000E1,1.439099908E0,-3.872399807E0,-6.564799786E0
1.793400156E1,2.537400007E0,-2.337999940E-1,-3.425699949E0
1.796400000E1,-7.480999827E-1,-9.591999650E-1,-3.426699877E0
1.798400000E1,-3.608699799E0,-2.199100018E0,1.128839970E1
1.800400000E1,-7.062199593E0,-3.892799854E0,8.165999413E0
1.802400000E1,-7.233599663E0,1.941499949E0,1.905299902E0
1.804400000E1,-3.302799940E0,4.540699959E0,6.508699894E0
1.806400000E1,-2.587899923E0,2.354500055E0,6.349400043E0
1.808400000E1,-3.227299929E0,-2.859299898E0,6.639400005E0
1.810400000E1,-2.601300001E0,-5.097799778E0,5.403800011E0
1.812400000E1,-1.239699960E0,-4.791899681E0,4.858999729E0
1.814400000E1,3.886999786E-1,-2.918900013E0,3.952799797E0
1.816400156E1,3.290400028E0,-2.246999890E-1,-3.577499866E0
1.819400156E1,1.786599994E0,1.508799911E0,-1.429600000E0
1.822400156E1,1.492699981E0,-1.224999949E-1,7.951999903E-1
1.824400156E1,6.068999767E-1,2.224299908E0,-2.911999822E-1
1.827400000E1,-4.795999825E-1,3.598299980E0,-2.098500013E0
1.829400156E1,-6.390000135E-2,2.832499981E0,-2.188299894E0
1.832400000E1,2.955999970E-1,2.031499863E0,-1.063499928E0
1.834400000E1,2.092999965E-1,1.143999934E0,3.260000050E-2
1.836400156E1,5.329999924E-1,-3.267000020E-1,1.633999944E-1
1.839400000E1,1.689899921E0,-9.028999805E-1,-1.528599977E0
1.841400000E1,2.404799938E0,-1.470399976E0,-4.465499878E0
1.843400156E1,3.060400009E0,-3.531199932E0,-1.049310017E1
1.846400000E1,3.811899900E0,-3.794699907E0,-3.956799984E0
1.848400000E1,3.394299984E0,-2.987999916E0,-7.142999768E-1
1.850400156E1,2.467599869E0,-3.087699890E0,-2.685299873E0
1.853400000E1,2.367300034E0,-5.058599949E0,-1.009009933E1
1.855400000E1,1.157199979E0,-4.899699688E0,-6.405799866E0
1.857400156E1,-3.885999918E-1,-3.587499857E0,-2.837299824E0
1.859400156E1,4.096999764E-1,-4.008800030E0,2.238499880E0
1.862400000E1,-7.360999584E-1,-5.416199684E0,2.553499937E0
1.864400000E1,-2.236500025E0,-5.249799728E0,2.485299826E0
1.866400000E1,-3.277199984E0,-3.984299898E0,2.956499815E0
1.868400000E1,-5.522199631E0,-2.817199945E0,-5.978999734E-1
1.870400000E1,-4.411499977E0,-1.757499933E0,1.555099964E0
1.872400156E1,-3.839699984E0,1.275999993E-1,3.109200001E0
1.875400000E1,-1.134099960E0,1.961499929E0,1.610499978E0
1.877400000E1,-5.067999959E-1,3.356999874E0,2.023000002E0
1.879400156E1,2.049999870E-2,3.937999964E0,5.092400074E0
1.882400000E1,8.370999694E-1,2.857599974E0,8.392499924E0
1.884400000E1,5.749999732E-2,2.409899950E0,6.974699974E0
1.886400156E1,-7.008999586E-1,2.575700045E0,6.361899853E0
1.889400000E1,-1.238299966E0,3.611599922E0,6.468800068E0
1.891400000E1,-1.765399933E0,5.204599857E0,6.416399956E0
1.893400156E1,-1.773299932E0,6.346600056E0,4.560400009E0
1.896400000E1,1.509999949E-2,1.693399906E0,-1.364399910E0
1.898400000E1,2.050499916E0,-5.738199711E0,-1.731920052E1
1.900400156E1,1.763999939E0,-9.528800011E0,-2.383440018E1
1.903400000E1,7.929999828E-1,-5.379999638E0,-5.651700020E0
1.905400000E1,4.050000012E-1,-7.863000035E-1,-4.288099766E0
1.907400000E1,2.317999899E-1,4.479999840E-1,-2.061899900E0
1.909400000E1,-1.820299983E0,-1.813899994E0,-3.261799812E0
1.911400000E1,-4.023600101E0,-2.925400019E0,1.287709999E1
1.913400000E1,-5.684000015E0,-1.511500001E0,5.651799679E0
1.915400156E1,-6.198999882E0,4.941400051E0,2.267099857E0
1.917400156E1,-3.106799841E0,4.523799896E0,5.824999809E0
1.920400938E1,-3.861399889E0,-2.307100058E0,8.413000107E0
1.923400156E1,-1.719999909E0,-5.904399872E0,4.481800079E0
1.926400000E1,1.323899984E0,-2.600999832E0,1.417899966E0
1.928400000E1,2.652499914E0,-1.952999979E-1,-5.740999579E-1
1.930400000E1,2.669800043E0,2.562399864E0,1.225899935E0
1.932400000E1,1.679600000E0,9.527999759E-1,-1.743799925E0
1.934400000E1,1.754099965E0,-2.619999945E-1,4.993999898E-1
1.936400156E1,1.123099923E0,1.652899981E0,1.044999957E-1
1.939400000E1,3.434999883E-1,3.047499895E0,-1.539999962E0
1.941400000E1,6.739000082E-1,2.297199965E0,-1.543200016E0
1.943400000E1,6.213999987E-1,2.161299944E0,-1.092899919E0
1.945400000E1,4.963999987E-1,1.925199986E0,-5.900999904E-1
1.947400000E1,4.232999980E-1,9.531999826E-1,-3.136000037E-1
1.949400625E1,5.087000132E-1,-5.555999875E-1,-9.241999984E-1
1.952400156E1,8.047999740E-1,-1.461799979E0,-2.808699846E0
1.954400312E1,9.914999604E-1,-1.680999994E0,-5.310400009E0
1.957400156E1,2.954799891E0,-3.241199970E0,-8.154899597E0
1.959400312E1,4.092799664E0,-3.727999926E0,-3.378399849E0
1.962400000E1,3.281100035E0,-3.023299932E0,-1.483199954E0
1.964400469E1,2.414499998E0,-4.226699829E0,-5.793999672E0
1.967400156E1,1.626899958E0,-4.498600006E0,-8.711199760E0
1.969400625E1,7.699999958E-3,-3.407899857E0,-4.806299686E0
1.972400156E1,-2.606999874E-1,-4.999099731E0,8.820999861E-1
1.974400469E1,-1.414999962E-1,-5.341700077E0,3.212499857E0
1.977400000E1,-2.063400030E0,-4.974199772E0,3.347299814E0
1.979400156E1,-3.028499842E0,-3.606499910E0,3.536199808E0
1.982400000E1,-5.712499619E0,-3.033799887E0,-3.119999915E-2
1.984400000E1,-4.568599701E0,-8.436999917E-1,2.453599930E0
1.986400156E1,-3.678999901E0,1.458299994E0,2.007200003E0
1.989400000E1,-7.322999835E-1,2.631199837E0,2.130199909E0
1.991400000E1,-3.753999770E-1,3.550599813E0,3.917599916E0
1.993400156E1,1.208999977E-1,3.602199793E0,6.596899986E0
1.996400000E1,-3.199000061E-1,3.089499950E0,7.468599796E0
1.998400000E1,-1.290499926E0,3.198999882E0,6.907599926E0
2.000400156E1,-1.441299915E0,3.472800016E0,7.147599697E0
2.002400156E1,-1.469900012E0,4.439899921E0,7.259999752E0
2.005400156E1,-1.314700007E0,6.237699986E0,5.014999866E0
2.008400156E1,-1.881999969E-1,3.330999851E0,-8.651999831E-1
2.011400000E1,1.946199894E0,-9.005499840E0,-2.911730003E1
2.013400000E1,1.321799994E0,-1.064970016E1,-1.246570015E1
2.015400156E1,8.364999890E-1,-5.537099838E0,-4.145100117E0
2.018400000E1,4.262999892E-1,8.969999552E-1,-3.228399992E0
2.020401094E1,-3.058599949E0,-1.118999958E0,-4.711599827E0
2.023400000E1,-6.666800022E0,-4.456500053E0,1.222419930E1
2.025400156E1,-7.389999866E0,-7.132999897E-1,7.585399628E0
2.028400000E1,-2.560099840E0,6.113599777E0,6.530999660E0
2.030400000E1,-2.309700012E0,4.060699940E0,5.595200062E0
2.032400000E1,-3.452999830E0,-2.906499863E0,6.166599751E0
2.034400000E1,-3.806899786E0,-7.166199684E0,5.657499790E0
2.036400156E1,-1.600799918E0,-5.207699776E0,4.876800060E0
2.039400000E1,1.346199989E0,-6.377999783E-1,3.672299862E0
2.041400000E1,6.625299931E0,3.653299809E0,-7.777199745E0
2.043400156E1,3.566699982E0,2.578699827E0,-4.772699833E0
2.045400156E1,2.249399900E0,-2.883000076E-1,8.930000067E-1
2.048400000E1,1.074299932E0,1.696200013E0,4.264999926E-1
2.050400156E1,2.499999944E-3,3.087100029E0,-6.688999534E-1
2.052400156E1,-1.789999902E-1,2.988899946E0,-1.195699930E0
2.055400000E1,1.269999985E-2,2.482399940E0,-5.523999929E-1
2.057400000E1,1.518999934E-1,1.784399986E0,-1.851999909E-1
2.059400156E1,3.380999863E-1,3.552999794E-1,-4.330999851E-1
2.062400000E1,6.241999865E-1,-1.401899934E0,-1.362200022E0
2.064400000E1,5.525000095E-1,-1.052399993E0,-2.509899855E0
2.066400156E1,7.263000011E-1,-1.506999969E0,-5.429199696E0
2.069400000E1,3.540899992E0,-3.162999868E0,-8.293799400E0
2.071400000E1,3.997699976E0,-3.286799908E0,-2.712299824E0
2.073400156E1,3.276000023E0,-2.395499945E0,-8.174999952E-1
2.076400000E1,1.661599994E0,-3.719999790E0,-1.036940002E1
2.078400000E1,1.501099944E0,-5.215099812E0,-1.312639999E1
2.080400000E1,1.646099925E0,-4.593499660E0,-3.373899937E0
2.082400000E1,2.006999969E0,-3.961499929E0,2.806799889E0
2.084400000E1,1.724299908E0,-5.240200043E0,3.775899887E0
2.086400156E1,7.389000058E-1,-7.139099598E0,3.514799833E0
2.089400000E1,-2.051699877E0,-5.948699951E0,2.380100012E0
2.091400000E1,-3.035199881E0,-4.953599930E0,-1.614399910E0
2.093400156E1,-3.531099796E0,-3.251799822E0,-1.775999963E-1
2.096400000E1,-3.628399849E0,3.806999922E-1,2.818099976E0
2.098400156E1,-2.764899969E0,1.694599986E0,2.322900057E0
2.100400156E1,-1.474499941E0,2.466500044E0,1.646600008E0
2.103400000E1,-2.108999938E-1,3.590899944E0,6.082299709E0
2.105400000E1,3.264999986E-1,3.854199886E0,8.010299683E0
2.107400156E1,-5.611999631E-1,4.301300049E0,6.565499783E0
2.110400000E1,-2.123100042E0,4.904599667E0,6.085499763E0
2.112400000E1,-2.218999863E0,4.910899639E0,5.932199955E0
2.114400000E1,-2.512300014E0,5.677999973E0,6.295599937E0
2.116400156E1,-2.183599949E0,6.989799976E0,4.471899986E0
2.119400156E1,-7.253999710E-1,4.423799992E0,-1.332499981E0
2.122400156E1,2.641599894E0,-9.328800201E0,-2.165189934E1
2.124400156E1,1.977199912E0,-9.818799973E0,-1.693779945E1
2.127400156E1,4.381899834E0,-2.774499893E0,-4.922599792E0
2.129400156E1,4.611700058E0,6.060000062E-1,-1.386999965E0
2.132400000E1,-3.334800005E0,-3.123600006E0,6.124499798E0
2.134400000E1,-9.118499756E0,-8.805500031E0,9.355299950E0
2.136400156E1,-1.086030006E1,-4.815099716E0,1.114400029E0
2.139400000E1,-4.002900124E0,5.399699688E0,8.774299622E0
2.141400000E1,-4.789599895E0,3.783699989E0,9.512599945E0
2.143400156E1,-5.687399864E0,-3.808099985E0,3.983099937E0
2.145400156E1,-3.511799812E0,-5.879299641E0,3.229199886E0
2.148400000E1,-1.191799998E0,-1.784299970E0,3.636799812E0
2.150400156E1,5.446999669E-1,1.530999988E-1,3.610199928E0
2.152400156E1,5.619899750E0,2.352799892E0,-2.164399862E0
2.155400156E1,3.615299940E0,7.125999928E-1,-1.289600015E0
2.157400156E1,2.221400023E0,-7.000000030E-2,-1.403999925E-1
2.159400156E1,1.905900002E0,1.041700006E0,-9.065999985E-1
2.162400000E1,7.974999547E-1,2.170799971E0,-6.396999955E-1
2.164400000E1,6.150999665E-1,2.807199955E0,-3.350999951E-1
2.166400156E1,8.235999942E-1,3.007599831E0,-1.792999953E-1
2.169400000E1,5.701999664E-1,1.146999955E0,-6.625999808E-1
2.171400000E1,6.480000168E-2,-8.360999823E-1,-1.466300011E0
2.173400156E1,2.036999911E-1,-1.217700005E0,-3.103799820E0
2.175400156E1,9.144999981E-1,-1.519899964E0,-6.102299690E0
2.178400000E1,4.000100136E0,-4.004199982E0,-1.002209949E1
2.180400156E1,4.191599846E0,-3.556499958E0,-3.636099815E0
2.183400000E1,2.592299938E0,-2.490900040E0,-4.545099735E0
2.185400156E1,1.997899890E0,-3.646799803E0,-9.513799667E0
2.187400156E1,3.433399916E0,-5.400899887E0,-5.371399879E0
2.190400000E1,1.837000012E0,-5.357500076E0,-2.509999990E0
2.192400000E1,1.425599933E0,-5.767399788E0,2.483899832E0
2.194400156E1,2.883000076E-1,-5.642899990E0,3.521199942E0
2.197400000E1,-2.240399837E0,-5.058300018E0,2.800699949E0
2.199400000E1,-4.826399803E0,-3.947799921E0,-2.836999893E-1
2.201400156E1,-5.610899925E0,-3.558300018E0,-2.033400059E0
2.204400000E1,-3.892999887E0,-1.050699949E0,2.446899891E0
2.206400000E1,-2.299000025E0,4.994999766E-1,9.702000022E-1
2.208400156E1,-6.893999577E-1,2.015699863E0,1.384499907E0
2.211400000E1,-1.020499945E0,3.257999897E0,9.021499634E0
2.213400000E1,-3.870999813E-1,3.130199909E0,8.433799744E0
2.215400156E1,-2.225999832E0,3.853599787E0,6.231800079E0
2.217400156E1,-2.505100012E0,4.202300072E0,6.045099735E0
2.220401094E1,-1.384999990E0,4.414799690E0,7.042799950E0
2.223400156E1,-1.004299998E0,6.362099648E0,4.755599976E0
2.226400156E1,-1.909999922E-2,7.814099789E0,2.199599981E0
2.229400000E1,1.518800020E0,-9.160999656E-1,-1.099129963E1
2.231400000E1,4.022399902E0,-1.370599937E1,-3.109009933E1
2.233400000E1,1.885399938E0,-9.904699326E0,-5.389999866E0
2.235400156E1,1.227699995E0,-1.827499986E0,-6.043299675E0
2.237400156E1,8.606999516E-1,1.794199944E0,-8.039999962E0
2.240400000E1,-1.475700021E0,-7.049599648E0,7.508399963E0
2.242400000E1,-6.969299793E0,-3.647599936E0,1.607929993E1
2.244400156E1,-4.784499645E0,2.266299963E0,1.013910007E1
2.247400000E1,-2.446499825E0,3.899899960E0,5.249799728E0
2.249400000E1,-4.428800106E0,-3.347999811E0,5.663699627E0
2.251400156E1,-4.597199917E0,-8.514900208E0,6.747099876E0
2.254400000E1,-1.727699995E0,-4.934400082E0,7.849999905E0
2.256400000E1,2.310899973E0,-1.800499916E0,-1.115899920E0
2.258400156E1,2.634500027E0,2.110499859E0,-2.845399857E0
2.261400000E1,4.271999896E-1,1.116099954E0,9.873999953E-1
2.263400000E1,3.869999945E-2,1.349699974E0,-6.129999757E-1
2.265400156E1,1.546999961E-1,1.857199907E0,-1.207999945E0
2.268400000E1,1.137999967E-1,3.369499922E0,-3.503499985E0
2.270400000E1,1.320099950E0,2.228499889E0,-2.988499880E0
2.272400156E1,1.440599918E0,1.904999971E0,-1.352499962E0
2.275400000E1,1.369799972E0,2.851999998E0,3.877999783E-1
2.277400000E1,1.230399966E0,1.961499929E0,1.736599922E0
2.279400156E1,8.592999578E-1,-7.040999532E-1,1.413100004E0
2.282400000E1,7.609999776E-1,-1.902399898E0,-3.241099834E0
2.284400000E1,7.166000009E-1,-3.370199919E0,-1.091819954E1
2.286400156E1,2.526599884E0,-4.321700096E0,-1.366790009E1
2.289400000E1,2.908099890E0,-3.672799826E0,-1.910599947E0
2.291400000E1,1.910299897E0,-4.340799809E0,-3.052699804E0
2.293400156E1,2.147500038E0,-4.995899677E0,-8.022799492E0
2.295400156E1,2.671200037E0,-4.787399769E0,-6.711199760E0
2.298400000E1,1.271600008E0,-5.253200054E0,-1.965999901E-1
2.300400000E1,8.916999698E-1,-6.152899742E0,3.473299980E0
2.302400156E1,-1.649999991E-2,-7.000099659E0,3.737200022E0
2.305400000E1,-1.524899960E0,-5.466399670E0,2.820099831E0
2.307400000E1,-2.241499901E0,-3.400499821E0,2.743199825E0
2.309400156E1,-3.599799871E0,-2.984099865E0,-7.206000090E-1
2.312400000E1,-3.740299940E0,-2.428999990E-1,3.216199875E0
2.314400000E1,-3.361500025E0,1.652400017E0,3.813199997E0
2.316400000E1,-1.734599948E0,2.389099836E0,2.895900011E0
2.318400000E1,-1.149600029E0,3.275799990E0,3.703999996E0
2.320400938E1,-5.412999988E-1,3.666999817E0,6.322399616E0
2.323400156E1,-1.038499951E0,3.882699966E0,7.383699894E0
2.325400156E1,-2.081899881E0,4.225299835E0,6.812099934E0
2.327400156E1,-2.323799849E0,4.620299816E0,6.850100040E0
2.329400156E1,-2.556799889E0,5.255399704E0,7.041199684E0
2.332400000E1,-1.914799929E0,6.462800026E0,5.991999626E0
2.334400000E1,-1.006699920E0,5.467299938E0,3.705299854E0
2.336400156E1,4.139999747E-1,-6.349999905E-1,-5.516599655E0
2.339400000E1,3.216799974E0,-1.176099968E1,-2.616199875E1
2.341404375E1,1.491999924E-1,-6.688199997E0,-8.720799446E0
2.344400156E1,-3.060999811E-1,2.547699928E0,-3.946899891E0
2.347400000E1,-4.511399746E0,6.035000086E-1,-4.587199688E0
2.349400000E1,-5.395499706E0,-2.810799837E0,1.707089996E1
2.351400156E1,-6.413399696E0,-7.059700012E0,1.016379929E1
2.354400000E1,-3.412400007E0,3.213999867E-1,7.138499737E0
2.356400000E1,-1.942699909E0,-2.219499826E0,6.553599834E0
2.358400156E1,-2.498999834E0,-4.287600040E0,6.654500008E0
2.361400000E1,-7.481999993E-1,-4.413499832E0,6.700299740E0
2.363400000E1,4.186999798E-1,-3.356999874E0,5.917500019E0
2.365400000E1,9.868999720E-1,-1.515799999E0,4.694099903E0
2.367400000E1,2.612200022E0,3.396499872E0,-5.529399872E0
2.369400000E1,7.925999761E-1,2.941799879E0,-2.571399927E0
2.371400000E1,-4.690000042E-2,1.301599979E0,-2.246399879E0
2.373400156E1,8.281999826E-1,1.365000010E-1,-4.749999940E-2
2.376400000E1,-1.180000007E-1,3.209299803E0,-1.095999956E0
2.378400000E1,-3.569999933E-1,3.885299921E0,-3.102299929E0
2.380400156E1,1.237000003E-1,2.762599945E0,-2.819099903E0
2.383400156E1,1.414999962E-1,1.941999912E0,6.260000169E-2
2.386400156E1,1.796000004E-1,1.017999947E-1,7.897999883E-1
2.389400000E1,7.358999848E-1,-5.345000029E-1,-1.516199946E0
2.391400000E1,9.490999579E-1,-1.229099989E0,-3.095299959E0
2.393400156E1,1.159699917E0,-3.108899832E0,-7.242499828E0
2.395400156E1,2.654099941E0,-3.251999855E0,-9.799499512E0
2.398400000E1,2.692499876E0,-2.998299837E0,-9.068999887E-1
2.400400000E1,2.124699831E0,-2.947399855E0,-1.287199974E0
2.402400156E1,2.067800045E0,-4.399399757E0,-7.036999702E0
2.405400000E1,2.707299948E0,-4.788399696E0,-8.037499428E0
2.407400000E1,1.518599987E0,-3.438499928E0,-3.929699898E0
2.409400156E1,1.714999914E0,-3.828499794E0,1.762300014E0
2.412400000E1,1.129899979E0,-5.683499813E0,3.559499979E0
2.414400000E1,3.043999970E-1,-5.820799828E0,3.606699944E0
2.416400156E1,-1.548999906E0,-4.574699879E0,2.951099873E0
2.419400000E1,-2.854699850E0,-3.647300005E0,-2.132599831E0
2.421400000E1,-3.498999834E0,-1.906699896E0,1.529099941E0
2.423400156E1,-3.280299902E0,2.484999895E-1,3.344300032E0
2.426400000E1,-1.895900011E0,1.561399937E0,2.146600008E0
2.428400000E1,-1.310899973E0,2.229199886E0,4.440400124E0
2.430400156E1,4.779999703E-2,2.777999878E0,6.210399628E0
2.433400000E1,1.270000041E-1,2.883299828E0,6.250199795E0
2.435400000E1,-9.554999471E-1,3.502099991E0,6.570099831E0
2.437400156E1,-2.034999847E0,4.212899685E0,6.643199921E0
2.440400000E1,-3.152899981E0,4.557799816E0,6.572499752E0
2.442400156E1,-3.648199797E0,5.745999813E0,6.052399635E0
2.444400156E1,-3.174000025E0,7.254399776E0,4.350699902E0
2.447400156E1,-1.498099923E0,4.154999733E0,1.583999991E-1
2.449400156E1,1.574100018E0,-6.121799946E0,-1.267770004E1
2.451400156E1,3.374099970E0,-1.290349960E1,-2.893989944E1
2.453400156E1,4.200500011E0,-1.003269958E1,-7.451599598E0
2.455400156E1,2.892999887E0,-2.766700029E0,-3.094499826E0
2.457400156E1,2.725100040E0,1.274399996E0,-3.353600025E0
2.459400156E1,-2.314499855E0,-5.821999907E-1,-3.857599974E0
2.461400156E1,-3.922199965E0,-3.502799988E0,1.048119926E1
2.464400156E1,-8.906000137E0,-1.321900010E0,3.909099817E0
2.466400156E1,-4.675699711E0,4.250000000E0,6.580399990E0
2.469400000E1,-3.324100018E0,2.615000010E-1,9.026100159E0
2.471400156E1,-3.195999861E0,-5.585399628E0,6.057399750E0
2.473400156E1,-1.538699985E0,-6.053099632E0,5.184599876E0
2.476400000E1,5.206999779E-1,-2.290599823E0,4.340399742E0
2.478400000E1,1.621799946E0,-1.982999891E-1,3.769099951E0
2.480400156E1,2.148399830E0,2.255399942E0,-3.190999985E0
2.482400156E1,4.658999741E-1,3.164700031E0,-3.641899824E0
2.485400000E1,1.031499982E0,-2.759999931E-1,3.158999979E-1
2.487400156E1,6.394000053E-1,1.214299917E0,-4.787999988E-1
2.490400000E1,-3.901000023E-1,3.426899910E0,-1.818300009E0
2.492400000E1,4.684999883E-1,3.046000004E0,-3.659999967E-1
2.494400156E1,8.070999980E-1,3.018599987E0,5.249999762E-1
2.497400156E1,4.380999804E-1,1.208199978E0,1.369199991E0
2.499400156E1,3.896999955E-1,-1.251299977E0,-3.258999884E-1
2.501400156E1,2.971999943E-1,-2.576400042E0,-2.101699829E0
2.504400156E1,-2.138999999E-1,-1.059100032E0,-8.032199860E0
2.507400156E1,2.464799881E0,-3.211999893E0,-6.296700001E0
2.510400000E1,4.161099911E0,-3.669899940E0,1.735999882E-1
2.512400000E1,4.447400093E0,-2.955699921E0,-2.529999986E-2
2.514400000E1,4.397599697E0,-3.736999989E0,-6.379699707E0
2.516400156E1,3.717399836E0,-4.482599735E0,-1.193190002E1
2.519400000E1,8.094999790E-1,-3.431399822E0,-2.456399918E0
2.521400000E1,-1.124699950E0,-3.250000000E0,-1.536799908E0
2.523400156E1,-5.774999857E-1,-5.346199989E0,1.388899922E0
2.526400000E1,-2.099400043E0,-5.654399872E0,3.016399860E0
2.528400000E1,-3.483599901E0,-4.252399921E0,3.051399946E0
2.530400000E1,-5.310899734E0,-3.327999830E0,1.092999935E0
2.532400000E1,-4.707600117E0,-2.221699953E0,8.635999560E-1
2.534400000E1,-3.931699991E0,-1.705999970E-1,1.848199964E0
2.536400156E1,-2.888700008E0,1.104900002E0,2.399499893E0
2.539400000E1,-1.134599924E0,2.575700045E0,2.321399927E0
2.541400000E1,-6.888999939E-1,3.596299887E0,4.628600121E0
2.543400156E1,-7.189999521E-2,3.392699957E0,6.566699982E0
2.546400000E1,-6.862999797E-1,3.183300018E0,5.542500019E0
2.548400000E1,-1.567999959E0,3.184499979E0,6.057499886E0
2.550400000E1,-2.185499907E0,3.426499844E0,6.242799759E0
2.552400000E1,-2.454799891E0,3.888099909E0,5.972599983E0
2.554400000E1,-2.319399834E0,4.830800056E0,5.685299873E0
2.556400000E1,-2.152299881E0,5.825699806E0,4.548599720E0
2.558400156E1,-1.209200025E0,4.732399940E0,2.056400061E0
2.561400000E1,1.267400026E0,-5.079999924E0,-1.427659988E1
2.563400000E1,2.371299982E0,-1.102479935E1,-2.650869942E1
2.565400156E1,8.607999682E-1,-8.510600090E0,-5.633599758E0
2.567400156E1,-2.102999985E-1,-1.861099958E0,-5.150599957E0
2.570400000E1,-1.703499913E0,1.434499979E0,-4.073800087E0
2.572400156E1,-3.996099949E0,-2.466699839E0,-1.200399995E0
2.575400000E1,-6.695899963E0,-2.845000029E0,1.005649948E1
2.577400000E1,-7.617399693E0,1.239599943E0,2.319399834E0
2.579400156E1,-3.260499954E0,4.105099678E0,7.093799591E0
2.582400312E1,-2.650599957E0,-1.664799929E0,8.299699783E0
2.585400000E1,-1.695500016E0,-6.407099724E0,5.349899769E0
2.587400469E1,-4.526999891E-1,-5.024600029E0,4.352799892E0
2.590400000E1,1.599399924E0,-6.944999695E-1,1.242799997E0
2.592400469E1,2.513999939E0,2.689699888E0,-1.994300008E0
2.595400000E1,4.126999974E-1,1.700599909E0,-2.012599945E0
2.597400000E1,8.955000043E-1,-7.138999701E-1,4.163999856E-1
2.599400000E1,6.826999784E-1,1.213799953E0,-8.999999845E-4
2.601400000E1,1.657999903E-1,3.237499952E0,-5.340999961E-1
2.603400000E1,-4.369999841E-2,3.191699982E0,-9.197999835E-1
2.605400000E1,2.755999863E-1,2.384899855E0,-3.853999972E-1
2.607400000E1,5.819999799E-2,1.986299992E0,-4.699999932E-3
2.609400000E1,-4.588999748E-1,1.029199958E0,2.730999887E-1
2.611400000E1,-7.660999894E-1,-4.355999827E-1,-8.050999641E-1
2.613400000E1,-5.641999841E-1,-9.879999757E-1,-2.041899920E0
2.615400156E1,-3.120999932E-1,-5.309999585E-1,-3.572899818E0
2.618400000E1,2.216799974E0,-2.740200043E0,-8.984299660E0
2.620401094E1,4.434000015E0,-4.227999687E0,-5.998499870E0
2.623400156E1,4.174900055E0,-2.771600008E0,-1.436000019E-1
2.626400313E1,3.563799858E0,-3.782199860E0,-5.719399929E0
2.629400156E1,2.101599932E0,-4.278500080E0,-8.015600204E0
2.632400000E1,-3.448999822E-1,-3.334800005E0,-2.786499977E0
2.634400000E1,-1.562799931E0,-4.113899708E0,-6.987999678E-1
2.636400156E1,-1.356499910E0,-5.132599831E0,2.215600014E0
2.638400156E1,-2.820099831E0,-4.945600033E0,2.727299929E0
2.641400000E1,-5.536599636E0,-3.780099869E0,2.072599888E0
2.643400000E1,-4.705299854E0,-3.040099859E0,4.416999817E-1
2.645400000E1,-3.406399965E0,-1.440899968E0,6.624999642E-1
2.647400000E1,-2.820099831E0,1.401999891E-1,1.784899950E0
2.649400000E1,-9.384999871E-1,1.218899965E0,2.591599941E0
2.651400156E1,-7.414999604E-1,2.449699879E0,2.997599840E0
2.654400000E1,-2.459999919E-1,3.022599936E0,6.148499966E0
2.656400156E1,-3.399999812E-2,2.616199970E0,6.941599846E0
2.658400156E1,-7.811999917E-1,2.620899916E0,5.734999657E0
2.661400000E1,-2.093499899E0,2.760900021E0,6.199599743E0
2.663400000E1,-2.459199905E0,3.193799973E0,6.771399975E0
2.665400156E1,-2.652199984E0,4.277299881E0,6.191299915E0
2.667400156E1,-2.508999825E0,5.769099712E0,5.231199741E0
2.670400000E1,-2.115900040E0,6.174999714E0,3.053699970E0
2.672400156E1,-1.728699923E0,1.698199987E0,-1.396499991E0
2.675400000E1,2.416399956E0,-1.246500015E1,-2.752699852E1
2.677400000E1,3.093499899E0,-1.198209953E1,-1.026649952E1
2.679400156E1,9.610999823E-1,-3.451900005E0,-5.564899921E0
2.681400156E1,-1.030699968E0,-8.057999611E-1,-4.781499863E0
2.684400000E1,-5.966399670E0,-4.638999939E0,-3.802099943E0
2.686400000E1,-3.164099932E0,-9.976999760E-1,7.157299995E0
2.688400000E1,-6.033499718E0,3.824800014E0,1.115209961E1
2.690400000E1,-4.934499741E0,5.988800049E0,7.315499783E0
2.692400000E1,-4.658799648E0,6.177299976E0,4.815999985E0
2.694400156E1,-4.392399788E0,1.587999940E0,8.757599831E0
2.697400000E1,-2.555199862E0,-7.880399704E0,2.974599838E0
2.699400000E1,-1.022400022E0,-5.747399807E0,1.994599938E0
2.701400156E1,9.763000011E-1,-2.190000057E0,-2.439000010E-1
2.704400000E1,4.264599800E0,1.629799962E0,3.121899843E0
2.706400000E1,2.945400000E0,5.227000117E-1,-4.403599739E0
2.708400156E1,1.926699996E0,-6.613000035E-1,6.583999991E-1
2.711400000E1,6.980999708E-1,2.267400026E0,1.499199986E0
2.713400000E1,-3.716000021E-1,3.016999960E0,2.929999866E-2
2.715400156E1,-6.319000125E-1,2.337599993E0,-1.607899904E0
2.718400000E1,-1.708000004E-1,2.052599907E0,-1.592099905E0
2.720401094E1,-3.127000034E-1,2.216099977E0,-7.825999856E-1
2.723400156E1,-5.957999825E-1,8.248999715E-1,-1.544999927E-1
2.725400156E1,-4.292999804E-1,-1.163699985E0,-9.625999928E-1
2.727400156E1,-7.198999524E-1,-2.114599943E0,-1.844299912E0
2.729400156E1,-5.102999806E-1,-1.258700013E0,-4.366899967E0
2.732400000E1,2.935799837E0,-2.525300026E0,-1.029729939E1
2.734400000E1,4.527699947E0,-3.851099968E0,-4.350899696E0
2.736400156E1,4.244599819E0,-3.114899874E0,-1.721999943E-1
2.738400156E1,4.029099941E0,-2.460099936E0,-6.003999710E-1
2.741400000E1,3.070299864E0,-3.846899986E0,-1.126569939E1
2.743400000E1,1.685199976E0,-3.889699936E0,-8.414199829E0
2.745400156E1,4.945999980E-1,-3.585699797E0,-2.702199936E0
2.748400000E1,-4.930999875E-1,-4.937999725E0,2.903999984E-1
2.750400000E1,-9.567999840E-1,-5.711999893E0,2.552599907E0
2.752400000E1,-2.294800043E0,-5.324199677E0,2.822099924E0
2.754400000E1,-4.170899868E0,-4.443500042E0,3.126600027E0
2.756400000E1,-6.288199902E0,-3.388599873E0,9.089999795E-1
2.758400156E1,-5.293900013E0,-1.707499981E0,-5.058999658E-1
2.761400000E1,-3.826200008E0,2.087000012E-1,8.549000025E-1
2.763400000E1,-2.017899990E0,8.949999809E-1,2.591399908E0
2.765400156E1,-1.474299908E0,2.437700033E0,2.680899858E0
2.768400000E1,-4.256999791E-1,3.422899961E0,5.281699657E0
2.770400000E1,-9.349999577E-2,2.721400023E0,5.844299793E0
2.772400156E1,-7.728999853E-1,2.685299873E0,5.366499901E0
2.775400156E1,-2.205499887E0,3.748999834E0,6.349400043E0
2.777400156E1,-2.464499950E0,4.559799671E0,6.421299934E0
2.779400156E1,-2.200500011E0,5.447000027E0,5.934400082E0
2.782400000E1,-1.666199923E0,6.505399704E0,4.069900036E0
2.784400000E1,-3.140999973E-1,4.533999920E0,2.592399836E0
2.786400156E1,8.404999971E-1,-3.297799826E0,-6.956199646E0
2.788400156E1,3.768399954E0,-1.040059948E1,-3.129319954E1
2.791400000E1,9.576999545E-1,-7.434399605E0,-5.338799953E0
2.793400000E1,5.424000025E-1,-7.400000095E-1,-4.460499763E0
2.795400156E1,7.497000098E-1,2.684700012E0,-3.872399807E0
2.798400000E1,-4.171199799E0,-1.673200011E0,3.471099854E0
2.800400000E1,-7.409999847E0,-4.676199913E0,1.094849968E1
2.802400156E1,-8.710800171E0,-1.497399926E0,1.680400014E0
2.805400000E1,-2.487400055E0,4.354599953E0,7.533899784E0
2.807400000E1,-2.523000002E0,-1.624399900E0,9.013799667E0
2.809400156E1,-2.468199968E0,-7.026499748E0,5.618599892E0
2.812400000E1,-8.757999539E-1,-4.783299923E0,3.890299797E0
2.814400000E1,4.248999953E-1,-1.939000010E0,2.911099911E0
2.816400156E1,2.167700052E0,1.187299967E0,-3.165999889E0
2.819400000E1,5.979999900E-2,3.271899939E0,-3.989999741E-2
2.821400156E1,-8.270999789E-1,9.492999911E-1,-1.973499894E0
2.823400156E1,1.519999932E-2,-1.106999964E-1,-1.772999913E-1
2.825400156E1,-4.531999826E-1,2.007999897E0,-6.852999926E-1
2.827400156E1,-6.293999553E-1,3.252799988E0,-7.257999778E-1
2.829400156E1,-8.011999726E-1,2.864500046E0,-7.073999643E-1
2.832400000E1,-7.518000007E-1,2.326200008E0,-3.488999903E-1
2.834400000E1,-3.637999892E-1,2.023799896E0,1.524000019E-1
2.836400156E1,-2.636999786E-1,7.626000047E-1,9.229999781E-2
2.838400156E1,1.427000016E-1,-5.813999772E-1,-2.662999928E-1
2.840404375E1,6.983000040E-1,-2.054800034E0,-1.646699905E0
2.843400000E1,2.346999884E0,-3.249899864E0,-7.899600029E0
2.845400156E1,4.046099663E0,-3.887199879E0,-1.205980015E1
2.848400000E1,3.677500010E0,-3.375099897E0,-3.156499863E0
2.850400000E1,2.746500015E0,-2.434299946E0,-3.377099991E0
2.852400000E1,1.351300001E0,-2.797899961E0,-7.598399639E0
2.854400000E1,1.432999969E0,-4.217299938E0,-7.944799900E0
2.856400000E1,1.383700013E0,-4.384299755E0,-3.755800009E0
2.858400156E1,4.714999795E-1,-4.912699699E0,5.519999936E-2
2.861400000E1,-7.689999938E-1,-6.275699615E0,2.159999847E0
2.863400000E1,-2.251699924E0,-5.697400093E0,2.142299891E0
2.865400156E1,-4.127399921E0,-4.240799904E0,2.399799824E0
2.868400000E1,-6.568599701E0,-1.483399987E0,4.420000017E-1
2.870400000E1,-4.790299892E0,-1.376999915E-1,4.477999806E-1
2.872400156E1,-3.764599800E0,1.683999896E-1,5.257999897E-1
2.875400000E1,-1.047399998E0,8.849999905E-1,1.839199901E0
2.877400000E1,-8.761999607E-1,2.373899937E0,2.636099815E0
2.879400156E1,-4.585999846E-1,2.950999975E0,6.019299984E0
2.881400156E1,1.950999945E-1,2.522899866E0,6.575099945E0
2.883400156E1,-8.129000068E-1,2.800400019E0,6.052499771E0
2.886400000E1,-1.673499942E0,3.440299988E0,6.046299934E0
2.888400000E1,-1.847799897E0,3.841699839E0,6.704400063E0
2.890400000E1,-2.046000004E0,4.755000114E0,6.698400021E0
2.892400000E1,-1.787899971E0,6.020400047E0,4.964200020E0
2.894400156E1,-1.144999981E0,6.230399609E0,2.899399996E0
2.897400000E1,-1.894000024E-1,-1.042599916E0,-3.921000004E0
2.899400000E1,2.609799862E0,-9.935500145E0,-2.502999878E1
2.901400156E1,3.742999792E0,-1.217789936E1,-1.426620007E1
2.904400000E1,6.334999800E-1,3.060999811E-1,-6.139699936E0
2.906400000E1,-1.213400006E0,5.091999769E-1,-6.412600040E0
2.908400156E1,-6.892099857E0,-5.561199665E0,-6.629299641E0
2.911400000E1,-5.911399841E0,-3.359299898E0,1.381369972E1
2.913400000E1,-5.059199810E0,5.299900055E0,1.274569988E1
2.915400156E1,-2.383299828E0,8.256400108E0,7.416299820E0
2.918400000E1,-2.584800005E0,5.085199833E0,5.384900093E0
2.920401094E1,-4.485899925E0,-6.529199600E0,4.894700050E0
2.923400156E1,-2.120100021E0,-1.007789993E1,4.201900005E0
2.926400000E1,2.480999947E0,-3.867999911E-1,-3.879999742E-2
2.928400000E1,2.594599962E0,9.958999753E-1,-1.717000008E-1
2.930400156E1,7.576999664E-1,9.020999670E-1,-3.571999967E-1
2.932400312E1,9.039999545E-2,5.609999895E-1,9.438999891E-1
2.935400156E1,-3.517999947E-1,1.923199892E0,6.146999598E-1
2.937400938E1,-1.397300005E0,3.169799805E0,-1.463599920E0
2.940400000E1,-9.250999689E-1,1.884999990E0,-2.492499828E0
2.942400313E1,-3.170999885E-1,1.740299940E0,-1.398899913E0
2.945400156E1,1.550000012E-1,2.491600037E0,1.308999956E-1
2.947400938E1,4.266999960E-1,2.022300005E0,9.497999549E-1
2.950400000E1,4.834999740E-1,-6.340999603E-1,-4.123999774E-1
2.952400469E1,8.238999844E-1,-1.278699994E0,-2.558199883E0
2.955400156E1,4.328999996E0,-4.299999714E0,-1.846100044E1
2.957400469E1,4.340499878E0,-4.299299717E0,-7.089900017E0
2.960400000E1,3.647799969E0,-2.487200022E0,1.752000004E-1
2.962400469E1,3.620899916E0,-3.148099899E0,-2.817499876E0
2.965400156E1,3.825999975E0,-5.179999828E0,-8.328499794E0
2.967400156E1,1.414600015E0,-4.115699768E0,-3.399299860E0
2.970400000E1,-1.779699922E0,-4.774099827E0,-1.083699942E0
2.972400313E1,-1.873699903E0,-6.326600075E0,1.974499941E0
2.975400000E1,-3.905799866E0,-5.044399738E0,2.792799950E0
2.977400000E1,-6.080899715E0,-3.489099979E0,1.824999928E0
2.979400156E1,-5.505899906E0,-2.549199820E0,1.174999997E-1
2.981400156E1,-3.881099939E0,-1.011199951E0,1.138999939E0
2.984400000E1,-2.262300014E0,9.020999670E-1,3.411000013E0
2.986400000E1,-7.293999791E-1,1.683399916E0,1.904999971E0
2.988400000E1,-6.050999761E-1,2.677999973E0,3.184799910E0
2.990400000E1,3.242000043E-1,2.743499994E0,5.892399788E0
2.992400000E1,5.220999718E-1,2.393300056E0,5.767099857E0
2.994400156E1,-6.789999604E-1,2.642699957E0,5.945999622E0
2.997400000E1,-2.115499973E0,3.217799902E0,6.324999809E0
2.999400000E1,-2.573699951E0,3.792999983E0,6.446899891E0
3.001400000E1,-2.598799944E0,4.715600014E0,6.366600037E0
3.003400000E1,-2.371899843E0,5.860899925E0,5.220299721E0
3.005400000E1,-2.144899845E0,6.370199680E0,3.341300011E0
3.007400000E1,-1.390499949E0,4.684899807E0,3.852999806E-1
3.009400000E1,-1.940999925E-1,-3.025599957E0,-7.503899574E0
3.011400000E1,1.837399960E0,-1.076089954E1,-2.967749977E1
3.013400000E1,3.050400019E0,-1.323139954E1,-1.032539940E1
3.015400156E1,1.025499940E0,-4.476399899E0,-4.960899830E0
3.018400000E1,5.920999646E-1,3.555599928E0,-4.382100105E0
3.020401094E1,-3.106899977E0,2.360999882E-1,-3.218499899E0
3.023400156E1,-6.510599613E0,-4.200599670E0,1.070639992E1
3.026400000E1,-6.937599659E0,3.878099918E0,5.026599884E0
3.028400000E1,-2.477900028E0,4.110099792E0,7.235099792E0
3.030400156E1,-2.381199837E0,-2.845999897E-1,9.853499413E0
3.033400000E1,-1.845099926E0,-6.692299843E0,4.719899654E0
3.035400000E1,-4.479999840E-1,-5.244499683E0,3.728699923E0
3.037400156E1,8.807999492E-1,-2.050799847E0,2.859099865E0
3.040400000E1,2.097899914E0,2.492699862E0,-6.992999911E-1
3.042400000E1,1.769999973E-2,2.816799879E0,-2.080100060E0
3.044400156E1,-2.999999851E-4,9.139999747E-2,-1.270299911E0
3.047400000E1,1.882999986E-1,1.219299912E0,-2.969999909E-1
3.049400000E1,-1.353999972E-1,3.080199957E0,-7.378999591E-1
3.051400156E1,-7.310000062E-2,3.134999990E0,-9.549999833E-1
3.054400000E1,3.111000061E-1,2.625900030E0,-4.077000022E-1
3.056400000E1,9.449999779E-2,2.071599960E0,-2.899999963E-3
3.058400156E1,1.869999990E-2,4.416999817E-1,-3.993999958E-1
3.061400000E1,1.310000010E-2,-1.464399934E0,-2.027600050E0
3.063400000E1,-6.830000132E-2,-7.717999816E-1,-4.482699871E0
3.065400156E1,9.075999856E-1,-1.235999942E0,-8.766499519E0
3.068400000E1,4.122900009E0,-3.917099953E0,-5.599699974E0
3.070400000E1,4.275799751E0,-3.330600023E0,-1.065699935E0
3.072400156E1,3.869999886E0,-2.552899837E0,-9.276999831E-1
3.074400156E1,3.303599834E0,-4.513400078E0,-6.524899960E0
3.077400000E1,2.100499868E0,-4.652699947E0,-6.778299809E0
3.079400156E1,6.911999583E-1,-4.258999825E0,-2.622200012E0
3.082400000E1,-1.090099931E0,-5.340099812E0,-5.279999971E-2
3.084400000E1,-1.196499944E0,-5.936999798E0,2.400899887E0
3.086400000E1,-2.447399855E0,-5.331099987E0,2.819399834E0
3.088400000E1,-4.048099995E0,-4.327499866E0,2.857499838E0
3.090400000E1,-6.059499741E0,-3.408299923E0,9.552999735E-1
3.092400000E1,-4.634699821E0,-1.513399959E0,9.271000028E-1
3.094400156E1,-3.864199877E0,3.868999779E-1,1.603899956E0
3.097400000E1,-1.207799911E0,1.862699986E0,2.108000040E0
3.099400000E1,-9.546999931E-1,3.304600000E0,3.021499872E0
3.101400156E1,-2.851999998E-1,3.571799994E0,5.753699780E0
3.104400000E1,9.779999405E-2,2.551899910E0,5.474899769E0
3.106400000E1,-8.254999518E-1,2.634399891E0,5.563499928E0
3.108400156E1,-1.395499945E0,2.508899927E0,6.566099644E0
3.110400156E1,-1.899799943E0,3.001799822E0,6.637099743E0
3.112400156E1,-2.531999826E0,4.260299683E0,6.078799725E0
3.115400156E1,-2.829299927E0,6.308499813E0,4.772799969E0
3.118400000E1,-2.099799871E0,5.174999714E0,2.033200026E0
3.120400938E1,-6.126999855E-1,-2.674799919E0,-5.196799755E0
3.123400156E1,2.336599827E0,-1.405039978E1,-2.823149872E1
3.126400000E1,8.755999804E-1,-3.046499968E0,-5.751199722E0
3.128400000E1,8.925999999E-1,3.063599825E0,-3.904599905E0
3.130400156E1,-2.863600016E0,3.371699810E0,-4.010999680E0
3.133400000E1,-6.430699825E0,-2.855599880E0,1.266359997E1
3.135400000E1,-8.757900238E0,-5.878200054E0,5.378499985E0
3.137400156E1,-7.017299652E0,1.260800004E0,4.301499844E0
3.140400000E1,-1.921899915E0,7.361999750E-1,7.197599888E0
3.142400000E1,-1.712899923E0,-2.655599833E0,6.519499779E0
3.144400156E1,-1.635299921E0,-4.130000114E0,5.519899845E0
3.147400156E1,-3.511999846E-1,-3.465299845E0,4.364599705E0
3.150400000E1,1.413800001E0,-2.832999825E-1,2.682299852E0
3.152400156E1,1.264099956E0,2.403599977E0,-2.323600054E0
3.154400156E1,-2.082999945E-1,3.523199797E0,-4.683199883E0
3.156400156E1,-5.130000040E-2,9.993000031E-1,-1.508399963E0
3.158400156E1,3.449999988E-1,3.204999864E-1,-7.598999739E-1
3.161400000E1,-4.220999777E-1,3.040999889E0,-1.650099993E0
3.163400000E1,-4.300999939E-1,3.526099920E0,-1.480199933E0
3.165400156E1,-2.703000009E-1,2.964999914E0,-8.944000006E-1
3.168400000E1,-3.777000010E-1,2.965999842E-1,-4.193999767E-1
3.170400156E1,2.038999945E-1,-1.540599942E0,-1.088599920E0
3.172400156E1,1.023499966E0,-1.283900023E0,-2.238800049E0
3.175400000E1,1.047799945E0,-1.264099956E0,-5.628599644E0
3.177400000E1,2.377300024E0,-3.038100004E0,-8.083299637E0
3.179400000E1,3.917599916E0,-4.051899910E0,-4.665199757E0
3.181400156E1,3.767099857E0,-3.092799902E0,-1.264400005E0
3.184400000E1,2.501600027E0,-3.522499800E0,-3.598299980E0
3.186400000E1,1.623600006E0,-4.840899944E0,-1.030799961E1
3.188400000E1,1.110700011E0,-4.532599926E0,-8.362799644E0
3.190400000E1,4.267999828E-1,-3.604300022E0,-3.850399971E0
3.192400000E1,-1.410499930E0,-2.442899942E0,-2.337800026E0
3.194400156E1,-1.931399941E0,-3.560999870E0,4.247999787E-1
3.197400156E1,-1.994699955E0,-4.876199722E0,2.407699823E0
3.200400000E1,-4.852399826E0,-4.218899727E0,2.924700022E0
3.202400156E1,-5.157299995E0,-3.726599932E0,7.236999869E-1
3.205400000E1,-3.112200022E0,-3.738999963E-1,4.098999798E-1
3.207400000E1,-2.285599947E0,7.453999519E-1,1.518499970E0
3.209400156E1,-9.544999599E-1,1.578899980E0,1.332000017E0
3.212400000E1,-5.629000068E-1,2.716500044E0,6.207499981E0
3.214400000E1,2.773999870E-1,2.568300009E0,6.480899811E0
3.216400156E1,-1.537999958E-1,2.413899899E0,5.155499935E0
3.219400000E1,-1.319700003E0,2.945499897E0,5.913899899E0
3.221400000E1,-1.979999900E0,4.045099735E0,6.263400078E0
3.223400000E1,-2.205100060E0,4.904099941E0,5.980700016E0
3.225400000E1,-2.375200033E0,6.150699615E0,5.529299736E0
3.227400000E1,-2.304399967E0,7.109999657E0,4.185899734E0
3.229400000E1,-1.537299991E0,6.246899605E0,1.579800010E0
3.231400156E1,-6.089999676E-1,-5.604000092E-1,-4.569499969E0
3.234400000E1,1.444999933E0,-1.436899948E1,-3.228009796E1
3.236400000E1,8.020000160E-2,-1.011639977E1,-5.215399742E0
3.238400000E1,5.676999688E-1,-2.006700039E0,-5.004899979E0
3.240400000E1,8.262000084E-1,3.071899891E0,-3.488099813E0
3.242400000E1,-3.496199846E0,1.206399918E0,-3.466799974E0
3.244400156E1,-4.299399853E0,-3.837999821E0,7.532999992E0
3.247400000E1,-7.685999870E0,6.413999796E-1,6.756499767E0
3.249400000E1,-4.260799885E0,5.764999866E0,7.027400017E0
3.251400156E1,-2.695199966E0,4.483099937E0,7.665999889E0
3.254400000E1,-3.231599808E0,-7.655099869E0,4.714299679E0
3.256400156E1,-1.715299964E0,-7.422099590E0,3.333899975E0
3.258400156E1,-3.579999879E-2,-3.917699814E0,1.835599899E0
3.261400000E1,1.805799961E0,8.062999845E-1,1.519199967E0
3.263400000E1,2.191400051E0,3.212399960E0,2.750499964E0
3.265400156E1,2.868999839E-1,1.880999923E0,-2.510499954E0
3.267400156E1,5.016999841E-1,-2.950000018E-2,6.629999727E-2
3.270400000E1,1.129999943E-2,2.362900019E0,-8.489999920E-2
3.272400000E1,-5.189999938E-1,3.266899824E0,-9.490999579E-1
3.274400000E1,-5.830000043E-1,2.711699963E0,-1.520299911E0
3.276400000E1,-3.186999857E-1,2.536599874E0,-1.371999979E0
3.278400000E1,-1.398999989E-1,2.295899868E0,-6.268999577E-1
3.280400156E1,-2.255999893E-1,6.927999854E-1,-5.929999799E-2
3.283400156E1,3.260000050E-2,-1.778899908E0,-1.378199935E0
3.286400000E1,3.989999890E-1,-1.182099938E0,-3.310699940E0
3.288400156E1,1.060999990E0,-1.794299960E0,-6.837699890E0
3.291400000E1,4.335299969E0,-4.379699707E0,-8.103199959E0
3.293400000E1,4.523999691E0,-3.938399792E0,-2.266999960E0
3.295400156E1,4.619599819E0,-3.430699825E0,-9.831999540E-1
3.298400000E1,5.102600098E0,-4.891399860E0,-8.645400047E0
3.300400000E1,3.853299856E0,-3.994499922E0,-7.479599953E0
3.302400156E1,1.396099925E0,-3.751799822E0,-2.954299927E0
3.305400156E1,-1.684000015E0,-4.064799786E0,-8.543999791E-1
3.308400156E1,-2.355000019E0,-5.519499779E0,1.786099911E0
3.311400000E1,-5.206999779E0,-3.943699837E0,2.180299997E0
3.313400000E1,-7.498799801E0,-2.476699829E0,8.486999869E-1
3.315400156E1,-6.113399982E0,-1.863899946E0,4.560000002E-1
3.317400156E1,-4.616499901E0,-7.121999860E-1,9.519999623E-1
3.320400938E1,-2.029199839E0,8.459999561E-1,1.799699903E0
3.323400156E1,-7.116000056E-1,2.650799990E0,3.736899853E0
3.326400000E1,7.556999922E-1,2.209599972E0,6.224199772E0
3.328400000E1,-5.649999902E-2,2.017099857E0,5.359099865E0
3.330400156E1,-1.335399985E0,2.479399920E0,6.041800022E0
3.333400000E1,-2.332700014E0,3.545199871E0,6.760799885E0
3.335400000E1,-2.803200006E0,4.806900024E0,6.554899693E0
3.337400156E1,-2.640300035E0,6.112400055E0,5.874599934E0
3.339404375E1,-2.277699947E0,7.062899590E0,4.425499916E0
3.342400000E1,-6.823999882E-1,6.118999958E0,2.612999916E0
3.344400156E1,1.141499996E0,-1.318899989E0,-5.008899689E0
3.346400156E1,5.432699680E0,-1.692339897E1,-4.774609756E1
3.349400156E1,-6.348999739E-1,-8.774499893E0,-5.533999801E-1
3.351400156E1,6.356999874E-1,4.324999750E-1,-4.355999947E0
3.354400000E1,-2.758800030E0,4.741699696E0,-4.790999889E0
3.356400000E1,-7.141399860E0,-7.829999924E-2,1.572179985E1
3.358400156E1,-9.092100143E0,-4.028299809E0,9.226499557E0
3.361400000E1,-7.059000015E0,5.018999577E-1,4.206699848E0
3.363400000E1,-2.289099932E0,8.386999965E-1,7.227799892E0
3.365400156E1,-1.625100017E0,-7.986999750E-1,9.975500107E0
3.368400000E1,-1.084999919E0,-4.455699921E0,5.517799854E0
3.370400000E1,-2.820999920E-1,-4.250499725E0,3.879999876E0
3.372400156E1,1.119300008E0,-2.207599878E0,2.692299843E0
3.374400156E1,1.976499915E0,3.313999772E-1,1.807099938E0
3.377400000E1,3.368999958E-1,4.195699692E0,-6.123199940E0
3.379400000E1,-6.730999947E-1,2.306699991E0,-3.088500023E0
3.381400156E1,1.504999995E-1,3.637999892E-1,-1.010200024E0
3.383400156E1,-2.685999870E-1,1.670799971E0,-1.859699965E0
3.386400000E1,-5.060999990E-1,2.971400023E0,-1.710099936E0
3.388400156E1,1.542000026E-1,2.668599844E0,-3.946000040E-1
3.391400156E1,3.579999804E-1,1.512599945E0,1.302399993E0
3.394400156E1,7.196999788E-1,-7.213000059E-1,-1.923999935E-1
3.397400000E1,5.694000125E-1,-1.122799993E0,-1.921399951E0
3.399400000E1,3.249000013E-1,-1.846599936E0,-4.706099987E0
3.401400000E1,1.374899983E0,-3.491899967E0,-1.272139931E1
3.403400000E1,3.523799896E0,-3.918799877E0,-8.446000099E0
3.405400000E1,3.567499876E0,-3.048699856E0,-1.741499901E0
3.407400000E1,3.616599798E0,-2.422799826E0,-7.680999637E-1
3.409400156E1,3.384199858E0,-4.027199745E0,-4.125899792E0
3.412400000E1,1.650499940E0,-4.737199783E0,-8.433099747E0
3.414400000E1,-1.370999962E-1,-3.955599785E0,-5.058000088E0
3.416400156E1,-1.350399971E0,-3.739599943E0,-1.622399926E0
3.419400000E1,-1.412799954E0,-5.377999783E0,1.737100005E0
3.421400000E1,-2.912499905E0,-5.609299660E0,2.238999844E0
3.423400156E1,-4.443299770E0,-4.771500111E0,2.747299910E0
3.426400000E1,-6.237999916E0,-2.516799927E0,2.872000039E-1
3.428400000E1,-4.520400047E0,-2.732999921E-1,4.864999950E-1
3.430400156E1,-3.276799917E0,8.234999776E-1,1.441499949E0
3.433400000E1,-1.638399959E0,2.159600019E0,1.906399965E0
3.435400000E1,-1.073099971E0,3.344799995E0,3.671799898E0
3.437400156E1,-5.950999856E-1,3.592799902E0,4.985699654E0
3.440400000E1,-5.428999662E-1,2.713199854E0,6.007999897E0
3.442400000E1,-1.325199962E0,2.693500042E0,6.056799889E0
3.444400156E1,-1.721399903E0,2.919999838E0,5.718499660E0
3.447400000E1,-2.357499838E0,4.289199829E0,5.970099926E0
3.449400000E1,-2.409100056E0,5.856199741E0,5.131599903E0
3.451400156E1,-2.189100027E0,6.845099926E0,3.878799915E0
3.454400000E1,-3.612999916E-1,2.062000036E0,-2.372799873E0
3.456400000E1,1.988499999E0,-7.308699608E0,-2.122920036E1
3.458400156E1,2.525599957E0,-1.296169949E1,-2.129649925E1
3.460400156E1,1.515100002E0,-7.146800041E0,-5.364999771E0
3.463400000E1,-7.150999904E-1,2.302999943E-1,-4.683099747E0
3.465400156E1,-6.096999645E0,-2.785099983E0,-6.330299854E0
3.468400000E1,-7.178499699E0,-1.816599965E0,1.406129932E1
3.470400000E1,-5.802799702E0,3.605299950E0,1.033599949E1
3.472400000E1,-4.513700008E0,7.539599895E0,5.077099800E0
3.474400156E1,-2.839999914E0,5.292200089E0,4.727399826E0
3.477400000E1,-3.182699919E0,-7.940199852E0,5.235300064E0
3.479400000E1,-2.182399988E0,-9.179800034E0,5.499000072E0
3.481400156E1,-6.488999724E-1,-5.350199699E0,5.078099728E0
3.483400156E1,1.196599960E0,-1.715399981E0,4.250499725E0
3.486400000E1,3.379899979E0,4.144799709E0,-6.817399979E0
3.488400156E1,9.146999717E-1,1.577299953E0,-2.645900011E0
3.491400000E1,8.842999935E-1,-5.181999803E-1,9.296000004E-1
3.493400000E1,2.433999926E-1,2.155299902E0,1.563999951E-1
3.495400156E1,-1.692000031E-1,3.427699804E0,-1.284399986E0
3.498400000E1,-9.769999981E-2,2.709499836E0,-2.186399937E0
3.500400000E1,-1.341999918E-1,2.408999920E0,-1.541099906E0
3.502400156E1,7.499999832E-3,1.628600001E0,-6.485999823E-1
3.505400000E1,3.790999949E-1,-5.029000044E-1,-7.074999809E-1
3.507400000E1,3.176999986E-1,-7.857999802E-1,-1.728599906E0
3.509400156E1,1.879999936E-1,-4.177999794E-1,-3.309599876E0
3.512400000E1,1.218199968E0,-3.669299841E0,-7.516599655E0
3.514400000E1,2.564399958E0,-3.770900011E0,-8.152099609E0
3.516400156E1,2.836400032E0,-3.161799908E0,-3.514499903E0
3.519400000E1,1.899699926E0,-3.429099798E0,-3.914799929E0
3.521400000E1,2.553499937E0,-5.000699997E0,-8.188099861E0
3.523400156E1,2.781499863E0,-4.875899792E0,-7.780999660E0
3.525400156E1,1.042699933E0,-3.546299934E0,-5.166100025E0
3.527400156E1,-5.985999703E-1,-3.727999926E0,-3.153299809E0
3.530400156E1,-2.096999884E-1,-5.278999805E0,2.775099993E0
3.533400000E1,-2.529899836E0,-5.298500061E0,2.815799952E0
3.535400000E1,-3.261499882E0,-4.174099922E0,2.891899824E0
3.537400156E1,-5.995299816E0,-3.572099924E0,1.498000026E-1
3.540400000E1,-4.920099735E0,-3.571999967E-1,9.007999897E-1
3.542400000E1,-3.532500029E0,1.792499900E0,7.511000037E-1
3.544400156E1,-1.276099920E0,2.401299953E0,1.372599959E0
3.547400000E1,-6.390999556E-1,4.016200066E0,5.500400066E0
3.549400000E1,1.216999963E-1,3.582899809E0,5.833299637E0
3.551400156E1,-8.069999814E-1,3.182600021E0,5.534199715E0
3.554400000E1,-2.074399948E0,3.223999977E0,6.070899963E0
3.556400000E1,-2.174499989E0,3.644099951E0,6.439799786E0
3.558400156E1,-2.647500038E0,4.406499863E0,6.773999691E0
3.561400000E1,-2.404199839E0,6.196399689E0,4.748899937E0
3.563400000E1,-1.487800002E0,5.851500034E0,2.587800026E0
3.565400156E1,-6.168000102E-1,1.269199967E0,-3.059700012E0
3.567400156E1,8.788999915E-1,-6.975299835E0,-1.764389992E1
3.570400000E1,3.344699860E0,-1.192249966E1,-1.122029972E1
3.572400000E1,1.197099924E0,-3.610099792E0,-3.409299850E0
3.574400156E1,9.036999941E-1,1.983500004E0,-3.982800007E0
3.577400000E1,-3.978099823E0,1.602199912E0,-2.683599949E0
3.579400469E1,-6.420899868E0,-9.262999892E-1,1.196579933E1
3.582400000E1,-8.522299767E0,-4.631499767E0,-5.738999844E-1
3.584400000E1,-4.794199944E0,3.062099934E0,6.995599747E0
3.586400000E1,-2.454699993E0,1.764099956E0,7.437199593E0
3.588400156E1,-1.966899991E0,-2.307100058E0,6.333899975E0
3.591400000E1,-1.307500005E0,-4.253099918E0,4.605999947E0
3.593400000E1,-3.023999929E-1,-3.417299986E0,4.069699764E0
3.595400156E1,8.423999548E-1,-1.368600011E0,3.375900030E0
3.598400000E1,2.043999910E0,1.807500005E0,2.107100010E0
3.600400313E1,8.741999865E-1,4.335799694E0,-6.285099983E0
3.603400156E1,6.751999855E-1,8.229999989E-2,-1.640699983E0
3.605400156E1,3.922999799E-1,2.602999806E-1,-1.367399931E0
3.607400156E1,-2.142999917E-1,2.101699829E0,-1.991099954E0
3.609400469E1,5.049999803E-2,2.921299934E0,-1.540699959E0
3.612400000E1,5.677999854E-1,3.130800009E0,-1.206999943E-1
3.614400000E1,2.630000003E-2,1.931599975E0,8.693000078E-1
3.616400156E1,-3.163000047E-1,-3.261999786E-1,1.103999987E-1
3.618400469E1,-1.576000005E-1,-1.841499925E0,-1.593199968E0
3.620401094E1,1.692999899E-1,-1.267400026E0,-2.773399830E0
3.623400469E1,5.665000081E-1,-1.934499979E0,-6.833999634E0
3.626400000E1,3.644299984E0,-3.865700006E0,-6.507899761E0
3.628400000E1,3.922499895E0,-3.334899902E0,-1.948899984E0
3.630400156E1,3.355999947E0,-2.922699928E0,-1.394799948E0
3.633400000E1,2.333999872E0,-4.770400047E0,-1.209579945E1
3.635400000E1,1.626099944E0,-4.508199692E0,-9.661999702E0
3.637400000E1,6.441999674E-1,-3.351899862E0,-5.451099873E0
3.639400000E1,-5.598999858E-1,-2.891700029E0,-1.226499915E0
3.641400000E1,-5.469999835E-2,-4.553800106E0,2.683499813E0
3.643400000E1,-3.249000013E-1,-5.727299690E0,3.195099831E0
3.645400156E1,-1.649500012E0,-5.441599846E0,2.767400026E0
3.648400000E1,-4.212399960E0,-4.065199852E0,1.029799938E0
3.650400156E1,-4.496500015E0,-2.969099998E0,-1.017999947E-1
3.652400156E1,-3.725299835E0,-5.842999816E-1,6.545999646E-1
3.655400156E1,-2.212599993E0,1.046499968E0,9.394999743E-1
3.657400156E1,-1.581799984E0,2.099599838E0,1.784799933E0
3.659400156E1,-1.075999975E0,3.421199799E0,5.612400055E0
3.662400000E1,-5.409999937E-2,3.490899801E0,6.779299736E0
3.664400000E1,-1.293599963E0,3.664299965E0,5.625899792E0
3.666400156E1,-1.935899973E0,4.021699905E0,5.213299751E0
3.669400000E1,-2.531800032E0,4.478199959E0,6.169600010E0
3.671400000E1,-3.005899906E0,4.637700081E0,6.740900040E0
3.673400156E1,-2.940599918E0,5.418399811E0,4.845499992E0
3.676400000E1,-2.169899940E0,5.665699959E0,1.221099973E0
3.678400000E1,-1.178900003E0,1.223799944E0,-5.112999916E0
3.680400156E1,2.397699833E0,-9.255599976E0,-2.372369957E1
3.683400000E1,2.403899908E0,-1.000080013E1,-6.306499958E0
3.685400156E1,7.563999891E-1,-3.169099808E0,-4.987499714E0
3.687400156E1,1.848599911E0,2.014999866E0,-4.608999729E0
3.690400000E1,-2.265799999E0,-1.785699964E0,-2.644700050E0
3.692400000E1,-6.776899815E0,-2.360999823E0,1.592840004E1
3.694400156E1,-7.890599728E0,-1.865299940E0,7.019099712E0
3.697400000E1,-5.677299976E0,4.757199764E0,4.255799770E0
3.699400000E1,-4.221699715E0,-8.199999481E-2,8.296599388E0
3.701400156E1,-3.684299946E0,-5.269099712E0,7.066299915E0
3.704400000E1,-1.267899990E0,-5.090799809E0,3.897099972E0
3.706400000E1,-2.049999870E-2,-2.578099966E0,3.148000002E0
3.708400156E1,2.979899883E0,-2.667999864E-1,-2.128999949E0
3.710400156E1,2.786299944E0,3.097399950E0,-1.105999947E-1
3.713400156E1,7.583000064E-1,1.330899954E0,-2.147699833E0
3.715400156E1,8.107999563E-1,-2.044999897E-1,-8.366999626E-1
3.718400000E1,1.439999975E-2,2.957099915E0,-1.095299959E0
3.720401094E1,-3.014999926E-1,3.421399832E0,-1.295599937E0
3.723400156E1,8.089999855E-2,2.668299913E0,-3.586999774E-1
3.725400313E1,9.809999913E-2,1.876899958E0,-2.187999934E-1
3.728400000E1,3.860999942E-1,-4.449999928E-1,-9.831999540E-1
3.730400156E1,4.533999860E-1,-1.725299954E0,-1.881099939E0
3.733400000E1,2.955999970E-1,-9.593999982E-1,-4.656300068E0
3.735400156E1,1.372799993E0,-2.555199862E0,-9.851200104E0
3.737400156E1,4.105400085E0,-4.362800121E0,-9.569899559E0
3.740400000E1,4.437999725E0,-3.334399939E0,-1.580099940E0
3.742400000E1,4.134699821E0,-3.341199875E0,-3.276000023E0
3.744400156E1,3.418900013E0,-5.177999973E0,-8.040299416E0
3.747400000E1,1.134299994E0,-4.365200043E0,-4.242099762E0
3.749400000E1,-7.935999632E-1,-4.490900040E0,-2.843899965E0
3.751400156E1,-4.315999746E-1,-6.087999821E0,1.434099913E0
3.754400000E1,-2.734299898E0,-6.908099651E0,2.536499977E0
3.756400000E1,-4.190000057E0,-5.606999874E0,2.844099998E0
3.758400156E1,-7.710899830E0,-3.450199842E0,1.144799948E0
3.760400156E1,-7.196399689E0,-9.766999483E-1,8.049999923E-2
3.763400000E1,-4.255599976E0,1.043099999E0,1.114799976E0
3.765400000E1,-2.163599968E0,1.564000010E0,2.293299913E0
3.767400000E1,-1.395599961E0,3.190399885E0,2.790099859E0
3.769400000E1,-7.608999610E-1,3.780299902E0,4.861700058E0
3.771400000E1,-2.529000044E-1,3.417399883E0,5.778500080E0
3.773400156E1,-7.949000001E-1,2.990700006E0,5.465699673E0
3.776400000E1,-1.881299973E0,3.563399792E0,6.618199825E0
3.778400000E1,-2.294899940E0,4.175600052E0,6.625499725E0
3.780400156E1,-2.290400028E0,4.835499763E0,6.490299702E0
3.783400000E1,-1.654699922E0,6.184599876E0,4.795300007E0
3.785400156E1,-1.400699973E0,6.257599831E0,3.337499857E0
3.787400156E1,-1.216099977E0,3.378399849E0,-7.956999540E-1
3.790400000E1,9.073999524E-1,-1.142759991E1,-3.282019806E1
3.792400000E1,4.720999897E-1,-1.341969967E1,-1.144019985E1
3.794400156E1,-1.056999922E0,-5.271199703E0,-4.260799885E0
3.797400000E1,-9.532999992E-1,3.321899891E0,-5.062399864E0
3.799400000E1,-5.985899925E0,-3.971999884E-1,-4.158999920E0
3.801400156E1,-6.762799740E0,-2.661000013E0,1.439179993E1
3.804400000E1,-6.952299595E0,1.337700009E0,5.666899681E0
3.806400000E1,-2.850699902E0,4.770400047E0,7.205399990E0
3.808400156E1,-1.830699921E0,6.705999970E-1,6.198699951E0
3.811400000E1,-2.718999863E0,-7.606799603E0,6.280200005E0
3.813400000E1,-9.433999658E-1,-6.427899837E0,5.396100044E0
3.815400000E1,9.160999656E-1,-3.339699984E0,4.339099884E0
3.817400156E1,1.620700002E0,-6.639999896E-2,3.495999813E0
3.820400938E1,1.438699961E0,4.819999695E0,-4.565899849E0
3.823400156E1,1.305000037E-1,6.608999968E-1,-8.605999947E-1
3.825400156E1,3.079999983E-2,-1.070000008E-1,-1.228000000E-1
3.827400156E1,-2.879999876E-1,2.216699839E0,-4.354999959E-1
3.830400156E1,-3.558999896E-1,3.584899902E0,-3.220999837E-1
3.833400000E1,-1.946999878E-1,2.843400002E0,-2.204999924E-1
3.835400000E1,-4.501999915E-1,1.103500009E0,-3.639999926E-1
3.837400156E1,-3.723999858E-1,-1.095499992E0,-1.275300026E0
3.840400000E1,3.005999923E-1,-1.124799967E0,-3.362599850E0
3.842400000E1,5.558999777E-1,-1.282599926E0,-6.958699703E0
3.844400156E1,1.959499955E0,-3.144599915E0,-1.228469944E1
3.847400000E1,3.695599794E0,-3.561599970E0,-2.058399916E0
3.849400000E1,3.856199980E0,-2.035099983E0,2.415999919E-1
3.851400156E1,3.704099894E0,-1.825799942E0,-2.433099985E0
3.853400156E1,3.065099955E0,-3.499799967E0,-1.192739964E1
3.856400000E1,1.653699994E0,-4.973199844E0,-5.077300072E0
3.858400156E1,2.583000064E-1,-4.483699799E0,-2.560499907E0
3.860400156E1,-5.619999766E-2,-5.779999733E0,1.336300015E0
3.863400000E1,-1.671199918E0,-6.764699936E0,2.644599915E0
3.865400000E1,-3.578799963E0,-6.488100052E0,2.694099903E0
3.867400156E1,-5.896899700E0,-5.145599842E0,1.894799948E0
3.870400000E1,-5.553499699E0,-1.396099925E0,9.149999917E-2
3.872400000E1,-3.877899885E0,8.728999496E-1,2.628000081E-1
3.874400156E1,-1.733999968E0,1.573599935E0,1.519899964E0
3.877400000E1,-5.597000122E-1,2.904000044E0,3.685099840E0
3.879400000E1,2.522999942E-1,3.740599871E0,7.290999889E0
3.881400156E1,5.000000000E-1,3.749199867E0,6.737799644E0
3.884400156E1,-1.366199970E0,4.107899666E0,6.276599884E0
3.887400156E1,-1.973099947E0,4.454599857E0,6.456899643E0
3.890400000E1,-2.206899881E0,4.384799957E0,7.089799881E0
3.892400000E1,-2.760999918E0,4.857699871E0,4.984200001E0
3.894400156E1,-2.728399992E0,5.415999889E0,2.636499882E0
3.897400156E1,-2.267199993E0,2.183799982E0,-2.366299868E0
3.900400000E1,2.103100061E0,-1.272599983E1,-3.312899780E1
3.902400156E1,2.053599834E0,-1.409539986E1,-9.476299286E0
3.905400000E1,6.496999860E-1,-1.187099934E0,-5.596899986E0
3.907400000E1,8.105999827E-1,3.523399830E0,-4.234600067E0
3.909400156E1,-2.804399967E0,4.632999897E-1,-4.763099670E0
3.912400000E1,-5.299200058E0,-4.279999733E0,1.006159973E1
3.914400000E1,-6.453700066E0,9.529999495E-1,9.407999992E0
3.916400156E1,-4.916100025E0,5.305999756E0,6.234799862E0
3.919400000E1,-3.691599846E0,1.633000016E0,5.246500015E0
3.921400000E1,-4.273799896E0,-5.640399933E0,5.909399986E0
3.923400156E1,-2.290699959E0,-6.986199856E0,3.587299824E0
3.925400469E1,-1.241799951E0,-3.015199900E0,2.783399820E0
3.928400000E1,3.223699808E0,1.873199940E0,1.119300008E0
3.930400156E1,2.509500027E0,2.376600027E0,-2.174599886E0
3.933400000E1,7.177000046E-1,-1.929999888E-1,-1.557299972E0
3.935400000E1,9.326999784E-1,5.805000067E-1,2.338999957E-1
3.937400156E1,3.213999867E-1,2.634399891E0,1.331000030E-1
3.940400000E1,-2.680999935E-1,2.959199905E0,-7.221999764E-1
3.942400000E1,-3.784999847E-1,2.269299984E0,-1.044600010E0
3.944400156E1,-4.882999957E-1,1.758299947E0,-1.188099980E0
3.947400000E1,-1.972000003E-1,3.791999817E-1,-1.185799956E0
3.949400000E1,3.759999946E-2,-1.060400009E0,-1.382099986E0
3.951400156E1,2.716000080E-1,-1.400499940E0,-1.781299949E0
3.954400000E1,1.153800011E0,-1.602499962E0,-5.130799770E0
3.956400156E1,3.532999992E0,-3.488099813E0,-1.228170013E1
3.958400156E1,4.915499687E0,-4.124099731E0,-8.570899963E0
3.960400156E1,3.836099863E0,-2.873399973E0,-2.563699961E0
3.963400000E1,2.674899817E0,-2.972199917E0,-4.471399784E0
3.965400000E1,1.860899925E0,-4.562900066E0,-8.953599930E0
3.967400156E1,8.042999506E-1,-4.790800095E0,-5.981699944E0
3.970400000E1,2.111999989E-1,-5.992899895E0,2.856999934E-1
3.972400000E1,-5.938000083E-1,-6.846999645E0,2.353199959E0
3.974400156E1,-2.738499880E0,-7.448899746E0,2.474299908E0
3.977400000E1,-5.352099895E0,-5.507799625E0,2.994599819E0
3.979400000E1,-8.609299660E0,-1.915299892E0,9.181999564E-1
3.981400156E1,-5.717199802E0,2.023999989E-1,3.626999855E-1
3.984400000E1,-3.126199961E0,1.917199969E0,1.263000011E0
3.986400312E1,-1.688099980E0,2.917299986E0,2.487200022E0
3.989400000E1,-4.980999827E-1,4.017399788E0,5.377099991E0
3.991400000E1,1.802999973E-1,3.630800009E0,6.459399700E0
3.993400000E1,-9.129999578E-2,2.989099979E0,5.873499870E0
3.995400156E1,-1.113600016E0,3.333299875E0,6.544099808E0
3.998400000E1,-1.721399903E0,4.131999969E0,6.512399673E0
4.000400000E1,-2.036299944E0,4.791999817E0,6.729499817E0
4.002400156E1,-2.032199860E0,5.774999619E0,5.976899624E0
4.005400000E1,-1.239699960E0,5.659499645E0,3.201299906E0
4.007400000E1,2.510000020E-2,-8.438000083E-1,-3.702899933E0
4.009400156E1,8.179000020E-1,-8.724900246E0,-2.495769882E1
4.012400000E1,1.829100013E0,-1.066659927E1,-5.578700066E0
4.014400000E1,5.392000079E-1,-3.664399862E0,-3.693599939E0
4.016400156E1,5.225999951E-1,1.482899904E0,-4.105499744E0
4.019400000E1,-3.992799997E0,4.399999976E-3,-2.161299944E0
4.021400000E1,-5.604199886E0,-1.370499969E0,1.159049988E1
4.023400156E1,-7.346399784E0,-1.430499911E0,3.833799839E0
4.026400000E1,-4.099499702E0,4.093800068E0,6.272399902E0
4.028400000E1,-2.717000008E0,1.687399983E0,6.702799797E0
4.030400156E1,-2.645699978E0,-3.054299831E0,7.110399723E0
4.033400000E1,-1.548399925E0,-5.527499676E0,4.455899715E0
4.035400000E1,-3.818999827E-1,-3.258599997E0,3.455699921E0
4.037400156E1,1.231699944E0,-6.251999736E-1,3.001199961E0
4.040400000E1,2.711099863E0,3.924899817E0,-6.044899940E0
4.042400000E1,7.048999667E-1,2.421599865E0,-2.931299925E0
4.044400156E1,8.034999967E-1,-3.246999979E-1,-5.220999718E-1
4.046400313E1,2.278999984E-1,4.194999933E-1,-8.606999516E-1
4.049400000E1,-2.142999917E-1,2.663399935E0,-7.376999855E-1
4.051400156E1,1.048999950E-1,2.746299982E0,-3.680000007E-1
4.054400000E1,6.719999760E-2,2.160300016E0,2.904999852E-1
4.056400000E1,-1.873999983E-1,6.680999994E-1,-4.913999736E-1
4.058400000E1,-9.070000052E-2,-1.265599966E0,-1.825599909E0
4.060400313E1,-8.909999579E-2,-1.957199931E0,-2.560600042E0
4.063400000E1,2.412000000E-1,-1.341199994E0,-7.599699974E0
4.065400312E1,2.736099958E0,-2.915599823E0,-1.116149998E1
4.068400000E1,4.167900085E0,-3.190899849E0,-2.807199955E0
4.070400312E1,4.124700069E0,-2.147399902E0,-1.190999985E0
4.073400156E1,2.480200052E0,-3.693899870E0,-7.637799740E0
4.075400156E1,8.506000042E-1,-4.332099915E0,-1.147609997E1
4.078400000E1,1.023599982E0,-4.855499744E0,-1.865999937E0
4.080400469E1,1.458299994E0,-5.425099850E0,1.628700018E0
4.083400000E1,-1.324599981E0,-6.669699669E0,2.647199869E0
4.085400938E1,-3.120299816E0,-6.552000046E0,2.444000006E0
4.088400156E1,-6.749799728E0,-4.208399773E0,1.699399948E0
4.091400000E1,-7.159199715E0,-5.343999863E-1,2.131000012E-1
4.093400000E1,-4.766599655E0,3.622999787E-1,2.560999990E-1
4.095400156E1,-3.240700006E0,1.603799939E0,1.357800007E0
4.098400000E1,-1.391099930E0,3.905999899E0,3.239399910E0
4.100400000E1,-7.328999639E-1,4.536999702E0,5.106400013E0
4.102400156E1,-5.810000002E-2,4.018700123E0,6.047199726E0
4.105400000E1,-1.084800005E0,3.237699986E0,6.156099796E0
4.107400000E1,-1.537099957E0,3.384999990E0,6.656599998E0
4.109400156E1,-1.660300016E0,3.773699999E0,6.671999931E0
4.111400156E1,-1.752699971E0,4.775099754E0,6.198199749E0
4.114400000E1,-1.656299949E0,6.479799747E0,4.537699699E0
4.116400156E1,-4.066999853E-1,3.800799847E0,9.318999648E-1
4.119400000E1,1.085699916E0,-7.028199673E0,-2.298110008E1
4.121400000E1,3.079200029E0,-1.310019970E1,-2.242619896E1
4.123400156E1,1.759799957E0,-6.264599800E0,-3.058599949E0
4.126400000E1,1.219799995E0,1.663299918E0,-3.622499943E0
4.128400000E1,-2.557399988E0,1.608699918E0,-3.588099957E0
4.130400156E1,-5.606999874E0,-1.492299914E0,2.702899933E0
4.133400000E1,-7.375000000E0,-2.756399870E0,3.006199837E0
4.135400000E1,-7.304199696E0,3.848199844E0,4.468499660E0
4.137400156E1,-2.867599964E0,4.991300106E0,6.749799728E0
4.140400000E1,-2.954200029E0,-3.308499813E0,5.573299885E0
4.142400000E1,-2.087699890E0,-7.315499783E0,3.338999987E0
4.144400156E1,-8.976999521E-1,-5.966799736E0,2.704399824E0
4.146400156E1,5.595999956E-1,-2.763000011E0,2.690599918E0
4.149400000E1,2.175099850E0,1.465499997E0,2.201499939E0
4.151400156E1,1.646899939E0,4.380300045E0,-3.129999876E0
4.153400156E1,1.466999948E-1,2.008300066E0,-2.993599892E0
4.156400000E1,1.040699959E0,-6.254999638E-1,-5.302999616E-1
4.158400000E1,5.658999681E-1,1.398599982E0,-1.182600021E0
4.160400156E1,3.766999841E-1,2.753700018E0,-7.761999965E-1
4.163400000E1,8.086000085E-1,3.017299891E0,-3.229999840E-1
4.165400000E1,4.936999977E-1,2.684499979E0,-3.350000083E-2
4.167400156E1,-9.049999714E-2,8.366999626E-1,-3.410999775E-1
4.170400000E1,-8.749999851E-2,-1.660200000E0,-2.494699955E0
4.172400000E1,-1.201999933E-1,-1.593299985E0,-3.343699932E0
4.174400156E1,4.389999807E-2,-1.144299984E0,-6.180299759E0
4.177400156E1,3.397799969E0,-3.965699911E0,-9.216499329E0
4.180400156E1,4.274499893E0,-3.519299984E0,-1.966199994E0
4.183400000E1,4.442399979E0,-3.596400023E0,-3.732999802E0
4.185400000E1,4.131799698E0,-5.030499935E0,-7.529500008E0
4.187400156E1,1.766499996E0,-4.427799702E0,-6.675899982E0
4.190400000E1,-2.214200020E0,-3.536299944E0,-3.949800014E0
4.192400000E1,-1.896499991E0,-4.671199799E0,5.200000014E-3
4.194400156E1,-2.067800045E0,-5.447400093E0,1.954599977E0
4.196400156E1,-4.002299786E0,-4.999799728E0,2.458799839E0
4.199400000E1,-6.072999954E0,-3.286999941E0,2.935999870E0
4.201400156E1,-8.317500114E0,-1.749399900E0,2.110599995E0
4.203400156E1,-5.864299774E0,-1.270999908E-1,6.157999635E-1
4.206400000E1,-2.723399878E0,1.649699926E0,1.157500029E0
4.208400000E1,-1.686299920E0,2.939699888E0,2.392899990E0
4.210400000E1,-9.991999865E-1,3.683799982E0,4.489299774E0
4.212400000E1,-4.490000010E-2,3.581899881E0,5.243299961E0
4.214400000E1,-2.259999886E-2,3.146699905E0,5.612799644E0
4.216400000E1,-2.470999956E-1,2.777099848E0,6.378200054E0
4.218400000E1,-6.268000007E-1,2.968099833E0,6.100999832E0
4.220400938E1,-1.009299994E0,4.266900063E0,6.091199875E0
4.223400000E1,-1.230799913E0,6.188299656E0,6.086799622E0
4.225400156E1,-9.840999842E-1,6.593699932E0,5.116799831E0
4.227400156E1,-2.541999817E-1,3.324800014E0,6.782999635E-1
4.230400000E1,1.793099999E0,-1.002449989E1,-3.410469818E1
4.232400000E1,2.609999895E0,-1.221199989E1,-1.242849922E1
4.234400000E1,4.136999846E-1,-4.789899826E0,-3.557499886E0
4.236400000E1,-5.985000134E-1,6.259999871E-1,-5.566699982E0
4.238400000E1,-6.479699612E0,-2.534099817E0,-7.868000031E0
4.240400000E1,-6.810799599E0,-8.125399590E0,-1.532899976E0
4.242400000E1,-6.243599892E0,3.200999796E-1,1.876790047E1
4.244400000E1,-4.657899857E0,6.934399605E0,1.129430008E1
4.246400000E1,-3.704099894E0,8.413599968E0,5.418299675E0
4.248400000E1,-5.511799812E0,5.008599758E0,2.084599972E0
4.250400000E1,-6.397799969E0,-4.444499969E0,4.196599960E0
4.252400000E1,-1.862499952E0,-1.391849995E1,3.341599941E0
4.254400000E1,-1.134299994E0,-6.053999901E0,1.676499963E0
4.256400000E1,-2.939999998E-1,-9.742999673E-1,2.031299829E0
4.258400000E1,1.864199996E0,1.156599998E0,3.098699808E0
4.260400000E1,3.802500010E0,2.197999954E0,1.135399938E0
4.262400000E1,3.076200008E0,1.964999914E0,-1.777799964E0
4.264400000E1,1.199100018E0,1.457599998E0,-8.109999895E-1
4.266400000E1,7.458999753E-1,1.523199916E0,-4.529999793E-1
4.268400000E1,6.058999896E-1,1.664799929E0,-8.837999701E-1
4.270400000E1,2.944999933E-1,2.030200005E0,-1.151199937E0
4.272400000E1,1.137999967E-1,2.274799824E0,-1.729299903E0
4.274400000E1,-1.457999945E-1,1.960699916E0,-2.200399876E0
4.276400000E1,-2.106999904E-1,8.021999598E-1,-1.916099906E0
4.278400000E1,1.771000028E-1,-6.236999631E-1,-1.677999973E0
4.280400156E1,8.786999583E-1,-1.863099933E0,-1.426299930E0
4.283400000E1,1.316399932E0,-1.356400013E0,-2.646499872E0
4.285400313E1,1.927099943E0,-2.538699865E0,-9.201000214E0
4.288400156E1,4.698800087E0,-3.662400007E0,-7.331299782E0
4.291400000E1,3.592399836E0,-1.945499897E0,-1.680599928E0
4.293400000E1,2.458999872E0,-1.592099905E0,-4.932699680E0
4.295400156E1,1.628700018E0,-3.420399904E0,-1.129629993E1
4.298400000E1,1.436499953E0,-5.981499672E0,-3.721699953E0
4.300400000E1,4.939999878E-1,-6.790899754E0,-4.131999910E-1
4.302400156E1,-4.160000011E-2,-7.228399754E0,2.463500023E0
4.305400000E1,-2.961400032E0,-6.933300018E0,2.067999840E0
4.307400000E1,-4.756499767E0,-5.401499748E0,2.434499979E0
4.309400156E1,-7.995299816E0,-2.576900005E0,8.883000016E-1
4.312400000E1,-5.825999737E0,-1.578999907E-1,-9.699999355E-3
4.314400000E1,-3.860299826E0,5.304999948E-1,1.133999974E-1
4.316400156E1,-2.516899824E0,1.372799993E0,1.377699971E0
4.319400000E1,-1.108299971E0,3.469599962E0,3.769199848E0
4.321400000E1,-8.420000076E-1,4.181099892E0,5.436599731E0
4.323400156E1,-1.139999926E-2,3.536199808E0,6.680299759E0
4.326400000E1,-9.127999544E-1,3.507599831E0,6.264800072E0
4.328400000E1,-1.001299977E0,4.173099995E0,6.333099842E0
4.330400156E1,-1.139500022E0,4.933799744E0,6.506799698E0
4.332400156E1,-1.510999918E0,5.935599804E0,6.385299683E0
4.335400000E1,-2.364500046E0,6.780799866E0,3.831799984E0
4.337404375E1,-1.849099994E0,4.288300037E0,-1.159999967E-1
4.340400000E1,6.391999722E-1,-9.338899612E0,-2.420999908E1
4.342400000E1,2.362099886E0,-1.389680004E1,-2.024169922E1
4.344400156E1,2.837299824E0,-5.779399872E0,-4.994699955E0
4.347400000E1,9.046999812E-1,-1.915499926E0,-4.031799793E0
4.349400000E1,-4.851900101E0,-6.145199776E0,-8.014599800E0
4.351400000E1,-5.826799870E0,-5.238199711E0,7.655200005E0
4.353400000E1,-7.193500042E0,1.369899988E0,1.340489960E1
4.355400000E1,-5.241099834E0,7.220799923E0,9.345499992E0
4.357400000E1,-3.724699974E0,7.961899757E0,5.994099617E0
4.359400156E1,-4.648900032E0,3.389899969E0,5.017299652E0
4.362400000E1,-2.733999968E0,-1.124720001E1,3.981899977E0
4.364400000E1,-2.339499950E0,-5.344399929E0,3.961699963E0
4.366400156E1,-1.604200006E0,-4.802999794E-1,3.558599949E0
4.369400000E1,4.764299870E0,2.593400002E0,-7.284199715E0
4.371400000E1,2.814399958E0,1.978099942E0,-7.253599644E0
4.373400156E1,1.451699972E0,7.799999788E-3,-3.513999879E-1
4.376400000E1,8.087999821E-1,1.294700027E0,4.239999950E-1
4.378400000E1,3.513999879E-1,2.021800041E0,-3.674999774E-1
4.380400156E1,3.037999868E-1,2.161499977E0,-2.967999876E-1
4.383400000E1,-1.399999950E-2,1.901799917E0,-6.772999763E-1
4.385400000E1,-4.032000005E-1,6.654999852E-1,-1.585199952E0
4.387400156E1,-7.549999654E-2,-5.568000078E-1,-3.652999878E0
4.390400000E1,1.355599999E0,-1.973999888E-1,-4.418299675E0
4.392400000E1,2.183399916E0,-7.863999605E-1,-3.836599827E0
4.394400156E1,3.102999926E0,-1.691999912E0,-4.073999882E0
4.396400156E1,4.059899807E0,-2.593499899E0,-4.945499897E0
4.399400000E1,4.495899677E0,-3.290599823E0,-5.069299698E0
4.401400000E1,4.397200108E0,-4.293499947E0,-4.917799950E0
4.403400156E1,3.312899828E0,-5.008500099E0,-4.842499733E0
4.406400000E1,-3.569999933E-1,-3.255199909E0,-6.124099731E0
4.408400000E1,-2.555699825E0,-2.719499826E0,-4.753699780E0
4.410400000E1,-3.257799864E0,-3.959499836E0,-1.276099920E0
4.412400000E1,-2.994999886E0,-5.629799843E0,1.682099938E0
4.414400000E1,-5.023399830E0,-5.567299843E0,2.032899857E0
4.416400156E1,-9.748899460E0,-3.772599936E0,1.453599930E0
4.419400000E1,-6.897399902E0,-1.559999943E0,7.476999760E-1
4.421400000E1,-4.802899837E0,2.009999901E-1,1.406799912E0
4.423400156E1,-2.281899929E0,8.316999674E-1,2.540299892E0
4.426400000E1,-1.199100018E0,1.963299990E0,5.561999679E-1
4.428400000E1,-9.478999972E-1,2.325500011E0,2.286599874E0
4.430400156E1,-6.757000089E-1,2.614099979E0,3.898199797E0
4.433400000E1,-3.819999844E-2,2.737200022E0,5.700799942E0
4.435400000E1,-2.066999972E-1,3.304099798E0,5.670399666E0
4.437400156E1,-4.189999998E-1,4.092700005E0,5.339299679E0
4.439400156E1,-2.960000038E-1,5.006400108E0,4.605899811E0
4.442400000E1,1.966999918E-1,5.126199722E0,2.040999889E0
4.444400156E1,7.820999622E-1,3.388599873E0,-4.058499813E0
4.446400156E1,9.361000061E-1,-4.487999976E-1,-1.166679955E1
4.449400000E1,-9.073999524E-1,-5.449299812E0,-1.121210003E1
4.451400000E1,-4.283299923E0,-3.011899948E0,-7.523499966E0
4.453400000E1,-3.493199825E0,1.291000009E0,-5.831199646E0
4.455400000E1,-7.947999835E-1,2.483299971E0,-4.230499744E0
4.457400000E1,-2.386399984E0,-3.061199903E0,-1.868499994E0
4.459400156E1,-6.591199875E0,-5.667799950E0,3.942699909E0
4.462400000E1,-3.533499956E0,1.158399940E0,7.445999622E0
4.464400000E1,-1.468299985E0,6.105499744E0,1.086829948E1
4.466400156E1,-2.568500042E0,4.297699928E0,7.542500019E0
4.469400000E1,-2.952800035E0,-7.762599945E0,4.412399769E0
4.471400000E1,-2.987900019E0,-9.087800026E0,3.895900011E0
4.473400156E1,-1.541099906E0,-5.644899845E0,3.909499884E0
4.476400000E1,1.949499965E0,-5.813999772E-1,3.925299883E0
4.478400000E1,3.545199871E0,2.583600044E0,-1.294099927E0
4.480400156E1,4.129099846E0,4.072499752E0,-7.705000043E-1
4.483400000E1,2.600600004E0,-1.322000027E-1,-1.102599978E0
4.485400156E1,1.752799988E0,1.519999932E-2,-1.704399943E0
4.487400156E1,9.627999663E-1,1.486899972E0,-2.702399969E0
4.490400000E1,8.507999778E-1,2.329799891E0,-2.276900053E0
4.492400000E1,9.372999668E-1,2.791299820E0,-1.618600011E0
4.494400156E1,8.058999777E-1,2.493299961E0,-1.009299994E0
4.496400156E1,3.709999919E-1,3.924999833E-1,-2.069000006E-1
4.499400156E1,1.314999908E-1,-1.921799898E0,-1.807599902E0
4.502400156E1,-1.017999947E-1,-8.675999641E-1,-4.478099823E0
4.504400156E1,1.996999979E0,-2.509799957E0,-9.671199799E0
4.506400156E1,5.520799637E0,-4.918600082E0,-1.006139946E1
4.509400156E1,4.311899662E0,-2.998299837E0,-3.513099909E0
4.512400000E1,2.087499857E0,-4.955899715E0,-7.028299809E0
4.514400000E1,2.441799879E0,-5.271800041E0,-1.039179993E1
4.516400156E1,2.600100040E0,-3.650899887E0,-8.724200249E0
4.519400000E1,1.899799943E0,-3.971299887E0,1.962700009E0
4.521400000E1,2.185499907E0,-4.518899918E0,3.961399794E0
4.523400156E1,7.168999910E-1,-5.706999779E0,4.721299648E0
4.526400000E1,-2.068899870E0,-6.212800026E0,4.363699913E0
4.528400000E1,-3.298599958E0,-5.822999954E0,-5.916999578E-1
4.530400156E1,-4.057300091E0,-4.814699650E0,-1.810699940E0
4.533400000E1,-2.682499886E0,1.684999913E-1,4.470000044E-2
4.535400000E1,-2.644000053E-1,2.350100040E0,1.903099895E0
4.537400156E1,7.182999849E-1,3.443199873E0,5.265799999E0
4.539400156E1,1.675699949E0,4.114500046E0,8.542699814E0
4.542400000E1,-8.858999610E-1,4.979300022E0,7.278399944E0
4.544400156E1,-2.596999884E0,5.852900028E0,6.259999752E0
4.546400156E1,-2.632200003E0,5.816799641E0,6.451399803E0
4.549400000E1,-3.215399981E0,6.237699986E0,6.708999634E0
4.551400156E1,-3.728299856E0,6.694499969E0,6.155999660E0
4.553400156E1,-3.192199945E0,5.907599926E0,2.919899940E0
4.556400000E1,7.710000128E-2,-6.649199963E0,-1.272359943E1
4.558400000E1,3.136000037E-1,-1.170599937E1,-3.035489845E1
4.560400156E1,3.289599895E0,-1.002279949E1,-1.015889931E1
4.563400000E1,5.836599827E0,-1.573300004E0,-4.109899998E0
4.565400000E1,5.666899681E0,2.767999887E0,-1.331499934E0
4.567400156E1,9.447000027E-1,1.124699950E0,-9.580999613E-1
4.570400000E1,-5.655399799E0,-6.167599678E0,2.801499844E0
4.572400000E1,-8.422999382E0,-4.940599918E0,5.858900070E0
4.574400156E1,-5.156699657E0,3.907299995E0,9.052999496E0
4.577400000E1,-2.931699991E0,-9.399999864E-3,6.630799770E0
4.579400000E1,-1.621599913E0,-5.851599693E0,3.697799921E0
4.581400156E1,-9.201999903E-1,-5.682899952E0,2.945799828E0
4.584400000E1,8.836999536E-1,-7.103999853E-1,2.744799852E0
4.586400000E1,2.109899998E0,1.319199920E0,2.889299870E0
4.588400156E1,2.639400005E0,2.427399874E0,3.200699806E0
4.591400000E1,-1.176900029E0,3.634299994E0,-8.625800133E0
4.593400000E1,8.553999662E-1,1.021600008E0,-4.197799683E0
4.595400156E1,1.583899975E0,3.073999882E-1,-2.357899904E0
4.597400156E1,9.178999662E-1,1.082899928E0,-1.997499943E0
4.600400000E1,1.538599968E0,2.497400045E0,2.366999984E-1
4.602400156E1,1.466099977E0,2.972699881E0,1.034999967E0
4.605400000E1,1.329100013E0,5.629000068E-1,8.285999894E-1
4.607400000E1,1.063099980E0,-5.665999651E-1,-9.257999659E-1
4.609400156E1,6.250000000E-1,-8.042999506E-1,-1.567899942E0
4.612400000E1,3.925999999E-1,-1.519400001E0,-1.736199975E0
4.614400000E1,5.185999870E-1,-3.196799994E0,-3.990700006E0
4.616400156E1,2.646199942E0,-4.925899982E0,-1.016829967E1
4.619400000E1,4.225500107E0,-3.669499874E0,-7.431299686E0
4.621400000E1,2.681799889E0,-2.679600000E0,-2.604899883E0
4.623400156E1,2.016000032E0,-3.982299805E0,-5.048699856E0
4.626400000E1,4.067800045E0,-4.056200027E0,-9.037599564E0
4.628400000E1,2.581399918E0,-3.414199829E0,-6.869299889E0
4.630400156E1,2.524699926E0,-5.180900097E0,4.280999899E-1
4.633400000E1,2.367899895E0,-5.847199917E0,4.661399841E0
4.635400000E1,8.641999960E-1,-6.186999798E0,4.129600048E0
4.637400156E1,-9.052999616E-1,-5.407199860E0,3.581599951E0
4.639400156E1,-2.400899887E0,-4.051199913E0,3.791999817E0
4.642400000E1,-4.920599937E0,-2.142199993E0,-1.197999939E-1
4.644400000E1,-4.230799675E0,2.613999844E-1,-3.849999905E-1
4.646400000E1,-2.714599848E0,1.163299918E0,1.240899920E0
4.648400000E1,-1.393299937E0,2.021299839E0,3.276700020E0
4.650400000E1,-5.277000070E-1,3.496299982E0,5.712800026E0
4.652400156E1,1.325599909E0,3.407099962E0,5.844399929E0
4.654400156E1,1.072600007E0,3.135499954E0,6.119799614E0
4.657400000E1,-1.087599993E0,3.922199965E0,6.343400002E0
4.659400156E1,-1.875199914E0,4.581500053E0,6.273399830E0
4.662400000E1,-3.051899910E0,5.404099941E0,5.847099781E0
4.664400000E1,-4.209899902E0,5.866299629E0,6.420799732E0
4.666400156E1,-4.607999802E0,5.463299751E0,2.174099922E0
4.669400000E1,-2.266399860E0,-3.029899836E0,-1.200449944E1
4.671400000E1,-1.715199947E0,-8.214499474E0,-2.512059975E1
4.673400156E1,2.320699930E0,-7.034199715E0,-1.467989922E1
4.676400000E1,6.755899906E0,-3.331699848E0,-4.894700050E0
4.678400000E1,8.855199814E0,-2.924499989E0,1.320799947E0
4.680400000E1,-4.676999748E-1,-1.499099970E0,1.126270008E1
4.682400000E1,-9.471599579E0,-4.097199917E0,1.096220016E1
4.684400000E1,-8.151899338E0,-6.462800026E0,-9.396299362E0
4.686400000E1,-7.426399708E0,1.971699953E0,6.105999947E0
4.688400469E1,-7.648399830E0,4.661600113E0,1.864500046E1
4.691400000E1,-7.681200027E0,-3.974999785E-1,1.352299929E0
4.693400781E1,-3.242899895E0,-4.518799782E0,5.011000037E-1
4.696400000E1,-2.467299938E0,3.942999840E-1,3.199299812E0
4.698400312E1,-5.203999877E-1,1.308399916E0,4.443900108E0
4.701400000E1,3.971699953E0,-2.316400051E0,2.183199883E0
4.703400156E1,4.821199894E0,-2.262099981E0,-1.398499966E0
4.706400000E1,4.203000069E0,2.188999891E0,-4.090799809E0
4.708400000E1,3.701999903E0,1.519400001E0,-7.224000096E-1
4.710400156E1,2.699399948E0,6.976000071E-1,-4.160999954E-1
4.713400000E1,1.432299972E0,1.959899902E0,-1.806399941E0
4.715400000E1,1.110800028E0,2.859999985E-2,-3.529799938E0
4.717400000E1,5.288000107E-1,-9.832999706E-1,-4.119499683E0
4.719400000E1,1.124599934E0,-1.804699898E0,-3.294799805E0
4.721400000E1,1.559899926E0,-2.609200001E0,-3.195999861E0
4.723400156E1,2.166699886E0,-2.055500031E0,-7.364699841E0
4.726400000E1,4.986999989E0,-2.306299925E0,-6.838999748E0
4.728400000E1,5.794899940E0,-2.829200029E0,-3.628000021E0
4.730400156E1,5.105499744E0,-1.376199961E0,-3.760200024E0
4.733400000E1,2.427799940E0,-2.585899830E0,-7.583299637E0
4.735400000E1,1.180599928E0,-4.651799679E0,-4.730099678E0
4.737400156E1,2.109999955E-2,-6.284399986E0,-1.287599921E0
4.739400156E1,-7.860999703E-1,-7.251699924E0,1.887799978E0
